,index,Unnamed: 0,Q_name,button_pressed,choice_idxs,chosen_pos,chosen_state,chosen_state_f_1_outcome,chosen_state_f_2_outcome,f_1_reward,f_2_reward,incor_questions,internal_node_id,responses,reward_received,rt,s_1_f_1_outcome,s_1_f_1_prob,s_1_f_2_outcome,s_1_f_2_prob,s_2_f_1_outcome,s_2_f_1_prob,s_2_f_2_outcome,s_2_f_2_prob,safe_first,stimulus,subjectID,success,time_elapsed,trial_index,trial_num,trial_type,version,view_history,switching
0,46613,25,,,,2,2,0.0,0.0,1.0,0.0,,0.0-27.0,,0.0,905.995,1.0,0.6,0.0,0.6,0.0,0.4,0.0,0.4,True,,5ae64fb8c3c3ab00018f7e89,,654856,25,,evan-feature22,full_rf_a,,0
1,46614,26,,,,2,2,1.0,0.0,1.0,0.0,,0.0-28.0,,1.0,452.81,1.0,0.608053294,1.0,0.63424552,1.0,0.397152172,0.0,0.347069101,True,,5ae64fb8c3c3ab00018f7e89,,665071,26,,evan-feature22,full_rf_a,,0
2,46615,27,,,,1,1,1.0,0.0,1.0,0.0,,0.0-29.0,,1.0,605.855,1.0,0.642237155,0.0,0.648566321,0.0,0.389407674,1.0,0.285525717,True,,5ae64fb8c3c3ab00018f7e89,,675436,27,,evan-feature22,full_rf_a,,1
3,46616,28,,,,1,1,1.0,1.0,1.0,0.0,,0.0-30.0,,1.0,41.845,1.0,0.661086576,1.0,0.630492543,0.0,0.399058924,0.0,0.25,True,,5ae64fb8c3c3ab00018f7e89,,685240,28,,evan-feature22,full_rf_a,,0
4,46617,29,,,,2,2,0.0,0.0,0.0,-1.0,,0.0-31.0,,0.0,582.31,0.0,0.631324137,0.0,0.6269842929999999,0.0,0.38734784299999997,0.0,0.25,True,,5ae64fb8c3c3ab00018f7e89,,695585,29,,evan-feature22,full_rf_a,,1
5,46618,30,,,,2,2,0.0,0.0,0.0,-1.0,,0.0-32.0,,0.0,1190.89,1.0,0.6381991370000001,1.0,0.68987999,0.0,0.384107265,0.0,0.271332943,True,,5ae64fb8c3c3ab00018f7e89,,706536,30,,evan-feature22,full_rf_a,,0
6,46619,31,,,,2,2,1.0,0.0,1.0,0.0,,0.0-33.0,,1.0,734.67,0.0,0.66034901,1.0,0.742641349,1.0,0.360225629,0.0,0.25,True,,5ae64fb8c3c3ab00018f7e89,,717033,31,,evan-feature22,full_rf_a,,0
7,46620,32,,,,2,2,1.0,0.0,1.0,0.0,,0.0-34.0,,1.0,982.855,0.0,0.638612418,1.0,0.75,1.0,0.367273939,0.0,0.25,True,,5ae64fb8c3c3ab00018f7e89,,727779,32,,evan-feature22,full_rf_a,,0
8,46621,33,,,,1,1,1.0,1.0,0.0,-1.0,,0.0-35.0,,-1.0,336.215,1.0,0.624340629,1.0,0.75,0.0,0.425829545,0.0,0.25,True,,5ae64fb8c3c3ab00018f7e89,,737879,33,,evan-feature22,full_rf_a,,1
9,46622,34,,,,1,1,1.0,1.0,0.0,-1.0,,0.0-36.0,,-1.0,797.545,1.0,0.621999804,1.0,0.75,0.0,0.368609357,0.0,0.25,True,,5ae64fb8c3c3ab00018f7e89,,748440,34,,evan-feature22,full_rf_a,,0
10,46623,35,,,,2,2,0.0,0.0,1.0,0.0,,0.0-37.0,,0.0,494.615,1.0,0.62666403,1.0,0.75,0.0,0.311151498,0.0,0.25,True,,5ae64fb8c3c3ab00018f7e89,,758696,35,,evan-feature22,full_rf_a,,1
11,46624,36,,,,2,2,1.0,0.0,0.0,-1.0,,0.0-38.0,,0.0,1435.88,1.0,0.6819650009999999,1.0,0.75,1.0,0.310763048,0.0,0.25,True,,5ae64fb8c3c3ab00018f7e89,,769894,36,,evan-feature22,full_rf_a,,0
12,46625,37,,,,2,2,0.0,0.0,1.0,0.0,,0.0-39.0,,0.0,407.525,1.0,0.740626951,1.0,0.75,0.0,0.25,0.0,0.25,True,,5ae64fb8c3c3ab00018f7e89,,780063,37,,evan-feature22,full_rf_a,,0
13,46626,38,,,,1,1,0.0,1.0,1.0,0.0,,0.0-40.0,,0.0,33.43,0.0,0.739599242,1.0,0.742034978,1.0,0.25397114600000004,0.0,0.25,True,,5ae64fb8c3c3ab00018f7e89,,789857,38,,evan-feature22,full_rf_a,,1
14,46627,39,,,,2,2,0.0,0.0,1.0,0.0,,0.0-41.0,,0.0,53.495,1.0,0.732341315,1.0,0.72735643,0.0,0.25,0.0,0.25,True,,5ae64fb8c3c3ab00018f7e89,,799670,39,,evan-feature22,full_rf_a,,1
15,46628,40,,,,1,1,0.0,1.0,1.0,0.0,,0.0-42.0,,0.0,16.175,0.0,0.7062287770000001,1.0,0.75,0.0,0.29002151,0.0,0.288256649,True,,5ae64fb8c3c3ab00018f7e89,,809448,40,,evan-feature22,full_rf_a,,1
16,46629,41,,,,1,1,1.0,1.0,1.0,0.0,,0.0-43.0,,1.0,871.425,1.0,0.7086029209999999,1.0,0.75,0.0,0.274129113,0.0,0.262851608,True,,5ae64fb8c3c3ab00018f7e89,,820086,41,,evan-feature22,full_rf_a,,0
17,46630,42,,,,1,1,1.0,0.0,1.0,0.0,,0.0-44.0,,1.0,1411.855,1.0,0.669189651,0.0,0.727614338,0.0,0.298444036,0.0,0.296944518,True,,5ae64fb8c3c3ab00018f7e89,,831256,42,,evan-feature22,full_rf_a,,0
18,46631,43,,,,1,1,1.0,1.0,1.0,0.0,,0.0-45.0,,1.0,2537.46,1.0,0.6819912929999999,1.0,0.7179434290000001,0.0,0.265003961,1.0,0.28157921199999997,True,,5ae64fb8c3c3ab00018f7e89,,843559,43,,evan-feature22,full_rf_a,,0
19,46632,44,,,,1,1,0.0,0.0,0.0,-1.0,,0.0-46.0,,0.0,437.93,0.0,0.665275002,0.0,0.723065271,1.0,0.260414971,1.0,0.30973870000000003,True,,5ae64fb8c3c3ab00018f7e89,,853761,44,,evan-feature22,full_rf_a,,0
20,46633,45,,,,2,2,0.0,0.0,1.0,0.0,,0.0-47.0,,0.0,391.605,0.0,0.6660593260000001,1.0,0.728032907,0.0,0.30922817,0.0,0.338778608,True,,5ae64fb8c3c3ab00018f7e89,,863920,45,,evan-feature22,full_rf_a,,1
21,46634,46,,,,2,2,0.0,0.0,1.0,0.0,,0.0-48.0,,0.0,670.025,1.0,0.702068785,1.0,0.6528750879999999,0.0,0.287329608,0.0,0.35789613200000003,True,,5ae64fb8c3c3ab00018f7e89,,874350,46,,evan-feature22,full_rf_a,,0
22,46635,47,,,,2,2,0.0,0.0,1.0,0.0,,0.0-49.0,,0.0,628.06,1.0,0.651939787,0.0,0.636725589,0.0,0.284834488,0.0,0.358563756,True,,5ae64fb8c3c3ab00018f7e89,,884738,47,,evan-feature22,full_rf_a,,0
23,46636,48,,,,1,1,1.0,1.0,0.0,-1.0,,0.0-50.0,,-1.0,3344.395,1.0,0.67573929,1.0,0.612550049,0.0,0.37130387600000003,0.0,0.383542402,True,,5ae64fb8c3c3ab00018f7e89,,897844,48,,evan-feature22,full_rf_a,,1
24,46637,49,,,,2,2,0.0,1.0,0.0,-1.0,,0.0-51.0,,-1.0,864.705,1.0,0.620753801,1.0,0.60513644,0.0,0.385529434,1.0,0.340361743,True,,5ae64fb8c3c3ab00018f7e89,,908472,49,,evan-feature22,full_rf_a,,1
25,46638,50,,,,1,1,1.0,1.0,0.0,-1.0,,0.0-52.0,,-1.0,655.97,1.0,0.673564893,1.0,0.672437924,0.0,0.292955382,0.0,0.337633795,True,,5ae64fb8c3c3ab00018f7e89,,918890,50,,evan-feature22,full_rf_a,,1
26,46639,51,,,,2,2,0.0,0.0,1.0,0.0,,0.0-53.0,,0.0,352.325,0.0,0.6749427,0.0,0.724197502,0.0,0.32391132100000003,0.0,0.350995264,True,,5ae64fb8c3c3ab00018f7e89,,929005,51,,evan-feature22,full_rf_a,,1
27,46640,52,,,,1,1,1.0,1.0,1.0,0.0,,0.0-54.0,,1.0,545.86,1.0,0.6940159379999999,1.0,0.75,0.0,0.31710554399999996,0.0,0.413450341,True,,5ae64fb8c3c3ab00018f7e89,,939328,52,,evan-feature22,full_rf_a,,1
28,46641,53,,,,2,2,1.0,1.0,1.0,0.0,,0.0-55.0,,1.0,851.485,1.0,0.6916018270000001,1.0,0.69001187,1.0,0.261817804,1.0,0.40038635,True,,5ae64fb8c3c3ab00018f7e89,,949941,53,,evan-feature22,full_rf_a,,1
29,46642,54,,,,2,2,0.0,1.0,1.0,0.0,,0.0-56.0,,0.0,413.08,1.0,0.641061544,1.0,0.71337992,0.0,0.277296461,1.0,0.47372791700000005,True,,5ae64fb8c3c3ab00018f7e89,,960115,54,,evan-feature22,full_rf_a,,0
30,46643,55,,,,2,2,0.0,0.0,1.0,0.0,,0.0-57.0,,0.0,683.675,1.0,0.6082438520000001,0.0,0.708471106,0.0,0.28745137,0.0,0.564174476,True,,5ae64fb8c3c3ab00018f7e89,,970560,55,,evan-feature22,full_rf_a,,0
31,46644,56,,,,1,1,0.0,0.0,1.0,0.0,,0.0-58.0,,0.0,175.69,0.0,0.6051112120000001,0.0,0.7118147229999999,0.0,0.272390611,1.0,0.5595149939999999,True,,5ae64fb8c3c3ab00018f7e89,,980498,56,,evan-feature22,full_rf_a,,1
32,46645,57,,,,1,1,1.0,1.0,1.0,0.0,,0.0-59.0,,1.0,241.23,1.0,0.582420852,1.0,0.635867583,0.0,0.31089574,0.0,0.5227206520000001,True,,5ae64fb8c3c3ab00018f7e89,,990503,57,,evan-feature22,full_rf_a,,0
33,46646,58,,,,1,1,1.0,0.0,0.0,-1.0,,0.0-60.0,,0.0,457.4,1.0,0.623195575,0.0,0.655026044,0.0,0.25,1.0,0.560387538,True,,5ae64fb8c3c3ab00018f7e89,,1000722,58,,evan-feature22,full_rf_a,,0
34,46647,59,,,,1,1,1.0,1.0,1.0,0.0,,0.0-61.0,,1.0,486.905,1.0,0.601889598,1.0,0.678198724,0.0,0.25,1.0,0.559922936,True,,5ae64fb8c3c3ab00018f7e89,,1010971,59,,evan-feature22,full_rf_a,,0
35,46648,60,,,,2,2,0.0,1.0,1.0,0.0,,0.0-62.0,,0.0,1489.405,0.0,0.601259914,1.0,0.704681482,0.0,0.33908969299999997,1.0,0.505003715,True,,5ae64fb8c3c3ab00018f7e89,,1022222,60,,evan-feature22,full_rf_a,,1
36,46649,61,,,,1,1,0.0,1.0,1.0,0.0,,0.0-63.0,,0.0,842.825,0.0,0.59645454,1.0,0.710437172,0.0,0.327441879,0.0,0.391749613,True,,5ae64fb8c3c3ab00018f7e89,,1032827,61,,evan-feature22,full_rf_a,,1
37,46650,62,,,,2,2,0.0,0.0,1.0,0.0,,0.0-64.0,,0.0,691.655,0.0,0.529473,1.0,0.636758527,0.0,0.301338063,0.0,0.365661481,True,,5ae64fb8c3c3ab00018f7e89,,1043279,62,,evan-feature22,full_rf_a,,1
38,46651,63,,,,1,1,1.0,0.0,0.0,-1.0,,0.0-65.0,,0.0,1668.26,1.0,0.541657162,0.0,0.634541962,0.0,0.343535366,1.0,0.371763742,True,,5ae64fb8c3c3ab00018f7e89,,1054709,63,,evan-feature22,full_rf_a,,1
39,46652,64,,,,2,2,0.0,1.0,1.0,0.0,,0.0-66.0,,0.0,519.945,1.0,0.5707533260000001,1.0,0.589121171,0.0,0.326428396,1.0,0.43961622899999997,True,,5ae64fb8c3c3ab00018f7e89,,1064991,64,,evan-feature22,full_rf_a,,1
40,46653,65,,,,2,2,0.0,1.0,1.0,0.0,,0.0-67.0,,0.0,617.27,1.0,0.5707533260000001,0.0,0.589121171,0.0,0.326428396,1.0,0.43961622899999997,True,,5ae64fb8c3c3ab00018f7e89,,1075374,65,,evan-feature22,full_rf_a,,0
41,46654,66,,,,1,1,0.0,1.0,1.0,0.0,,0.0-68.0,,0.0,435.145,0.0,0.506271295,1.0,0.641775594,0.0,0.37149690700000004,0.0,0.404330166,True,,5ae64fb8c3c3ab00018f7e89,,1085570,66,,evan-feature22,full_rf_a,,1
42,46655,67,,,,1,1,1.0,1.0,0.0,-1.0,,0.0-69.0,,-1.0,250.0,1.0,0.455642565,1.0,0.623605825,1.0,0.358753011,0.0,0.346174041,True,,5ae64fb8c3c3ab00018f7e89,,1095601,67,,evan-feature22,full_rf_a,,0
43,46656,68,,,,1,1,1.0,1.0,0.0,-1.0,,0.0-70.0,,-1.0,397.39,1.0,0.483677308,1.0,0.5904681070000001,1.0,0.402218411,1.0,0.35344697,True,,5ae64fb8c3c3ab00018f7e89,,1105761,68,,evan-feature22,full_rf_a,,0
44,46657,69,,,,1,1,1.0,0.0,0.0,-1.0,,0.0-71.0,,0.0,668.7,1.0,0.394210977,0.0,0.558925494,0.0,0.540052017,0.0,0.35182128700000004,True,,5ae64fb8c3c3ab00018f7e89,,1116191,69,,evan-feature22,full_rf_a,,0
45,46658,70,,,,1,1,0.0,1.0,1.0,0.0,,0.0-72.0,,0.0,651.6,0.0,0.382300414,1.0,0.577670603,0.0,0.607608448,1.0,0.378261578,True,,5ae64fb8c3c3ab00018f7e89,,1126615,70,,evan-feature22,full_rf_a,,0
46,46659,71,,,,SLOW,SLOW,,,1.0,0.0,,0.0-73.0,,-3.0,,0.0,0.357596762,1.0,0.5929076529999999,0.0,0.6579790010000001,0.0,0.401326777,True,,5ae64fb8c3c3ab00018f7e89,,1132420,71,,evan-feature22,full_rf_a,,1
47,46660,72,,,,1,1,0.0,0.0,1.0,0.0,,0.0-74.0,,0.0,1433.955,0.0,0.362033495,0.0,0.582308608,1.0,0.649195052,1.0,0.355158505,True,,5ae64fb8c3c3ab00018f7e89,,1143617,72,,evan-feature22,full_rf_a,,1
48,46661,73,,,,2,2,1.0,0.0,1.0,0.0,,0.0-75.0,,1.0,454.31,0.0,0.369620635,1.0,0.669100864,1.0,0.706059111,0.0,0.362516241,True,,5ae64fb8c3c3ab00018f7e89,,1153831,73,,evan-feature22,full_rf_a,,1
49,46662,74,,,,2,2,1.0,1.0,1.0,0.0,,0.0-76.0,,1.0,1190.02,0.0,0.41477751399999996,0.0,0.7284416779999999,1.0,0.7182656940000001,1.0,0.36228040899999997,True,,5ae64fb8c3c3ab00018f7e89,,1164784,74,,evan-feature22,full_rf_a,,0
50,46663,75,,,,1,1,1.0,0.0,0.0,-1.0,,0.0-77.0,,0.0,2611.315,1.0,0.37675460299999997,0.0,0.703250285,1.0,0.75,1.0,0.461979164,True,,5ae64fb8c3c3ab00018f7e89,,1177158,75,,evan-feature22,full_rf_a,,1
51,46664,76,,,,1,1,0.0,1.0,0.0,-1.0,,0.0-78.0,,-1.0,547.71,0.0,0.398716075,1.0,0.6723864890000001,1.0,0.674153818,1.0,0.519029516,True,,5ae64fb8c3c3ab00018f7e89,,1187467,76,,evan-feature22,full_rf_a,,0
52,46665,77,,,,2,2,1.0,0.0,1.0,0.0,,0.0-79.0,,1.0,1216.595,0.0,0.34677856700000004,1.0,0.69057175,1.0,0.6822438540000001,0.0,0.477292237,True,,5ae64fb8c3c3ab00018f7e89,,1198446,77,,evan-feature22,full_rf_a,,1
53,46666,78,,,,1,1,0.0,1.0,0.0,-1.0,,0.0-80.0,,-1.0,1395.88,0.0,0.28580469199999997,1.0,0.68408818,1.0,0.684207565,0.0,0.49780448299999996,True,,5ae64fb8c3c3ab00018f7e89,,1209604,78,,evan-feature22,full_rf_a,,1
54,46668,80,,,,1,1,1.0,0.0,1.0,0.0,,0.0-82.0,,1.0,867.66,1.0,0.25,0.0,0.7405808970000001,1.0,0.679614108,1.0,0.436436964,True,,5ae64fb8c3c3ab00018f7e89,,1222991,80,,evan-feature22,full_rf_a,,0
55,46669,81,,,,2,2,0.0,0.0,0.0,-1.0,,0.0-83.0,,0.0,13.31,0.0,0.29890393,1.0,0.730505706,0.0,0.7328203320000001,0.0,0.439256938,True,,5ae64fb8c3c3ab00018f7e89,,1232766,81,,evan-feature22,full_rf_a,,1
56,46670,82,,,,1,1,0.0,1.0,1.0,0.0,,0.0-84.0,,0.0,370.265,0.0,0.326762398,1.0,0.7148059609999999,1.0,0.75,1.0,0.44389608799999997,True,,5ae64fb8c3c3ab00018f7e89,,1242897,82,,evan-feature22,full_rf_a,,1
57,46671,83,,,,2,2,0.0,0.0,1.0,0.0,,0.0-85.0,,0.0,423.88,1.0,0.295168515,1.0,0.739760854,0.0,0.719947008,0.0,0.35277284600000003,True,,5ae64fb8c3c3ab00018f7e89,,1253082,83,,evan-feature22,full_rf_a,,1
58,46672,84,,,,1,1,0.0,1.0,1.0,0.0,,0.0-86.0,,0.0,413.375,0.0,0.25,1.0,0.70781482,0.0,0.75,1.0,0.286095925,True,,5ae64fb8c3c3ab00018f7e89,,1263259,84,,evan-feature22,full_rf_a,,1
59,46673,85,,,,1,1,0.0,0.0,0.0,-1.0,,0.0-87.0,,0.0,89.52,0.0,0.25638190899999996,0.0,0.704088163,0.0,0.75,0.0,0.26872601399999996,True,,5ae64fb8c3c3ab00018f7e89,,1273111,85,,evan-feature22,full_rf_a,,0
60,46674,86,,,,1,1,0.0,1.0,0.0,-1.0,,0.0-88.0,,-1.0,1006.74,0.0,0.271581126,1.0,0.669760107,0.0,0.733896663,0.0,0.273244572,True,,5ae64fb8c3c3ab00018f7e89,,1283879,86,,evan-feature22,full_rf_a,,0
61,46675,87,,,,1,1,0.0,0.0,0.0,-1.0,,0.0-89.0,,0.0,366.39,0.0,0.257144401,0.0,0.600575706,1.0,0.74488122,0.0,0.25,True,,5ae64fb8c3c3ab00018f7e89,,1294006,87,,evan-feature22,full_rf_a,,0
62,46676,88,,,,1,1,1.0,1.0,1.0,0.0,,0.0-90.0,,1.0,3524.61,1.0,0.25,1.0,0.616870026,1.0,0.723610234,0.0,0.25,True,,5ae64fb8c3c3ab00018f7e89,,1307292,88,,evan-feature22,full_rf_a,,0
63,46677,89,,,,1,1,1.0,0.0,0.0,-1.0,,0.0-91.0,,0.0,1557.55,1.0,0.25,0.0,0.583540187,0.0,0.7041042559999999,0.0,0.285961995,True,,5ae64fb8c3c3ab00018f7e89,,1318608,89,,evan-feature22,full_rf_a,,0
64,46678,90,,,,1,1,1.0,0.0,1.0,0.0,,0.0-92.0,,1.0,585.085,1.0,0.27254536,0.0,0.53875765,0.0,0.693783448,0.0,0.284961652,True,,5ae64fb8c3c3ab00018f7e89,,1328953,90,,evan-feature22,full_rf_a,,0
65,46679,91,,,,2,2,1.0,1.0,0.0,-1.0,,0.0-93.0,,-1.0,163.89,0.0,0.25,0.0,0.548431252,1.0,0.734221895,1.0,0.279445214,True,,5ae64fb8c3c3ab00018f7e89,,1338879,91,,evan-feature22,full_rf_a,,1
66,46680,92,,,,1,1,0.0,0.0,1.0,0.0,,0.0-94.0,,0.0,434.005,0.0,0.258640684,0.0,0.545878066,1.0,0.725245965,1.0,0.31487537,True,,5ae64fb8c3c3ab00018f7e89,,1349080,92,,evan-feature22,full_rf_a,,1
67,46681,93,,,,1,1,0.0,1.0,1.0,0.0,,0.0-95.0,,0.0,8.740000005,0.0,0.251103711,1.0,0.5776290629999999,0.0,0.696320133,0.0,0.317831047,True,,5ae64fb8c3c3ab00018f7e89,,1358850,93,,evan-feature22,full_rf_a,,0
68,46682,94,,,,2,2,1.0,0.0,1.0,0.0,,0.0-96.0,,1.0,369.1,1.0,0.276630292,0.0,0.617329858,1.0,0.73838088,0.0,0.261471582,True,,5ae64fb8c3c3ab00018f7e89,,1368986,94,,evan-feature22,full_rf_a,,1
69,46683,95,,,,2,2,0.0,0.0,0.0,-1.0,,0.0-97.0,,0.0,805.36,1.0,0.297716424,1.0,0.618863717,0.0,0.7402358259999999,0.0,0.262600834,True,,5ae64fb8c3c3ab00018f7e89,,1379553,95,,evan-feature22,full_rf_a,,0
70,46684,96,,,,1,1,0.0,1.0,1.0,0.0,,0.0-98.0,,0.0,418.985,0.0,0.290935512,1.0,0.695370945,1.0,0.706570507,1.0,0.280030553,True,,5ae64fb8c3c3ab00018f7e89,,1389733,96,,evan-feature22,full_rf_a,,1
71,46685,97,,,,2,2,0.0,1.0,1.0,0.0,,0.0-99.0,,0.0,404.37,0.0,0.25,1.0,0.6465277079999999,0.0,0.67766682,1.0,0.25,True,,5ae64fb8c3c3ab00018f7e89,,1399901,97,,evan-feature22,full_rf_a,,1
72,46686,98,,,,1,1,0.0,1.0,1.0,0.0,,0.0-100.0,,0.0,742.495,0.0,0.26463816,1.0,0.636100213,1.0,0.646048507,0.0,0.265607101,True,,5ae64fb8c3c3ab00018f7e89,,1410407,98,,evan-feature22,full_rf_a,,1
73,46687,99,,,,1,1,0.0,0.0,1.0,0.0,,0.0-101.0,,0.0,662.51,0.0,0.314340707,0.0,0.667795927,1.0,0.613630805,0.0,0.25,True,,5ae64fb8c3c3ab00018f7e89,,1420830,99,,evan-feature22,full_rf_a,,0
74,46688,100,,,,2,2,1.0,1.0,1.0,0.0,,0.0-102.0,,1.0,484.2,1.0,0.28685784,1.0,0.6622549529999999,1.0,0.652154117,1.0,0.25,True,,5ae64fb8c3c3ab00018f7e89,,1431077,100,,evan-feature22,full_rf_a,,1
75,46689,101,,,,1,1,0.0,1.0,0.0,-1.0,,0.0-103.0,,-1.0,437.43,0.0,0.304106554,1.0,0.631289538,0.0,0.707041942,0.0,0.29314237,True,,5ae64fb8c3c3ab00018f7e89,,1441275,101,,evan-feature22,full_rf_a,,1
76,46690,102,,,,2,2,0.0,0.0,0.0,-1.0,,0.0-104.0,,0.0,19.43,0.0,0.304806932,0.0,0.571167718,0.0,0.680472346,0.0,0.25,True,,5ae64fb8c3c3ab00018f7e89,,1451055,102,,evan-feature22,full_rf_a,,1
77,46691,103,,,,1,1,1.0,0.0,0.0,-1.0,,0.0-105.0,,0.0,491.845,1.0,0.37919861,0.0,0.5724849710000001,1.0,0.705638003,0.0,0.30179300600000003,True,,5ae64fb8c3c3ab00018f7e89,,1461306,103,,evan-feature22,full_rf_a,,1
78,46692,104,,,,2,2,1.0,0.0,0.0,-1.0,,0.0-106.0,,0.0,616.86,1.0,0.464277969,1.0,0.554034373,1.0,0.7372627340000001,0.0,0.264699741,True,,5ae64fb8c3c3ab00018f7e89,,1471684,104,,evan-feature22,full_rf_a,,1
79,46693,105,,,,1,1,0.0,0.0,1.0,0.0,,0.0-107.0,,0.0,586.125,0.0,0.465104323,0.0,0.530793115,1.0,0.75,0.0,0.31683071,True,,5ae64fb8c3c3ab00018f7e89,,1482032,105,,evan-feature22,full_rf_a,,1
80,46694,106,,,,1,1,0.0,0.0,0.0,-1.0,,0.0-108.0,,0.0,891.285,0.0,0.465104323,0.0,0.530793115,0.0,0.75,0.0,0.31683071,True,,5ae64fb8c3c3ab00018f7e89,,1492685,106,,evan-feature22,full_rf_a,,0
81,46695,107,,,,2,2,1.0,0.0,0.0,-1.0,,0.0-109.0,,0.0,462.675,0.0,0.46833986,1.0,0.570249239,1.0,0.7244472590000001,0.0,0.364114163,True,,5ae64fb8c3c3ab00018f7e89,,1502910,107,,evan-feature22,full_rf_a,,1
82,46696,108,,,,1,1,1.0,1.0,0.0,-1.0,,0.0-110.0,,-1.0,474.625,1.0,0.445444024,1.0,0.649673355,1.0,0.6845441290000001,0.0,0.300660449,True,,5ae64fb8c3c3ab00018f7e89,,1513144,108,,evan-feature22,full_rf_a,,1
83,46697,109,,,,1,1,0.0,1.0,0.0,-1.0,,0.0-111.0,,-1.0,66.615,0.0,0.39909721299999995,1.0,0.6715179509999999,1.0,0.742310028,1.0,0.35496088299999995,True,,5ae64fb8c3c3ab00018f7e89,,1522972,109,,evan-feature22,full_rf_a,,0
84,46698,110,,,,2,2,1.0,1.0,0.0,-1.0,,0.0-112.0,,-1.0,594.62,0.0,0.37956104799999996,1.0,0.694725302,1.0,0.7181651309999999,1.0,0.38726906299999997,True,,5ae64fb8c3c3ab00018f7e89,,1533330,110,,evan-feature22,full_rf_a,,1
85,46699,111,,,,2,2,1.0,1.0,0.0,-1.0,,0.0-113.0,,-1.0,686.47,1.0,0.404995034,1.0,0.724375412,1.0,0.6910946859999999,1.0,0.387187347,True,,5ae64fb8c3c3ab00018f7e89,,1543779,111,,evan-feature22,full_rf_a,,0
86,46700,112,,,,1,1,0.0,1.0,0.0,-1.0,,0.0-114.0,,-1.0,128.86,0.0,0.461740803,1.0,0.75,0.0,0.75,0.0,0.34872038200000005,True,,5ae64fb8c3c3ab00018f7e89,,1553668,112,,evan-feature22,full_rf_a,,1
87,46701,113,,,,2,2,0.0,0.0,1.0,0.0,,0.0-115.0,,0.0,3150.755,1.0,0.43821380600000004,1.0,0.738833273,0.0,0.728286963,0.0,0.399538128,True,,5ae64fb8c3c3ab00018f7e89,,1566583,113,,evan-feature22,full_rf_a,,1
88,46702,114,,,,2,2,1.0,1.0,0.0,-1.0,,0.0-116.0,,-1.0,406.04,1.0,0.41709882,1.0,0.736666736,1.0,0.75,1.0,0.389095584,True,,5ae64fb8c3c3ab00018f7e89,,1576750,114,,evan-feature22,full_rf_a,,0
89,46703,115,,,,1,1,0.0,1.0,0.0,-1.0,,0.0-117.0,,-1.0,943.745,0.0,0.39749009799999996,1.0,0.744320029,1.0,0.75,1.0,0.363848678,True,,5ae64fb8c3c3ab00018f7e89,,1587455,115,,evan-feature22,full_rf_a,,1
90,46704,116,,,,2,2,1.0,0.0,1.0,0.0,,0.0-118.0,,1.0,2115.48,1.0,0.392653706,1.0,0.75,1.0,0.75,0.0,0.384386976,True,,5ae64fb8c3c3ab00018f7e89,,1599344,116,,evan-feature22,full_rf_a,,1
91,46705,117,,,,2,2,1.0,1.0,1.0,0.0,,0.0-119.0,,1.0,829.98,0.0,0.31190902600000003,1.0,0.75,1.0,0.732413819,1.0,0.413082932,True,,5ae64fb8c3c3ab00018f7e89,,1609942,117,,evan-feature22,full_rf_a,,0
92,46706,118,,,,1,1,0.0,0.0,0.0,-1.0,,0.0-120.0,,0.0,1655.74,0.0,0.366917648,0.0,0.740073855,0.0,0.75,0.0,0.352861979,True,,5ae64fb8c3c3ab00018f7e89,,1621358,118,,evan-feature22,full_rf_a,,1
93,46707,119,,,,2,2,0.0,0.0,0.0,-1.0,,0.0-121.0,,0.0,1792.945,0.0,0.3645172,0.0,0.721770713,0.0,0.75,0.0,0.404074511,True,,5ae64fb8c3c3ab00018f7e89,,1632922,119,,evan-feature22,full_rf_a,,1
94,46708,120,,,,1,1,1.0,1.0,0.0,-1.0,,0.0-122.0,,-1.0,1488.335,1.0,0.35205600299999995,1.0,0.68983859,1.0,0.739735447,0.0,0.366895945,True,,5ae64fb8c3c3ab00018f7e89,,1644172,120,,evan-feature22,full_rf_a,,1
95,46709,121,,,,2,2,1.0,1.0,0.0,-1.0,,0.0-123.0,,-1.0,1448.285,0.0,0.40998722600000004,1.0,0.720859127,1.0,0.673854955,1.0,0.368528541,True,,5ae64fb8c3c3ab00018f7e89,,1655384,121,,evan-feature22,full_rf_a,,1
96,46710,122,,,,1,1,1.0,1.0,1.0,0.0,,0.0-124.0,,1.0,1892.805,1.0,0.353625316,1.0,0.75,1.0,0.695605473,0.0,0.38303674200000004,True,,5ae64fb8c3c3ab00018f7e89,,1667039,122,,evan-feature22,full_rf_a,,1
97,46711,123,,,,1,1,1.0,0.0,0.0,-1.0,,0.0-125.0,,0.0,1576.595,1.0,0.359216989,0.0,0.75,0.0,0.6987915090000001,0.0,0.35169046200000004,True,,5ae64fb8c3c3ab00018f7e89,,1678376,123,,evan-feature22,full_rf_a,,0
98,46712,124,,,,2,2,1.0,1.0,1.0,0.0,,0.0-126.0,,1.0,599.345,0.0,0.35834496899999996,1.0,0.75,1.0,0.707067742,1.0,0.416763636,True,,5ae64fb8c3c3ab00018f7e89,,1688737,124,,evan-feature22,full_rf_a,,1
99,46713,125,,,,2,2,1.0,0.0,1.0,0.0,,0.0-127.0,,1.0,1306.96,0.0,0.38741613799999997,0.0,0.7177369570000001,1.0,0.734902455,0.0,0.49438664299999996,True,,5ae64fb8c3c3ab00018f7e89,,1699806,125,,evan-feature22,full_rf_a,,0
100,46714,126,,,,1,1,1.0,0.0,0.0,-1.0,,0.0-128.0,,0.0,606.0,1.0,0.405255252,0.0,0.7300466640000001,1.0,0.7027748070000001,1.0,0.504359668,True,,5ae64fb8c3c3ab00018f7e89,,1710173,126,,evan-feature22,full_rf_a,,1
101,46715,127,,,,1,1,0.0,1.0,0.0,-1.0,,0.0-129.0,,-1.0,476.08,0.0,0.40697073,1.0,0.7260142190000001,1.0,0.724461982,0.0,0.522779179,True,,5ae64fb8c3c3ab00018f7e89,,1720409,127,,evan-feature22,full_rf_a,,0
102,46716,128,,,,1,1,1.0,0.0,0.0,-1.0,,0.0-130.0,,0.0,1578.83,1.0,0.43906215299999996,0.0,0.7252802340000001,1.0,0.719079934,0.0,0.5712990579999999,True,,5ae64fb8c3c3ab00018f7e89,,1731745,128,,evan-feature22,full_rf_a,,0
103,46717,129,,,,2,2,1.0,1.0,0.0,-1.0,,0.0-131.0,,-1.0,1443.505,0.0,0.4076705,1.0,0.73280499,1.0,0.681313127,1.0,0.523891346,True,,5ae64fb8c3c3ab00018f7e89,,1742950,129,,evan-feature22,full_rf_a,,1
104,46718,130,,,,1,1,1.0,1.0,0.0,-1.0,,0.0-132.0,,-1.0,477.625,1.0,0.399102911,1.0,0.730498344,1.0,0.661080239,0.0,0.46742603,True,,5ae64fb8c3c3ab00018f7e89,,1753189,130,,evan-feature22,full_rf_a,,1
105,46719,131,,,,2,2,1.0,0.0,1.0,0.0,,0.0-133.0,,1.0,514.755,0.0,0.356477282,1.0,0.712296395,1.0,0.641812684,0.0,0.44868414,True,,5ae64fb8c3c3ab00018f7e89,,1763465,131,,evan-feature22,full_rf_a,,1
106,46720,132,,,,2,2,0.0,0.0,0.0,-1.0,,0.0-134.0,,0.0,1069.695,0.0,0.462760722,1.0,0.692349322,0.0,0.700947931,0.0,0.394680266,True,,5ae64fb8c3c3ab00018f7e89,,1774296,132,,evan-feature22,full_rf_a,,0
107,46721,133,,,,1,1,1.0,0.0,0.0,-1.0,,0.0-135.0,,0.0,1006.945,1.0,0.422306413,0.0,0.718375916,1.0,0.706340917,0.0,0.367787185,True,,5ae64fb8c3c3ab00018f7e89,,1785064,133,,evan-feature22,full_rf_a,,1
108,46723,135,,,,2,2,0.0,0.0,0.0,-1.0,,0.0-137.0,,0.0,2994.56,1.0,0.4582233,1.0,0.643834117,0.0,0.75,0.0,0.39615823299999997,True,,5ae64fb8c3c3ab00018f7e89,,1800192,135,,evan-feature22,full_rf_a,,1
109,46724,136,,,,2,2,0.0,0.0,0.0,-1.0,,0.0-138.0,,0.0,8.714999996,0.0,0.43813437899999996,1.0,0.651283804,0.0,0.729674191,0.0,0.37711048,True,,5ae64fb8c3c3ab00018f7e89,,1809962,136,,evan-feature22,full_rf_a,,0
110,46725,137,,,,1,1,1.0,1.0,0.0,-1.0,,0.0-139.0,,-1.0,478.96,1.0,0.471199094,1.0,0.6470010979999999,1.0,0.715008097,1.0,0.410656191,True,,5ae64fb8c3c3ab00018f7e89,,1820202,137,,evan-feature22,full_rf_a,,1
111,46726,138,,,,2,2,0.0,0.0,1.0,0.0,,0.0-140.0,,0.0,605.46,0.0,0.42486406,1.0,0.629771829,0.0,0.6550939960000001,0.0,0.459093873,True,,5ae64fb8c3c3ab00018f7e89,,1830576,138,,evan-feature22,full_rf_a,,1
112,46727,139,,,,2,2,1.0,1.0,1.0,0.0,,0.0-141.0,,1.0,665.96,1.0,0.4803197,1.0,0.645842715,1.0,0.6421749920000001,1.0,0.443092151,True,,5ae64fb8c3c3ab00018f7e89,,1841002,139,,evan-feature22,full_rf_a,,0
113,46728,140,,,,2,2,0.0,0.0,1.0,0.0,,0.0-142.0,,0.0,552.575,0.0,0.521848997,1.0,0.735801074,0.0,0.6691348460000001,0.0,0.45259351600000003,True,,5ae64fb8c3c3ab00018f7e89,,1851316,140,,evan-feature22,full_rf_a,,0
114,46729,141,,,,2,2,1.0,0.0,0.0,-1.0,,0.0-143.0,,0.0,1232.475,0.0,0.49565621299999996,1.0,0.742400847,1.0,0.661512553,0.0,0.483110831,True,,5ae64fb8c3c3ab00018f7e89,,1862311,141,,evan-feature22,full_rf_a,,0
115,46730,142,,,,2,2,1.0,1.0,1.0,0.0,,0.0-144.0,,1.0,790.935,0.0,0.521564361,1.0,0.731078632,1.0,0.6774886809999999,1.0,0.483263956,True,,5ae64fb8c3c3ab00018f7e89,,1872865,142,,evan-feature22,full_rf_a,,0
116,46731,143,,,,2,2,1.0,1.0,1.0,0.0,,0.0-145.0,,1.0,609.845,1.0,0.558893102,1.0,0.719810023,1.0,0.67461031,1.0,0.499349834,True,,5ae64fb8c3c3ab00018f7e89,,1883238,143,,evan-feature22,full_rf_a,,0
117,46732,144,,,,2,2,1.0,1.0,0.0,-1.0,,0.0-146.0,,-1.0,1419.79,1.0,0.611031046,1.0,0.75,1.0,0.688072995,1.0,0.5321422729999999,True,,5ae64fb8c3c3ab00018f7e89,,1894421,144,,evan-feature22,full_rf_a,,0
118,46733,145,,,,2,2,0.0,1.0,1.0,0.0,,0.0-147.0,,0.0,560.38,0.0,0.633223941,1.0,0.713567728,0.0,0.75,1.0,0.48185314700000004,True,,5ae64fb8c3c3ab00018f7e89,,1904742,145,,evan-feature22,full_rf_a,,0
119,46734,146,,,,1,1,1.0,1.0,1.0,0.0,,0.0-148.0,,1.0,3154.795,1.0,0.664001694,1.0,0.705509768,0.0,0.75,1.0,0.500211065,True,,5ae64fb8c3c3ab00018f7e89,,1917659,146,,evan-feature22,full_rf_a,,1
120,46735,147,,,,2,2,1.0,1.0,0.0,-1.0,,0.0-149.0,,-1.0,644.985,0.0,0.664001694,0.0,0.705509768,1.0,0.75,1.0,0.500211065,True,,5ae64fb8c3c3ab00018f7e89,,1928075,147,,evan-feature22,full_rf_a,,1
121,46736,148,,,,2,2,0.0,1.0,0.0,-1.0,,0.0-150.0,,-1.0,1249.945,0.0,0.696508041,1.0,0.71066027,0.0,0.717028709,1.0,0.49792991,True,,5ae64fb8c3c3ab00018f7e89,,1939091,148,,evan-feature22,full_rf_a,,0
122,46737,149,,,,1,1,1.0,1.0,1.0,0.0,,0.0-151.0,,1.0,637.5,1.0,0.699883272,1.0,0.75,1.0,0.713543895,0.0,0.496962643,True,,5ae64fb8c3c3ab00018f7e89,,1949494,149,,evan-feature22,full_rf_a,,1
123,46738,150,,,,1,1,0.0,1.0,0.0,-1.0,,0.0-152.0,,-1.0,814.13,0.0,0.741163419,1.0,0.75,0.0,0.64691024,1.0,0.513858197,True,,5ae64fb8c3c3ab00018f7e89,,1960069,150,,evan-feature22,full_rf_a,,0
124,46739,151,,,,1,1,0.0,1.0,1.0,0.0,,0.0-153.0,,0.0,46.38,0.0,0.75,1.0,0.70816558,0.0,0.594499079,0.0,0.48502124,True,,5ae64fb8c3c3ab00018f7e89,,1969877,151,,evan-feature22,full_rf_a,,0
125,46740,152,,,,2,2,1.0,0.0,0.0,-1.0,,0.0-154.0,,0.0,41.95999999,0.0,0.75,0.0,0.721848901,1.0,0.62197249,0.0,0.48263586399999997,True,,5ae64fb8c3c3ab00018f7e89,,1979678,152,,evan-feature22,full_rf_a,,1
126,46741,153,,,,1,1,0.0,0.0,1.0,0.0,,0.0-155.0,,0.0,1.609999999,0.0,0.75,0.0,0.74813071,0.0,0.584357161,0.0,0.411477782,True,,5ae64fb8c3c3ab00018f7e89,,1989441,153,,evan-feature22,full_rf_a,,1
127,46742,154,,,,2,2,1.0,1.0,0.0,-1.0,,0.0-156.0,,-1.0,65.335,1.0,0.75,1.0,0.75,1.0,0.52287236,1.0,0.488290656,True,,5ae64fb8c3c3ab00018f7e89,,1999267,154,,evan-feature22,full_rf_a,,1
128,46743,155,,,,2,2,1.0,1.0,0.0,-1.0,,0.0-157.0,,-1.0,178.27,0.0,0.75,1.0,0.75,1.0,0.544321581,1.0,0.53143059,True,,5ae64fb8c3c3ab00018f7e89,,2009206,155,,evan-feature22,full_rf_a,,0
129,46744,156,,,,2,2,0.0,1.0,0.0,-1.0,,0.0-158.0,,-1.0,67.835,1.0,0.726754564,1.0,0.75,0.0,0.5129306370000001,1.0,0.530592445,True,,5ae64fb8c3c3ab00018f7e89,,2019036,156,,evan-feature22,full_rf_a,,0
130,46745,157,,,,1,1,1.0,0.0,1.0,0.0,,0.0-159.0,,1.0,582.28,1.0,0.75,0.0,0.7392590729999999,0.0,0.479875835,1.0,0.547007051,True,,5ae64fb8c3c3ab00018f7e89,,2029380,157,,evan-feature22,full_rf_a,,1
131,46746,158,,,,2,2,1.0,1.0,1.0,0.0,,0.0-160.0,,1.0,430.91,1.0,0.75,1.0,0.7393376979999999,1.0,0.546045419,1.0,0.541267353,True,,5ae64fb8c3c3ab00018f7e89,,2039574,158,,evan-feature22,full_rf_a,,1
132,46747,159,,,,1,1,1.0,1.0,1.0,0.0,,0.0-161.0,,1.0,1165.71,1.0,0.75,1.0,0.75,0.0,0.485725895,1.0,0.527625395,True,,5ae64fb8c3c3ab00018f7e89,,2050502,159,,evan-feature22,full_rf_a,,1
133,46748,160,,,,1,1,1.0,0.0,0.0,-1.0,,0.0-162.0,,0.0,365.58,1.0,0.75,0.0,0.725087974,1.0,0.488603595,1.0,0.504019206,True,,5ae64fb8c3c3ab00018f7e89,,2060629,160,,evan-feature22,full_rf_a,,0
134,46749,161,,,,2,2,1.0,0.0,0.0,-1.0,,0.0-163.0,,0.0,738.69,1.0,0.745504295,1.0,0.75,1.0,0.452379914,0.0,0.50131194,True,,5ae64fb8c3c3ab00018f7e89,,2071128,161,,evan-feature22,full_rf_a,,1
135,46750,162,,,,1,1,1.0,1.0,0.0,-1.0,,0.0-164.0,,-1.0,244.685,1.0,0.728513874,1.0,0.75,0.0,0.44125567200000004,1.0,0.531454591,True,,5ae64fb8c3c3ab00018f7e89,,2081136,162,,evan-feature22,full_rf_a,,1
136,46751,163,,,,1,1,0.0,1.0,1.0,0.0,,0.0-165.0,,0.0,0.14499999800000002,0.0,0.73790804,1.0,0.75,1.0,0.413036656,1.0,0.524619035,True,,5ae64fb8c3c3ab00018f7e89,,2090899,163,,evan-feature22,full_rf_a,,0
137,46752,164,,,,2,2,0.0,1.0,0.0,-1.0,,0.0-166.0,,-1.0,613.725,1.0,0.7080961309999999,0.0,0.708666865,0.0,0.431915581,1.0,0.481819489,True,,5ae64fb8c3c3ab00018f7e89,,2101278,164,,evan-feature22,full_rf_a,,1
138,46753,165,,,,2,2,1.0,1.0,0.0,-1.0,,0.0-167.0,,-1.0,440.48,1.0,0.721378003,1.0,0.71605913,1.0,0.36642387,1.0,0.5036739929999999,True,,5ae64fb8c3c3ab00018f7e89,,2111482,165,,evan-feature22,full_rf_a,,0
139,46754,166,,,,1,1,1.0,1.0,0.0,-1.0,,0.0-168.0,,-1.0,741.785,1.0,0.7340618959999999,1.0,0.699323252,0.0,0.35298046299999997,0.0,0.511241692,True,,5ae64fb8c3c3ab00018f7e89,,2121984,166,,evan-feature22,full_rf_a,,1
140,46755,167,,,,2,2,1.0,1.0,1.0,0.0,,0.0-169.0,,1.0,600.625,1.0,0.75,1.0,0.70412698,1.0,0.380734814,1.0,0.529580116,True,,5ae64fb8c3c3ab00018f7e89,,2132351,167,,evan-feature22,full_rf_a,,1
141,46756,168,,,,1,1,1.0,1.0,0.0,-1.0,,0.0-170.0,,-1.0,18.4,1.0,0.7436654909999999,1.0,0.711182751,0.0,0.41125331,1.0,0.49554405,True,,5ae64fb8c3c3ab00018f7e89,,2142136,168,,evan-feature22,full_rf_a,,1
142,46757,169,,,,1,1,0.0,0.0,0.0,-1.0,,0.0-171.0,,0.0,42.91,0.0,0.731607915,0.0,0.651774583,1.0,0.35688023,1.0,0.45194491600000003,True,,5ae64fb8c3c3ab00018f7e89,,2151940,169,,evan-feature22,full_rf_a,,0
143,46758,170,,,,1,1,0.0,1.0,1.0,0.0,,0.0-172.0,,0.0,1012.055,0.0,0.75,1.0,0.75,0.0,0.283145374,1.0,0.528608005,True,,5ae64fb8c3c3ab00018f7e89,,2162714,170,,evan-feature22,full_rf_a,,0
144,46759,171,,,,2,2,1.0,1.0,1.0,0.0,,0.0-173.0,,1.0,476.285,1.0,0.7491416890000001,1.0,0.7423785959999999,1.0,0.29135870399999997,1.0,0.498888318,True,,5ae64fb8c3c3ab00018f7e89,,2172952,171,,evan-feature22,full_rf_a,,1
145,46760,172,,,,1,1,0.0,1.0,1.0,0.0,,0.0-174.0,,0.0,535.035,0.0,0.708569387,1.0,0.717682277,1.0,0.294421699,0.0,0.493838163,True,,5ae64fb8c3c3ab00018f7e89,,2183248,172,,evan-feature22,full_rf_a,,1
146,46761,173,,,,1,1,0.0,1.0,0.0,-1.0,,0.0-175.0,,-1.0,436.865,0.0,0.75,1.0,0.7383382159999999,1.0,0.356098707,0.0,0.442533405,True,,5ae64fb8c3c3ab00018f7e89,,2193446,173,,evan-feature22,full_rf_a,,0
147,46762,174,,,,1,1,1.0,0.0,0.0,-1.0,,0.0-176.0,,0.0,1102.875,1.0,0.744527075,0.0,0.75,0.0,0.334127506,0.0,0.393165805,True,,5ae64fb8c3c3ab00018f7e89,,2204309,174,,evan-feature22,full_rf_a,,0
148,46763,175,,,,1,1,1.0,1.0,0.0,-1.0,,0.0-177.0,,-1.0,1175.91,1.0,0.75,1.0,0.75,1.0,0.33571021799999995,0.0,0.350393962,True,,5ae64fb8c3c3ab00018f7e89,,2215247,175,,evan-feature22,full_rf_a,,0
149,46764,176,,,,SLOW,SLOW,,,0.0,-1.0,,0.0-178.0,,-3.0,,1.0,0.75,1.0,0.75,0.0,0.313628297,0.0,0.36349657399999996,True,,5ae64fb8c3c3ab00018f7e89,,2221052,176,,evan-feature22,full_rf_a,,1
150,46765,177,,,,1,1,1.0,0.0,1.0,0.0,,0.0-179.0,,1.0,554.11,1.0,0.75,0.0,0.734284182,1.0,0.262667667,0.0,0.380199119,True,,5ae64fb8c3c3ab00018f7e89,,2231370,177,,evan-feature22,full_rf_a,,1
151,46766,178,,,,2,2,0.0,0.0,0.0,-1.0,,0.0-180.0,,0.0,398.215,1.0,0.75,1.0,0.75,0.0,0.25,0.0,0.394494013,True,,5ae64fb8c3c3ab00018f7e89,,2241530,178,,evan-feature22,full_rf_a,,1
152,46767,179,,,,1,1,0.0,1.0,1.0,0.0,,0.0-181.0,,0.0,777.23,0.0,0.722298145,1.0,0.7357822340000001,0.0,0.25,0.0,0.319142121,True,,5ae64fb8c3c3ab00018f7e89,,2252069,179,,evan-feature22,full_rf_a,,1
153,46768,180,,,,2,2,0.0,0.0,1.0,0.0,,0.0-182.0,,0.0,373.235,0.0,0.73149275,0.0,0.724276446,0.0,0.305856907,0.0,0.281315057,True,,5ae64fb8c3c3ab00018f7e89,,2262200,180,,evan-feature22,full_rf_a,,1
154,46769,181,,,,1,1,1.0,0.0,0.0,-1.0,,0.0-183.0,,0.0,462.46,1.0,0.7458732690000001,0.0,0.7336382459999999,0.0,0.272571964,1.0,0.266021999,True,,5ae64fb8c3c3ab00018f7e89,,2272424,181,,evan-feature22,full_rf_a,,1
155,46770,182,,,,2,2,0.0,1.0,0.0,-1.0,,0.0-184.0,,-1.0,327.29,1.0,0.705579037,0.0,0.720778292,0.0,0.320238144,1.0,0.30971744,True,,5ae64fb8c3c3ab00018f7e89,,2282512,182,,evan-feature22,full_rf_a,,1
156,46771,183,,,,2,2,0.0,0.0,0.0,-1.0,,0.0-185.0,,0.0,669.405,1.0,0.700425648,1.0,0.7198784009999999,0.0,0.272590393,0.0,0.304182931,True,,5ae64fb8c3c3ab00018f7e89,,2292943,183,,evan-feature22,full_rf_a,,0
157,46772,184,,,,2,2,0.0,1.0,0.0,-1.0,,0.0-186.0,,-1.0,660.19,0.0,0.735590785,1.0,0.722714973,0.0,0.25,1.0,0.323421091,True,,5ae64fb8c3c3ab00018f7e89,,2303365,184,,evan-feature22,full_rf_a,,0
158,46773,185,,,,2,2,0.0,1.0,0.0,-1.0,,0.0-187.0,,-1.0,882.715,1.0,0.724807662,1.0,0.63146213,0.0,0.36836492600000004,1.0,0.34592153299999995,True,,5ae64fb8c3c3ab00018f7e89,,2314008,185,,evan-feature22,full_rf_a,,0
159,46774,186,,,,1,1,1.0,1.0,0.0,-1.0,,0.0-188.0,,-1.0,632.32,1.0,0.7352796909999999,1.0,0.555111392,1.0,0.36003922,1.0,0.31433779999999995,True,,5ae64fb8c3c3ab00018f7e89,,2324404,186,,evan-feature22,full_rf_a,,1
160,46775,187,notice,,,,,,,,,,0.0-189.0,"{""Q0"":""nothing in perticular ""}",,66705.0,,,,,,,,,True,,5ae64fb8c3c3ab00018f7e89,,2391110,187,Q,survey-text,full_rf_a,,1
161,46776,188,track1,,[1],,,,,,,,0.0-190.0,"{""Q0"":""no""}",,6546.0,,,,,,,,,True,,5ae64fb8c3c3ab00018f7e89,,2397665,188,Q,evan-quiz,full_rf_a,,1
162,46777,189,track2,,[0],,,,,,,,0.0-191.0,"{""Q0"":""yes""}",,7922.0,,,,,,,,,True,,5ae64fb8c3c3ab00018f7e89,,2405590,189,Q,evan-quiz,full_rf_a,,1
163,46778,190,strat,,,,,,,,,,0.0-192.0,"{""Q0"":""at tried to see a pattern but then i decided to choose randomly""}",,28865.0,,,,,,,,,True,,5ae64fb8c3c3ab00018f7e89,,2434458,190,Q,survey-text,full_rf_a,,1
