,index,Unnamed: 0,Q_name,button_pressed,choice_idxs,chosen_pos,chosen_state,chosen_state_f_1_outcome,chosen_state_f_2_outcome,f_1_reward,f_2_reward,incor_questions,internal_node_id,responses,reward_received,rt,s_1_f_1_outcome,s_1_f_1_prob,s_1_f_2_outcome,s_1_f_2_prob,s_2_f_1_outcome,s_2_f_1_prob,s_2_f_2_outcome,s_2_f_2_prob,safe_first,stimulus,subjectID,success,time_elapsed,trial_index,trial_num,trial_type,version,view_history,switching
0,2397,35,,,,1,1,1.0,1.0,0.0,1.0,,0.0-27.0,,1.0,1247.0,1.0,0.6,1.0,0.6,0.0,0.4,0.0,0.4,True,,5f12c4e7d005e823bcb68ba0,,426488,35,,evan-feature22,full_rf_b,,0
1,2398,36,,,,1,1,0.0,1.0,0.0,1.0,,0.0-28.0,,1.0,758.0,0.0,0.608053294,1.0,0.63424552,0.0,0.397152172,0.0,0.347069101,True,,5f12c4e7d005e823bcb68ba0,,437037,36,,evan-feature22,full_rf_b,,0
2,2399,37,,,,2,2,0.0,0.0,0.0,1.0,,0.0-29.0,,0.0,1055.0,1.0,0.642237155,0.0,0.648566321,0.0,0.389407674,0.0,0.285525717,True,,5f12c4e7d005e823bcb68ba0,,447888,37,,evan-feature22,full_rf_b,,1
3,2400,38,,,,2,2,1.0,0.0,0.0,1.0,,0.0-30.0,,0.0,487.0,1.0,0.661086576,1.0,0.630492543,1.0,0.399058924,0.0,0.25,True,,5f12c4e7d005e823bcb68ba0,,458176,38,,evan-feature22,full_rf_b,,0
4,2401,39,,,,1,1,0.0,1.0,0.0,1.0,,0.0-31.0,,1.0,440.0,0.0,0.631324137,1.0,0.6269842929999999,0.0,0.38734784299999997,0.0,0.25,True,,5f12c4e7d005e823bcb68ba0,,468414,39,,evan-feature22,full_rf_b,,1
5,2402,40,,,,2,2,0.0,1.0,0.0,1.0,,0.0-32.0,,1.0,534.0,0.0,0.6381991370000001,0.0,0.68987999,0.0,0.384107265,1.0,0.271332943,True,,5f12c4e7d005e823bcb68ba0,,478736,40,,evan-feature22,full_rf_b,,1
6,2403,41,,,,2,2,0.0,0.0,0.0,1.0,,0.0-33.0,,0.0,88.00000002,1.0,0.66034901,1.0,0.742641349,0.0,0.360225629,0.0,0.25,True,,5f12c4e7d005e823bcb68ba0,,488622,41,,evan-feature22,full_rf_b,,0
7,2404,42,,,,1,1,0.0,1.0,-1.0,0.0,,0.0-34.0,,0.0,611.0,0.0,0.638612418,1.0,0.75,0.0,0.367273939,0.0,0.25,True,,5f12c4e7d005e823bcb68ba0,,499039,42,,evan-feature22,full_rf_b,,1
8,2405,43,,,,2,2,0.0,0.0,0.0,1.0,,0.0-35.0,,0.0,424.0,1.0,0.624340629,0.0,0.75,0.0,0.425829545,0.0,0.25,True,,5f12c4e7d005e823bcb68ba0,,509252,43,,evan-feature22,full_rf_b,,1
9,2406,44,,,,2,2,0.0,1.0,0.0,1.0,,0.0-36.0,,1.0,409.0,1.0,0.621999804,0.0,0.75,0.0,0.368609357,1.0,0.25,True,,5f12c4e7d005e823bcb68ba0,,519454,44,,evan-feature22,full_rf_b,,0
10,2407,45,,,,1,1,1.0,0.0,-1.0,0.0,,0.0-37.0,,-1.0,346.0,1.0,0.62666403,0.0,0.75,0.0,0.311151498,0.0,0.25,True,,5f12c4e7d005e823bcb68ba0,,529582,45,,evan-feature22,full_rf_b,,1
11,2408,46,,,,1,1,0.0,1.0,-1.0,0.0,,0.0-38.0,,0.0,503.0,0.0,0.6819650009999999,1.0,0.75,0.0,0.310763048,1.0,0.25,True,,5f12c4e7d005e823bcb68ba0,,539870,46,,evan-feature22,full_rf_b,,0
12,2409,47,,,,2,2,0.0,0.0,0.0,1.0,,0.0-39.0,,0.0,347.0,0.0,0.740626951,0.0,0.75,0.0,0.25,0.0,0.25,True,,5f12c4e7d005e823bcb68ba0,,550006,47,,evan-feature22,full_rf_b,,1
13,2410,48,,,,2,2,0.0,0.0,0.0,1.0,,0.0-40.0,,0.0,113.0,1.0,0.739599242,1.0,0.742034978,0.0,0.25397114600000004,0.0,0.25,True,,5f12c4e7d005e823bcb68ba0,,559931,48,,evan-feature22,full_rf_b,,0
14,2411,49,,,,2,2,0.0,0.0,0.0,1.0,,0.0-41.0,,0.0,430.0,1.0,0.732341315,1.0,0.72735643,0.0,0.25,0.0,0.25,True,,5f12c4e7d005e823bcb68ba0,,570199,49,,evan-feature22,full_rf_b,,0
15,2412,50,,,,1,1,1.0,1.0,0.0,1.0,,0.0-42.0,,1.0,342.0,1.0,0.7062287770000001,1.0,0.75,1.0,0.29002151,0.0,0.288256649,True,,5f12c4e7d005e823bcb68ba0,,580332,50,,evan-feature22,full_rf_b,,1
16,2413,51,,,,1,1,0.0,1.0,-1.0,0.0,,0.0-43.0,,0.0,727.0,0.0,0.7086029209999999,1.0,0.75,0.0,0.274129113,0.0,0.262851608,True,,5f12c4e7d005e823bcb68ba0,,590861,51,,evan-feature22,full_rf_b,,0
17,2414,52,,,,1,1,0.0,1.0,0.0,1.0,,0.0-44.0,,1.0,591.0,0.0,0.669189651,1.0,0.727614338,1.0,0.298444036,0.0,0.296944518,True,,5f12c4e7d005e823bcb68ba0,,601233,52,,evan-feature22,full_rf_b,,0
18,2415,53,,,,2,2,0.0,0.0,-1.0,0.0,,0.0-45.0,,0.0,502.0,0.0,0.6819912929999999,0.0,0.7179434290000001,0.0,0.265003961,0.0,0.28157921199999997,True,,5f12c4e7d005e823bcb68ba0,,611540,53,,evan-feature22,full_rf_b,,1
19,2416,54,,,,2,2,0.0,0.0,-1.0,0.0,,0.0-46.0,,0.0,529.0,0.0,0.665275002,1.0,0.723065271,0.0,0.260414971,0.0,0.30973870000000003,True,,5f12c4e7d005e823bcb68ba0,,621853,54,,evan-feature22,full_rf_b,,0
20,2417,55,,,,1,1,0.0,0.0,0.0,1.0,,0.0-47.0,,0.0,1766.0,0.0,0.6660593260000001,0.0,0.728032907,0.0,0.30922817,0.0,0.338778608,True,,5f12c4e7d005e823bcb68ba0,,633407,55,,evan-feature22,full_rf_b,,1
21,2418,56,,,,1,1,1.0,1.0,0.0,1.0,,0.0-48.0,,1.0,446.0,1.0,0.702068785,1.0,0.6528750879999999,1.0,0.287329608,1.0,0.35789613200000003,True,,5f12c4e7d005e823bcb68ba0,,643639,56,,evan-feature22,full_rf_b,,0
22,2419,57,,,,2,2,0.0,1.0,0.0,1.0,,0.0-49.0,,1.0,425.0,0.0,0.651939787,1.0,0.636725589,0.0,0.284834488,1.0,0.358563756,True,,5f12c4e7d005e823bcb68ba0,,653879,57,,evan-feature22,full_rf_b,,1
23,2420,58,,,,1,1,1.0,0.0,0.0,1.0,,0.0-50.0,,0.0,482.0,1.0,0.67573929,0.0,0.612550049,1.0,0.37130387600000003,1.0,0.383542402,True,,5f12c4e7d005e823bcb68ba0,,664152,58,,evan-feature22,full_rf_b,,1
24,2421,59,,,,2,2,1.0,0.0,0.0,1.0,,0.0-51.0,,0.0,628.0,1.0,0.620753801,0.0,0.60513644,1.0,0.385529434,0.0,0.340361743,True,,5f12c4e7d005e823bcb68ba0,,674581,59,,evan-feature22,full_rf_b,,1
25,2422,60,,,,2,2,0.0,0.0,-1.0,0.0,,0.0-52.0,,0.0,409.0,0.0,0.673564893,1.0,0.672437924,0.0,0.292955382,0.0,0.337633795,True,,5f12c4e7d005e823bcb68ba0,,684777,60,,evan-feature22,full_rf_b,,0
26,2423,61,,,,1,1,1.0,1.0,0.0,1.0,,0.0-53.0,,1.0,405.0,1.0,0.6749427,1.0,0.724197502,0.0,0.32391132100000003,0.0,0.350995264,True,,5f12c4e7d005e823bcb68ba0,,694983,61,,evan-feature22,full_rf_b,,1
27,2424,62,,,,1,1,1.0,1.0,0.0,1.0,,0.0-54.0,,1.0,420.0,1.0,0.6940159379999999,1.0,0.75,1.0,0.31710554399999996,1.0,0.413450341,True,,5f12c4e7d005e823bcb68ba0,,705178,62,,evan-feature22,full_rf_b,,0
28,2425,63,,,,2,2,0.0,0.0,0.0,1.0,,0.0-55.0,,0.0,451.0,0.0,0.6916018270000001,1.0,0.69001187,0.0,0.261817804,0.0,0.40038635,True,,5f12c4e7d005e823bcb68ba0,,715428,63,,evan-feature22,full_rf_b,,1
29,2426,64,,,,1,1,1.0,1.0,0.0,1.0,,0.0-56.0,,1.0,346.0,1.0,0.641061544,1.0,0.71337992,0.0,0.277296461,1.0,0.47372791700000005,True,,5f12c4e7d005e823bcb68ba0,,725560,64,,evan-feature22,full_rf_b,,1
30,2427,65,,,,1,1,1.0,0.0,0.0,1.0,,0.0-57.0,,0.0,326.0,1.0,0.6082438520000001,0.0,0.708471106,0.0,0.28745137,0.0,0.564174476,True,,5f12c4e7d005e823bcb68ba0,,735706,65,,evan-feature22,full_rf_b,,0
31,2428,66,,,,2,2,0.0,1.0,-1.0,0.0,,0.0-58.0,,0.0,513.0,1.0,0.6051112120000001,1.0,0.7118147229999999,0.0,0.272390611,1.0,0.5595149939999999,True,,5f12c4e7d005e823bcb68ba0,,746025,66,,evan-feature22,full_rf_b,,1
32,2429,67,,,,2,2,1.0,0.0,-1.0,0.0,,0.0-59.0,,-1.0,752.0,0.0,0.582420852,0.0,0.635867583,1.0,0.31089574,0.0,0.5227206520000001,True,,5f12c4e7d005e823bcb68ba0,,756574,67,,evan-feature22,full_rf_b,,0
33,2430,68,,,,1,1,0.0,0.0,-1.0,0.0,,0.0-60.0,,0.0,406.0,0.0,0.623195575,0.0,0.655026044,0.0,0.25,1.0,0.560387538,True,,5f12c4e7d005e823bcb68ba0,,766765,68,,evan-feature22,full_rf_b,,1
34,2431,69,,,,1,1,1.0,1.0,0.0,1.0,,0.0-61.0,,1.0,549.0,1.0,0.601889598,1.0,0.678198724,0.0,0.25,1.0,0.559922936,True,,5f12c4e7d005e823bcb68ba0,,777107,69,,evan-feature22,full_rf_b,,0
35,2432,70,,,,1,1,0.0,1.0,-1.0,0.0,,0.0-62.0,,0.0,471.0,0.0,0.601259914,1.0,0.704681482,0.0,0.33908969299999997,0.0,0.505003715,True,,5f12c4e7d005e823bcb68ba0,,787378,70,,evan-feature22,full_rf_b,,0
36,2433,71,,,,2,2,1.0,0.0,-1.0,0.0,,0.0-63.0,,-1.0,435.0,1.0,0.59645454,1.0,0.710437172,1.0,0.327441879,0.0,0.391749613,True,,5f12c4e7d005e823bcb68ba0,,797598,71,,evan-feature22,full_rf_b,,1
37,2434,72,,,,2,2,1.0,0.0,0.0,1.0,,0.0-64.0,,0.0,487.0,0.0,0.529473,0.0,0.636758527,1.0,0.301338063,0.0,0.365661481,True,,5f12c4e7d005e823bcb68ba0,,807889,72,,evan-feature22,full_rf_b,,0
38,2435,73,,,,1,1,0.0,1.0,-1.0,0.0,,0.0-65.0,,0.0,518.0,0.0,0.541657162,1.0,0.634541962,0.0,0.343535366,0.0,0.371763742,True,,5f12c4e7d005e823bcb68ba0,,818203,73,,evan-feature22,full_rf_b,,1
39,2436,74,,,,1,1,1.0,1.0,-1.0,0.0,,0.0-66.0,,-1.0,467.0,1.0,0.5707533260000001,1.0,0.589121171,0.0,0.326428396,0.0,0.43961622899999997,True,,5f12c4e7d005e823bcb68ba0,,828473,74,,evan-feature22,full_rf_b,,0
40,2437,75,,,,2,2,0.0,1.0,0.0,1.0,,0.0-67.0,,1.0,456.0,0.0,0.5707533260000001,0.0,0.589121171,0.0,0.326428396,1.0,0.43961622899999997,True,,5f12c4e7d005e823bcb68ba0,,838753,75,,evan-feature22,full_rf_b,,1
41,2438,76,,,,1,1,1.0,0.0,0.0,1.0,,0.0-68.0,,0.0,596.0,1.0,0.506271295,0.0,0.641775594,1.0,0.37149690700000004,0.0,0.404330166,True,,5f12c4e7d005e823bcb68ba0,,849139,76,,evan-feature22,full_rf_b,,1
42,2439,77,,,,2,2,1.0,1.0,-1.0,0.0,,0.0-69.0,,-1.0,435.0,1.0,0.455642565,1.0,0.623605825,1.0,0.358753011,1.0,0.346174041,True,,5f12c4e7d005e823bcb68ba0,,859374,77,,evan-feature22,full_rf_b,,1
43,2440,78,,,,1,1,1.0,1.0,0.0,1.0,,0.0-70.0,,1.0,161.0,1.0,0.483677308,1.0,0.5904681070000001,0.0,0.402218411,0.0,0.35344697,True,,5f12c4e7d005e823bcb68ba0,,869327,78,,evan-feature22,full_rf_b,,1
44,2441,79,,,,1,1,0.0,0.0,-1.0,0.0,,0.0-71.0,,0.0,331.0,0.0,0.394210977,0.0,0.558925494,1.0,0.540052017,1.0,0.35182128700000004,True,,5f12c4e7d005e823bcb68ba0,,879440,79,,evan-feature22,full_rf_b,,0
45,2442,80,,,,1,1,0.0,0.0,0.0,1.0,,0.0-72.0,,0.0,373.0,0.0,0.382300414,0.0,0.577670603,0.0,0.607608448,0.0,0.378261578,True,,5f12c4e7d005e823bcb68ba0,,889601,80,,evan-feature22,full_rf_b,,0
46,2443,81,,,,2,2,1.0,0.0,-1.0,0.0,,0.0-73.0,,-1.0,1002.0,1.0,0.357596762,1.0,0.5929076529999999,1.0,0.6579790010000001,0.0,0.401326777,True,,5f12c4e7d005e823bcb68ba0,,900405,81,,evan-feature22,full_rf_b,,1
47,2444,82,,,,1,1,0.0,0.0,0.0,1.0,,0.0-74.0,,0.0,330.0,0.0,0.362033495,0.0,0.582308608,1.0,0.649195052,0.0,0.355158505,True,,5f12c4e7d005e823bcb68ba0,,910517,82,,evan-feature22,full_rf_b,,1
48,2445,83,,,,1,1,0.0,1.0,0.0,1.0,,0.0-75.0,,1.0,362.0,0.0,0.369620635,1.0,0.669100864,1.0,0.706059111,0.0,0.362516241,True,,5f12c4e7d005e823bcb68ba0,,920671,83,,evan-feature22,full_rf_b,,0
49,2446,84,,,,1,1,1.0,1.0,0.0,1.0,,0.0-76.0,,1.0,337.0,1.0,0.41477751399999996,1.0,0.7284416779999999,1.0,0.7182656940000001,0.0,0.36228040899999997,True,,5f12c4e7d005e823bcb68ba0,,930789,84,,evan-feature22,full_rf_b,,0
50,2447,85,,,,2,2,1.0,0.0,-1.0,0.0,,0.0-77.0,,-1.0,373.0,1.0,0.37675460299999997,1.0,0.703250285,1.0,0.75,0.0,0.461979164,True,,5f12c4e7d005e823bcb68ba0,,940952,85,,evan-feature22,full_rf_b,,1
51,2448,86,,,,1,1,0.0,1.0,-1.0,0.0,,0.0-78.0,,0.0,524.0,0.0,0.398716075,1.0,0.6723864890000001,1.0,0.674153818,1.0,0.519029516,True,,5f12c4e7d005e823bcb68ba0,,951255,86,,evan-feature22,full_rf_b,,1
52,2449,87,,,,2,2,0.0,0.0,-1.0,0.0,,0.0-79.0,,0.0,1710.0,0.0,0.34677856700000004,0.0,0.69057175,0.0,0.6822438540000001,0.0,0.477292237,True,,5f12c4e7d005e823bcb68ba0,,962765,87,,evan-feature22,full_rf_b,,1
53,2450,88,,,,2,2,0.0,1.0,0.0,1.0,,0.0-80.0,,1.0,1091.0,0.0,0.28580469199999997,0.0,0.68408818,0.0,0.684207565,1.0,0.49780448299999996,True,,5f12c4e7d005e823bcb68ba0,,973672,88,,evan-feature22,full_rf_b,,0
54,2452,90,,,,1,1,0.0,0.0,0.0,1.0,,0.0-82.0,,0.0,654.0,0.0,0.25,0.0,0.7405808970000001,1.0,0.679614108,0.0,0.436436964,True,,5f12c4e7d005e823bcb68ba0,,985853,90,,evan-feature22,full_rf_b,,1
55,2453,91,,,,1,1,0.0,0.0,0.0,1.0,,0.0-83.0,,0.0,400.0,0.0,0.29890393,0.0,0.730505706,1.0,0.7328203320000001,0.0,0.439256938,True,,5f12c4e7d005e823bcb68ba0,,996073,91,,evan-feature22,full_rf_b,,0
56,2454,92,,,,2,2,1.0,1.0,-1.0,0.0,,0.0-84.0,,-1.0,579.0,0.0,0.326762398,1.0,0.7148059609999999,1.0,0.75,1.0,0.44389608799999997,True,,5f12c4e7d005e823bcb68ba0,,1006449,92,,evan-feature22,full_rf_b,,1
57,2455,93,,,,1,1,1.0,1.0,0.0,1.0,,0.0-85.0,,1.0,357.0,1.0,0.295168515,1.0,0.739760854,0.0,0.719947008,1.0,0.35277284600000003,True,,5f12c4e7d005e823bcb68ba0,,1016590,93,,evan-feature22,full_rf_b,,1
58,2456,94,,,,1,1,0.0,0.0,0.0,1.0,,0.0-86.0,,0.0,440.0,0.0,0.25,0.0,0.70781482,1.0,0.75,1.0,0.286095925,True,,5f12c4e7d005e823bcb68ba0,,1026833,94,,evan-feature22,full_rf_b,,0
59,2457,95,,,,1,1,1.0,1.0,0.0,1.0,,0.0-87.0,,1.0,518.0,1.0,0.25638190899999996,1.0,0.704088163,1.0,0.75,0.0,0.26872601399999996,True,,5f12c4e7d005e823bcb68ba0,,1037132,95,,evan-feature22,full_rf_b,,0
60,2458,96,,,,2,2,1.0,1.0,-1.0,0.0,,0.0-88.0,,-1.0,503.0,0.0,0.271581126,1.0,0.669760107,1.0,0.733896663,1.0,0.273244572,True,,5f12c4e7d005e823bcb68ba0,,1047431,96,,evan-feature22,full_rf_b,,1
61,2459,97,,,,1,1,1.0,0.0,0.0,1.0,,0.0-89.0,,0.0,362.0,1.0,0.257144401,0.0,0.600575706,0.0,0.74488122,0.0,0.25,True,,5f12c4e7d005e823bcb68ba0,,1057595,97,,evan-feature22,full_rf_b,,1
62,2460,98,,,,2,2,1.0,1.0,0.0,1.0,,0.0-90.0,,1.0,451.0,0.0,0.25,0.0,0.616870026,1.0,0.723610234,1.0,0.25,True,,5f12c4e7d005e823bcb68ba0,,1067845,98,,evan-feature22,full_rf_b,,1
63,2461,99,,,,1,1,0.0,0.0,-1.0,0.0,,0.0-91.0,,0.0,3633.0,0.0,0.25,0.0,0.583540187,1.0,0.7041042559999999,0.0,0.285961995,True,,5f12c4e7d005e823bcb68ba0,,1081266,99,,evan-feature22,full_rf_b,,1
64,2462,100,,,,1,1,1.0,0.0,-1.0,0.0,,0.0-92.0,,-1.0,1294.0,1.0,0.27254536,0.0,0.53875765,0.0,0.693783448,0.0,0.284961652,True,,5f12c4e7d005e823bcb68ba0,,1092347,100,,evan-feature22,full_rf_b,,0
65,2463,101,,,,2,2,1.0,0.0,-1.0,0.0,,0.0-93.0,,-1.0,1037.0,0.0,0.25,1.0,0.548431252,1.0,0.734221895,0.0,0.279445214,True,,5f12c4e7d005e823bcb68ba0,,1103199,101,,evan-feature22,full_rf_b,,1
66,2464,102,,,,1,1,0.0,1.0,0.0,1.0,,0.0-94.0,,1.0,826.0,0.0,0.258640684,1.0,0.545878066,1.0,0.725245965,0.0,0.31487537,True,,5f12c4e7d005e823bcb68ba0,,1113817,102,,evan-feature22,full_rf_b,,1
67,2465,103,,,,1,1,0.0,0.0,0.0,1.0,,0.0-95.0,,0.0,1704.0,0.0,0.251103711,0.0,0.5776290629999999,1.0,0.696320133,0.0,0.317831047,True,,5f12c4e7d005e823bcb68ba0,,1125329,103,,evan-feature22,full_rf_b,,0
68,2466,104,,,,1,1,1.0,1.0,0.0,1.0,,0.0-96.0,,1.0,316.0,1.0,0.276630292,1.0,0.617329858,1.0,0.73838088,0.0,0.261471582,True,,5f12c4e7d005e823bcb68ba0,,1135430,104,,evan-feature22,full_rf_b,,0
69,2467,105,,,,2,2,0.0,0.0,0.0,1.0,,0.0-97.0,,0.0,358.0,1.0,0.297716424,1.0,0.618863717,0.0,0.7402358259999999,0.0,0.262600834,True,,5f12c4e7d005e823bcb68ba0,,1145575,105,,evan-feature22,full_rf_b,,1
70,2468,106,,,,1,1,1.0,1.0,-1.0,0.0,,0.0-98.0,,-1.0,425.0,1.0,0.290935512,1.0,0.695370945,0.0,0.706570507,0.0,0.280030553,True,,5f12c4e7d005e823bcb68ba0,,1155782,106,,evan-feature22,full_rf_b,,1
71,2469,107,,,,2,2,1.0,0.0,0.0,1.0,,0.0-99.0,,0.0,971.0,0.0,0.25,1.0,0.6465277079999999,1.0,0.67766682,0.0,0.25,True,,5f12c4e7d005e823bcb68ba0,,1166558,107,,evan-feature22,full_rf_b,,1
72,2470,108,,,,2,2,0.0,1.0,-1.0,0.0,,0.0-100.0,,0.0,315.0,0.0,0.26463816,1.0,0.636100213,0.0,0.646048507,1.0,0.265607101,True,,5f12c4e7d005e823bcb68ba0,,1176643,108,,evan-feature22,full_rf_b,,0
73,2471,109,,,,1,1,1.0,1.0,-1.0,0.0,,0.0-101.0,,-1.0,1173.0,1.0,0.314340707,1.0,0.667795927,1.0,0.613630805,0.0,0.25,True,,5f12c4e7d005e823bcb68ba0,,1187616,109,,evan-feature22,full_rf_b,,1
74,2472,110,,,,1,1,0.0,1.0,0.0,1.0,,0.0-102.0,,1.0,436.0,0.0,0.28685784,1.0,0.6622549529999999,1.0,0.652154117,1.0,0.25,True,,5f12c4e7d005e823bcb68ba0,,1197858,110,,evan-feature22,full_rf_b,,0
75,2473,111,,,,2,2,1.0,0.0,0.0,1.0,,0.0-103.0,,0.0,763.0,0.0,0.304106554,1.0,0.631289538,1.0,0.707041942,0.0,0.29314237,True,,5f12c4e7d005e823bcb68ba0,,1208407,111,,evan-feature22,full_rf_b,,1
76,2474,112,,,,2,2,1.0,0.0,0.0,1.0,,0.0-104.0,,0.0,451.0,0.0,0.304806932,0.0,0.571167718,1.0,0.680472346,0.0,0.25,True,,5f12c4e7d005e823bcb68ba0,,1218671,112,,evan-feature22,full_rf_b,,0
77,2475,113,,,,1,1,0.0,1.0,0.0,1.0,,0.0-105.0,,1.0,409.0,0.0,0.37919861,1.0,0.5724849710000001,1.0,0.705638003,1.0,0.30179300600000003,True,,5f12c4e7d005e823bcb68ba0,,1228889,113,,evan-feature22,full_rf_b,,1
78,2476,114,,,,2,2,1.0,0.0,0.0,1.0,,0.0-106.0,,0.0,654.0,0.0,0.464277969,0.0,0.554034373,1.0,0.7372627340000001,0.0,0.264699741,True,,5f12c4e7d005e823bcb68ba0,,1239339,114,,evan-feature22,full_rf_b,,1
79,2477,115,,,,2,2,1.0,1.0,0.0,1.0,,0.0-107.0,,1.0,1263.0,0.0,0.465104323,1.0,0.530793115,1.0,0.75,1.0,0.31683071,True,,5f12c4e7d005e823bcb68ba0,,1250392,115,,evan-feature22,full_rf_b,,0
80,2478,116,,,,2,2,0.0,0.0,-1.0,0.0,,0.0-108.0,,0.0,701.0,0.0,0.465104323,0.0,0.530793115,0.0,0.75,0.0,0.31683071,True,,5f12c4e7d005e823bcb68ba0,,1260888,116,,evan-feature22,full_rf_b,,0
81,2479,117,,,,1,1,0.0,0.0,-1.0,0.0,,0.0-109.0,,0.0,424.0,0.0,0.46833986,0.0,0.570249239,1.0,0.7244472590000001,0.0,0.364114163,True,,5f12c4e7d005e823bcb68ba0,,1271124,117,,evan-feature22,full_rf_b,,1
82,2480,118,,,,1,1,1.0,1.0,-1.0,0.0,,0.0-110.0,,-1.0,408.0,1.0,0.445444024,1.0,0.649673355,1.0,0.6845441290000001,1.0,0.300660449,True,,5f12c4e7d005e823bcb68ba0,,1281324,118,,evan-feature22,full_rf_b,,0
83,2481,119,,,,1,1,1.0,0.0,-1.0,0.0,,0.0-111.0,,-1.0,534.0,1.0,0.39909721299999995,0.0,0.6715179509999999,1.0,0.742310028,1.0,0.35496088299999995,True,,5f12c4e7d005e823bcb68ba0,,1291628,119,,evan-feature22,full_rf_b,,0
84,2482,120,,,,1,1,0.0,1.0,0.0,1.0,,0.0-112.0,,1.0,455.0,0.0,0.37956104799999996,1.0,0.694725302,0.0,0.7181651309999999,1.0,0.38726906299999997,True,,5f12c4e7d005e823bcb68ba0,,1301906,120,,evan-feature22,full_rf_b,,0
85,2483,121,,,,2,2,1.0,0.0,0.0,1.0,,0.0-113.0,,0.0,456.0,1.0,0.404995034,1.0,0.724375412,1.0,0.6910946859999999,0.0,0.387187347,True,,5f12c4e7d005e823bcb68ba0,,1312169,121,,evan-feature22,full_rf_b,,1
86,2484,122,,,,2,2,1.0,0.0,-1.0,0.0,,0.0-114.0,,-1.0,452.0,0.0,0.461740803,1.0,0.75,1.0,0.75,0.0,0.34872038200000005,True,,5f12c4e7d005e823bcb68ba0,,1322411,122,,evan-feature22,full_rf_b,,0
87,2485,123,,,,1,1,0.0,1.0,-1.0,0.0,,0.0-115.0,,0.0,549.0,0.0,0.43821380600000004,1.0,0.738833273,1.0,0.728286963,0.0,0.399538128,True,,5f12c4e7d005e823bcb68ba0,,1332756,123,,evan-feature22,full_rf_b,,1
88,2486,124,,,,2,2,1.0,0.0,0.0,1.0,,0.0-116.0,,0.0,654.0,0.0,0.41709882,0.0,0.736666736,1.0,0.75,0.0,0.389095584,True,,5f12c4e7d005e823bcb68ba0,,1343202,124,,evan-feature22,full_rf_b,,1
89,2487,125,,,,1,1,0.0,0.0,0.0,1.0,,0.0-117.0,,0.0,513.0,0.0,0.39749009799999996,0.0,0.744320029,1.0,0.75,1.0,0.363848678,True,,5f12c4e7d005e823bcb68ba0,,1353518,125,,evan-feature22,full_rf_b,,1
90,2488,126,,,,2,2,1.0,0.0,-1.0,0.0,,0.0-118.0,,-1.0,533.0,1.0,0.392653706,1.0,0.75,1.0,0.75,0.0,0.384386976,True,,5f12c4e7d005e823bcb68ba0,,1363827,126,,evan-feature22,full_rf_b,,1
91,2489,127,,,,2,2,1.0,0.0,0.0,1.0,,0.0-119.0,,0.0,446.0,1.0,0.31190902600000003,1.0,0.75,1.0,0.732413819,0.0,0.413082932,True,,5f12c4e7d005e823bcb68ba0,,1374084,127,,evan-feature22,full_rf_b,,0
92,2490,128,,,,1,1,0.0,1.0,-1.0,0.0,,0.0-120.0,,0.0,368.0,0.0,0.366917648,1.0,0.740073855,0.0,0.75,1.0,0.352861979,True,,5f12c4e7d005e823bcb68ba0,,1384252,128,,evan-feature22,full_rf_b,,1
93,2491,129,,,,1,1,1.0,1.0,-1.0,0.0,,0.0-121.0,,-1.0,565.0,1.0,0.3645172,1.0,0.721770713,1.0,0.75,1.0,0.404074511,True,,5f12c4e7d005e823bcb68ba0,,1394603,129,,evan-feature22,full_rf_b,,0
94,2492,130,,,,2,2,0.0,0.0,-1.0,0.0,,0.0-122.0,,0.0,841.0,1.0,0.35205600299999995,1.0,0.68983859,0.0,0.739735447,0.0,0.366895945,True,,5f12c4e7d005e823bcb68ba0,,1405239,130,,evan-feature22,full_rf_b,,1
95,2493,131,,,,2,2,0.0,1.0,-1.0,0.0,,0.0-123.0,,0.0,643.0,1.0,0.40998722600000004,1.0,0.720859127,0.0,0.673854955,1.0,0.368528541,True,,5f12c4e7d005e823bcb68ba0,,1415698,131,,evan-feature22,full_rf_b,,0
96,2494,132,,,,2,2,1.0,0.0,-1.0,0.0,,0.0-124.0,,-1.0,159.0,0.0,0.353625316,0.0,0.75,1.0,0.695605473,0.0,0.38303674200000004,True,,5f12c4e7d005e823bcb68ba0,,1425635,132,,evan-feature22,full_rf_b,,0
97,2495,133,,,,SLOW,SLOW,,,-1.0,0.0,,0.0-125.0,,-3.0,,1.0,0.359216989,1.0,0.75,1.0,0.6987915090000001,0.0,0.35169046200000004,True,,5f12c4e7d005e823bcb68ba0,,1485706,133,,evan-feature22,full_rf_b,,1
98,2496,134,,,,1,1,0.0,1.0,-1.0,0.0,,0.0-126.0,,0.0,892.0,0.0,0.35834496899999996,1.0,0.75,1.0,0.707067742,0.0,0.416763636,True,,5f12c4e7d005e823bcb68ba0,,1496410,134,,evan-feature22,full_rf_b,,1
99,2497,135,,,,1,1,0.0,0.0,0.0,1.0,,0.0-127.0,,0.0,581.0,0.0,0.38741613799999997,0.0,0.7177369570000001,0.0,0.734902455,0.0,0.49438664299999996,True,,5f12c4e7d005e823bcb68ba0,,1506801,135,,evan-feature22,full_rf_b,,0
100,2498,136,,,,2,2,1.0,1.0,-1.0,0.0,,0.0-128.0,,-1.0,119.0,1.0,0.405255252,1.0,0.7300466640000001,1.0,0.7027748070000001,1.0,0.504359668,True,,5f12c4e7d005e823bcb68ba0,,1516736,136,,evan-feature22,full_rf_b,,1
101,2499,137,,,,1,1,0.0,1.0,-1.0,0.0,,0.0-129.0,,0.0,385.0,0.0,0.40697073,1.0,0.7260142190000001,0.0,0.724461982,1.0,0.522779179,True,,5f12c4e7d005e823bcb68ba0,,1526951,137,,evan-feature22,full_rf_b,,1
102,2500,138,,,,1,1,1.0,0.0,-1.0,0.0,,0.0-130.0,,-1.0,470.0,1.0,0.43906215299999996,0.0,0.7252802340000001,1.0,0.719079934,0.0,0.5712990579999999,True,,5f12c4e7d005e823bcb68ba0,,1537217,138,,evan-feature22,full_rf_b,,0
103,2501,139,,,,2,2,0.0,1.0,0.0,1.0,,0.0-131.0,,1.0,2407.0,1.0,0.4076705,1.0,0.73280499,0.0,0.681313127,1.0,0.523891346,True,,5f12c4e7d005e823bcb68ba0,,1549450,139,,evan-feature22,full_rf_b,,1
104,2502,140,,,,2,2,0.0,0.0,0.0,1.0,,0.0-132.0,,0.0,600.0,1.0,0.399102911,1.0,0.730498344,0.0,0.661080239,0.0,0.46742603,True,,5f12c4e7d005e823bcb68ba0,,1559883,140,,evan-feature22,full_rf_b,,0
105,2503,141,,,,2,2,0.0,0.0,0.0,1.0,,0.0-133.0,,0.0,2873.0,1.0,0.356477282,1.0,0.712296395,0.0,0.641812684,0.0,0.44868414,True,,5f12c4e7d005e823bcb68ba0,,1572549,141,,evan-feature22,full_rf_b,,0
106,2504,142,,,,1,1,1.0,1.0,-1.0,0.0,,0.0-134.0,,-1.0,1202.0,1.0,0.462760722,1.0,0.692349322,1.0,0.700947931,0.0,0.394680266,True,,5f12c4e7d005e823bcb68ba0,,1583557,142,,evan-feature22,full_rf_b,,1
107,2505,143,,,,1,1,1.0,1.0,-1.0,0.0,,0.0-135.0,,-1.0,1374.0,1.0,0.422306413,1.0,0.718375916,0.0,0.706340917,0.0,0.367787185,True,,5f12c4e7d005e823bcb68ba0,,1594749,143,,evan-feature22,full_rf_b,,0
108,2507,145,,,,1,1,1.0,0.0,-1.0,0.0,,0.0-137.0,,-1.0,984.0,1.0,0.4582233,0.0,0.643834117,1.0,0.75,0.0,0.39615823299999997,True,,5f12c4e7d005e823bcb68ba0,,1608532,145,,evan-feature22,full_rf_b,,0
109,2508,146,,,,2,2,1.0,0.0,-1.0,0.0,,0.0-138.0,,-1.0,1028.0,0.0,0.43813437899999996,1.0,0.651283804,1.0,0.729674191,0.0,0.37711048,True,,5f12c4e7d005e823bcb68ba0,,1619379,146,,evan-feature22,full_rf_b,,1
110,2509,147,,,,2,2,1.0,0.0,-1.0,0.0,,0.0-139.0,,-1.0,1484.0,0.0,0.471199094,1.0,0.6470010979999999,1.0,0.715008097,0.0,0.410656191,True,,5f12c4e7d005e823bcb68ba0,,1630663,147,,evan-feature22,full_rf_b,,0
111,2510,148,,,,1,1,1.0,1.0,-1.0,0.0,,0.0-140.0,,-1.0,509.0,1.0,0.42486406,1.0,0.629771829,1.0,0.6550939960000001,0.0,0.459093873,True,,5f12c4e7d005e823bcb68ba0,,1640995,148,,evan-feature22,full_rf_b,,1
112,2511,149,,,,2,2,1.0,0.0,-1.0,0.0,,0.0-141.0,,-1.0,1108.0,0.0,0.4803197,1.0,0.645842715,1.0,0.6421749920000001,0.0,0.443092151,True,,5f12c4e7d005e823bcb68ba0,,1651912,149,,evan-feature22,full_rf_b,,1
113,2512,150,,,,SLOW,SLOW,,,0.0,1.0,,0.0-142.0,,-3.0,,1.0,0.521848997,1.0,0.735801074,1.0,0.6691348460000001,0.0,0.45259351600000003,True,,5f12c4e7d005e823bcb68ba0,,1657730,150,,evan-feature22,full_rf_b,,1
114,2513,151,,,,2,2,1.0,1.0,-1.0,0.0,,0.0-143.0,,-1.0,1060.0,0.0,0.49565621299999996,1.0,0.742400847,1.0,0.661512553,1.0,0.483110831,True,,5f12c4e7d005e823bcb68ba0,,1668581,151,,evan-feature22,full_rf_b,,1
115,2514,152,,,,1,1,1.0,1.0,-1.0,0.0,,0.0-144.0,,-1.0,327.0,1.0,0.521564361,1.0,0.731078632,1.0,0.6774886809999999,1.0,0.483263956,True,,5f12c4e7d005e823bcb68ba0,,1678696,152,,evan-feature22,full_rf_b,,1
116,2515,153,,,,2,2,1.0,0.0,-1.0,0.0,,0.0-145.0,,-1.0,1608.0,1.0,0.558893102,1.0,0.719810023,1.0,0.67461031,0.0,0.499349834,True,,5f12c4e7d005e823bcb68ba0,,1690111,153,,evan-feature22,full_rf_b,,1
117,2516,154,,,,1,1,0.0,1.0,-1.0,0.0,,0.0-146.0,,0.0,514.0,0.0,0.611031046,1.0,0.75,0.0,0.688072995,0.0,0.5321422729999999,True,,5f12c4e7d005e823bcb68ba0,,1700424,154,,evan-feature22,full_rf_b,,1
118,2517,155,,,,SLOW,SLOW,,,0.0,1.0,,0.0-147.0,,-3.0,,1.0,0.633223941,1.0,0.713567728,1.0,0.75,1.0,0.48185314700000004,True,,5f12c4e7d005e823bcb68ba0,,1706259,155,,evan-feature22,full_rf_b,,1
119,2518,156,,,,2,2,1.0,1.0,-1.0,0.0,,0.0-148.0,,-1.0,855.0,1.0,0.664001694,1.0,0.705509768,1.0,0.75,1.0,0.500211065,True,,5f12c4e7d005e823bcb68ba0,,1716960,156,,evan-feature22,full_rf_b,,1
120,2519,157,,,,1,1,1.0,0.0,-1.0,0.0,,0.0-149.0,,-1.0,342.0,1.0,0.664001694,0.0,0.705509768,0.0,0.75,0.0,0.500211065,True,,5f12c4e7d005e823bcb68ba0,,1727108,157,,evan-feature22,full_rf_b,,1
121,2520,158,,,,1,1,1.0,1.0,-1.0,0.0,,0.0-150.0,,-1.0,2054.0,1.0,0.696508041,1.0,0.71066027,1.0,0.717028709,0.0,0.49792991,True,,5f12c4e7d005e823bcb68ba0,,1738978,158,,evan-feature22,full_rf_b,,0
122,2521,159,,,,2,2,1.0,1.0,0.0,1.0,,0.0-151.0,,1.0,608.0,0.0,0.699883272,1.0,0.75,1.0,0.713543895,1.0,0.496962643,True,,5f12c4e7d005e823bcb68ba0,,1749390,159,,evan-feature22,full_rf_b,,1
123,2522,160,,,,1,1,1.0,1.0,0.0,1.0,,0.0-152.0,,1.0,857.0,1.0,0.741163419,1.0,0.75,0.0,0.64691024,1.0,0.513858197,True,,5f12c4e7d005e823bcb68ba0,,1760055,160,,evan-feature22,full_rf_b,,1
124,2523,161,,,,1,1,0.0,1.0,0.0,1.0,,0.0-153.0,,1.0,3188.0,0.0,0.75,1.0,0.70816558,1.0,0.594499079,1.0,0.48502124,True,,5f12c4e7d005e823bcb68ba0,,1773074,161,,evan-feature22,full_rf_b,,0
125,2524,162,,,,2,2,1.0,0.0,-1.0,0.0,,0.0-154.0,,-1.0,501.0,1.0,0.75,1.0,0.721848901,1.0,0.62197249,0.0,0.48263586399999997,True,,5f12c4e7d005e823bcb68ba0,,1783390,162,,evan-feature22,full_rf_b,,1
126,2525,163,,,,1,1,0.0,1.0,-1.0,0.0,,0.0-155.0,,0.0,795.0,0.0,0.75,1.0,0.74813071,0.0,0.584357161,0.0,0.411477782,True,,5f12c4e7d005e823bcb68ba0,,1793988,163,,evan-feature22,full_rf_b,,1
127,2526,164,,,,2,2,0.0,0.0,-1.0,0.0,,0.0-156.0,,0.0,266.0,0.0,0.75,1.0,0.75,0.0,0.52287236,0.0,0.488290656,True,,5f12c4e7d005e823bcb68ba0,,1804056,164,,evan-feature22,full_rf_b,,1
128,2527,165,,,,1,1,1.0,1.0,-1.0,0.0,,0.0-157.0,,-1.0,1002.0,1.0,0.75,1.0,0.75,0.0,0.544321581,1.0,0.53143059,True,,5f12c4e7d005e823bcb68ba0,,1814858,165,,evan-feature22,full_rf_b,,1
129,2528,166,,,,2,2,1.0,0.0,-1.0,0.0,,0.0-158.0,,-1.0,1684.0,1.0,0.726754564,1.0,0.75,1.0,0.5129306370000001,0.0,0.530592445,True,,5f12c4e7d005e823bcb68ba0,,1826355,166,,evan-feature22,full_rf_b,,1
130,2529,167,,,,1,1,1.0,1.0,0.0,1.0,,0.0-159.0,,1.0,542.0,1.0,0.75,1.0,0.7392590729999999,0.0,0.479875835,0.0,0.547007051,True,,5f12c4e7d005e823bcb68ba0,,1836715,167,,evan-feature22,full_rf_b,,1
131,2530,168,,,,1,1,1.0,1.0,0.0,1.0,,0.0-160.0,,1.0,716.0,1.0,0.75,1.0,0.7393376979999999,1.0,0.546045419,0.0,0.541267353,True,,5f12c4e7d005e823bcb68ba0,,1847256,168,,evan-feature22,full_rf_b,,0
132,2531,169,,,,2,2,0.0,0.0,-1.0,0.0,,0.0-161.0,,0.0,2062.0,0.0,0.75,1.0,0.75,0.0,0.485725895,0.0,0.527625395,True,,5f12c4e7d005e823bcb68ba0,,1859121,169,,evan-feature22,full_rf_b,,1
133,2532,170,,,,1,1,1.0,1.0,0.0,1.0,,0.0-162.0,,1.0,2884.0,1.0,0.75,1.0,0.725087974,0.0,0.488603595,0.0,0.504019206,True,,5f12c4e7d005e823bcb68ba0,,1871814,170,,evan-feature22,full_rf_b,,1
134,2533,171,,,,2,2,0.0,1.0,-1.0,0.0,,0.0-163.0,,0.0,992.0,0.0,0.745504295,1.0,0.75,0.0,0.452379914,1.0,0.50131194,True,,5f12c4e7d005e823bcb68ba0,,1882633,171,,evan-feature22,full_rf_b,,1
135,2534,172,,,,1,1,0.0,1.0,0.0,1.0,,0.0-164.0,,1.0,499.0,0.0,0.728513874,1.0,0.75,0.0,0.44125567200000004,0.0,0.531454591,True,,5f12c4e7d005e823bcb68ba0,,1892926,172,,evan-feature22,full_rf_b,,1
136,2535,173,,,,1,1,1.0,1.0,-1.0,0.0,,0.0-165.0,,-1.0,360.0,1.0,0.73790804,1.0,0.75,0.0,0.413036656,1.0,0.524619035,True,,5f12c4e7d005e823bcb68ba0,,1903101,173,,evan-feature22,full_rf_b,,0
137,2536,174,,,,2,2,0.0,0.0,-1.0,0.0,,0.0-166.0,,0.0,343.0,1.0,0.7080961309999999,0.0,0.708666865,0.0,0.431915581,0.0,0.481819489,True,,5f12c4e7d005e823bcb68ba0,,1913234,174,,evan-feature22,full_rf_b,,1
138,2537,175,,,,2,2,0.0,0.0,-1.0,0.0,,0.0-167.0,,0.0,796.0,0.0,0.721378003,0.0,0.71605913,0.0,0.36642387,0.0,0.5036739929999999,True,,5f12c4e7d005e823bcb68ba0,,1923835,175,,evan-feature22,full_rf_b,,0
139,2538,176,,,,1,1,0.0,0.0,0.0,1.0,,0.0-168.0,,0.0,1954.0,0.0,0.7340618959999999,0.0,0.699323252,1.0,0.35298046299999997,1.0,0.511241692,True,,5f12c4e7d005e823bcb68ba0,,1935583,176,,evan-feature22,full_rf_b,,1
140,2539,177,,,,2,2,0.0,1.0,0.0,1.0,,0.0-169.0,,1.0,641.0,1.0,0.75,1.0,0.70412698,0.0,0.380734814,1.0,0.529580116,True,,5f12c4e7d005e823bcb68ba0,,1946049,177,,evan-feature22,full_rf_b,,1
141,2540,178,,,,1,1,1.0,1.0,0.0,1.0,,0.0-170.0,,1.0,3197.0,1.0,0.7436654909999999,1.0,0.711182751,0.0,0.41125331,0.0,0.49554405,True,,5f12c4e7d005e823bcb68ba0,,1959065,178,,evan-feature22,full_rf_b,,1
142,2541,179,,,,1,1,0.0,1.0,-1.0,0.0,,0.0-171.0,,0.0,453.0,0.0,0.731607915,1.0,0.651774583,0.0,0.35688023,0.0,0.45194491600000003,True,,5f12c4e7d005e823bcb68ba0,,1969348,179,,evan-feature22,full_rf_b,,0
143,2542,180,,,,2,2,0.0,0.0,0.0,1.0,,0.0-172.0,,0.0,547.0,1.0,0.75,0.0,0.75,0.0,0.283145374,0.0,0.528608005,True,,5f12c4e7d005e823bcb68ba0,,1979699,180,,evan-feature22,full_rf_b,,1
144,2543,181,,,,2,2,0.0,0.0,-1.0,0.0,,0.0-173.0,,0.0,516.0,1.0,0.7491416890000001,1.0,0.7423785959999999,0.0,0.29135870399999997,0.0,0.498888318,True,,5f12c4e7d005e823bcb68ba0,,1990015,181,,evan-feature22,full_rf_b,,0
145,2544,182,,,,1,1,0.0,0.0,0.0,1.0,,0.0-174.0,,0.0,562.0,0.0,0.708569387,0.0,0.717682277,0.0,0.294421699,0.0,0.493838163,True,,5f12c4e7d005e823bcb68ba0,,2000396,182,,evan-feature22,full_rf_b,,1
146,2545,183,,,,1,1,0.0,0.0,-1.0,0.0,,0.0-175.0,,0.0,1154.0,0.0,0.75,0.0,0.7383382159999999,0.0,0.356098707,0.0,0.442533405,True,,5f12c4e7d005e823bcb68ba0,,2011348,183,,evan-feature22,full_rf_b,,0
147,2546,184,,,,2,2,0.0,0.0,-1.0,0.0,,0.0-176.0,,0.0,391.0,1.0,0.744527075,1.0,0.75,0.0,0.334127506,0.0,0.393165805,True,,5f12c4e7d005e823bcb68ba0,,2021547,184,,evan-feature22,full_rf_b,,1
148,2547,185,,,,1,1,1.0,0.0,-1.0,0.0,,0.0-177.0,,-1.0,1061.0,1.0,0.75,0.0,0.75,1.0,0.33571021799999995,0.0,0.350393962,True,,5f12c4e7d005e823bcb68ba0,,2032430,185,,evan-feature22,full_rf_b,,1
149,2548,186,,,,1,1,0.0,1.0,0.0,1.0,,0.0-178.0,,1.0,477.0,0.0,0.75,1.0,0.75,0.0,0.313628297,0.0,0.36349657399999996,True,,5f12c4e7d005e823bcb68ba0,,2042716,186,,evan-feature22,full_rf_b,,0
150,2549,187,,,,2,2,1.0,0.0,-1.0,0.0,,0.0-179.0,,-1.0,779.0,1.0,0.75,1.0,0.734284182,1.0,0.262667667,0.0,0.380199119,True,,5f12c4e7d005e823bcb68ba0,,2053313,187,,evan-feature22,full_rf_b,,1
151,2550,188,,,,1,1,1.0,1.0,-1.0,0.0,,0.0-180.0,,-1.0,1390.0,1.0,0.75,1.0,0.75,1.0,0.25,0.0,0.394494013,True,,5f12c4e7d005e823bcb68ba0,,2064512,188,,evan-feature22,full_rf_b,,1
152,2551,189,,,,2,2,1.0,0.0,-1.0,0.0,,0.0-181.0,,-1.0,514.0,1.0,0.722298145,1.0,0.7357822340000001,1.0,0.25,0.0,0.319142121,True,,5f12c4e7d005e823bcb68ba0,,2074845,189,,evan-feature22,full_rf_b,,1
153,2552,190,,,,1,1,1.0,1.0,-1.0,0.0,,0.0-182.0,,-1.0,671.0,1.0,0.73149275,1.0,0.724276446,0.0,0.305856907,0.0,0.281315057,True,,5f12c4e7d005e823bcb68ba0,,2085312,190,,evan-feature22,full_rf_b,,1
154,2553,191,,,,2,2,0.0,1.0,-1.0,0.0,,0.0-183.0,,0.0,512.0,1.0,0.7458732690000001,1.0,0.7336382459999999,0.0,0.272571964,1.0,0.266021999,True,,5f12c4e7d005e823bcb68ba0,,2095627,191,,evan-feature22,full_rf_b,,1
155,2554,192,,,,1,1,1.0,1.0,0.0,1.0,,0.0-184.0,,1.0,904.0,1.0,0.705579037,1.0,0.720778292,0.0,0.320238144,0.0,0.30971744,True,,5f12c4e7d005e823bcb68ba0,,2106342,192,,evan-feature22,full_rf_b,,1
156,2555,193,,,,SLOW,SLOW,,,0.0,1.0,,0.0-185.0,,-3.0,,1.0,0.700425648,1.0,0.7198784009999999,1.0,0.272590393,0.0,0.304182931,True,,5f12c4e7d005e823bcb68ba0,,2112161,193,,evan-feature22,full_rf_b,,1
157,2556,194,,,,2,2,0.0,0.0,0.0,1.0,,0.0-186.0,,0.0,406.0,1.0,0.735590785,1.0,0.722714973,0.0,0.25,0.0,0.323421091,True,,5f12c4e7d005e823bcb68ba0,,2122376,194,,evan-feature22,full_rf_b,,1
158,2557,195,,,,2,2,0.0,0.0,0.0,1.0,,0.0-187.0,,0.0,590.0,1.0,0.724807662,1.0,0.63146213,0.0,0.36836492600000004,0.0,0.34592153299999995,True,,5f12c4e7d005e823bcb68ba0,,2132775,195,,evan-feature22,full_rf_b,,0
159,2558,196,,,,1,1,0.0,1.0,-1.0,0.0,,0.0-188.0,,0.0,449.0,0.0,0.7352796909999999,1.0,0.555111392,1.0,0.36003922,0.0,0.31433779999999995,True,,5f12c4e7d005e823bcb68ba0,,2143044,196,,evan-feature22,full_rf_b,,1
160,2559,197,notice,,,,,,,,,,0.0-189.0,"{""Q0"":""no""}",,5827.0,,,,,,,,,True,,5f12c4e7d005e823bcb68ba0,,2148871,197,Q,survey-text,full_rf_b,,1
161,2560,198,track1,,[1],,,,,,,,0.0-190.0,"{""Q0"":""no""}",,3666.0,,,,,,,,,True,,5f12c4e7d005e823bcb68ba0,,2152553,198,Q,evan-quiz,full_rf_b,,1
162,2561,199,track2,,[0],,,,,,,,0.0-191.0,"{""Q0"":""yes""}",,5204.0,,,,,,,,,True,,5f12c4e7d005e823bcb68ba0,,2157757,199,Q,evan-quiz,full_rf_b,,1
163,2562,200,strat,,,,,,,,,,0.0-192.0,"{""Q0"":""ALTERNATING EVERY SO OFTEN""}",,14267.0,,,,,,,,,True,,5f12c4e7d005e823bcb68ba0,,2172039,200,Q,survey-text,full_rf_b,,1
