,index,Unnamed: 0,Q_name,button_pressed,choice_idxs,chosen_pos,chosen_state,chosen_state_f_1_outcome,chosen_state_f_2_outcome,f_1_reward,f_2_reward,incor_questions,internal_node_id,responses,reward_received,rt,s_1_f_1_outcome,s_1_f_1_prob,s_1_f_2_outcome,s_1_f_2_prob,s_2_f_1_outcome,s_2_f_1_prob,s_2_f_2_outcome,s_2_f_2_prob,safe_first,stimulus,subjectID,success,time_elapsed,trial_index,trial_num,trial_type,version,view_history,switching
0,10718,25,,,,1,1,0.0,0.0,-1.0,0.0,,0.0-27.0,,0.0,1019.425,0.0,0.6,0.0,0.6,0.0,0.4,0.0,0.4,False,,5d45d2c3b30ae50001578172,,1136268,25,,evan-feature22,full_pf_b,,0
1,10719,26,,,,2,2,0.0,0.0,-1.0,0.0,,0.0-28.0,,0.0,432.8599999,1.0,0.608053294,1.0,0.63424552,0.0,0.397152172,0.0,0.347069101,False,,5d45d2c3b30ae50001578172,,1146544,26,,evan-feature22,full_pf_b,,1
2,10720,27,,,,2,2,1.0,0.0,-1.0,0.0,,0.0-29.0,,-1.0,251.835,1.0,0.642237155,1.0,0.648566321,1.0,0.389407674,0.0,0.285525717,False,,5d45d2c3b30ae50001578172,,1156646,27,,evan-feature22,full_pf_b,,0
3,10721,28,,,,1,1,1.0,1.0,-1.0,0.0,,0.0-30.0,,-1.0,561.8349999,1.0,0.661086576,1.0,0.630492543,0.0,0.399058924,1.0,0.25,False,,5d45d2c3b30ae50001578172,,1167047,28,,evan-feature22,full_pf_b,,1
4,10722,29,,,,1,1,0.0,1.0,0.0,1.0,,0.0-31.0,,1.0,294.74,0.0,0.631324137,1.0,0.6269842929999999,0.0,0.38734784299999997,0.0,0.25,False,,5d45d2c3b30ae50001578172,,1177173,29,,evan-feature22,full_pf_b,,0
5,10723,30,,,,2,2,0.0,0.0,0.0,1.0,,0.0-32.0,,0.0,321.4799999,1.0,0.6381991370000001,1.0,0.68987999,0.0,0.384107265,0.0,0.271332943,False,,5d45d2c3b30ae50001578172,,1187323,30,,evan-feature22,full_pf_b,,1
6,10724,31,,,,1,1,1.0,1.0,-1.0,0.0,,0.0-33.0,,-1.0,514.475,1.0,0.66034901,1.0,0.742641349,0.0,0.360225629,0.0,0.25,False,,5d45d2c3b30ae50001578172,,1197662,31,,evan-feature22,full_pf_b,,1
7,10725,32,,,,1,1,1.0,1.0,-1.0,0.0,,0.0-34.0,,-1.0,230.4499999,1.0,0.638612418,1.0,0.75,0.0,0.367273939,0.0,0.25,False,,5d45d2c3b30ae50001578172,,1207722,32,,evan-feature22,full_pf_b,,0
8,10726,33,,,,1,1,1.0,1.0,0.0,1.0,,0.0-35.0,,1.0,335.2150001,1.0,0.624340629,1.0,0.75,1.0,0.425829545,0.0,0.25,False,,5d45d2c3b30ae50001578172,,1217884,33,,evan-feature22,full_pf_b,,0
9,10727,34,,,,2,2,0.0,1.0,0.0,1.0,,0.0-36.0,,1.0,1143.8,0.0,0.621999804,0.0,0.75,0.0,0.368609357,1.0,0.25,False,,5d45d2c3b30ae50001578172,,1228850,34,,evan-feature22,full_pf_b,,1
10,10728,35,,,,1,1,1.0,1.0,-1.0,0.0,,0.0-37.0,,-1.0,2300.6,1.0,0.62666403,1.0,0.75,0.0,0.311151498,1.0,0.25,False,,5d45d2c3b30ae50001578172,,1240987,35,,evan-feature22,full_pf_b,,1
11,10729,36,,,,2,2,0.0,0.0,0.0,1.0,,0.0-38.0,,0.0,527.73,1.0,0.6819650009999999,1.0,0.75,0.0,0.310763048,0.0,0.25,False,,5d45d2c3b30ae50001578172,,1251336,36,,evan-feature22,full_pf_b,,1
12,10730,37,,,,1,1,1.0,1.0,-1.0,0.0,,0.0-39.0,,-1.0,984.67,1.0,0.740626951,1.0,0.75,0.0,0.25,0.0,0.25,False,,5d45d2c3b30ae50001578172,,1262158,37,,evan-feature22,full_pf_b,,1
13,10731,38,,,,1,1,1.0,0.0,-1.0,0.0,,0.0-40.0,,-1.0,581.005,1.0,0.739599242,0.0,0.742034978,1.0,0.25397114600000004,0.0,0.25,False,,5d45d2c3b30ae50001578172,,1272572,38,,evan-feature22,full_pf_b,,0
14,10732,39,,,,2,2,0.0,0.0,-1.0,0.0,,0.0-41.0,,0.0,441.555,1.0,0.732341315,1.0,0.72735643,0.0,0.25,0.0,0.25,False,,5d45d2c3b30ae50001578172,,1282853,39,,evan-feature22,full_pf_b,,1
15,10733,40,,,,2,2,1.0,0.0,-1.0,0.0,,0.0-42.0,,-1.0,382.615,1.0,0.7062287770000001,1.0,0.75,1.0,0.29002151,0.0,0.288256649,False,,5d45d2c3b30ae50001578172,,1293072,40,,evan-feature22,full_pf_b,,0
16,10734,41,,,,1,1,1.0,1.0,-1.0,0.0,,0.0-43.0,,-1.0,800.13,1.0,0.7086029209999999,1.0,0.75,0.0,0.274129113,0.0,0.262851608,False,,5d45d2c3b30ae50001578172,,1303704,41,,evan-feature22,full_pf_b,,1
17,10735,42,,,,1,1,0.0,0.0,-1.0,0.0,,0.0-44.0,,0.0,1189.375,0.0,0.669189651,0.0,0.727614338,0.0,0.298444036,0.0,0.296944518,False,,5d45d2c3b30ae50001578172,,1314717,42,,evan-feature22,full_pf_b,,0
18,10736,43,,,,SLOW,SLOW,,,-1.0,0.0,,0.0-45.0,,-3.0,,0.0,0.6819912929999999,1.0,0.7179434290000001,0.0,0.265003961,0.0,0.28157921199999997,False,,5d45d2c3b30ae50001578172,,1320543,43,,evan-feature22,full_pf_b,,1
19,10737,44,,,,1,1,1.0,0.0,0.0,1.0,,0.0-46.0,,0.0,2309.985,1.0,0.665275002,0.0,0.723065271,0.0,0.260414971,0.0,0.30973870000000003,False,,5d45d2c3b30ae50001578172,,1332673,44,,evan-feature22,full_pf_b,,1
20,10738,45,,,,2,2,0.0,0.0,-1.0,0.0,,0.0-47.0,,0.0,205.035,0.0,0.6660593260000001,1.0,0.728032907,0.0,0.30922817,0.0,0.338778608,False,,5d45d2c3b30ae50001578172,,1342709,45,,evan-feature22,full_pf_b,,1
21,10739,46,,,,2,2,0.0,1.0,-1.0,0.0,,0.0-48.0,,0.0,350.8,1.0,0.702068785,0.0,0.6528750879999999,0.0,0.287329608,1.0,0.35789613200000003,False,,5d45d2c3b30ae50001578172,,1352886,46,,evan-feature22,full_pf_b,,0
22,10740,47,,,,1,1,1.0,1.0,-1.0,0.0,,0.0-49.0,,-1.0,1329.29,1.0,0.651939787,1.0,0.636725589,1.0,0.284834488,0.0,0.358563756,False,,5d45d2c3b30ae50001578172,,1364036,47,,evan-feature22,full_pf_b,,1
23,10741,48,,,,1,1,0.0,0.0,0.0,1.0,,0.0-50.0,,0.0,449.625,0.0,0.67573929,0.0,0.612550049,0.0,0.37130387600000003,0.0,0.383542402,False,,5d45d2c3b30ae50001578172,,1374299,48,,evan-feature22,full_pf_b,,0
24,10742,49,,,,2,2,0.0,1.0,0.0,1.0,,0.0-51.0,,1.0,190.19,0.0,0.620753801,1.0,0.60513644,0.0,0.385529434,1.0,0.340361743,False,,5d45d2c3b30ae50001578172,,1384303,49,,evan-feature22,full_pf_b,,1
25,10743,50,,,,1,1,0.0,1.0,0.0,1.0,,0.0-52.0,,1.0,455.195,0.0,0.673564893,1.0,0.672437924,0.0,0.292955382,0.0,0.337633795,False,,5d45d2c3b30ae50001578172,,1394590,50,,evan-feature22,full_pf_b,,1
26,10744,51,,,,1,1,0.0,0.0,-1.0,0.0,,0.0-53.0,,0.0,728.875,0.0,0.6749427,0.0,0.724197502,0.0,0.32391132100000003,1.0,0.350995264,False,,5d45d2c3b30ae50001578172,,1405144,51,,evan-feature22,full_pf_b,,0
27,10745,52,,,,2,2,0.0,0.0,-1.0,0.0,,0.0-54.0,,0.0,293.8699999,1.0,0.6940159379999999,1.0,0.75,0.0,0.31710554399999996,0.0,0.413450341,False,,5d45d2c3b30ae50001578172,,1415271,52,,evan-feature22,full_pf_b,,1
28,10746,53,,,,1,1,1.0,1.0,-1.0,0.0,,0.0-55.0,,-1.0,567.38,1.0,0.6916018270000001,1.0,0.69001187,0.0,0.261817804,0.0,0.40038635,False,,5d45d2c3b30ae50001578172,,1425659,53,,evan-feature22,full_pf_b,,1
29,10747,54,,,,2,2,1.0,0.0,-1.0,0.0,,0.0-56.0,,-1.0,489.18,0.0,0.641061544,1.0,0.71337992,1.0,0.277296461,0.0,0.47372791700000005,False,,5d45d2c3b30ae50001578172,,1435979,54,,evan-feature22,full_pf_b,,1
30,10748,55,,,,2,2,1.0,0.0,-1.0,0.0,,0.0-57.0,,-1.0,623.26,1.0,0.6082438520000001,0.0,0.708471106,1.0,0.28745137,0.0,0.564174476,False,,5d45d2c3b30ae50001578172,,1446419,55,,evan-feature22,full_pf_b,,0
31,10749,56,,,,2,2,0.0,1.0,-1.0,0.0,,0.0-58.0,,0.0,1315.875,1.0,0.6051112120000001,0.0,0.7118147229999999,0.0,0.272390611,1.0,0.5595149939999999,False,,5d45d2c3b30ae50001578172,,1457560,56,,evan-feature22,full_pf_b,,0
32,10750,57,,,,1,1,0.0,1.0,-1.0,0.0,,0.0-59.0,,0.0,2086.665,0.0,0.582420852,1.0,0.635867583,0.0,0.31089574,0.0,0.5227206520000001,False,,5d45d2c3b30ae50001578172,,1469470,57,,evan-feature22,full_pf_b,,1
33,10751,58,,,,1,1,0.0,1.0,0.0,1.0,,0.0-60.0,,1.0,793.0149999,0.0,0.623195575,1.0,0.655026044,1.0,0.25,1.0,0.560387538,False,,5d45d2c3b30ae50001578172,,1480090,58,,evan-feature22,full_pf_b,,0
34,10752,59,,,,2,2,0.0,1.0,-1.0,0.0,,0.0-61.0,,0.0,399.785,1.0,0.601889598,0.0,0.678198724,0.0,0.25,1.0,0.559922936,False,,5d45d2c3b30ae50001578172,,1490320,59,,evan-feature22,full_pf_b,,1
35,10753,60,,,,2,2,1.0,1.0,-1.0,0.0,,0.0-62.0,,-1.0,660.1,0.0,0.601259914,1.0,0.704681482,1.0,0.33908969299999997,1.0,0.505003715,False,,5d45d2c3b30ae50001578172,,1500800,60,,evan-feature22,full_pf_b,,0
36,10754,61,,,,1,1,0.0,1.0,-1.0,0.0,,0.0-63.0,,0.0,471.97,0.0,0.59645454,1.0,0.710437172,1.0,0.327441879,1.0,0.391749613,False,,5d45d2c3b30ae50001578172,,1511096,61,,evan-feature22,full_pf_b,,1
37,10755,62,,,,2,2,0.0,0.0,-1.0,0.0,,0.0-64.0,,0.0,409.585,0.0,0.529473,1.0,0.636758527,0.0,0.301338063,0.0,0.365661481,False,,5d45d2c3b30ae50001578172,,1521312,62,,evan-feature22,full_pf_b,,1
38,10756,63,,,,1,1,1.0,0.0,0.0,1.0,,0.0-65.0,,0.0,13.17500009,1.0,0.541657162,0.0,0.634541962,0.0,0.343535366,1.0,0.371763742,False,,5d45d2c3b30ae50001578172,,1531147,63,,evan-feature22,full_pf_b,,1
39,10757,64,,,,1,1,0.0,1.0,-1.0,0.0,,0.0-66.0,,0.0,323.6250001,0.0,0.5707533260000001,1.0,0.589121171,0.0,0.326428396,1.0,0.43961622899999997,False,,5d45d2c3b30ae50001578172,,1541313,64,,evan-feature22,full_pf_b,,0
40,10758,65,,,,1,1,0.0,0.0,-1.0,0.0,,0.0-67.0,,0.0,1492.08,0.0,0.5707533260000001,0.0,0.589121171,0.0,0.326428396,0.0,0.43961622899999997,False,,5d45d2c3b30ae50001578172,,1552638,65,,evan-feature22,full_pf_b,,0
41,10759,66,,,,2,2,1.0,0.0,-1.0,0.0,,0.0-68.0,,-1.0,1341.17,1.0,0.506271295,0.0,0.641775594,1.0,0.37149690700000004,0.0,0.404330166,False,,5d45d2c3b30ae50001578172,,1563819,66,,evan-feature22,full_pf_b,,1
42,10760,67,,,,1,1,1.0,1.0,0.0,1.0,,0.0-69.0,,1.0,228.6700001,1.0,0.455642565,1.0,0.623605825,1.0,0.358753011,0.0,0.346174041,False,,5d45d2c3b30ae50001578172,,1573869,67,,evan-feature22,full_pf_b,,1
43,10761,68,,,,1,1,1.0,0.0,0.0,1.0,,0.0-70.0,,0.0,203.95,1.0,0.483677308,0.0,0.5904681070000001,0.0,0.402218411,0.0,0.35344697,False,,5d45d2c3b30ae50001578172,,1583891,68,,evan-feature22,full_pf_b,,0
44,10762,69,,,,1,1,1.0,1.0,0.0,1.0,,0.0-71.0,,1.0,649.725,1.0,0.394210977,1.0,0.558925494,1.0,0.540052017,0.0,0.35182128700000004,False,,5d45d2c3b30ae50001578172,,1594335,69,,evan-feature22,full_pf_b,,0
45,10763,70,,,,1,1,0.0,0.0,-1.0,0.0,,0.0-72.0,,0.0,570.18,0.0,0.382300414,0.0,0.577670603,1.0,0.607608448,0.0,0.378261578,False,,5d45d2c3b30ae50001578172,,1604740,70,,evan-feature22,full_pf_b,,0
46,10764,71,,,,1,1,0.0,0.0,-1.0,0.0,,0.0-73.0,,0.0,195.205,0.0,0.357596762,0.0,0.5929076529999999,1.0,0.6579790010000001,0.0,0.401326777,False,,5d45d2c3b30ae50001578172,,1614754,71,,evan-feature22,full_pf_b,,0
47,10765,72,,,,1,1,1.0,0.0,-1.0,0.0,,0.0-74.0,,-1.0,1307.77,1.0,0.362033495,0.0,0.582308608,1.0,0.649195052,1.0,0.355158505,False,,5d45d2c3b30ae50001578172,,1625898,72,,evan-feature22,full_pf_b,,0
48,10766,73,,,,2,2,0.0,0.0,-1.0,0.0,,0.0-75.0,,0.0,2295.92,1.0,0.369620635,1.0,0.669100864,0.0,0.706059111,0.0,0.362516241,False,,5d45d2c3b30ae50001578172,,1638034,73,,evan-feature22,full_pf_b,,1
49,10767,74,,,,2,2,1.0,0.0,-1.0,0.0,,0.0-76.0,,-1.0,2175.945,1.0,0.41477751399999996,0.0,0.7284416779999999,1.0,0.7182656940000001,0.0,0.36228040899999997,False,,5d45d2c3b30ae50001578172,,1650037,74,,evan-feature22,full_pf_b,,0
50,10768,75,,,,SLOW,SLOW,,,0.0,1.0,,0.0-77.0,,-3.0,,0.0,0.37675460299999997,0.0,0.703250285,1.0,0.75,0.0,0.461979164,False,,5d45d2c3b30ae50001578172,,1655865,75,,evan-feature22,full_pf_b,,1
51,10769,76,,,,2,2,1.0,1.0,0.0,1.0,,0.0-78.0,,1.0,822.3849999,1.0,0.398716075,1.0,0.6723864890000001,1.0,0.674153818,1.0,0.519029516,False,,5d45d2c3b30ae50001578172,,1666511,76,,evan-feature22,full_pf_b,,1
52,10770,77,,,,2,2,1.0,1.0,-1.0,0.0,,0.0-79.0,,-1.0,2502.925,1.0,0.34677856700000004,0.0,0.69057175,1.0,0.6822438540000001,1.0,0.477292237,False,,5d45d2c3b30ae50001578172,,1678825,77,,evan-feature22,full_pf_b,,0
53,10771,78,,,,1,1,1.0,1.0,0.0,1.0,,0.0-80.0,,1.0,428.1199999,1.0,0.28580469199999997,1.0,0.68408818,1.0,0.684207565,1.0,0.49780448299999996,False,,5d45d2c3b30ae50001578172,,1689095,78,,evan-feature22,full_pf_b,,1
54,10773,80,,,,1,1,1.0,0.0,-1.0,0.0,,0.0-82.0,,-1.0,1000.835,1.0,0.25,0.0,0.7405808970000001,1.0,0.679614108,0.0,0.436436964,False,,5d45d2c3b30ae50001578172,,1729448,80,,evan-feature22,full_pf_b,,0
55,10774,81,,,,2,2,1.0,1.0,0.0,1.0,,0.0-83.0,,1.0,1210.945,0.0,0.29890393,1.0,0.730505706,1.0,0.7328203320000001,1.0,0.439256938,False,,5d45d2c3b30ae50001578172,,1740478,81,,evan-feature22,full_pf_b,,1
56,10775,82,,,,2,2,1.0,0.0,-1.0,0.0,,0.0-84.0,,-1.0,1799.065,0.0,0.326762398,1.0,0.7148059609999999,1.0,0.75,0.0,0.44389608799999997,False,,5d45d2c3b30ae50001578172,,1752086,82,,evan-feature22,full_pf_b,,0
57,10776,83,,,,1,1,1.0,1.0,-1.0,0.0,,0.0-85.0,,-1.0,854.9,1.0,0.295168515,1.0,0.739760854,1.0,0.719947008,0.0,0.35277284600000003,False,,5d45d2c3b30ae50001578172,,1762777,83,,evan-feature22,full_pf_b,,1
58,10777,84,,,,1,1,0.0,1.0,-1.0,0.0,,0.0-86.0,,0.0,2413.37,0.0,0.25,1.0,0.70781482,1.0,0.75,1.0,0.286095925,False,,5d45d2c3b30ae50001578172,,1775017,84,,evan-feature22,full_pf_b,,0
59,10778,85,,,,1,1,0.0,0.0,0.0,1.0,,0.0-87.0,,0.0,1844.095,0.0,0.25638190899999996,0.0,0.704088163,1.0,0.75,0.0,0.26872601399999996,False,,5d45d2c3b30ae50001578172,,1786703,85,,evan-feature22,full_pf_b,,0
60,10779,86,,,,2,2,1.0,0.0,0.0,1.0,,0.0-88.0,,0.0,832.1100001,0.0,0.271581126,1.0,0.669760107,1.0,0.733896663,0.0,0.273244572,False,,5d45d2c3b30ae50001578172,,1797336,86,,evan-feature22,full_pf_b,,1
61,10780,87,,,,2,2,1.0,0.0,0.0,1.0,,0.0-89.0,,0.0,421.005,0.0,0.257144401,1.0,0.600575706,1.0,0.74488122,0.0,0.25,False,,5d45d2c3b30ae50001578172,,1807570,87,,evan-feature22,full_pf_b,,0
62,10781,88,,,,1,1,0.0,1.0,-1.0,0.0,,0.0-90.0,,0.0,1780.27,0.0,0.25,1.0,0.616870026,1.0,0.723610234,0.0,0.25,False,,5d45d2c3b30ae50001578172,,1819190,88,,evan-feature22,full_pf_b,,1
63,10782,89,,,,1,1,0.0,1.0,0.0,1.0,,0.0-91.0,,1.0,2120.46,0.0,0.25,1.0,0.583540187,1.0,0.7041042559999999,0.0,0.285961995,False,,5d45d2c3b30ae50001578172,,1831147,89,,evan-feature22,full_pf_b,,0
64,10783,90,,,,1,1,0.0,0.0,-1.0,0.0,,0.0-92.0,,0.0,309.835,0.0,0.27254536,0.0,0.53875765,1.0,0.693783448,0.0,0.284961652,False,,5d45d2c3b30ae50001578172,,1841268,90,,evan-feature22,full_pf_b,,0
65,10784,91,,,,2,2,1.0,1.0,0.0,1.0,,0.0-93.0,,1.0,431.9099999,0.0,0.25,1.0,0.548431252,1.0,0.734221895,1.0,0.279445214,False,,5d45d2c3b30ae50001578172,,1851525,91,,evan-feature22,full_pf_b,,1
66,10785,92,,,,2,2,0.0,0.0,-1.0,0.0,,0.0-94.0,,0.0,448.58,0.0,0.258640684,0.0,0.545878066,0.0,0.725245965,0.0,0.31487537,False,,5d45d2c3b30ae50001578172,,1861810,92,,evan-feature22,full_pf_b,,0
67,10786,93,,,,SLOW,SLOW,,,-1.0,0.0,,0.0-95.0,,-3.0,,0.0,0.251103711,0.0,0.5776290629999999,1.0,0.696320133,1.0,0.317831047,False,,5d45d2c3b30ae50001578172,,1867646,93,,evan-feature22,full_pf_b,,1
68,10787,94,,,,2,2,1.0,0.0,-1.0,0.0,,0.0-96.0,,-1.0,2062.425,1.0,0.276630292,1.0,0.617329858,1.0,0.73838088,0.0,0.261471582,False,,5d45d2c3b30ae50001578172,,1879564,94,,evan-feature22,full_pf_b,,1
69,10788,95,,,,1,1,0.0,1.0,0.0,1.0,,0.0-97.0,,1.0,538.06,0.0,0.297716424,1.0,0.618863717,1.0,0.7402358259999999,0.0,0.262600834,False,,5d45d2c3b30ae50001578172,,1889917,95,,evan-feature22,full_pf_b,,1
70,10789,96,,,,1,1,0.0,1.0,-1.0,0.0,,0.0-98.0,,0.0,3138.565,0.0,0.290935512,1.0,0.695370945,1.0,0.706570507,1.0,0.280030553,False,,5d45d2c3b30ae50001578172,,1902879,96,,evan-feature22,full_pf_b,,0
71,10790,97,,,,2,2,1.0,0.0,-1.0,0.0,,0.0-99.0,,-1.0,322.725,0.0,0.25,0.0,0.6465277079999999,1.0,0.67766682,0.0,0.25,False,,5d45d2c3b30ae50001578172,,1913044,97,,evan-feature22,full_pf_b,,1
72,10791,98,,,,1,1,1.0,1.0,-1.0,0.0,,0.0-100.0,,-1.0,300.225,1.0,0.26463816,1.0,0.636100213,1.0,0.646048507,0.0,0.265607101,False,,5d45d2c3b30ae50001578172,,1923155,98,,evan-feature22,full_pf_b,,1
73,10792,99,,,,1,1,0.0,0.0,-1.0,0.0,,0.0-101.0,,0.0,2708.88,0.0,0.314340707,0.0,0.667795927,1.0,0.613630805,1.0,0.25,False,,5d45d2c3b30ae50001578172,,1935683,99,,evan-feature22,full_pf_b,,0
74,10793,100,,,,2,2,0.0,1.0,-1.0,0.0,,0.0-102.0,,0.0,3291.475,0.0,0.28685784,1.0,0.6622549529999999,0.0,0.652154117,1.0,0.25,False,,5d45d2c3b30ae50001578172,,1948809,100,,evan-feature22,full_pf_b,,1
75,10794,101,,,,2,2,1.0,1.0,0.0,1.0,,0.0-103.0,,1.0,241.33,0.0,0.304106554,0.0,0.631289538,1.0,0.707041942,1.0,0.29314237,False,,5d45d2c3b30ae50001578172,,1958875,101,,evan-feature22,full_pf_b,,0
76,10795,102,,,,1,1,0.0,1.0,0.0,1.0,,0.0-104.0,,1.0,767.61,0.0,0.304806932,1.0,0.571167718,1.0,0.680472346,0.0,0.25,False,,5d45d2c3b30ae50001578172,,1969477,102,,evan-feature22,full_pf_b,,1
77,10796,103,,,,2,2,1.0,0.0,0.0,1.0,,0.0-105.0,,0.0,586.3549998999999,0.0,0.37919861,0.0,0.5724849710000001,1.0,0.705638003,0.0,0.30179300600000003,False,,5d45d2c3b30ae50001578172,,1979901,103,,evan-feature22,full_pf_b,,1
78,10797,104,,,,1,1,0.0,0.0,0.0,1.0,,0.0-106.0,,0.0,2021.885,0.0,0.464277969,0.0,0.554034373,1.0,0.7372627340000001,0.0,0.264699741,False,,5d45d2c3b30ae50001578172,,1991736,104,,evan-feature22,full_pf_b,,1
79,10798,105,,,,1,1,1.0,0.0,-1.0,0.0,,0.0-107.0,,-1.0,794.325,1.0,0.465104323,0.0,0.530793115,1.0,0.75,0.0,0.31683071,False,,5d45d2c3b30ae50001578172,,2002364,105,,evan-feature22,full_pf_b,,0
80,10799,106,,,,1,1,1.0,0.0,0.0,1.0,,0.0-108.0,,0.0,639.555,1.0,0.465104323,0.0,0.530793115,0.0,0.75,1.0,0.31683071,False,,5d45d2c3b30ae50001578172,,2012837,106,,evan-feature22,full_pf_b,,0
81,10800,107,,,,2,2,0.0,0.0,0.0,1.0,,0.0-109.0,,0.0,1434.1,1.0,0.46833986,0.0,0.570249239,0.0,0.7244472590000001,0.0,0.364114163,False,,5d45d2c3b30ae50001578172,,2024103,107,,evan-feature22,full_pf_b,,1
82,10801,108,,,,2,2,0.0,0.0,0.0,1.0,,0.0-110.0,,0.0,318.075,0.0,0.445444024,1.0,0.649673355,0.0,0.6845441290000001,0.0,0.300660449,False,,5d45d2c3b30ae50001578172,,2034255,108,,evan-feature22,full_pf_b,,0
83,10802,109,,,,2,2,1.0,0.0,0.0,1.0,,0.0-111.0,,0.0,669.75,0.0,0.39909721299999995,1.0,0.6715179509999999,1.0,0.742310028,0.0,0.35496088299999995,False,,5d45d2c3b30ae50001578172,,2044750,109,,evan-feature22,full_pf_b,,0
84,10803,110,,,,2,2,1.0,0.0,0.0,1.0,,0.0-112.0,,0.0,1342.55,1.0,0.37956104799999996,1.0,0.694725302,1.0,0.7181651309999999,0.0,0.38726906299999997,False,,5d45d2c3b30ae50001578172,,2055920,110,,evan-feature22,full_pf_b,,0
85,10804,111,,,,2,2,1.0,0.0,0.0,1.0,,0.0-113.0,,0.0,2484.635,0.0,0.404995034,1.0,0.724375412,1.0,0.6910946859999999,0.0,0.387187347,False,,5d45d2c3b30ae50001578172,,2068237,111,,evan-feature22,full_pf_b,,0
86,10805,112,,,,1,1,0.0,1.0,0.0,1.0,,0.0-114.0,,1.0,815.05,0.0,0.461740803,1.0,0.75,1.0,0.75,1.0,0.34872038200000005,False,,5d45d2c3b30ae50001578172,,2078872,112,,evan-feature22,full_pf_b,,1
87,10806,113,,,,1,1,0.0,1.0,-1.0,0.0,,0.0-115.0,,0.0,234.47500010000002,0.0,0.43821380600000004,1.0,0.738833273,0.0,0.728286963,0.0,0.399538128,False,,5d45d2c3b30ae50001578172,,2088942,113,,evan-feature22,full_pf_b,,0
88,10807,114,,,,2,2,0.0,1.0,0.0,1.0,,0.0-116.0,,1.0,278.845,0.0,0.41709882,1.0,0.736666736,0.0,0.75,1.0,0.389095584,False,,5d45d2c3b30ae50001578172,,2099048,114,,evan-feature22,full_pf_b,,1
89,10808,115,,,,2,2,1.0,1.0,0.0,1.0,,0.0-117.0,,1.0,382.1,1.0,0.39749009799999996,1.0,0.744320029,1.0,0.75,1.0,0.363848678,False,,5d45d2c3b30ae50001578172,,2109257,115,,evan-feature22,full_pf_b,,0
90,10809,116,,,,1,1,1.0,1.0,-1.0,0.0,,0.0-118.0,,-1.0,932.4599999,1.0,0.392653706,1.0,0.75,1.0,0.75,0.0,0.384386976,False,,5d45d2c3b30ae50001578172,,2120032,116,,evan-feature22,full_pf_b,,1
91,10810,117,,,,2,2,1.0,1.0,-1.0,0.0,,0.0-119.0,,-1.0,517.535,0.0,0.31190902600000003,1.0,0.75,1.0,0.732413819,1.0,0.413082932,False,,5d45d2c3b30ae50001578172,,2130382,117,,evan-feature22,full_pf_b,,1
92,10811,118,,,,1,1,0.0,1.0,0.0,1.0,,0.0-120.0,,1.0,339.635,0.0,0.366917648,1.0,0.740073855,0.0,0.75,0.0,0.352861979,False,,5d45d2c3b30ae50001578172,,2140552,118,,evan-feature22,full_pf_b,,1
93,10812,119,,,,2,2,1.0,0.0,0.0,1.0,,0.0-121.0,,0.0,838.0450001,0.0,0.3645172,1.0,0.721770713,1.0,0.75,0.0,0.404074511,False,,5d45d2c3b30ae50001578172,,2151230,119,,evan-feature22,full_pf_b,,1
94,10813,120,,,,1,1,0.0,1.0,0.0,1.0,,0.0-122.0,,1.0,1318.05,0.0,0.35205600299999995,1.0,0.68983859,1.0,0.739735447,0.0,0.366895945,False,,5d45d2c3b30ae50001578172,,2162392,120,,evan-feature22,full_pf_b,,1
95,10814,121,,,,1,1,0.0,1.0,0.0,1.0,,0.0-123.0,,1.0,761.53,0.0,0.40998722600000004,1.0,0.720859127,1.0,0.673854955,0.0,0.368528541,False,,5d45d2c3b30ae50001578172,,2172998,121,,evan-feature22,full_pf_b,,0
96,10815,122,,,,1,1,1.0,1.0,-1.0,0.0,,0.0-124.0,,-1.0,544.76,1.0,0.353625316,1.0,0.75,1.0,0.695605473,0.0,0.38303674200000004,False,,5d45d2c3b30ae50001578172,,2183383,122,,evan-feature22,full_pf_b,,0
97,10816,123,,,,1,1,1.0,0.0,0.0,1.0,,0.0-125.0,,0.0,576.58,1.0,0.359216989,0.0,0.75,1.0,0.6987915090000001,0.0,0.35169046200000004,False,,5d45d2c3b30ae50001578172,,2193794,123,,evan-feature22,full_pf_b,,0
98,10817,124,,,,SLOW,SLOW,,,-1.0,0.0,,0.0-126.0,,-3.0,,0.0,0.35834496899999996,1.0,0.75,1.0,0.707067742,0.0,0.416763636,False,,5d45d2c3b30ae50001578172,,2199630,124,,evan-feature22,full_pf_b,,1
99,10818,125,,,,1,1,0.0,1.0,-1.0,0.0,,0.0-127.0,,0.0,533.3750001,0.0,0.38741613799999997,1.0,0.7177369570000001,1.0,0.734902455,1.0,0.49438664299999996,False,,5d45d2c3b30ae50001578172,,2209988,125,,evan-feature22,full_pf_b,,1
100,10819,126,,,,2,2,1.0,1.0,0.0,1.0,,0.0-128.0,,1.0,409.7750001,1.0,0.405255252,0.0,0.7300466640000001,1.0,0.7027748070000001,1.0,0.504359668,False,,5d45d2c3b30ae50001578172,,2220237,126,,evan-feature22,full_pf_b,,1
101,10820,127,,,,2,2,1.0,1.0,0.0,1.0,,0.0-129.0,,1.0,322.335,1.0,0.40697073,0.0,0.7260142190000001,1.0,0.724461982,1.0,0.522779179,False,,5d45d2c3b30ae50001578172,,2230372,127,,evan-feature22,full_pf_b,,0
102,10821,128,,,,2,2,1.0,1.0,0.0,1.0,,0.0-130.0,,1.0,556.2249999,1.0,0.43906215299999996,1.0,0.7252802340000001,1.0,0.719079934,1.0,0.5712990579999999,False,,5d45d2c3b30ae50001578172,,2240768,128,,evan-feature22,full_pf_b,,0
103,10822,129,,,,2,2,1.0,1.0,0.0,1.0,,0.0-131.0,,1.0,708.94,1.0,0.4076705,1.0,0.73280499,1.0,0.681313127,1.0,0.523891346,False,,5d45d2c3b30ae50001578172,,2251305,129,,evan-feature22,full_pf_b,,0
104,10823,130,,,,1,1,1.0,1.0,0.0,1.0,,0.0-132.0,,1.0,1403.345,1.0,0.399102911,1.0,0.730498344,0.0,0.661080239,0.0,0.46742603,False,,5d45d2c3b30ae50001578172,,2262538,130,,evan-feature22,full_pf_b,,1
105,10824,131,,,,1,1,1.0,1.0,-1.0,0.0,,0.0-133.0,,-1.0,469.51,1.0,0.356477282,1.0,0.712296395,1.0,0.641812684,0.0,0.44868414,False,,5d45d2c3b30ae50001578172,,2272839,131,,evan-feature22,full_pf_b,,0
106,10825,132,,,,2,2,1.0,1.0,0.0,1.0,,0.0-134.0,,1.0,385.4949999,0.0,0.462760722,1.0,0.692349322,1.0,0.700947931,1.0,0.394680266,False,,5d45d2c3b30ae50001578172,,2283058,132,,evan-feature22,full_pf_b,,1
107,10826,133,,,,1,1,0.0,1.0,0.0,1.0,,0.0-135.0,,1.0,369.9399999,0.0,0.422306413,1.0,0.718375916,1.0,0.706340917,1.0,0.367787185,False,,5d45d2c3b30ae50001578172,,2293271,133,,evan-feature22,full_pf_b,,1
108,10828,135,,,,1,1,1.0,0.0,0.0,1.0,,0.0-137.0,,0.0,2370.48,1.0,0.4582233,0.0,0.643834117,0.0,0.75,0.0,0.39615823299999997,False,,5d45d2c3b30ae50001578172,,3345855,135,,evan-feature22,full_pf_b,,0
109,10829,136,,,,2,2,1.0,0.0,0.0,1.0,,0.0-138.0,,0.0,565.9899998999999,1.0,0.43813437899999996,1.0,0.651283804,1.0,0.729674191,0.0,0.37711048,False,,5d45d2c3b30ae50001578172,,3356264,136,,evan-feature22,full_pf_b,,1
110,10830,137,,,,1,1,0.0,0.0,0.0,1.0,,0.0-139.0,,0.0,375.4949999,0.0,0.471199094,0.0,0.6470010979999999,1.0,0.715008097,1.0,0.410656191,False,,5d45d2c3b30ae50001578172,,3366470,137,,evan-feature22,full_pf_b,,1
111,10831,138,,,,2,2,1.0,0.0,-1.0,0.0,,0.0-140.0,,-1.0,579.365,1.0,0.42486406,1.0,0.629771829,1.0,0.6550939960000001,0.0,0.459093873,False,,5d45d2c3b30ae50001578172,,3376878,138,,evan-feature22,full_pf_b,,1
112,10832,139,,,,2,2,1.0,0.0,-1.0,0.0,,0.0-141.0,,-1.0,195.8400001,1.0,0.4803197,0.0,0.645842715,1.0,0.6421749920000001,0.0,0.443092151,False,,5d45d2c3b30ae50001578172,,3386902,139,,evan-feature22,full_pf_b,,0
113,10833,140,,,,2,2,1.0,0.0,-1.0,0.0,,0.0-142.0,,-1.0,351.685,1.0,0.521848997,0.0,0.735801074,1.0,0.6691348460000001,0.0,0.45259351600000003,False,,5d45d2c3b30ae50001578172,,3397065,140,,evan-feature22,full_pf_b,,0
114,10834,141,,,,1,1,0.0,1.0,0.0,1.0,,0.0-143.0,,1.0,1537.125,0.0,0.49565621299999996,1.0,0.742400847,0.0,0.661512553,0.0,0.483110831,False,,5d45d2c3b30ae50001578172,,3408431,141,,evan-feature22,full_pf_b,,1
115,10835,142,,,,1,1,0.0,1.0,-1.0,0.0,,0.0-144.0,,0.0,433.97,0.0,0.521564361,1.0,0.731078632,1.0,0.6774886809999999,0.0,0.483263956,False,,5d45d2c3b30ae50001578172,,3418697,142,,evan-feature22,full_pf_b,,0
116,10836,143,,,,1,1,0.0,1.0,-1.0,0.0,,0.0-145.0,,0.0,616.775,0.0,0.558893102,1.0,0.719810023,0.0,0.67461031,0.0,0.499349834,False,,5d45d2c3b30ae50001578172,,3429142,143,,evan-feature22,full_pf_b,,0
117,10837,144,,,,1,1,1.0,0.0,0.0,1.0,,0.0-146.0,,0.0,284.075,1.0,0.611031046,0.0,0.75,1.0,0.688072995,0.0,0.5321422729999999,False,,5d45d2c3b30ae50001578172,,3439261,144,,evan-feature22,full_pf_b,,0
118,10838,145,,,,1,1,1.0,1.0,-1.0,0.0,,0.0-147.0,,-1.0,704.1600001,1.0,0.633223941,1.0,0.713567728,0.0,0.75,0.0,0.48185314700000004,False,,5d45d2c3b30ae50001578172,,3449796,145,,evan-feature22,full_pf_b,,0
119,10839,146,,,,1,1,1.0,1.0,-1.0,0.0,,0.0-148.0,,-1.0,808.2249999,1.0,0.664001694,1.0,0.705509768,1.0,0.75,1.0,0.500211065,False,,5d45d2c3b30ae50001578172,,3460423,146,,evan-feature22,full_pf_b,,0
120,10840,147,,,,2,2,1.0,0.0,0.0,1.0,,0.0-149.0,,0.0,811.8500001,1.0,0.664001694,0.0,0.705509768,1.0,0.75,0.0,0.500211065,False,,5d45d2c3b30ae50001578172,,3471051,147,,evan-feature22,full_pf_b,,1
121,10841,148,,,,1,1,1.0,0.0,0.0,1.0,,0.0-150.0,,0.0,763.27,1.0,0.696508041,0.0,0.71066027,1.0,0.717028709,1.0,0.49792991,False,,5d45d2c3b30ae50001578172,,3481656,148,,evan-feature22,full_pf_b,,1
122,10842,149,,,,1,1,1.0,0.0,-1.0,0.0,,0.0-151.0,,-1.0,456.44999989999997,1.0,0.699883272,0.0,0.75,1.0,0.713543895,0.0,0.496962643,False,,5d45d2c3b30ae50001578172,,3491945,149,,evan-feature22,full_pf_b,,0
123,10843,150,,,,1,1,1.0,1.0,0.0,1.0,,0.0-152.0,,1.0,3667.14,1.0,0.741163419,1.0,0.75,1.0,0.64691024,1.0,0.513858197,False,,5d45d2c3b30ae50001578172,,3505454,150,,evan-feature22,full_pf_b,,0
124,10844,151,,,,1,1,1.0,1.0,-1.0,0.0,,0.0-153.0,,-1.0,279.2999999,1.0,0.75,1.0,0.70816558,1.0,0.594499079,0.0,0.48502124,False,,5d45d2c3b30ae50001578172,,3515571,151,,evan-feature22,full_pf_b,,0
125,10845,152,,,,1,1,0.0,1.0,0.0,1.0,,0.0-154.0,,1.0,292.26,0.0,0.75,1.0,0.721848901,1.0,0.62197249,0.0,0.48263586399999997,False,,5d45d2c3b30ae50001578172,,3525706,152,,evan-feature22,full_pf_b,,0
126,10846,153,,,,1,1,1.0,1.0,-1.0,0.0,,0.0-155.0,,-1.0,454.8599999,1.0,0.75,1.0,0.74813071,0.0,0.584357161,1.0,0.411477782,False,,5d45d2c3b30ae50001578172,,3535997,153,,evan-feature22,full_pf_b,,0
127,10847,154,,,,1,1,1.0,1.0,0.0,1.0,,0.0-156.0,,1.0,365.4049999,1.0,0.75,1.0,0.75,0.0,0.52287236,1.0,0.488290656,False,,5d45d2c3b30ae50001578172,,3546200,154,,evan-feature22,full_pf_b,,0
128,10848,155,,,,2,2,0.0,0.0,0.0,1.0,,0.0-157.0,,0.0,1413.985,1.0,0.75,1.0,0.75,0.0,0.544321581,0.0,0.53143059,False,,5d45d2c3b30ae50001578172,,3557452,155,,evan-feature22,full_pf_b,,1
129,10849,156,,,,SLOW,SLOW,,,0.0,1.0,,0.0-158.0,,-3.0,,1.0,0.726754564,1.0,0.75,0.0,0.5129306370000001,0.0,0.530592445,False,,5d45d2c3b30ae50001578172,,3563292,156,,evan-feature22,full_pf_b,,1
130,10850,157,,,,1,1,0.0,1.0,-1.0,0.0,,0.0-159.0,,0.0,824.515,0.0,0.75,1.0,0.7392590729999999,0.0,0.479875835,0.0,0.547007051,False,,5d45d2c3b30ae50001578172,,3573940,157,,evan-feature22,full_pf_b,,1
131,10851,158,,,,1,1,0.0,0.0,-1.0,0.0,,0.0-160.0,,0.0,351.91,0.0,0.75,0.0,0.7393376979999999,1.0,0.546045419,1.0,0.541267353,False,,5d45d2c3b30ae50001578172,,3584112,158,,evan-feature22,full_pf_b,,0
132,10852,159,,,,1,1,1.0,1.0,-1.0,0.0,,0.0-161.0,,-1.0,700.755,1.0,0.75,1.0,0.75,1.0,0.485725895,0.0,0.527625395,False,,5d45d2c3b30ae50001578172,,3594652,159,,evan-feature22,full_pf_b,,0
133,10853,160,,,,1,1,1.0,1.0,0.0,1.0,,0.0-162.0,,1.0,341.42,1.0,0.75,1.0,0.725087974,0.0,0.488603595,0.0,0.504019206,False,,5d45d2c3b30ae50001578172,,3604828,160,,evan-feature22,full_pf_b,,0
134,10854,161,,,,1,1,1.0,1.0,0.0,1.0,,0.0-163.0,,1.0,418.905,1.0,0.745504295,1.0,0.75,0.0,0.452379914,1.0,0.50131194,False,,5d45d2c3b30ae50001578172,,3615079,161,,evan-feature22,full_pf_b,,0
135,10855,162,,,,1,1,1.0,1.0,0.0,1.0,,0.0-164.0,,1.0,912.395,1.0,0.728513874,1.0,0.75,0.0,0.44125567200000004,0.0,0.531454591,False,,5d45d2c3b30ae50001578172,,3625829,162,,evan-feature22,full_pf_b,,0
136,10856,163,,,,1,1,0.0,1.0,-1.0,0.0,,0.0-165.0,,0.0,964.9349999,0.0,0.73790804,1.0,0.75,0.0,0.413036656,0.0,0.524619035,False,,5d45d2c3b30ae50001578172,,3636644,163,,evan-feature22,full_pf_b,,0
137,10857,164,,,,1,1,0.0,1.0,0.0,1.0,,0.0-166.0,,1.0,113.84,0.0,0.7080961309999999,1.0,0.708666865,0.0,0.431915581,0.0,0.481819489,False,,5d45d2c3b30ae50001578172,,3646591,164,,evan-feature22,full_pf_b,,0
138,10858,165,,,,1,1,1.0,0.0,0.0,1.0,,0.0-167.0,,0.0,3184.1,1.0,0.721378003,0.0,0.71605913,1.0,0.36642387,1.0,0.5036739929999999,False,,5d45d2c3b30ae50001578172,,3659611,165,,evan-feature22,full_pf_b,,0
139,10859,166,,,,1,1,1.0,1.0,0.0,1.0,,0.0-168.0,,1.0,1305.07,1.0,0.7340618959999999,1.0,0.699323252,0.0,0.35298046299999997,0.0,0.511241692,False,,5d45d2c3b30ae50001578172,,3670736,166,,evan-feature22,full_pf_b,,0
140,10860,167,,,,1,1,0.0,1.0,-1.0,0.0,,0.0-169.0,,0.0,527.0250001,0.0,0.75,1.0,0.70412698,0.0,0.380734814,1.0,0.529580116,False,,5d45d2c3b30ae50001578172,,3681093,167,,evan-feature22,full_pf_b,,0
141,10861,168,,,,1,1,1.0,1.0,0.0,1.0,,0.0-170.0,,1.0,445.245,1.0,0.7436654909999999,1.0,0.711182751,1.0,0.41125331,1.0,0.49554405,False,,5d45d2c3b30ae50001578172,,3691361,168,,evan-feature22,full_pf_b,,0
142,10862,169,,,,1,1,1.0,0.0,0.0,1.0,,0.0-171.0,,0.0,698.71,1.0,0.731607915,0.0,0.651774583,1.0,0.35688023,0.0,0.45194491600000003,False,,5d45d2c3b30ae50001578172,,3701881,169,,evan-feature22,full_pf_b,,0
143,10863,170,,,,1,1,1.0,0.0,-1.0,0.0,,0.0-172.0,,-1.0,284.705,1.0,0.75,0.0,0.75,1.0,0.283145374,1.0,0.528608005,False,,5d45d2c3b30ae50001578172,,3711986,170,,evan-feature22,full_pf_b,,0
144,10864,171,,,,1,1,0.0,1.0,-1.0,0.0,,0.0-173.0,,0.0,228.965,0.0,0.7491416890000001,1.0,0.7423785959999999,0.0,0.29135870399999997,1.0,0.498888318,False,,5d45d2c3b30ae50001578172,,3722063,171,,evan-feature22,full_pf_b,,0
145,10865,172,,,,2,2,0.0,0.0,-1.0,0.0,,0.0-174.0,,0.0,295.325,0.0,0.708569387,0.0,0.717682277,0.0,0.294421699,0.0,0.493838163,False,,5d45d2c3b30ae50001578172,,3732173,172,,evan-feature22,full_pf_b,,1
146,10866,173,,,,2,2,0.0,1.0,0.0,1.0,,0.0-175.0,,1.0,717.5499999,1.0,0.75,1.0,0.7383382159999999,0.0,0.356098707,1.0,0.442533405,False,,5d45d2c3b30ae50001578172,,3742723,173,,evan-feature22,full_pf_b,,0
147,10867,174,,,,2,2,1.0,1.0,0.0,1.0,,0.0-176.0,,1.0,2749.155,1.0,0.744527075,0.0,0.75,1.0,0.334127506,1.0,0.393165805,False,,5d45d2c3b30ae50001578172,,3755322,174,,evan-feature22,full_pf_b,,0
148,10868,175,,,,2,2,0.0,1.0,0.0,1.0,,0.0-177.0,,1.0,2123.075,1.0,0.75,1.0,0.75,0.0,0.33571021799999995,1.0,0.350393962,False,,5d45d2c3b30ae50001578172,,3767281,175,,evan-feature22,full_pf_b,,0
149,10869,176,,,,1,1,1.0,0.0,0.0,1.0,,0.0-178.0,,0.0,1516.065,1.0,0.75,0.0,0.75,1.0,0.313628297,0.0,0.36349657399999996,False,,5d45d2c3b30ae50001578172,,3778631,176,,evan-feature22,full_pf_b,,1
150,10870,177,,,,2,2,1.0,0.0,-1.0,0.0,,0.0-179.0,,-1.0,1615.28,1.0,0.75,1.0,0.734284182,1.0,0.262667667,0.0,0.380199119,False,,5d45d2c3b30ae50001578172,,3790083,177,,evan-feature22,full_pf_b,,1
151,10871,178,,,,SLOW,SLOW,,,0.0,1.0,,0.0-180.0,,-3.0,,1.0,0.75,0.0,0.75,0.0,0.25,0.0,0.394494013,False,,5d45d2c3b30ae50001578172,,3795927,178,,evan-feature22,full_pf_b,,1
152,10872,179,,,,1,1,1.0,1.0,-1.0,0.0,,0.0-181.0,,-1.0,853.915,1.0,0.722298145,1.0,0.7357822340000001,0.0,0.25,1.0,0.319142121,False,,5d45d2c3b30ae50001578172,,3806614,179,,evan-feature22,full_pf_b,,1
153,10873,180,,,,1,1,1.0,1.0,-1.0,0.0,,0.0-182.0,,-1.0,520.73,1.0,0.73149275,1.0,0.724276446,0.0,0.305856907,0.0,0.281315057,False,,5d45d2c3b30ae50001578172,,3816947,180,,evan-feature22,full_pf_b,,0
154,10874,181,,,,2,2,0.0,0.0,0.0,1.0,,0.0-183.0,,0.0,1589.145,1.0,0.7458732690000001,0.0,0.7336382459999999,0.0,0.272571964,0.0,0.266021999,False,,5d45d2c3b30ae50001578172,,3828380,181,,evan-feature22,full_pf_b,,1
155,10875,182,,,,2,2,0.0,0.0,0.0,1.0,,0.0-184.0,,0.0,1471.17,1.0,0.705579037,1.0,0.720778292,0.0,0.320238144,0.0,0.30971744,False,,5d45d2c3b30ae50001578172,,3839674,182,,evan-feature22,full_pf_b,,0
156,10876,183,,,,2,2,0.0,0.0,0.0,1.0,,0.0-185.0,,0.0,1008.78,1.0,0.700425648,1.0,0.7198784009999999,0.0,0.272590393,0.0,0.304182931,False,,5d45d2c3b30ae50001578172,,3850523,183,,evan-feature22,full_pf_b,,0
157,10877,184,,,,1,1,1.0,1.0,0.0,1.0,,0.0-186.0,,1.0,526.74,1.0,0.735590785,1.0,0.722714973,1.0,0.25,1.0,0.323421091,False,,5d45d2c3b30ae50001578172,,3860888,184,,evan-feature22,full_pf_b,,1
158,10878,185,,,,1,1,0.0,0.0,0.0,1.0,,0.0-187.0,,0.0,352.0800001,0.0,0.724807662,0.0,0.63146213,0.0,0.36836492600000004,0.0,0.34592153299999995,False,,5d45d2c3b30ae50001578172,,3871068,185,,evan-feature22,full_pf_b,,0
159,10879,186,,,,1,1,0.0,0.0,0.0,1.0,,0.0-188.0,,0.0,591.6749999,0.0,0.7352796909999999,0.0,0.555111392,0.0,0.36003922,0.0,0.31433779999999995,False,,5d45d2c3b30ae50001578172,,3881489,186,,evan-feature22,full_pf_b,,0
160,10880,187,notice,,,,,,,,,,0.0-189.0,"{""Q0"":""THERE WAS MORE BLACK ALIENS""}",,24100.0,,,,,,,,,False,,5d45d2c3b30ae50001578172,,3905592,187,Q,survey-text,full_pf_b,,1
161,10881,188,track1,,[1],,,,,,,,0.0-190.0,"{""Q0"":""no""}",,5013.0,,,,,,,,,False,,5d45d2c3b30ae50001578172,,3910612,188,Q,evan-quiz,full_pf_b,,1
162,10882,189,track2,,[0],,,,,,,,0.0-191.0,"{""Q0"":""yes""}",,13344.0,,,,,,,,,False,,5d45d2c3b30ae50001578172,,3923965,189,Q,evan-quiz,full_pf_b,,1
163,10883,190,strat,,,,,,,,,,0.0-192.0,"{""Q0"":""GUESSING""}",,9422.0,,,,,,,,,False,,5d45d2c3b30ae50001578172,,3933393,190,Q,survey-text,full_pf_b,,1
