,index,Unnamed: 0,Q_name,button_pressed,choice_idxs,chosen_pos,chosen_state,chosen_state_f_1_outcome,chosen_state_f_2_outcome,f_1_reward,f_2_reward,incor_questions,internal_node_id,responses,reward_received,rt,s_1_f_1_outcome,s_1_f_1_prob,s_1_f_2_outcome,s_1_f_2_prob,s_2_f_1_outcome,s_2_f_1_prob,s_2_f_2_outcome,s_2_f_2_prob,safe_first,stimulus,subjectID,success,time_elapsed,trial_index,trial_num,trial_type,version,view_history,switching
0,10140,30,,,,1,1,1.0,1.0,-1.0,0.0,,0.0-27.0,,-1.0,1472.875,1.0,0.6,1.0,0.6,1.0,0.4,1.0,0.4,False,,5beb715394bff800011db85c,,650663,30,,evan-feature22,full_pf_b,,0
1,10141,31,,,,2,2,0.0,0.0,-1.0,0.0,,0.0-28.0,,0.0,685.4900001,1.0,0.608053294,0.0,0.63424552,0.0,0.397152172,0.0,0.347069101,False,,5beb715394bff800011db85c,,661170,31,,evan-feature22,full_pf_b,,1
2,10142,32,,,,1,1,0.0,1.0,-1.0,0.0,,0.0-29.0,,0.0,734.0199999,0.0,0.642237155,1.0,0.648566321,1.0,0.389407674,1.0,0.285525717,False,,5beb715394bff800011db85c,,671727,32,,evan-feature22,full_pf_b,,1
3,10143,33,,,,2,2,0.0,1.0,-1.0,0.0,,0.0-30.0,,0.0,550.7799999,0.0,0.661086576,1.0,0.630492543,0.0,0.399058924,1.0,0.25,False,,5beb715394bff800011db85c,,682101,33,,evan-feature22,full_pf_b,,1
4,10144,34,,,,2,2,1.0,1.0,0.0,1.0,,0.0-31.0,,1.0,391.17,0.0,0.631324137,0.0,0.6269842929999999,1.0,0.38734784299999997,1.0,0.25,False,,5beb715394bff800011db85c,,692317,34,,evan-feature22,full_pf_b,,0
5,10145,35,,,,2,2,0.0,1.0,0.0,1.0,,0.0-32.0,,1.0,433.2600001,1.0,0.6381991370000001,0.0,0.68987999,0.0,0.384107265,1.0,0.271332943,False,,5beb715394bff800011db85c,,702556,35,,evan-feature22,full_pf_b,,0
6,10146,36,,,,2,2,1.0,0.0,-1.0,0.0,,0.0-33.0,,-1.0,403.1349998,1.0,0.66034901,1.0,0.742641349,1.0,0.360225629,0.0,0.25,False,,5beb715394bff800011db85c,,712779,36,,evan-feature22,full_pf_b,,0
7,10147,37,,,,2,2,0.0,0.0,-1.0,0.0,,0.0-34.0,,0.0,739.2149998,1.0,0.638612418,1.0,0.75,0.0,0.367273939,0.0,0.25,False,,5beb715394bff800011db85c,,723343,37,,evan-feature22,full_pf_b,,0
8,10148,38,,,,1,1,0.0,1.0,0.0,1.0,,0.0-35.0,,1.0,423.01999989999996,0.0,0.624340629,1.0,0.75,1.0,0.425829545,0.0,0.25,False,,5beb715394bff800011db85c,,733591,38,,evan-feature22,full_pf_b,,1
9,10149,39,,,,1,1,0.0,1.0,0.0,1.0,,0.0-36.0,,1.0,404.6,0.0,0.621999804,1.0,0.75,0.0,0.368609357,0.0,0.25,False,,5beb715394bff800011db85c,,743830,39,,evan-feature22,full_pf_b,,0
10,10150,40,,,,1,1,0.0,1.0,-1.0,0.0,,0.0-37.0,,0.0,453.4749999,0.0,0.62666403,1.0,0.75,0.0,0.311151498,0.0,0.25,False,,5beb715394bff800011db85c,,754110,40,,evan-feature22,full_pf_b,,0
11,10151,41,,,,1,1,1.0,1.0,0.0,1.0,,0.0-38.0,,1.0,599.13,1.0,0.6819650009999999,1.0,0.75,1.0,0.310763048,0.0,0.25,False,,5beb715394bff800011db85c,,764522,41,,evan-feature22,full_pf_b,,0
12,10152,42,,,,2,2,0.0,0.0,-1.0,0.0,,0.0-39.0,,0.0,417.5249999,1.0,0.740626951,1.0,0.75,0.0,0.25,0.0,0.25,False,,5beb715394bff800011db85c,,774742,42,,evan-feature22,full_pf_b,,1
13,10153,43,,,,1,1,1.0,1.0,-1.0,0.0,,0.0-40.0,,-1.0,497.985,1.0,0.739599242,1.0,0.742034978,1.0,0.25397114600000004,0.0,0.25,False,,5beb715394bff800011db85c,,785062,43,,evan-feature22,full_pf_b,,1
14,10154,44,,,,1,1,0.0,1.0,-1.0,0.0,,0.0-41.0,,0.0,408.3149999,0.0,0.732341315,1.0,0.72735643,1.0,0.25,0.0,0.25,False,,5beb715394bff800011db85c,,795306,44,,evan-feature22,full_pf_b,,0
15,10155,45,,,,1,1,1.0,1.0,-1.0,0.0,,0.0-42.0,,-1.0,778.9099999,1.0,0.7062287770000001,1.0,0.75,0.0,0.29002151,0.0,0.288256649,False,,5beb715394bff800011db85c,,805921,45,,evan-feature22,full_pf_b,,0
16,10156,46,,,,2,2,1.0,0.0,-1.0,0.0,,0.0-43.0,,-1.0,425.94,1.0,0.7086029209999999,0.0,0.75,1.0,0.274129113,0.0,0.262851608,False,,5beb715394bff800011db85c,,816180,46,,evan-feature22,full_pf_b,,1
17,10157,47,,,,2,2,0.0,1.0,-1.0,0.0,,0.0-44.0,,0.0,392.525,1.0,0.669189651,1.0,0.727614338,0.0,0.298444036,1.0,0.296944518,False,,5beb715394bff800011db85c,,826392,47,,evan-feature22,full_pf_b,,0
18,10158,48,,,,2,2,1.0,0.0,-1.0,0.0,,0.0-45.0,,-1.0,507.22,1.0,0.6819912929999999,1.0,0.7179434290000001,1.0,0.265003961,0.0,0.28157921199999997,False,,5beb715394bff800011db85c,,836721,48,,evan-feature22,full_pf_b,,0
19,10159,49,,,,1,1,1.0,1.0,0.0,1.0,,0.0-46.0,,1.0,346.36500010000003,1.0,0.665275002,1.0,0.723065271,1.0,0.260414971,1.0,0.30973870000000003,False,,5beb715394bff800011db85c,,846902,49,,evan-feature22,full_pf_b,,1
20,10160,50,,,,1,1,0.0,1.0,-1.0,0.0,,0.0-47.0,,0.0,421.48,0.0,0.6660593260000001,1.0,0.728032907,1.0,0.30922817,0.0,0.338778608,False,,5beb715394bff800011db85c,,857146,50,,evan-feature22,full_pf_b,,0
21,10161,51,,,,1,1,1.0,0.0,-1.0,0.0,,0.0-48.0,,-1.0,356.045,1.0,0.702068785,0.0,0.6528750879999999,0.0,0.287329608,1.0,0.35789613200000003,False,,5beb715394bff800011db85c,,867289,51,,evan-feature22,full_pf_b,,0
22,10162,52,,,,2,2,1.0,0.0,-1.0,0.0,,0.0-49.0,,-1.0,394.6450001,1.0,0.651939787,1.0,0.636725589,1.0,0.284834488,0.0,0.358563756,False,,5beb715394bff800011db85c,,877507,52,,evan-feature22,full_pf_b,,1
23,10163,53,,,,2,2,0.0,1.0,0.0,1.0,,0.0-50.0,,1.0,563.9549999,1.0,0.67573929,0.0,0.612550049,0.0,0.37130387600000003,1.0,0.383542402,False,,5beb715394bff800011db85c,,887905,53,,evan-feature22,full_pf_b,,0
24,10164,54,,,,1,1,1.0,0.0,0.0,1.0,,0.0-51.0,,0.0,788.955,1.0,0.620753801,0.0,0.60513644,0.0,0.385529434,0.0,0.340361743,False,,5beb715394bff800011db85c,,898523,54,,evan-feature22,full_pf_b,,1
25,10165,55,,,,1,1,0.0,1.0,0.0,1.0,,0.0-52.0,,1.0,523.0,0.0,0.673564893,1.0,0.672437924,0.0,0.292955382,1.0,0.337633795,False,,5beb715394bff800011db85c,,908876,55,,evan-feature22,full_pf_b,,0
26,10166,56,,,,2,2,0.0,1.0,-1.0,0.0,,0.0-53.0,,0.0,384.6200001,1.0,0.6749427,1.0,0.724197502,0.0,0.32391132100000003,1.0,0.350995264,False,,5beb715394bff800011db85c,,919086,56,,evan-feature22,full_pf_b,,1
27,10167,57,,,,1,1,1.0,0.0,-1.0,0.0,,0.0-54.0,,-1.0,575.865,1.0,0.6940159379999999,0.0,0.75,0.0,0.31710554399999996,1.0,0.413450341,False,,5beb715394bff800011db85c,,929489,57,,evan-feature22,full_pf_b,,1
28,10168,58,,,,1,1,1.0,0.0,-1.0,0.0,,0.0-55.0,,-1.0,439.7450001,1.0,0.6916018270000001,0.0,0.69001187,1.0,0.261817804,0.0,0.40038635,False,,5beb715394bff800011db85c,,939754,58,,evan-feature22,full_pf_b,,0
29,10169,59,,,,1,1,1.0,1.0,-1.0,0.0,,0.0-56.0,,-1.0,365.73,1.0,0.641061544,1.0,0.71337992,0.0,0.277296461,1.0,0.47372791700000005,False,,5beb715394bff800011db85c,,949962,59,,evan-feature22,full_pf_b,,0
30,10170,60,,,,1,1,0.0,1.0,-1.0,0.0,,0.0-57.0,,0.0,268.6749999,0.0,0.6082438520000001,1.0,0.708471106,0.0,0.28745137,1.0,0.564174476,False,,5beb715394bff800011db85c,,960074,60,,evan-feature22,full_pf_b,,0
31,10171,61,,,,2,2,1.0,0.0,-1.0,0.0,,0.0-58.0,,-1.0,507.49499979999996,1.0,0.6051112120000001,0.0,0.7118147229999999,1.0,0.272390611,0.0,0.5595149939999999,False,,5beb715394bff800011db85c,,970413,61,,evan-feature22,full_pf_b,,1
32,10172,62,,,,2,2,0.0,1.0,-1.0,0.0,,0.0-59.0,,0.0,480.2899999,1.0,0.582420852,0.0,0.635867583,0.0,0.31089574,1.0,0.5227206520000001,False,,5beb715394bff800011db85c,,980718,62,,evan-feature22,full_pf_b,,0
33,10173,63,,,,2,2,1.0,1.0,0.0,1.0,,0.0-60.0,,1.0,527.4750001,0.0,0.623195575,1.0,0.655026044,1.0,0.25,1.0,0.560387538,False,,5beb715394bff800011db85c,,991078,63,,evan-feature22,full_pf_b,,0
34,10174,64,,,,2,2,0.0,0.0,-1.0,0.0,,0.0-61.0,,0.0,442.26000020000004,1.0,0.601889598,1.0,0.678198724,0.0,0.25,0.0,0.559922936,False,,5beb715394bff800011db85c,,1001347,64,,evan-feature22,full_pf_b,,0
35,10175,65,,,,1,1,1.0,0.0,-1.0,0.0,,0.0-62.0,,-1.0,396.0449998,1.0,0.601259914,0.0,0.704681482,0.0,0.33908969299999997,0.0,0.505003715,False,,5beb715394bff800011db85c,,1011584,65,,evan-feature22,full_pf_b,,1
36,10176,66,,,,2,2,0.0,0.0,-1.0,0.0,,0.0-63.0,,0.0,336.8800001,0.0,0.59645454,1.0,0.710437172,0.0,0.327441879,0.0,0.391749613,False,,5beb715394bff800011db85c,,1021743,66,,evan-feature22,full_pf_b,,1
37,10177,67,,,,2,2,0.0,0.0,-1.0,0.0,,0.0-64.0,,0.0,450.645,1.0,0.529473,1.0,0.636758527,0.0,0.301338063,0.0,0.365661481,False,,5beb715394bff800011db85c,,1032035,67,,evan-feature22,full_pf_b,,0
38,10178,68,,,,1,1,1.0,1.0,0.0,1.0,,0.0-65.0,,1.0,375.1400001,1.0,0.541657162,1.0,0.634541962,1.0,0.343535366,0.0,0.371763742,False,,5beb715394bff800011db85c,,1042229,68,,evan-feature22,full_pf_b,,1
39,10179,69,,,,1,1,1.0,1.0,-1.0,0.0,,0.0-66.0,,-1.0,354.0449999,1.0,0.5707533260000001,1.0,0.589121171,0.0,0.326428396,1.0,0.43961622899999997,False,,5beb715394bff800011db85c,,1052417,69,,evan-feature22,full_pf_b,,0
40,10180,70,,,,1,1,0.0,1.0,-1.0,0.0,,0.0-67.0,,0.0,339.41,0.0,0.5707533260000001,1.0,0.589121171,1.0,0.326428396,0.0,0.43961622899999997,False,,5beb715394bff800011db85c,,1062579,70,,evan-feature22,full_pf_b,,0
41,10181,71,,,,1,1,0.0,1.0,-1.0,0.0,,0.0-68.0,,0.0,325.56999989999997,0.0,0.506271295,1.0,0.641775594,0.0,0.37149690700000004,0.0,0.404330166,False,,5beb715394bff800011db85c,,1072719,71,,evan-feature22,full_pf_b,,0
42,10182,72,,,,2,2,0.0,1.0,0.0,1.0,,0.0-69.0,,1.0,369.5700001,1.0,0.455642565,1.0,0.623605825,0.0,0.358753011,1.0,0.346174041,False,,5beb715394bff800011db85c,,1082911,72,,evan-feature22,full_pf_b,,1
43,10183,73,,,,2,2,0.0,0.0,0.0,1.0,,0.0-70.0,,0.0,303.025,1.0,0.483677308,0.0,0.5904681070000001,0.0,0.402218411,0.0,0.35344697,False,,5beb715394bff800011db85c,,1093040,73,,evan-feature22,full_pf_b,,0
44,10184,74,,,,2,2,0.0,0.0,0.0,1.0,,0.0-71.0,,0.0,320.4600001,1.0,0.394210977,1.0,0.558925494,0.0,0.540052017,0.0,0.35182128700000004,False,,5beb715394bff800011db85c,,1103184,74,,evan-feature22,full_pf_b,,0
45,10185,75,,,,1,1,0.0,1.0,-1.0,0.0,,0.0-72.0,,0.0,380.685,0.0,0.382300414,1.0,0.577670603,0.0,0.607608448,0.0,0.378261578,False,,5beb715394bff800011db85c,,1113388,75,,evan-feature22,full_pf_b,,1
46,10186,76,,,,1,1,0.0,1.0,-1.0,0.0,,0.0-73.0,,0.0,477.95,0.0,0.357596762,1.0,0.5929076529999999,1.0,0.6579790010000001,1.0,0.401326777,False,,5beb715394bff800011db85c,,1123684,76,,evan-feature22,full_pf_b,,0
47,10187,77,,,,2,2,1.0,0.0,-1.0,0.0,,0.0-74.0,,-1.0,658.6549999,0.0,0.362033495,0.0,0.582308608,1.0,0.649195052,0.0,0.355158505,False,,5beb715394bff800011db85c,,1134179,77,,evan-feature22,full_pf_b,,1
48,10188,78,,,,1,1,1.0,1.0,-1.0,0.0,,0.0-75.0,,-1.0,377.69,1.0,0.369620635,1.0,0.669100864,0.0,0.706059111,0.0,0.362516241,False,,5beb715394bff800011db85c,,1144385,78,,evan-feature22,full_pf_b,,1
49,10189,79,,,,2,2,1.0,0.0,-1.0,0.0,,0.0-76.0,,-1.0,449.00999989999997,0.0,0.41477751399999996,1.0,0.7284416779999999,1.0,0.7182656940000001,0.0,0.36228040899999997,False,,5beb715394bff800011db85c,,1154659,79,,evan-feature22,full_pf_b,,1
50,10190,80,,,,1,1,0.0,1.0,0.0,1.0,,0.0-77.0,,1.0,335.795,0.0,0.37675460299999997,1.0,0.703250285,1.0,0.75,1.0,0.461979164,False,,5beb715394bff800011db85c,,1164821,80,,evan-feature22,full_pf_b,,1
51,10191,81,,,,1,1,0.0,1.0,0.0,1.0,,0.0-78.0,,1.0,410.285,0.0,0.398716075,1.0,0.6723864890000001,1.0,0.674153818,0.0,0.519029516,False,,5beb715394bff800011db85c,,1175075,81,,evan-feature22,full_pf_b,,0
52,10192,82,,,,1,1,1.0,1.0,-1.0,0.0,,0.0-79.0,,-1.0,321.31,1.0,0.34677856700000004,1.0,0.69057175,0.0,0.6822438540000001,0.0,0.477292237,False,,5beb715394bff800011db85c,,1185231,82,,evan-feature22,full_pf_b,,0
53,10193,83,,,,2,2,1.0,1.0,0.0,1.0,,0.0-80.0,,1.0,366.65,1.0,0.28580469199999997,0.0,0.68408818,1.0,0.684207565,1.0,0.49780448299999996,False,,5beb715394bff800011db85c,,1195418,83,,evan-feature22,full_pf_b,,1
54,10195,85,,,,1,1,1.0,1.0,-1.0,0.0,,0.0-82.0,,-1.0,1683.38,1.0,0.25,1.0,0.7405808970000001,1.0,0.679614108,0.0,0.436436964,False,,5beb715394bff800011db85c,,1209988,85,,evan-feature22,full_pf_b,,1
55,10196,86,,,,2,2,1.0,1.0,0.0,1.0,,0.0-83.0,,1.0,334.7,0.0,0.29890393,1.0,0.730505706,1.0,0.7328203320000001,1.0,0.439256938,False,,5beb715394bff800011db85c,,1220157,86,,evan-feature22,full_pf_b,,1
56,10197,87,,,,2,2,0.0,1.0,-1.0,0.0,,0.0-84.0,,0.0,463.41500010000004,0.0,0.326762398,1.0,0.7148059609999999,0.0,0.75,1.0,0.44389608799999997,False,,5beb715394bff800011db85c,,1230447,87,,evan-feature22,full_pf_b,,0
57,10198,88,,,,2,2,1.0,0.0,-1.0,0.0,,0.0-85.0,,-1.0,287.7100001,1.0,0.295168515,0.0,0.739760854,1.0,0.719947008,0.0,0.35277284600000003,False,,5beb715394bff800011db85c,,1240567,88,,evan-feature22,full_pf_b,,0
58,10199,89,,,,2,2,1.0,0.0,-1.0,0.0,,0.0-86.0,,-1.0,399.1149999,0.0,0.25,1.0,0.70781482,1.0,0.75,0.0,0.286095925,False,,5beb715394bff800011db85c,,1250793,89,,evan-feature22,full_pf_b,,0
59,10200,90,,,,1,1,0.0,0.0,0.0,1.0,,0.0-87.0,,0.0,562.59,0.0,0.25638190899999996,0.0,0.704088163,1.0,0.75,1.0,0.26872601399999996,False,,5beb715394bff800011db85c,,1261179,90,,evan-feature22,full_pf_b,,1
60,10201,91,,,,2,2,0.0,0.0,0.0,1.0,,0.0-88.0,,0.0,448.205,1.0,0.271581126,0.0,0.669760107,0.0,0.733896663,0.0,0.273244572,False,,5beb715394bff800011db85c,,1271463,91,,evan-feature22,full_pf_b,,1
61,10202,92,,,,2,2,1.0,0.0,0.0,1.0,,0.0-89.0,,0.0,301.395,0.0,0.257144401,1.0,0.600575706,1.0,0.74488122,0.0,0.25,False,,5beb715394bff800011db85c,,1281579,92,,evan-feature22,full_pf_b,,0
62,10203,93,,,,1,1,1.0,1.0,-1.0,0.0,,0.0-90.0,,-1.0,361.33,1.0,0.25,1.0,0.616870026,0.0,0.723610234,0.0,0.25,False,,5beb715394bff800011db85c,,1291769,93,,evan-feature22,full_pf_b,,1
63,10204,94,,,,1,1,1.0,0.0,0.0,1.0,,0.0-91.0,,0.0,419.32499989999997,1.0,0.25,0.0,0.583540187,1.0,0.7041042559999999,1.0,0.285961995,False,,5beb715394bff800011db85c,,1302027,94,,evan-feature22,full_pf_b,,0
64,10205,95,,,,2,2,0.0,0.0,-1.0,0.0,,0.0-92.0,,0.0,329.75,0.0,0.27254536,1.0,0.53875765,0.0,0.693783448,0.0,0.284961652,False,,5beb715394bff800011db85c,,1312192,95,,evan-feature22,full_pf_b,,1
65,10206,96,,,,1,1,1.0,1.0,0.0,1.0,,0.0-93.0,,1.0,367.2800001,1.0,0.25,1.0,0.548431252,1.0,0.734221895,0.0,0.279445214,False,,5beb715394bff800011db85c,,1322388,96,,evan-feature22,full_pf_b,,1
66,10207,97,,,,1,1,0.0,0.0,-1.0,0.0,,0.0-94.0,,0.0,406.1400001,0.0,0.258640684,0.0,0.545878066,1.0,0.725245965,0.0,0.31487537,False,,5beb715394bff800011db85c,,1332622,97,,evan-feature22,full_pf_b,,0
67,10208,98,,,,1,1,1.0,0.0,-1.0,0.0,,0.0-95.0,,-1.0,319.81,1.0,0.251103711,0.0,0.5776290629999999,0.0,0.696320133,0.0,0.317831047,False,,5beb715394bff800011db85c,,1342767,98,,evan-feature22,full_pf_b,,0
68,10209,99,,,,2,2,1.0,0.0,-1.0,0.0,,0.0-96.0,,-1.0,499.02,0.0,0.276630292,1.0,0.617329858,1.0,0.73838088,0.0,0.261471582,False,,5beb715394bff800011db85c,,1353102,99,,evan-feature22,full_pf_b,,1
69,10210,100,,,,1,1,0.0,1.0,0.0,1.0,,0.0-97.0,,1.0,359.6300001,0.0,0.297716424,1.0,0.618863717,1.0,0.7402358259999999,0.0,0.262600834,False,,5beb715394bff800011db85c,,1363288,100,,evan-feature22,full_pf_b,,1
70,10211,101,,,,1,1,0.0,0.0,-1.0,0.0,,0.0-98.0,,0.0,313.45999989999996,0.0,0.290935512,0.0,0.695370945,1.0,0.706570507,0.0,0.280030553,False,,5beb715394bff800011db85c,,1373434,101,,evan-feature22,full_pf_b,,0
71,10212,102,,,,1,1,1.0,0.0,-1.0,0.0,,0.0-99.0,,-1.0,409.5100001,1.0,0.25,0.0,0.6465277079999999,1.0,0.67766682,0.0,0.25,False,,5beb715394bff800011db85c,,1383665,102,,evan-feature22,full_pf_b,,0
72,10213,103,,,,2,2,1.0,0.0,-1.0,0.0,,0.0-100.0,,-1.0,371.42,0.0,0.26463816,0.0,0.636100213,1.0,0.646048507,0.0,0.265607101,False,,5beb715394bff800011db85c,,1393858,103,,evan-feature22,full_pf_b,,1
73,10214,104,,,,2,2,0.0,0.0,-1.0,0.0,,0.0-101.0,,0.0,314.4750001,0.0,0.314340707,1.0,0.667795927,0.0,0.613630805,0.0,0.25,False,,5beb715394bff800011db85c,,1404006,104,,evan-feature22,full_pf_b,,0
74,10215,105,,,,2,2,1.0,0.0,-1.0,0.0,,0.0-102.0,,-1.0,541.2949999,0.0,0.28685784,1.0,0.6622549529999999,1.0,0.652154117,0.0,0.25,False,,5beb715394bff800011db85c,,1414374,105,,evan-feature22,full_pf_b,,0
75,10216,106,,,,2,2,0.0,0.0,0.0,1.0,,0.0-103.0,,0.0,369.8700001,0.0,0.304106554,0.0,0.631289538,0.0,0.707041942,0.0,0.29314237,False,,5beb715394bff800011db85c,,1424572,106,,evan-feature22,full_pf_b,,0
76,10217,107,,,,2,2,0.0,0.0,0.0,1.0,,0.0-104.0,,0.0,414.355,0.0,0.304806932,1.0,0.571167718,0.0,0.680472346,0.0,0.25,False,,5beb715394bff800011db85c,,1434811,107,,evan-feature22,full_pf_b,,0
77,10218,108,,,,2,2,0.0,0.0,0.0,1.0,,0.0-105.0,,0.0,365.1000001,0.0,0.37919861,0.0,0.5724849710000001,0.0,0.705638003,0.0,0.30179300600000003,False,,5beb715394bff800011db85c,,1445015,108,,evan-feature22,full_pf_b,,0
78,10219,109,,,,2,2,0.0,0.0,0.0,1.0,,0.0-106.0,,0.0,349.775,1.0,0.464277969,0.0,0.554034373,0.0,0.7372627340000001,0.0,0.264699741,False,,5beb715394bff800011db85c,,1455177,109,,evan-feature22,full_pf_b,,0
79,10220,110,,,,2,2,1.0,0.0,-1.0,0.0,,0.0-107.0,,-1.0,605.12,1.0,0.465104323,0.0,0.530793115,1.0,0.75,0.0,0.31683071,False,,5beb715394bff800011db85c,,1465606,110,,evan-feature22,full_pf_b,,0
80,10221,111,,,,2,2,1.0,1.0,0.0,1.0,,0.0-108.0,,1.0,434.7550001,0.0,0.465104323,1.0,0.530793115,1.0,0.75,1.0,0.31683071,False,,5beb715394bff800011db85c,,1475867,111,,evan-feature22,full_pf_b,,0
81,10222,112,,,,2,2,1.0,0.0,0.0,1.0,,0.0-109.0,,0.0,364.04000010000004,1.0,0.46833986,1.0,0.570249239,1.0,0.7244472590000001,0.0,0.364114163,False,,5beb715394bff800011db85c,,1486076,112,,evan-feature22,full_pf_b,,0
82,10223,113,,,,2,2,0.0,1.0,0.0,1.0,,0.0-110.0,,1.0,463.4,0.0,0.445444024,1.0,0.649673355,0.0,0.6845441290000001,1.0,0.300660449,False,,5beb715394bff800011db85c,,1496350,113,,evan-feature22,full_pf_b,,0
83,10224,114,,,,2,2,0.0,0.0,0.0,1.0,,0.0-111.0,,0.0,752.0399999,0.0,0.39909721299999995,0.0,0.6715179509999999,0.0,0.742310028,0.0,0.35496088299999995,False,,5beb715394bff800011db85c,,1506936,114,,evan-feature22,full_pf_b,,0
84,10225,115,,,,2,2,1.0,1.0,0.0,1.0,,0.0-112.0,,1.0,454.9149999,0.0,0.37956104799999996,1.0,0.694725302,1.0,0.7181651309999999,1.0,0.38726906299999997,False,,5beb715394bff800011db85c,,1517228,115,,evan-feature22,full_pf_b,,0
85,10226,116,,,,2,2,1.0,1.0,0.0,1.0,,0.0-113.0,,1.0,633.8250001,0.0,0.404995034,1.0,0.724375412,1.0,0.6910946859999999,1.0,0.387187347,False,,5beb715394bff800011db85c,,1527692,116,,evan-feature22,full_pf_b,,0
86,10227,117,,,,2,2,1.0,1.0,0.0,1.0,,0.0-114.0,,1.0,783.1349999,0.0,0.461740803,1.0,0.75,1.0,0.75,1.0,0.34872038200000005,False,,5beb715394bff800011db85c,,1538306,117,,evan-feature22,full_pf_b,,0
87,10228,118,,,,2,2,1.0,0.0,-1.0,0.0,,0.0-115.0,,-1.0,389.16499980000003,0.0,0.43821380600000004,0.0,0.738833273,1.0,0.728286963,0.0,0.399538128,False,,5beb715394bff800011db85c,,1548530,118,,evan-feature22,full_pf_b,,0
88,10229,119,,,,2,2,1.0,1.0,0.0,1.0,,0.0-116.0,,1.0,335.06,1.0,0.41709882,1.0,0.736666736,1.0,0.75,1.0,0.389095584,False,,5beb715394bff800011db85c,,1558692,119,,evan-feature22,full_pf_b,,0
89,10230,120,,,,2,2,0.0,1.0,0.0,1.0,,0.0-117.0,,1.0,417.375,1.0,0.39749009799999996,0.0,0.744320029,0.0,0.75,1.0,0.363848678,False,,5beb715394bff800011db85c,,1568936,120,,evan-feature22,full_pf_b,,0
90,10231,121,,,,2,2,1.0,0.0,-1.0,0.0,,0.0-118.0,,-1.0,388.8400001,1.0,0.392653706,0.0,0.75,1.0,0.75,0.0,0.384386976,False,,5beb715394bff800011db85c,,1579159,121,,evan-feature22,full_pf_b,,0
91,10232,122,,,,2,2,1.0,0.0,-1.0,0.0,,0.0-119.0,,-1.0,319.1399998,0.0,0.31190902600000003,1.0,0.75,1.0,0.732413819,0.0,0.413082932,False,,5beb715394bff800011db85c,,1589304,122,,evan-feature22,full_pf_b,,0
92,10233,123,,,,2,2,1.0,0.0,0.0,1.0,,0.0-120.0,,0.0,480.04000010000004,0.0,0.366917648,1.0,0.740073855,1.0,0.75,0.0,0.352861979,False,,5beb715394bff800011db85c,,1599609,123,,evan-feature22,full_pf_b,,0
93,10234,124,,,,1,1,0.0,1.0,0.0,1.0,,0.0-121.0,,1.0,613.0049999,0.0,0.3645172,1.0,0.721770713,1.0,0.75,0.0,0.404074511,False,,5beb715394bff800011db85c,,1610061,124,,evan-feature22,full_pf_b,,1
94,10235,125,,,,1,1,0.0,1.0,0.0,1.0,,0.0-122.0,,1.0,370.9450001,0.0,0.35205600299999995,1.0,0.68983859,1.0,0.739735447,0.0,0.366895945,False,,5beb715394bff800011db85c,,1620266,125,,evan-feature22,full_pf_b,,0
95,10236,126,,,,1,1,1.0,1.0,0.0,1.0,,0.0-123.0,,1.0,648.8050001,1.0,0.40998722600000004,1.0,0.720859127,0.0,0.673854955,0.0,0.368528541,False,,5beb715394bff800011db85c,,1630739,126,,evan-feature22,full_pf_b,,0
96,10237,127,,,,1,1,1.0,0.0,-1.0,0.0,,0.0-124.0,,-1.0,417.3950001,1.0,0.353625316,0.0,0.75,1.0,0.695605473,0.0,0.38303674200000004,False,,5beb715394bff800011db85c,,1641000,127,,evan-feature22,full_pf_b,,0
97,10238,128,,,,2,2,0.0,0.0,0.0,1.0,,0.0-125.0,,0.0,425.68000010000003,0.0,0.359216989,1.0,0.75,0.0,0.6987915090000001,0.0,0.35169046200000004,False,,5beb715394bff800011db85c,,1651258,128,,evan-feature22,full_pf_b,,1
98,10239,129,,,,2,2,0.0,1.0,-1.0,0.0,,0.0-126.0,,0.0,548.0599999,0.0,0.35834496899999996,0.0,0.75,0.0,0.707067742,1.0,0.416763636,False,,5beb715394bff800011db85c,,1661639,129,,evan-feature22,full_pf_b,,0
99,10240,130,,,,2,2,0.0,0.0,-1.0,0.0,,0.0-127.0,,0.0,398.6,0.0,0.38741613799999997,1.0,0.7177369570000001,0.0,0.734902455,0.0,0.49438664299999996,False,,5beb715394bff800011db85c,,1671865,130,,evan-feature22,full_pf_b,,0
100,10241,131,,,,1,1,0.0,1.0,0.0,1.0,,0.0-128.0,,1.0,425.975,0.0,0.405255252,1.0,0.7300466640000001,0.0,0.7027748070000001,0.0,0.504359668,False,,5beb715394bff800011db85c,,1682118,131,,evan-feature22,full_pf_b,,1
101,10242,132,,,,1,1,1.0,0.0,0.0,1.0,,0.0-129.0,,0.0,334.145,1.0,0.40697073,0.0,0.7260142190000001,1.0,0.724461982,0.0,0.522779179,False,,5beb715394bff800011db85c,,1692263,132,,evan-feature22,full_pf_b,,0
102,10243,133,,,,1,1,0.0,1.0,0.0,1.0,,0.0-130.0,,1.0,337.855,0.0,0.43906215299999996,1.0,0.7252802340000001,1.0,0.719079934,1.0,0.5712990579999999,False,,5beb715394bff800011db85c,,1702428,133,,evan-feature22,full_pf_b,,0
103,10244,134,,,,1,1,0.0,1.0,0.0,1.0,,0.0-131.0,,1.0,328.93000010000003,0.0,0.4076705,1.0,0.73280499,1.0,0.681313127,0.0,0.523891346,False,,5beb715394bff800011db85c,,1712578,134,,evan-feature22,full_pf_b,,0
104,10245,135,,,,1,1,0.0,1.0,0.0,1.0,,0.0-132.0,,1.0,440.13,0.0,0.399102911,1.0,0.730498344,1.0,0.661080239,0.0,0.46742603,False,,5beb715394bff800011db85c,,1722849,135,,evan-feature22,full_pf_b,,0
105,10246,136,,,,2,2,0.0,1.0,-1.0,0.0,,0.0-133.0,,0.0,521.4,0.0,0.356477282,0.0,0.712296395,0.0,0.641812684,1.0,0.44868414,False,,5beb715394bff800011db85c,,1733198,136,,evan-feature22,full_pf_b,,1
106,10247,137,,,,2,2,1.0,0.0,0.0,1.0,,0.0-134.0,,0.0,406.125,1.0,0.462760722,1.0,0.692349322,1.0,0.700947931,0.0,0.394680266,False,,5beb715394bff800011db85c,,1743432,137,,evan-feature22,full_pf_b,,0
107,10248,138,,,,1,1,0.0,1.0,0.0,1.0,,0.0-135.0,,1.0,686.555,0.0,0.422306413,1.0,0.718375916,0.0,0.706340917,1.0,0.367787185,False,,5beb715394bff800011db85c,,1753949,138,,evan-feature22,full_pf_b,,1
108,10250,140,,,,1,1,0.0,1.0,0.0,1.0,,0.0-137.0,,1.0,1942.305,0.0,0.4582233,1.0,0.643834117,1.0,0.75,0.0,0.39615823299999997,False,,5beb715394bff800011db85c,,1769559,140,,evan-feature22,full_pf_b,,0
109,10251,141,,,,1,1,0.0,1.0,0.0,1.0,,0.0-138.0,,1.0,587.8950001000001,0.0,0.43813437899999996,1.0,0.651283804,1.0,0.729674191,1.0,0.37711048,False,,5beb715394bff800011db85c,,1779981,141,,evan-feature22,full_pf_b,,0
110,10252,142,,,,1,1,1.0,1.0,0.0,1.0,,0.0-139.0,,1.0,790.73,1.0,0.471199094,1.0,0.6470010979999999,1.0,0.715008097,0.0,0.410656191,False,,5beb715394bff800011db85c,,1790601,142,,evan-feature22,full_pf_b,,0
111,10253,143,,,,1,1,1.0,1.0,-1.0,0.0,,0.0-140.0,,-1.0,757.3299999,1.0,0.42486406,1.0,0.629771829,1.0,0.6550939960000001,0.0,0.459093873,False,,5beb715394bff800011db85c,,1801197,143,,evan-feature22,full_pf_b,,0
112,10254,144,,,,1,1,1.0,1.0,-1.0,0.0,,0.0-141.0,,-1.0,678.8349999,1.0,0.4803197,1.0,0.645842715,1.0,0.6421749920000001,0.0,0.443092151,False,,5beb715394bff800011db85c,,1811702,144,,evan-feature22,full_pf_b,,0
113,10255,145,,,,2,2,0.0,0.0,-1.0,0.0,,0.0-142.0,,0.0,402.5300001,0.0,0.521848997,1.0,0.735801074,0.0,0.6691348460000001,0.0,0.45259351600000003,False,,5beb715394bff800011db85c,,1821936,145,,evan-feature22,full_pf_b,,1
114,10256,146,,,,1,1,1.0,1.0,0.0,1.0,,0.0-143.0,,1.0,422.7549999,1.0,0.49565621299999996,1.0,0.742400847,0.0,0.661512553,1.0,0.483110831,False,,5beb715394bff800011db85c,,1832191,146,,evan-feature22,full_pf_b,,1
115,10257,147,,,,1,1,0.0,0.0,-1.0,0.0,,0.0-144.0,,0.0,369.155,0.0,0.521564361,0.0,0.731078632,0.0,0.6774886809999999,1.0,0.483263956,False,,5beb715394bff800011db85c,,1842384,147,,evan-feature22,full_pf_b,,0
116,10258,148,,,,2,2,1.0,1.0,-1.0,0.0,,0.0-145.0,,-1.0,445.54,0.0,0.558893102,0.0,0.719810023,1.0,0.67461031,1.0,0.499349834,False,,5beb715394bff800011db85c,,1852648,148,,evan-feature22,full_pf_b,,1
117,10259,149,,,,2,2,1.0,1.0,0.0,1.0,,0.0-146.0,,1.0,387.045,0.0,0.611031046,0.0,0.75,1.0,0.688072995,1.0,0.5321422729999999,False,,5beb715394bff800011db85c,,1862857,149,,evan-feature22,full_pf_b,,0
118,10260,150,,,,2,2,0.0,1.0,-1.0,0.0,,0.0-147.0,,0.0,639.065,0.0,0.633223941,1.0,0.713567728,0.0,0.75,1.0,0.48185314700000004,False,,5beb715394bff800011db85c,,1873327,150,,evan-feature22,full_pf_b,,0
119,10261,151,,,,2,2,1.0,0.0,-1.0,0.0,,0.0-148.0,,-1.0,454.6099999,0.0,0.664001694,0.0,0.705509768,1.0,0.75,0.0,0.500211065,False,,5beb715394bff800011db85c,,1883609,151,,evan-feature22,full_pf_b,,0
120,10262,152,,,,2,2,1.0,0.0,0.0,1.0,,0.0-149.0,,0.0,621.5899999,1.0,0.664001694,1.0,0.705509768,1.0,0.75,0.0,0.500211065,False,,5beb715394bff800011db85c,,1894064,152,,evan-feature22,full_pf_b,,0
121,10263,153,,,,1,1,1.0,0.0,0.0,1.0,,0.0-150.0,,0.0,707.1499999,1.0,0.696508041,0.0,0.71066027,1.0,0.717028709,1.0,0.49792991,False,,5beb715394bff800011db85c,,1904602,153,,evan-feature22,full_pf_b,,1
122,10264,154,,,,1,1,1.0,1.0,-1.0,0.0,,0.0-151.0,,-1.0,510.3450001,1.0,0.699883272,1.0,0.75,1.0,0.713543895,1.0,0.496962643,False,,5beb715394bff800011db85c,,1914941,154,,evan-feature22,full_pf_b,,0
123,10265,155,,,,1,1,0.0,1.0,0.0,1.0,,0.0-152.0,,1.0,376.92,0.0,0.741163419,1.0,0.75,1.0,0.64691024,0.0,0.513858197,False,,5beb715394bff800011db85c,,1925160,155,,evan-feature22,full_pf_b,,0
124,10266,156,,,,1,1,1.0,0.0,-1.0,0.0,,0.0-153.0,,-1.0,386.54000010000004,1.0,0.75,0.0,0.70816558,1.0,0.594499079,0.0,0.48502124,False,,5beb715394bff800011db85c,,1935379,156,,evan-feature22,full_pf_b,,0
125,10267,157,,,,1,1,0.0,0.0,0.0,1.0,,0.0-154.0,,0.0,407.225,0.0,0.75,0.0,0.721848901,1.0,0.62197249,0.0,0.48263586399999997,False,,5beb715394bff800011db85c,,1945626,157,,evan-feature22,full_pf_b,,0
126,10268,158,,,,1,1,1.0,1.0,-1.0,0.0,,0.0-155.0,,-1.0,359.25,1.0,0.75,1.0,0.74813071,1.0,0.584357161,0.0,0.411477782,False,,5beb715394bff800011db85c,,1955816,158,,evan-feature22,full_pf_b,,0
127,10269,159,,,,1,1,1.0,1.0,0.0,1.0,,0.0-156.0,,1.0,344.27,1.0,0.75,1.0,0.75,1.0,0.52287236,1.0,0.488290656,False,,5beb715394bff800011db85c,,1965973,159,,evan-feature22,full_pf_b,,0
128,10270,160,,,,2,2,1.0,0.0,0.0,1.0,,0.0-157.0,,0.0,511.255,1.0,0.75,1.0,0.75,1.0,0.544321581,0.0,0.53143059,False,,5beb715394bff800011db85c,,1976319,160,,evan-feature22,full_pf_b,,1
129,10271,161,,,,1,1,1.0,1.0,0.0,1.0,,0.0-158.0,,1.0,376.6400001,1.0,0.726754564,1.0,0.75,1.0,0.5129306370000001,1.0,0.530592445,False,,5beb715394bff800011db85c,,1986534,161,,evan-feature22,full_pf_b,,1
130,10272,162,,,,1,1,0.0,1.0,-1.0,0.0,,0.0-159.0,,0.0,555.22,0.0,0.75,1.0,0.7392590729999999,0.0,0.479875835,1.0,0.547007051,False,,5beb715394bff800011db85c,,1996910,162,,evan-feature22,full_pf_b,,0
131,10273,163,,,,1,1,1.0,1.0,-1.0,0.0,,0.0-160.0,,-1.0,346.1500001,1.0,0.75,1.0,0.7393376979999999,1.0,0.546045419,0.0,0.541267353,False,,5beb715394bff800011db85c,,2007090,163,,evan-feature22,full_pf_b,,0
132,10274,164,,,,1,1,1.0,1.0,-1.0,0.0,,0.0-161.0,,-1.0,379.305,1.0,0.75,1.0,0.75,0.0,0.485725895,1.0,0.527625395,False,,5beb715394bff800011db85c,,2017296,164,,evan-feature22,full_pf_b,,0
133,10275,165,,,,2,2,1.0,0.0,0.0,1.0,,0.0-162.0,,0.0,440.6600001,1.0,0.75,1.0,0.725087974,1.0,0.488603595,0.0,0.504019206,False,,5beb715394bff800011db85c,,2027566,165,,evan-feature22,full_pf_b,,1
134,10276,166,,,,2,2,0.0,0.0,0.0,1.0,,0.0-163.0,,0.0,477.585,0.0,0.745504295,0.0,0.75,0.0,0.452379914,0.0,0.50131194,False,,5beb715394bff800011db85c,,2037865,166,,evan-feature22,full_pf_b,,0
135,10277,167,,,,2,2,1.0,1.0,0.0,1.0,,0.0-164.0,,1.0,313.9900002,1.0,0.728513874,1.0,0.75,1.0,0.44125567200000004,1.0,0.531454591,False,,5beb715394bff800011db85c,,2048012,167,,evan-feature22,full_pf_b,,0
136,10278,168,,,,2,2,0.0,0.0,-1.0,0.0,,0.0-165.0,,0.0,470.0,1.0,0.73790804,1.0,0.75,0.0,0.413036656,0.0,0.524619035,False,,5beb715394bff800011db85c,,2058308,168,,evan-feature22,full_pf_b,,0
137,10279,169,,,,1,1,1.0,1.0,0.0,1.0,,0.0-166.0,,1.0,730.37,1.0,0.7080961309999999,1.0,0.708666865,0.0,0.431915581,1.0,0.481819489,False,,5beb715394bff800011db85c,,2068879,169,,evan-feature22,full_pf_b,,1
138,10280,170,,,,2,2,1.0,0.0,0.0,1.0,,0.0-167.0,,0.0,492.755,1.0,0.721378003,1.0,0.71605913,1.0,0.36642387,0.0,0.5036739929999999,False,,5beb715394bff800011db85c,,2079187,170,,evan-feature22,full_pf_b,,1
139,10281,171,,,,2,2,0.0,0.0,0.0,1.0,,0.0-168.0,,0.0,353.63,0.0,0.7340618959999999,1.0,0.699323252,0.0,0.35298046299999997,0.0,0.511241692,False,,5beb715394bff800011db85c,,2089360,171,,evan-feature22,full_pf_b,,0
140,10282,172,,,,1,1,1.0,1.0,-1.0,0.0,,0.0-169.0,,-1.0,528.3300001,1.0,0.75,1.0,0.70412698,0.0,0.380734814,1.0,0.529580116,False,,5beb715394bff800011db85c,,2099725,172,,evan-feature22,full_pf_b,,1
141,10283,173,,,,2,2,0.0,0.0,0.0,1.0,,0.0-170.0,,0.0,829.525,1.0,0.7436654909999999,1.0,0.711182751,0.0,0.41125331,0.0,0.49554405,False,,5beb715394bff800011db85c,,2110382,173,,evan-feature22,full_pf_b,,1
142,10284,174,,,,2,2,0.0,0.0,0.0,1.0,,0.0-171.0,,0.0,681.7099999,1.0,0.731607915,0.0,0.651774583,0.0,0.35688023,0.0,0.45194491600000003,False,,5beb715394bff800011db85c,,2120901,174,,evan-feature22,full_pf_b,,0
143,10285,175,,,,2,2,1.0,1.0,-1.0,0.0,,0.0-172.0,,-1.0,354.25999989999997,0.0,0.75,1.0,0.75,1.0,0.283145374,1.0,0.528608005,False,,5beb715394bff800011db85c,,2131083,175,,evan-feature22,full_pf_b,,0
144,10286,176,,,,1,1,0.0,1.0,-1.0,0.0,,0.0-173.0,,0.0,417.5200001,0.0,0.7491416890000001,1.0,0.7423785959999999,0.0,0.29135870399999997,1.0,0.498888318,False,,5beb715394bff800011db85c,,2141316,176,,evan-feature22,full_pf_b,,1
145,10287,177,,,,1,1,1.0,1.0,-1.0,0.0,,0.0-174.0,,-1.0,358.3300002,1.0,0.708569387,1.0,0.717682277,0.0,0.294421699,1.0,0.493838163,False,,5beb715394bff800011db85c,,2151486,177,,evan-feature22,full_pf_b,,0
146,10288,178,,,,2,2,0.0,1.0,0.0,1.0,,0.0-175.0,,1.0,383.565,1.0,0.75,1.0,0.7383382159999999,0.0,0.356098707,1.0,0.442533405,False,,5beb715394bff800011db85c,,2161677,178,,evan-feature22,full_pf_b,,1
147,10289,179,,,,2,2,0.0,0.0,0.0,1.0,,0.0-176.0,,0.0,394.445,1.0,0.744527075,1.0,0.75,0.0,0.334127506,0.0,0.393165805,False,,5beb715394bff800011db85c,,2171902,179,,evan-feature22,full_pf_b,,0
148,10290,180,,,,2,2,0.0,1.0,0.0,1.0,,0.0-177.0,,1.0,291.0099998,1.0,0.75,1.0,0.75,0.0,0.33571021799999995,1.0,0.350393962,False,,5beb715394bff800011db85c,,2182029,180,,evan-feature22,full_pf_b,,0
149,10291,181,,,,2,2,0.0,0.0,0.0,1.0,,0.0-178.0,,0.0,359.30000010000003,1.0,0.75,1.0,0.75,0.0,0.313628297,0.0,0.36349657399999996,False,,5beb715394bff800011db85c,,2192216,181,,evan-feature22,full_pf_b,,0
150,10292,182,,,,1,1,1.0,1.0,-1.0,0.0,,0.0-179.0,,-1.0,462.68000010000003,1.0,0.75,1.0,0.734284182,0.0,0.262667667,0.0,0.380199119,False,,5beb715394bff800011db85c,,2202507,182,,evan-feature22,full_pf_b,,1
151,10293,183,,,,2,2,0.0,0.0,0.0,1.0,,0.0-180.0,,0.0,269.42500010000003,1.0,0.75,1.0,0.75,0.0,0.25,0.0,0.394494013,False,,5beb715394bff800011db85c,,2212611,183,,evan-feature22,full_pf_b,,1
152,10294,184,,,,1,1,1.0,1.0,-1.0,0.0,,0.0-181.0,,-1.0,387.075,1.0,0.722298145,1.0,0.7357822340000001,0.0,0.25,0.0,0.319142121,False,,5beb715394bff800011db85c,,2222836,184,,evan-feature22,full_pf_b,,1
153,10295,185,,,,1,1,1.0,0.0,-1.0,0.0,,0.0-182.0,,-1.0,381.8950001,1.0,0.73149275,0.0,0.724276446,0.0,0.305856907,1.0,0.281315057,False,,5beb715394bff800011db85c,,2233044,185,,evan-feature22,full_pf_b,,0
154,10296,186,,,,2,2,0.0,0.0,0.0,1.0,,0.0-183.0,,0.0,341.5400002,1.0,0.7458732690000001,1.0,0.7336382459999999,0.0,0.272571964,0.0,0.266021999,False,,5beb715394bff800011db85c,,2243211,186,,evan-feature22,full_pf_b,,1
155,10297,187,,,,2,2,1.0,0.0,0.0,1.0,,0.0-184.0,,0.0,457.43000020000005,1.0,0.705579037,1.0,0.720778292,1.0,0.320238144,0.0,0.30971744,False,,5beb715394bff800011db85c,,2253507,187,,evan-feature22,full_pf_b,,0
156,10298,188,,,,1,1,1.0,0.0,0.0,1.0,,0.0-185.0,,0.0,378.2849999,1.0,0.700425648,0.0,0.7198784009999999,0.0,0.272590393,0.0,0.304182931,False,,5beb715394bff800011db85c,,2263716,188,,evan-feature22,full_pf_b,,1
157,10299,189,,,,1,1,1.0,1.0,0.0,1.0,,0.0-186.0,,1.0,383.775,1.0,0.735590785,1.0,0.722714973,1.0,0.25,1.0,0.323421091,False,,5beb715394bff800011db85c,,2273926,189,,evan-feature22,full_pf_b,,0
158,10300,190,,,,1,1,1.0,0.0,0.0,1.0,,0.0-187.0,,0.0,656.2750002,1.0,0.724807662,0.0,0.63146213,0.0,0.36836492600000004,0.0,0.34592153299999995,False,,5beb715394bff800011db85c,,2284417,190,,evan-feature22,full_pf_b,,0
159,10301,191,,,,1,1,0.0,1.0,0.0,1.0,,0.0-188.0,,1.0,406.615,0.0,0.7352796909999999,1.0,0.555111392,1.0,0.36003922,0.0,0.31433779999999995,False,,5beb715394bff800011db85c,,2294647,191,,evan-feature22,full_pf_b,,0
160,10302,192,notice,,,,,,,,,,0.0-189.0,"{""Q0"":""Not significantly. ""}",,12847.0,,,,,,,,,False,,5beb715394bff800011db85c,,2307495,192,Q,survey-text,full_pf_b,,1
161,10303,193,track1,,[1],,,,,,,,0.0-190.0,"{""Q0"":""no""}",,4467.0,,,,,,,,,False,,5beb715394bff800011db85c,,2311966,193,Q,evan-quiz,full_pf_b,,1
162,10304,194,track2,,[0],,,,,,,,0.0-191.0,"{""Q0"":""yes""}",,9176.0,,,,,,,,,False,,5beb715394bff800011db85c,,2321143,194,Q,evan-quiz,full_pf_b,,1
163,10305,195,strat,,,,,,,,,,0.0-192.0,"{""Q0"":""I tried to time the intervals between when they changed, however I believe I was unsuccessful in finding a pattern.""}",,19615.0,,,,,,,,,False,,5beb715394bff800011db85c,,2340760,195,Q,survey-text,full_pf_b,,1
