,index,Unnamed: 0,Q_name,button_pressed,choice_idxs,chosen_pos,chosen_state,chosen_state_f_1_outcome,chosen_state_f_2_outcome,f_1_reward,f_2_reward,incor_questions,internal_node_id,responses,reward_received,rt,s_1_f_1_outcome,s_1_f_1_prob,s_1_f_2_outcome,s_1_f_2_prob,s_2_f_1_outcome,s_2_f_1_prob,s_2_f_2_outcome,s_2_f_2_prob,safe_first,stimulus,subjectID,success,time_elapsed,trial_index,trial_num,trial_type,version,view_history,switching
0,4151,25,,,,1,1,1.0,1.0,0.0,1.0,,0.0-27.0,,1.0,712.965,1.0,0.6,1.0,0.6,0.0,0.4,0.0,0.4,True,,5eff0b0d1311a5436d0d6810,,436173,25,,evan-feature22,full_rf_b,,0
1,4152,26,,,,1,1,1.0,0.0,0.0,1.0,,0.0-28.0,,0.0,676.555,1.0,0.608053294,0.0,0.63424552,0.0,0.397152172,0.0,0.347069101,True,,5eff0b0d1311a5436d0d6810,,446673,26,,evan-feature22,full_rf_b,,0
2,4153,27,,,,1,1,0.0,0.0,0.0,1.0,,0.0-29.0,,0.0,935.25,0.0,0.642237155,0.0,0.648566321,0.0,0.389407674,1.0,0.285525717,True,,5eff0b0d1311a5436d0d6810,,457414,27,,evan-feature22,full_rf_b,,0
3,4154,28,,,,1,1,0.0,0.0,0.0,1.0,,0.0-30.0,,0.0,906.635,0.0,0.661086576,0.0,0.630492543,0.0,0.399058924,0.0,0.25,True,,5eff0b0d1311a5436d0d6810,,468129,28,,evan-feature22,full_rf_b,,0
4,4155,29,,,,1,1,0.0,0.0,0.0,1.0,,0.0-31.0,,0.0,486.29,0.0,0.631324137,0.0,0.6269842929999999,1.0,0.38734784299999997,0.0,0.25,True,,5eff0b0d1311a5436d0d6810,,478419,29,,evan-feature22,full_rf_b,,0
5,4156,30,,,,2,2,0.0,0.0,0.0,1.0,,0.0-32.0,,0.0,1345.865,1.0,0.6381991370000001,0.0,0.68987999,0.0,0.384107265,0.0,0.271332943,True,,5eff0b0d1311a5436d0d6810,,489564,30,,evan-feature22,full_rf_b,,1
6,4157,31,,,,1,1,1.0,1.0,0.0,1.0,,0.0-33.0,,1.0,305.91,1.0,0.66034901,1.0,0.742641349,0.0,0.360225629,0.0,0.25,True,,5eff0b0d1311a5436d0d6810,,499675,31,,evan-feature22,full_rf_b,,1
7,4158,32,,,,1,1,0.0,1.0,-1.0,0.0,,0.0-34.0,,0.0,664.715,0.0,0.638612418,1.0,0.75,0.0,0.367273939,1.0,0.25,True,,5eff0b0d1311a5436d0d6810,,510160,32,,evan-feature22,full_rf_b,,0
8,4159,33,,,,1,1,1.0,1.0,0.0,1.0,,0.0-35.0,,1.0,457.17,1.0,0.624340629,1.0,0.75,0.0,0.425829545,0.0,0.25,True,,5eff0b0d1311a5436d0d6810,,520425,33,,evan-feature22,full_rf_b,,0
9,4160,34,,,,1,1,0.0,0.0,0.0,1.0,,0.0-36.0,,0.0,934.51,0.0,0.621999804,0.0,0.75,0.0,0.368609357,0.0,0.25,True,,5eff0b0d1311a5436d0d6810,,531193,34,,evan-feature22,full_rf_b,,0
10,4161,35,,,,2,2,0.0,0.0,-1.0,0.0,,0.0-37.0,,0.0,1461.41,1.0,0.62666403,1.0,0.75,0.0,0.311151498,0.0,0.25,True,,5eff0b0d1311a5436d0d6810,,542463,35,,evan-feature22,full_rf_b,,1
11,4162,36,,,,1,1,1.0,0.0,-1.0,0.0,,0.0-38.0,,-1.0,338.895,1.0,0.6819650009999999,0.0,0.75,0.0,0.310763048,0.0,0.25,True,,5eff0b0d1311a5436d0d6810,,552613,36,,evan-feature22,full_rf_b,,1
12,4163,37,,,,2,2,0.0,0.0,0.0,1.0,,0.0-39.0,,0.0,561.65,0.0,0.740626951,1.0,0.75,0.0,0.25,0.0,0.25,True,,5eff0b0d1311a5436d0d6810,,562990,37,,evan-feature22,full_rf_b,,1
13,4164,38,,,,1,1,1.0,1.0,0.0,1.0,,0.0-40.0,,1.0,381.305,1.0,0.739599242,1.0,0.742034978,0.0,0.25397114600000004,0.0,0.25,True,,5eff0b0d1311a5436d0d6810,,573182,38,,evan-feature22,full_rf_b,,1
14,4165,39,,,,1,1,0.0,0.0,0.0,1.0,,0.0-41.0,,0.0,1301.11,0.0,0.732341315,0.0,0.72735643,1.0,0.25,0.0,0.25,True,,5eff0b0d1311a5436d0d6810,,584292,39,,evan-feature22,full_rf_b,,0
15,4166,40,,,,1,1,1.0,1.0,0.0,1.0,,0.0-42.0,,1.0,573.66,1.0,0.7062287770000001,1.0,0.75,0.0,0.29002151,0.0,0.288256649,True,,5eff0b0d1311a5436d0d6810,,594683,40,,evan-feature22,full_rf_b,,0
16,4167,41,,,,2,2,0.0,0.0,-1.0,0.0,,0.0-43.0,,0.0,265.395,1.0,0.7086029209999999,0.0,0.75,0.0,0.274129113,0.0,0.262851608,True,,5eff0b0d1311a5436d0d6810,,604740,41,,evan-feature22,full_rf_b,,1
17,4168,42,,,,1,1,1.0,0.0,0.0,1.0,,0.0-44.0,,0.0,302.72,1.0,0.669189651,0.0,0.727614338,1.0,0.298444036,1.0,0.296944518,True,,5eff0b0d1311a5436d0d6810,,614850,42,,evan-feature22,full_rf_b,,1
18,4169,43,,,,1,1,1.0,1.0,-1.0,0.0,,0.0-45.0,,-1.0,892.205,1.0,0.6819912929999999,1.0,0.7179434290000001,0.0,0.265003961,1.0,0.28157921199999997,True,,5eff0b0d1311a5436d0d6810,,625548,43,,evan-feature22,full_rf_b,,0
19,4170,44,,,,1,1,0.0,1.0,-1.0,0.0,,0.0-46.0,,0.0,917.89,0.0,0.665275002,1.0,0.723065271,0.0,0.260414971,1.0,0.30973870000000003,True,,5eff0b0d1311a5436d0d6810,,636259,44,,evan-feature22,full_rf_b,,0
20,4171,45,,,,2,2,1.0,0.0,0.0,1.0,,0.0-47.0,,0.0,633.915,1.0,0.6660593260000001,1.0,0.728032907,1.0,0.30922817,0.0,0.338778608,True,,5eff0b0d1311a5436d0d6810,,646687,45,,evan-feature22,full_rf_b,,1
21,4172,46,,,,2,2,0.0,1.0,0.0,1.0,,0.0-48.0,,1.0,918.61,0.0,0.702068785,1.0,0.6528750879999999,0.0,0.287329608,1.0,0.35789613200000003,True,,5eff0b0d1311a5436d0d6810,,657405,46,,evan-feature22,full_rf_b,,0
22,4173,47,,,,1,1,1.0,0.0,0.0,1.0,,0.0-49.0,,0.0,254.475,1.0,0.651939787,0.0,0.636725589,0.0,0.284834488,0.0,0.358563756,True,,5eff0b0d1311a5436d0d6810,,667466,47,,evan-feature22,full_rf_b,,1
23,4174,48,,,,1,1,0.0,1.0,0.0,1.0,,0.0-50.0,,1.0,760.405,0.0,0.67573929,1.0,0.612550049,1.0,0.37130387600000003,0.0,0.383542402,True,,5eff0b0d1311a5436d0d6810,,678033,48,,evan-feature22,full_rf_b,,0
24,4175,49,,,,1,1,1.0,1.0,0.0,1.0,,0.0-51.0,,1.0,518.81,1.0,0.620753801,1.0,0.60513644,1.0,0.385529434,1.0,0.340361743,True,,5eff0b0d1311a5436d0d6810,,688369,49,,evan-feature22,full_rf_b,,0
25,4176,50,,,,2,2,0.0,1.0,-1.0,0.0,,0.0-52.0,,0.0,284.85,1.0,0.673564893,1.0,0.672437924,0.0,0.292955382,1.0,0.337633795,True,,5eff0b0d1311a5436d0d6810,,698470,50,,evan-feature22,full_rf_b,,1
26,4177,51,,,,1,1,1.0,1.0,0.0,1.0,,0.0-53.0,,1.0,496.365,1.0,0.6749427,1.0,0.724197502,0.0,0.32391132100000003,1.0,0.350995264,True,,5eff0b0d1311a5436d0d6810,,708751,51,,evan-feature22,full_rf_b,,1
27,4178,52,,,,2,2,0.0,1.0,0.0,1.0,,0.0-54.0,,1.0,639.095,1.0,0.6940159379999999,0.0,0.75,0.0,0.31710554399999996,1.0,0.413450341,True,,5eff0b0d1311a5436d0d6810,,719195,52,,evan-feature22,full_rf_b,,1
28,4179,53,,,,1,1,0.0,0.0,0.0,1.0,,0.0-55.0,,0.0,1059.115,0.0,0.6916018270000001,0.0,0.69001187,0.0,0.261817804,0.0,0.40038635,True,,5eff0b0d1311a5436d0d6810,,730077,53,,evan-feature22,full_rf_b,,1
29,4180,54,,,,1,1,1.0,1.0,0.0,1.0,,0.0-56.0,,1.0,1154.475,1.0,0.641061544,1.0,0.71337992,1.0,0.277296461,0.0,0.47372791700000005,True,,5eff0b0d1311a5436d0d6810,,741065,54,,evan-feature22,full_rf_b,,0
30,4181,55,,,,2,2,0.0,1.0,0.0,1.0,,0.0-57.0,,1.0,545.505,1.0,0.6082438520000001,1.0,0.708471106,0.0,0.28745137,1.0,0.564174476,True,,5eff0b0d1311a5436d0d6810,,751431,55,,evan-feature22,full_rf_b,,1
31,4182,56,,,,2,2,0.0,1.0,-1.0,0.0,,0.0-58.0,,0.0,822.195,0.0,0.6051112120000001,1.0,0.7118147229999999,0.0,0.272390611,1.0,0.5595149939999999,True,,5eff0b0d1311a5436d0d6810,,762066,56,,evan-feature22,full_rf_b,,0
32,4183,57,,,,1,1,1.0,0.0,-1.0,0.0,,0.0-59.0,,-1.0,843.87,1.0,0.582420852,0.0,0.635867583,0.0,0.31089574,1.0,0.5227206520000001,True,,5eff0b0d1311a5436d0d6810,,772729,57,,evan-feature22,full_rf_b,,1
33,4184,58,,,,1,1,1.0,1.0,-1.0,0.0,,0.0-60.0,,-1.0,1087.995,1.0,0.623195575,1.0,0.655026044,0.0,0.25,1.0,0.560387538,True,,5eff0b0d1311a5436d0d6810,,783631,58,,evan-feature22,full_rf_b,,0
34,4185,59,,,,1,1,0.0,1.0,0.0,1.0,,0.0-61.0,,1.0,1110.54,0.0,0.601889598,1.0,0.678198724,0.0,0.25,1.0,0.559922936,True,,5eff0b0d1311a5436d0d6810,,794549,59,,evan-feature22,full_rf_b,,0
35,4186,60,,,,2,2,0.0,0.0,-1.0,0.0,,0.0-62.0,,0.0,345.455,0.0,0.601259914,1.0,0.704681482,0.0,0.33908969299999997,0.0,0.505003715,True,,5eff0b0d1311a5436d0d6810,,804689,60,,evan-feature22,full_rf_b,,1
36,4187,61,,,,1,1,0.0,1.0,-1.0,0.0,,0.0-63.0,,0.0,1311.61,0.0,0.59645454,1.0,0.710437172,0.0,0.327441879,1.0,0.391749613,True,,5eff0b0d1311a5436d0d6810,,815810,61,,evan-feature22,full_rf_b,,1
37,4188,62,,,,1,1,1.0,1.0,0.0,1.0,,0.0-64.0,,1.0,739.505,1.0,0.529473,1.0,0.636758527,1.0,0.301338063,0.0,0.365661481,True,,5eff0b0d1311a5436d0d6810,,826352,62,,evan-feature22,full_rf_b,,0
38,4189,63,,,,2,2,0.0,1.0,-1.0,0.0,,0.0-65.0,,0.0,2677.135,1.0,0.541657162,1.0,0.634541962,0.0,0.343535366,1.0,0.371763742,True,,5eff0b0d1311a5436d0d6810,,838823,63,,evan-feature22,full_rf_b,,1
39,4190,64,,,,2,2,0.0,1.0,-1.0,0.0,,0.0-66.0,,0.0,297.095,1.0,0.5707533260000001,1.0,0.589121171,0.0,0.326428396,1.0,0.43961622899999997,True,,5eff0b0d1311a5436d0d6810,,848905,64,,evan-feature22,full_rf_b,,0
40,4191,65,,,,1,1,1.0,1.0,0.0,1.0,,0.0-67.0,,1.0,526.885,1.0,0.5707533260000001,1.0,0.589121171,0.0,0.326428396,1.0,0.43961622899999997,True,,5eff0b0d1311a5436d0d6810,,859275,65,,evan-feature22,full_rf_b,,1
41,4192,66,,,,1,1,0.0,1.0,0.0,1.0,,0.0-68.0,,1.0,465.26,0.0,0.506271295,1.0,0.641775594,1.0,0.37149690700000004,0.0,0.404330166,True,,5eff0b0d1311a5436d0d6810,,869556,66,,evan-feature22,full_rf_b,,0
42,4193,67,,,,1,1,0.0,1.0,-1.0,0.0,,0.0-69.0,,0.0,279.175,0.0,0.455642565,1.0,0.623605825,1.0,0.358753011,0.0,0.346174041,True,,5eff0b0d1311a5436d0d6810,,879666,67,,evan-feature22,full_rf_b,,0
43,4194,68,,,,1,1,1.0,0.0,0.0,1.0,,0.0-70.0,,0.0,310.52,1.0,0.483677308,0.0,0.5904681070000001,0.0,0.402218411,0.0,0.35344697,True,,5eff0b0d1311a5436d0d6810,,889763,68,,evan-feature22,full_rf_b,,0
44,4195,69,,,,1,1,0.0,1.0,-1.0,0.0,,0.0-71.0,,0.0,610.9,0.0,0.394210977,1.0,0.558925494,1.0,0.540052017,0.0,0.35182128700000004,True,,5eff0b0d1311a5436d0d6810,,900224,69,,evan-feature22,full_rf_b,,0
45,4196,70,,,,1,1,0.0,0.0,0.0,1.0,,0.0-72.0,,0.0,280.815,0.0,0.382300414,0.0,0.577670603,0.0,0.607608448,1.0,0.378261578,True,,5eff0b0d1311a5436d0d6810,,910298,70,,evan-feature22,full_rf_b,,0
46,4197,71,,,,1,1,0.0,0.0,-1.0,0.0,,0.0-73.0,,0.0,788.345,0.0,0.357596762,0.0,0.5929076529999999,0.0,0.6579790010000001,0.0,0.401326777,True,,5eff0b0d1311a5436d0d6810,,920910,71,,evan-feature22,full_rf_b,,0
47,4198,72,,,,1,1,0.0,0.0,0.0,1.0,,0.0-74.0,,0.0,276.825,0.0,0.362033495,0.0,0.582308608,0.0,0.649195052,0.0,0.355158505,True,,5eff0b0d1311a5436d0d6810,,931027,72,,evan-feature22,full_rf_b,,0
48,4199,73,,,,1,1,0.0,1.0,0.0,1.0,,0.0-75.0,,1.0,400.835,0.0,0.369620635,1.0,0.669100864,1.0,0.706059111,1.0,0.362516241,True,,5eff0b0d1311a5436d0d6810,,941242,73,,evan-feature22,full_rf_b,,0
49,4200,74,,,,1,1,1.0,1.0,0.0,1.0,,0.0-76.0,,1.0,179.845,1.0,0.41477751399999996,1.0,0.7284416779999999,0.0,0.7182656940000001,0.0,0.36228040899999997,True,,5eff0b0d1311a5436d0d6810,,951242,74,,evan-feature22,full_rf_b,,0
50,4201,75,,,,1,1,0.0,0.0,-1.0,0.0,,0.0-77.0,,0.0,260.29,0.0,0.37675460299999997,0.0,0.703250285,0.0,0.75,0.0,0.461979164,True,,5eff0b0d1311a5436d0d6810,,961318,75,,evan-feature22,full_rf_b,,0
51,4202,76,,,,2,2,1.0,1.0,-1.0,0.0,,0.0-78.0,,-1.0,423.79,0.0,0.398716075,1.0,0.6723864890000001,1.0,0.674153818,1.0,0.519029516,True,,5eff0b0d1311a5436d0d6810,,971561,76,,evan-feature22,full_rf_b,,1
52,4203,77,,,,1,1,0.0,1.0,-1.0,0.0,,0.0-79.0,,0.0,267.12,0.0,0.34677856700000004,1.0,0.69057175,1.0,0.6822438540000001,0.0,0.477292237,True,,5eff0b0d1311a5436d0d6810,,981632,77,,evan-feature22,full_rf_b,,1
53,4204,78,,,,1,1,1.0,0.0,0.0,1.0,,0.0-80.0,,0.0,357.815,1.0,0.28580469199999997,0.0,0.68408818,1.0,0.684207565,1.0,0.49780448299999996,True,,5eff0b0d1311a5436d0d6810,,991813,78,,evan-feature22,full_rf_b,,0
54,4206,80,,,,1,1,1.0,1.0,0.0,1.0,,0.0-82.0,,1.0,576.255,1.0,0.25,1.0,0.7405808970000001,1.0,0.679614108,0.0,0.436436964,True,,5eff0b0d1311a5436d0d6810,,1005188,80,,evan-feature22,full_rf_b,,0
55,4207,81,,,,1,1,0.0,0.0,0.0,1.0,,0.0-83.0,,0.0,206.285,0.0,0.29890393,0.0,0.730505706,1.0,0.7328203320000001,1.0,0.439256938,True,,5eff0b0d1311a5436d0d6810,,1015195,81,,evan-feature22,full_rf_b,,0
56,4208,82,,,,1,1,1.0,0.0,-1.0,0.0,,0.0-84.0,,-1.0,229.22,1.0,0.326762398,0.0,0.7148059609999999,1.0,0.75,0.0,0.44389608799999997,True,,5eff0b0d1311a5436d0d6810,,1025240,82,,evan-feature22,full_rf_b,,0
57,4209,83,,,,2,2,1.0,1.0,0.0,1.0,,0.0-85.0,,1.0,159.77,0.0,0.295168515,0.0,0.739760854,1.0,0.719947008,1.0,0.35277284600000003,True,,5eff0b0d1311a5436d0d6810,,1035213,83,,evan-feature22,full_rf_b,,1
58,4210,84,,,,1,1,0.0,1.0,0.0,1.0,,0.0-86.0,,1.0,299.02,0.0,0.25,1.0,0.70781482,1.0,0.75,0.0,0.286095925,True,,5eff0b0d1311a5436d0d6810,,1045332,84,,evan-feature22,full_rf_b,,1
59,4211,85,,,,1,1,1.0,0.0,0.0,1.0,,0.0-87.0,,0.0,348.765,1.0,0.25638190899999996,0.0,0.704088163,1.0,0.75,0.0,0.26872601399999996,True,,5eff0b0d1311a5436d0d6810,,1055491,85,,evan-feature22,full_rf_b,,0
60,4212,86,,,,1,1,0.0,0.0,-1.0,0.0,,0.0-88.0,,0.0,275.9,0.0,0.271581126,0.0,0.669760107,1.0,0.733896663,0.0,0.273244572,True,,5eff0b0d1311a5436d0d6810,,1065592,86,,evan-feature22,full_rf_b,,0
61,4213,87,,,,2,2,1.0,1.0,0.0,1.0,,0.0-89.0,,1.0,247.835,0.0,0.257144401,1.0,0.600575706,1.0,0.74488122,1.0,0.25,True,,5eff0b0d1311a5436d0d6810,,1075649,87,,evan-feature22,full_rf_b,,1
62,4214,88,,,,1,1,0.0,1.0,0.0,1.0,,0.0-90.0,,1.0,1011.26,0.0,0.25,1.0,0.616870026,1.0,0.723610234,0.0,0.25,True,,5eff0b0d1311a5436d0d6810,,1086466,88,,evan-feature22,full_rf_b,,1
63,4215,89,,,,1,1,0.0,1.0,-1.0,0.0,,0.0-91.0,,0.0,187.02,0.0,0.25,1.0,0.583540187,0.0,0.7041042559999999,0.0,0.285961995,True,,5eff0b0d1311a5436d0d6810,,1096441,89,,evan-feature22,full_rf_b,,0
64,4216,90,,,,2,2,0.0,0.0,-1.0,0.0,,0.0-92.0,,0.0,298.36,0.0,0.27254536,0.0,0.53875765,0.0,0.693783448,0.0,0.284961652,True,,5eff0b0d1311a5436d0d6810,,1106535,90,,evan-feature22,full_rf_b,,1
65,4217,91,,,,1,1,0.0,1.0,-1.0,0.0,,0.0-93.0,,0.0,284.92,0.0,0.25,1.0,0.548431252,0.0,0.734221895,0.0,0.279445214,True,,5eff0b0d1311a5436d0d6810,,1116647,91,,evan-feature22,full_rf_b,,1
66,4218,92,,,,1,1,0.0,1.0,0.0,1.0,,0.0-94.0,,1.0,347.245,0.0,0.258640684,1.0,0.545878066,1.0,0.725245965,0.0,0.31487537,True,,5eff0b0d1311a5436d0d6810,,1126796,92,,evan-feature22,full_rf_b,,0
67,4219,93,,,,1,1,0.0,0.0,0.0,1.0,,0.0-95.0,,0.0,396.585,0.0,0.251103711,0.0,0.5776290629999999,0.0,0.696320133,0.0,0.317831047,True,,5eff0b0d1311a5436d0d6810,,1136986,93,,evan-feature22,full_rf_b,,0
68,4220,94,,,,2,2,1.0,0.0,0.0,1.0,,0.0-96.0,,0.0,472.49,0.0,0.276630292,0.0,0.617329858,1.0,0.73838088,0.0,0.261471582,True,,5eff0b0d1311a5436d0d6810,,1147246,94,,evan-feature22,full_rf_b,,1
69,4221,95,,,,1,1,0.0,1.0,0.0,1.0,,0.0-97.0,,1.0,508.79,0.0,0.297716424,1.0,0.618863717,1.0,0.7402358259999999,0.0,0.262600834,True,,5eff0b0d1311a5436d0d6810,,1157578,95,,evan-feature22,full_rf_b,,1
70,4222,96,,,,1,1,0.0,1.0,-1.0,0.0,,0.0-98.0,,0.0,590.995,0.0,0.290935512,1.0,0.695370945,1.0,0.706570507,0.0,0.280030553,True,,5eff0b0d1311a5436d0d6810,,1167982,96,,evan-feature22,full_rf_b,,0
71,4223,97,,,,1,1,0.0,1.0,0.0,1.0,,0.0-99.0,,1.0,422.28,0.0,0.25,1.0,0.6465277079999999,0.0,0.67766682,0.0,0.25,True,,5eff0b0d1311a5436d0d6810,,1178252,97,,evan-feature22,full_rf_b,,0
72,4224,98,,,,2,2,0.0,0.0,-1.0,0.0,,0.0-100.0,,0.0,253.47,0.0,0.26463816,1.0,0.636100213,0.0,0.646048507,0.0,0.265607101,True,,5eff0b0d1311a5436d0d6810,,1188332,98,,evan-feature22,full_rf_b,,1
73,4225,99,,,,1,1,0.0,1.0,-1.0,0.0,,0.0-101.0,,0.0,271.875,0.0,0.314340707,1.0,0.667795927,0.0,0.613630805,1.0,0.25,True,,5eff0b0d1311a5436d0d6810,,1198400,99,,evan-feature22,full_rf_b,,1
74,4226,100,,,,1,1,0.0,1.0,0.0,1.0,,0.0-102.0,,1.0,221.015,0.0,0.28685784,1.0,0.6622549529999999,0.0,0.652154117,0.0,0.25,True,,5eff0b0d1311a5436d0d6810,,1208416,100,,evan-feature22,full_rf_b,,0
75,4227,101,,,,1,1,0.0,1.0,0.0,1.0,,0.0-103.0,,1.0,363.21,0.0,0.304106554,1.0,0.631289538,1.0,0.707041942,1.0,0.29314237,True,,5eff0b0d1311a5436d0d6810,,1218573,101,,evan-feature22,full_rf_b,,0
76,4228,102,,,,2,2,1.0,1.0,0.0,1.0,,0.0-104.0,,1.0,348.18,1.0,0.304806932,1.0,0.571167718,1.0,0.680472346,1.0,0.25,True,,5eff0b0d1311a5436d0d6810,,1228750,102,,evan-feature22,full_rf_b,,1
77,4229,103,,,,1,1,0.0,1.0,0.0,1.0,,0.0-105.0,,1.0,417.565,0.0,0.37919861,1.0,0.5724849710000001,0.0,0.705638003,0.0,0.30179300600000003,True,,5eff0b0d1311a5436d0d6810,,1238972,103,,evan-feature22,full_rf_b,,1
78,4230,104,,,,1,1,1.0,0.0,0.0,1.0,,0.0-106.0,,0.0,295.09,1.0,0.464277969,0.0,0.554034373,1.0,0.7372627340000001,0.0,0.264699741,True,,5eff0b0d1311a5436d0d6810,,1249065,104,,evan-feature22,full_rf_b,,0
79,4231,105,,,,2,2,1.0,0.0,0.0,1.0,,0.0-107.0,,0.0,269.005,1.0,0.465104323,1.0,0.530793115,1.0,0.75,0.0,0.31683071,True,,5eff0b0d1311a5436d0d6810,,1259139,105,,evan-feature22,full_rf_b,,1
80,4232,106,,,,1,1,0.0,0.0,-1.0,0.0,,0.0-108.0,,0.0,39.15,0.0,0.465104323,0.0,0.530793115,0.0,0.75,1.0,0.31683071,True,,5eff0b0d1311a5436d0d6810,,1268978,106,,evan-feature22,full_rf_b,,1
81,4233,107,,,,1,1,0.0,1.0,-1.0,0.0,,0.0-109.0,,0.0,279.975,0.0,0.46833986,1.0,0.570249239,1.0,0.7244472590000001,0.0,0.364114163,True,,5eff0b0d1311a5436d0d6810,,1279072,107,,evan-feature22,full_rf_b,,0
82,4234,108,,,,1,1,0.0,0.0,-1.0,0.0,,0.0-110.0,,0.0,302.675,0.0,0.445444024,0.0,0.649673355,1.0,0.6845441290000001,0.0,0.300660449,True,,5eff0b0d1311a5436d0d6810,,1289187,108,,evan-feature22,full_rf_b,,0
83,4235,109,,,,1,1,1.0,1.0,-1.0,0.0,,0.0-111.0,,-1.0,296.49,1.0,0.39909721299999995,1.0,0.6715179509999999,1.0,0.742310028,1.0,0.35496088299999995,True,,5eff0b0d1311a5436d0d6810,,1299294,109,,evan-feature22,full_rf_b,,0
84,4236,110,,,,1,1,0.0,1.0,0.0,1.0,,0.0-112.0,,1.0,766.23,0.0,0.37956104799999996,1.0,0.694725302,1.0,0.7181651309999999,1.0,0.38726906299999997,True,,5eff0b0d1311a5436d0d6810,,1309882,110,,evan-feature22,full_rf_b,,0
85,4237,111,,,,1,1,1.0,1.0,0.0,1.0,,0.0-113.0,,1.0,470.755,1.0,0.404995034,1.0,0.724375412,1.0,0.6910946859999999,0.0,0.387187347,True,,5eff0b0d1311a5436d0d6810,,1320168,111,,evan-feature22,full_rf_b,,0
86,4238,112,,,,1,1,0.0,1.0,-1.0,0.0,,0.0-114.0,,0.0,333.505,0.0,0.461740803,1.0,0.75,1.0,0.75,1.0,0.34872038200000005,True,,5eff0b0d1311a5436d0d6810,,1330326,112,,evan-feature22,full_rf_b,,0
87,4239,113,,,,2,2,0.0,1.0,-1.0,0.0,,0.0-115.0,,0.0,311.605,0.0,0.43821380600000004,0.0,0.738833273,0.0,0.728286963,1.0,0.399538128,True,,5eff0b0d1311a5436d0d6810,,1340457,113,,evan-feature22,full_rf_b,,1
88,4240,114,,,,1,1,0.0,1.0,0.0,1.0,,0.0-116.0,,1.0,374.03,0.0,0.41709882,1.0,0.736666736,1.0,0.75,0.0,0.389095584,True,,5eff0b0d1311a5436d0d6810,,1350644,114,,evan-feature22,full_rf_b,,1
89,4241,115,,,,1,1,0.0,0.0,0.0,1.0,,0.0-117.0,,0.0,247.255,0.0,0.39749009799999996,0.0,0.744320029,1.0,0.75,0.0,0.363848678,True,,5eff0b0d1311a5436d0d6810,,1360709,115,,evan-feature22,full_rf_b,,0
90,4242,116,,,,1,1,1.0,1.0,-1.0,0.0,,0.0-118.0,,-1.0,274.735,1.0,0.392653706,1.0,0.75,1.0,0.75,0.0,0.384386976,True,,5eff0b0d1311a5436d0d6810,,1370791,116,,evan-feature22,full_rf_b,,0
91,4243,117,,,,2,2,1.0,1.0,0.0,1.0,,0.0-119.0,,1.0,757.975,1.0,0.31190902600000003,1.0,0.75,1.0,0.732413819,1.0,0.413082932,True,,5eff0b0d1311a5436d0d6810,,1381359,117,,evan-feature22,full_rf_b,,1
92,4244,118,,,,1,1,0.0,0.0,-1.0,0.0,,0.0-120.0,,0.0,377.24,0.0,0.366917648,0.0,0.740073855,1.0,0.75,0.0,0.352861979,True,,5eff0b0d1311a5436d0d6810,,1391549,118,,evan-feature22,full_rf_b,,1
93,4245,119,,,,2,2,1.0,0.0,-1.0,0.0,,0.0-121.0,,-1.0,368.245,0.0,0.3645172,1.0,0.721770713,1.0,0.75,0.0,0.404074511,True,,5eff0b0d1311a5436d0d6810,,1401725,119,,evan-feature22,full_rf_b,,1
94,4246,120,,,,1,1,1.0,1.0,-1.0,0.0,,0.0-122.0,,-1.0,321.945,1.0,0.35205600299999995,1.0,0.68983859,0.0,0.739735447,0.0,0.366895945,True,,5eff0b0d1311a5436d0d6810,,1411857,120,,evan-feature22,full_rf_b,,1
95,4247,121,,,,1,1,1.0,1.0,-1.0,0.0,,0.0-123.0,,-1.0,251.31,1.0,0.40998722600000004,1.0,0.720859127,1.0,0.673854955,0.0,0.368528541,True,,5eff0b0d1311a5436d0d6810,,1421903,121,,evan-feature22,full_rf_b,,0
96,4248,122,,,,1,1,0.0,1.0,-1.0,0.0,,0.0-124.0,,0.0,244.18,0.0,0.353625316,1.0,0.75,0.0,0.695605473,1.0,0.38303674200000004,True,,5eff0b0d1311a5436d0d6810,,1431961,122,,evan-feature22,full_rf_b,,0
97,4249,123,,,,1,1,0.0,1.0,-1.0,0.0,,0.0-125.0,,0.0,299.39,0.0,0.359216989,1.0,0.75,1.0,0.6987915090000001,1.0,0.35169046200000004,True,,5eff0b0d1311a5436d0d6810,,1442055,123,,evan-feature22,full_rf_b,,0
98,4250,124,,,,1,1,1.0,1.0,-1.0,0.0,,0.0-126.0,,-1.0,263.4,1.0,0.35834496899999996,1.0,0.75,0.0,0.707067742,0.0,0.416763636,True,,5eff0b0d1311a5436d0d6810,,1452123,124,,evan-feature22,full_rf_b,,0
99,4251,125,,,,2,2,1.0,1.0,0.0,1.0,,0.0-127.0,,1.0,275.685,0.0,0.38741613799999997,1.0,0.7177369570000001,1.0,0.734902455,1.0,0.49438664299999996,True,,5eff0b0d1311a5436d0d6810,,1462207,125,,evan-feature22,full_rf_b,,1
100,4252,126,,,,2,2,1.0,1.0,-1.0,0.0,,0.0-128.0,,-1.0,362.985,0.0,0.405255252,1.0,0.7300466640000001,1.0,0.7027748070000001,1.0,0.504359668,True,,5eff0b0d1311a5436d0d6810,,1472382,126,,evan-feature22,full_rf_b,,0
101,4253,127,,,,2,2,1.0,1.0,-1.0,0.0,,0.0-129.0,,-1.0,261.415,1.0,0.40697073,1.0,0.7260142190000001,1.0,0.724461982,1.0,0.522779179,True,,5eff0b0d1311a5436d0d6810,,1482447,127,,evan-feature22,full_rf_b,,0
102,4254,128,,,,1,1,1.0,1.0,-1.0,0.0,,0.0-130.0,,-1.0,332.26,1.0,0.43906215299999996,1.0,0.7252802340000001,1.0,0.719079934,0.0,0.5712990579999999,True,,5eff0b0d1311a5436d0d6810,,1492582,128,,evan-feature22,full_rf_b,,1
103,4255,129,,,,1,1,0.0,1.0,0.0,1.0,,0.0-131.0,,1.0,477.335,0.0,0.4076705,1.0,0.73280499,0.0,0.681313127,0.0,0.523891346,True,,5eff0b0d1311a5436d0d6810,,1502880,129,,evan-feature22,full_rf_b,,0
104,4256,130,,,,2,2,0.0,1.0,0.0,1.0,,0.0-132.0,,1.0,255.69,0.0,0.399102911,1.0,0.730498344,0.0,0.661080239,1.0,0.46742603,True,,5eff0b0d1311a5436d0d6810,,1512920,130,,evan-feature22,full_rf_b,,1
105,4257,131,,,,1,1,0.0,0.0,0.0,1.0,,0.0-133.0,,0.0,286.055,0.0,0.356477282,0.0,0.712296395,1.0,0.641812684,0.0,0.44868414,True,,5eff0b0d1311a5436d0d6810,,1523034,131,,evan-feature22,full_rf_b,,1
106,4258,132,,,,2,2,0.0,0.0,-1.0,0.0,,0.0-134.0,,0.0,1264.995,0.0,0.462760722,1.0,0.692349322,0.0,0.700947931,0.0,0.394680266,True,,5eff0b0d1311a5436d0d6810,,1534112,132,,evan-feature22,full_rf_b,,1
107,4259,133,,,,1,1,1.0,1.0,-1.0,0.0,,0.0-135.0,,-1.0,287.13,1.0,0.422306413,1.0,0.718375916,0.0,0.706340917,1.0,0.367787185,True,,5eff0b0d1311a5436d0d6810,,1544208,133,,evan-feature22,full_rf_b,,1
108,4261,135,,,,1,1,1.0,0.0,-1.0,0.0,,0.0-137.0,,-1.0,523.525,1.0,0.4582233,0.0,0.643834117,1.0,0.75,0.0,0.39615823299999997,True,,5eff0b0d1311a5436d0d6810,,1562143,135,,evan-feature22,full_rf_b,,0
109,4262,136,,,,2,2,1.0,0.0,-1.0,0.0,,0.0-138.0,,-1.0,301.985,0.0,0.43813437899999996,0.0,0.651283804,1.0,0.729674191,0.0,0.37711048,True,,5eff0b0d1311a5436d0d6810,,1572265,136,,evan-feature22,full_rf_b,,1
110,4263,137,,,,2,2,0.0,0.0,-1.0,0.0,,0.0-139.0,,0.0,476.4,0.0,0.471199094,1.0,0.6470010979999999,0.0,0.715008097,0.0,0.410656191,True,,5eff0b0d1311a5436d0d6810,,1582558,137,,evan-feature22,full_rf_b,,0
111,4264,138,,,,1,1,1.0,0.0,-1.0,0.0,,0.0-140.0,,-1.0,896.12,1.0,0.42486406,0.0,0.629771829,1.0,0.6550939960000001,1.0,0.459093873,True,,5eff0b0d1311a5436d0d6810,,1593252,138,,evan-feature22,full_rf_b,,1
112,4265,139,,,,2,2,1.0,0.0,-1.0,0.0,,0.0-141.0,,-1.0,453.08,0.0,0.4803197,0.0,0.645842715,1.0,0.6421749920000001,0.0,0.443092151,True,,5eff0b0d1311a5436d0d6810,,1603515,139,,evan-feature22,full_rf_b,,1
113,4266,140,,,,2,2,1.0,0.0,0.0,1.0,,0.0-142.0,,0.0,248.28,1.0,0.521848997,1.0,0.735801074,1.0,0.6691348460000001,0.0,0.45259351600000003,True,,5eff0b0d1311a5436d0d6810,,1613575,140,,evan-feature22,full_rf_b,,0
114,4267,141,,,,1,1,0.0,1.0,-1.0,0.0,,0.0-143.0,,0.0,253.705,0.0,0.49565621299999996,1.0,0.742400847,0.0,0.661512553,0.0,0.483110831,True,,5eff0b0d1311a5436d0d6810,,1623650,141,,evan-feature22,full_rf_b,,1
115,4268,142,,,,2,2,1.0,0.0,-1.0,0.0,,0.0-144.0,,-1.0,299.48,1.0,0.521564361,1.0,0.731078632,1.0,0.6774886809999999,0.0,0.483263956,True,,5eff0b0d1311a5436d0d6810,,1633761,142,,evan-feature22,full_rf_b,,1
116,4269,143,,,,1,1,1.0,1.0,-1.0,0.0,,0.0-145.0,,-1.0,258.84,1.0,0.558893102,1.0,0.719810023,1.0,0.67461031,0.0,0.499349834,True,,5eff0b0d1311a5436d0d6810,,1643846,143,,evan-feature22,full_rf_b,,1
117,4270,144,,,,1,1,0.0,1.0,-1.0,0.0,,0.0-146.0,,0.0,367.9,0.0,0.611031046,1.0,0.75,0.0,0.688072995,0.0,0.5321422729999999,True,,5eff0b0d1311a5436d0d6810,,1654026,144,,evan-feature22,full_rf_b,,0
118,4271,145,,,,2,2,1.0,0.0,0.0,1.0,,0.0-147.0,,0.0,363.205,1.0,0.633223941,1.0,0.713567728,1.0,0.75,0.0,0.48185314700000004,True,,5eff0b0d1311a5436d0d6810,,1664219,145,,evan-feature22,full_rf_b,,1
119,4272,146,,,,1,1,0.0,1.0,-1.0,0.0,,0.0-148.0,,0.0,249.445,0.0,0.664001694,1.0,0.705509768,1.0,0.75,0.0,0.500211065,True,,5eff0b0d1311a5436d0d6810,,1674261,146,,evan-feature22,full_rf_b,,1
120,4273,147,,,,2,2,1.0,0.0,-1.0,0.0,,0.0-149.0,,-1.0,294.815,0.0,0.664001694,1.0,0.705509768,1.0,0.75,0.0,0.500211065,True,,5eff0b0d1311a5436d0d6810,,1684362,147,,evan-feature22,full_rf_b,,1
121,4274,148,,,,2,2,1.0,1.0,-1.0,0.0,,0.0-150.0,,-1.0,260.165,1.0,0.696508041,1.0,0.71066027,1.0,0.717028709,1.0,0.49792991,True,,5eff0b0d1311a5436d0d6810,,1694439,148,,evan-feature22,full_rf_b,,0
122,4275,149,,,,1,1,1.0,1.0,0.0,1.0,,0.0-151.0,,1.0,594.405,1.0,0.699883272,1.0,0.75,0.0,0.713543895,1.0,0.496962643,True,,5eff0b0d1311a5436d0d6810,,1704829,149,,evan-feature22,full_rf_b,,1
123,4276,150,,,,1,1,1.0,1.0,0.0,1.0,,0.0-152.0,,1.0,253.005,1.0,0.741163419,1.0,0.75,1.0,0.64691024,0.0,0.513858197,True,,5eff0b0d1311a5436d0d6810,,1714898,150,,evan-feature22,full_rf_b,,0
124,4277,151,,,,1,1,1.0,0.0,0.0,1.0,,0.0-153.0,,0.0,244.175,1.0,0.75,0.0,0.70816558,1.0,0.594499079,0.0,0.48502124,True,,5eff0b0d1311a5436d0d6810,,1724950,151,,evan-feature22,full_rf_b,,0
125,4278,152,,,,1,1,1.0,1.0,-1.0,0.0,,0.0-154.0,,-1.0,814.53,1.0,0.75,1.0,0.721848901,1.0,0.62197249,0.0,0.48263586399999997,True,,5eff0b0d1311a5436d0d6810,,1735566,152,,evan-feature22,full_rf_b,,0
126,4279,153,,,,2,2,1.0,0.0,-1.0,0.0,,0.0-155.0,,-1.0,246.095,1.0,0.75,0.0,0.74813071,1.0,0.584357161,0.0,0.411477782,True,,5eff0b0d1311a5436d0d6810,,1745627,153,,evan-feature22,full_rf_b,,1
127,4280,154,,,,1,1,1.0,1.0,-1.0,0.0,,0.0-156.0,,-1.0,206.07,1.0,0.75,1.0,0.75,1.0,0.52287236,1.0,0.488290656,True,,5eff0b0d1311a5436d0d6810,,1755646,154,,evan-feature22,full_rf_b,,1
128,4281,155,,,,1,1,1.0,1.0,-1.0,0.0,,0.0-157.0,,-1.0,290.925,1.0,0.75,1.0,0.75,0.0,0.544321581,1.0,0.53143059,True,,5eff0b0d1311a5436d0d6810,,1765741,155,,evan-feature22,full_rf_b,,0
129,4282,156,,,,2,2,0.0,0.0,-1.0,0.0,,0.0-158.0,,0.0,184.895,1.0,0.726754564,1.0,0.75,0.0,0.5129306370000001,0.0,0.530592445,True,,5eff0b0d1311a5436d0d6810,,1775728,156,,evan-feature22,full_rf_b,,1
130,4283,157,,,,1,1,1.0,0.0,0.0,1.0,,0.0-159.0,,0.0,259.28,1.0,0.75,0.0,0.7392590729999999,0.0,0.479875835,0.0,0.547007051,True,,5eff0b0d1311a5436d0d6810,,1785800,157,,evan-feature22,full_rf_b,,1
131,4284,158,,,,2,2,0.0,0.0,0.0,1.0,,0.0-160.0,,0.0,209.95,1.0,0.75,1.0,0.7393376979999999,0.0,0.546045419,0.0,0.541267353,True,,5eff0b0d1311a5436d0d6810,,1795809,158,,evan-feature22,full_rf_b,,1
132,4285,159,,,,1,1,1.0,1.0,-1.0,0.0,,0.0-161.0,,-1.0,275.16,1.0,0.75,1.0,0.75,1.0,0.485725895,1.0,0.527625395,True,,5eff0b0d1311a5436d0d6810,,1805891,159,,evan-feature22,full_rf_b,,1
133,4286,160,,,,1,1,1.0,1.0,0.0,1.0,,0.0-162.0,,1.0,333.86,1.0,0.75,1.0,0.725087974,1.0,0.488603595,1.0,0.504019206,True,,5eff0b0d1311a5436d0d6810,,1816038,160,,evan-feature22,full_rf_b,,0
134,4287,161,,,,1,1,0.0,1.0,-1.0,0.0,,0.0-163.0,,0.0,268.07,0.0,0.745504295,1.0,0.75,1.0,0.452379914,0.0,0.50131194,True,,5eff0b0d1311a5436d0d6810,,1826112,161,,evan-feature22,full_rf_b,,0
135,4288,162,,,,1,1,1.0,1.0,0.0,1.0,,0.0-164.0,,1.0,271.955,1.0,0.728513874,1.0,0.75,0.0,0.44125567200000004,0.0,0.531454591,True,,5eff0b0d1311a5436d0d6810,,1836204,162,,evan-feature22,full_rf_b,,0
136,4289,163,,,,1,1,0.0,1.0,-1.0,0.0,,0.0-165.0,,0.0,288.185,0.0,0.73790804,1.0,0.75,0.0,0.413036656,1.0,0.524619035,True,,5eff0b0d1311a5436d0d6810,,1846281,163,,evan-feature22,full_rf_b,,0
137,4290,164,,,,1,1,1.0,1.0,-1.0,0.0,,0.0-166.0,,-1.0,236.89,1.0,0.7080961309999999,1.0,0.708666865,0.0,0.431915581,0.0,0.481819489,True,,5eff0b0d1311a5436d0d6810,,1856324,164,,evan-feature22,full_rf_b,,0
138,4291,165,,,,1,1,0.0,0.0,-1.0,0.0,,0.0-167.0,,0.0,297.095,0.0,0.721378003,0.0,0.71605913,1.0,0.36642387,0.0,0.5036739929999999,True,,5eff0b0d1311a5436d0d6810,,1866421,165,,evan-feature22,full_rf_b,,0
139,4292,166,,,,1,1,0.0,1.0,0.0,1.0,,0.0-168.0,,1.0,345.86,0.0,0.7340618959999999,1.0,0.699323252,0.0,0.35298046299999997,0.0,0.511241692,True,,5eff0b0d1311a5436d0d6810,,1876558,166,,evan-feature22,full_rf_b,,0
140,4293,167,,,,1,1,1.0,0.0,0.0,1.0,,0.0-169.0,,0.0,215.615,1.0,0.75,0.0,0.70412698,1.0,0.380734814,1.0,0.529580116,True,,5eff0b0d1311a5436d0d6810,,1886577,167,,evan-feature22,full_rf_b,,0
141,4294,168,,,,1,1,1.0,1.0,0.0,1.0,,0.0-170.0,,1.0,260.615,1.0,0.7436654909999999,1.0,0.711182751,1.0,0.41125331,1.0,0.49554405,True,,5eff0b0d1311a5436d0d6810,,1896662,168,,evan-feature22,full_rf_b,,0
142,4295,169,,,,1,1,1.0,1.0,-1.0,0.0,,0.0-171.0,,-1.0,230.695,1.0,0.731607915,1.0,0.651774583,0.0,0.35688023,0.0,0.45194491600000003,True,,5eff0b0d1311a5436d0d6810,,1906723,169,,evan-feature22,full_rf_b,,0
143,4296,170,,,,1,1,0.0,1.0,0.0,1.0,,0.0-172.0,,1.0,339.07,0.0,0.75,1.0,0.75,0.0,0.283145374,1.0,0.528608005,True,,5eff0b0d1311a5436d0d6810,,1916847,170,,evan-feature22,full_rf_b,,0
144,4297,171,,,,1,1,0.0,1.0,-1.0,0.0,,0.0-173.0,,0.0,1190.755,0.0,0.7491416890000001,1.0,0.7423785959999999,1.0,0.29135870399999997,0.0,0.498888318,True,,5eff0b0d1311a5436d0d6810,,1927839,171,,evan-feature22,full_rf_b,,0
145,4298,172,,,,1,1,1.0,1.0,0.0,1.0,,0.0-174.0,,1.0,373.925,1.0,0.708569387,1.0,0.717682277,0.0,0.294421699,1.0,0.493838163,True,,5eff0b0d1311a5436d0d6810,,1938033,172,,evan-feature22,full_rf_b,,0
146,4299,173,,,,1,1,1.0,0.0,-1.0,0.0,,0.0-175.0,,-1.0,259.24,1.0,0.75,0.0,0.7383382159999999,0.0,0.356098707,0.0,0.442533405,True,,5eff0b0d1311a5436d0d6810,,1948107,173,,evan-feature22,full_rf_b,,0
147,4300,174,,,,1,1,1.0,1.0,-1.0,0.0,,0.0-176.0,,-1.0,254.165,1.0,0.744527075,1.0,0.75,0.0,0.334127506,1.0,0.393165805,True,,5eff0b0d1311a5436d0d6810,,1958199,174,,evan-feature22,full_rf_b,,0
148,4301,175,,,,1,1,0.0,1.0,-1.0,0.0,,0.0-177.0,,0.0,715.84,0.0,0.75,1.0,0.75,1.0,0.33571021799999995,0.0,0.350393962,True,,5eff0b0d1311a5436d0d6810,,1968728,175,,evan-feature22,full_rf_b,,0
149,4302,176,,,,1,1,1.0,0.0,0.0,1.0,,0.0-178.0,,0.0,140.0,1.0,0.75,0.0,0.75,0.0,0.313628297,0.0,0.36349657399999996,True,,5eff0b0d1311a5436d0d6810,,1978685,176,,evan-feature22,full_rf_b,,0
150,4303,177,,,,1,1,0.0,0.0,-1.0,0.0,,0.0-179.0,,0.0,394.38,0.0,0.75,0.0,0.734284182,1.0,0.262667667,1.0,0.380199119,True,,5eff0b0d1311a5436d0d6810,,1988896,177,,evan-feature22,full_rf_b,,0
151,4304,178,,,,1,1,1.0,0.0,-1.0,0.0,,0.0-180.0,,-1.0,268.565,1.0,0.75,0.0,0.75,0.0,0.25,0.0,0.394494013,True,,5eff0b0d1311a5436d0d6810,,1998997,178,,evan-feature22,full_rf_b,,0
152,4305,179,,,,1,1,1.0,1.0,-1.0,0.0,,0.0-181.0,,-1.0,302.61,1.0,0.722298145,1.0,0.7357822340000001,0.0,0.25,1.0,0.319142121,True,,5eff0b0d1311a5436d0d6810,,2009138,179,,evan-feature22,full_rf_b,,0
153,4306,180,,,,1,1,1.0,0.0,-1.0,0.0,,0.0-182.0,,-1.0,804.71,1.0,0.73149275,0.0,0.724276446,1.0,0.305856907,0.0,0.281315057,True,,5eff0b0d1311a5436d0d6810,,2019769,180,,evan-feature22,full_rf_b,,0
154,4307,181,,,,2,2,0.0,1.0,-1.0,0.0,,0.0-183.0,,0.0,243.32,1.0,0.7458732690000001,1.0,0.7336382459999999,0.0,0.272571964,1.0,0.266021999,True,,5eff0b0d1311a5436d0d6810,,2029838,181,,evan-feature22,full_rf_b,,1
155,4308,182,,,,2,2,0.0,1.0,0.0,1.0,,0.0-184.0,,1.0,282.155,1.0,0.705579037,1.0,0.720778292,0.0,0.320238144,1.0,0.30971744,True,,5eff0b0d1311a5436d0d6810,,2039945,182,,evan-feature22,full_rf_b,,0
156,4309,183,,,,2,2,0.0,1.0,0.0,1.0,,0.0-185.0,,1.0,236.225,0.0,0.700425648,1.0,0.7198784009999999,0.0,0.272590393,1.0,0.304182931,True,,5eff0b0d1311a5436d0d6810,,2050012,183,,evan-feature22,full_rf_b,,0
157,4310,184,,,,2,2,0.0,0.0,0.0,1.0,,0.0-186.0,,0.0,331.405,1.0,0.735590785,1.0,0.722714973,0.0,0.25,0.0,0.323421091,True,,5eff0b0d1311a5436d0d6810,,2060169,184,,evan-feature22,full_rf_b,,0
158,4311,185,,,,2,2,0.0,0.0,0.0,1.0,,0.0-187.0,,0.0,280.25,1.0,0.724807662,0.0,0.63146213,0.0,0.36836492600000004,0.0,0.34592153299999995,True,,5eff0b0d1311a5436d0d6810,,2070281,185,,evan-feature22,full_rf_b,,0
159,4312,186,,,,2,2,0.0,0.0,-1.0,0.0,,0.0-188.0,,0.0,95.9,0.0,0.7352796909999999,1.0,0.555111392,0.0,0.36003922,0.0,0.31433779999999995,True,,5eff0b0d1311a5436d0d6810,,2080206,186,,evan-feature22,full_rf_b,,0
160,4313,187,notice,,,,,,,,,,0.0-189.0,"{""Q0"":""the patterns changed from the first to the second half""}",,22499.0,,,,,,,,,True,,5eff0b0d1311a5436d0d6810,,2102709,187,Q,survey-text,full_rf_b,,1
161,4314,188,track1,,[1],,,,,,,,0.0-190.0,"{""Q0"":""no""}",,7281.0,,,,,,,,,True,,5eff0b0d1311a5436d0d6810,,2109998,188,Q,evan-quiz,full_rf_b,,1
162,4315,189,track2,,[0],,,,,,,,0.0-191.0,"{""Q0"":""yes""}",,8401.0,,,,,,,,,True,,5eff0b0d1311a5436d0d6810,,2118402,189,Q,evan-quiz,full_rf_b,,1
163,4316,190,strat,,,,,,,,,,0.0-192.0,"{""Q0"":""trying to keep count of the number of aliens behind each door during each interval""}",,45503.0,,,,,,,,,True,,5eff0b0d1311a5436d0d6810,,2163908,190,Q,survey-text,full_rf_b,,1
