,index,Unnamed: 0,Q_name,button_pressed,choice_idxs,chosen_pos,chosen_state,chosen_state_f_1_outcome,chosen_state_f_2_outcome,f_1_reward,f_2_reward,incor_questions,internal_node_id,responses,reward_received,rt,s_1_f_1_outcome,s_1_f_1_prob,s_1_f_2_outcome,s_1_f_2_prob,s_2_f_1_outcome,s_2_f_1_prob,s_2_f_2_outcome,s_2_f_2_prob,safe_first,stimulus,subjectID,success,time_elapsed,trial_index,trial_num,trial_type,version,view_history,switching
0,32468,35,,,,2,2,0.0,0.0,1.0,0.0,,0.0-27.0,,0.0,2737.65,1.0,0.6,0.0,0.6,0.0,0.4,0.0,0.4,True,,5f2335c48a8d300cc838896a,,584593,35,,evan-feature22,full_rf_a,,0
1,32469,36,,,,2,2,1.0,1.0,1.0,0.0,,0.0-28.0,,1.0,430.4450001,0.0,0.608053294,1.0,0.63424552,1.0,0.397152172,1.0,0.347069101,True,,5f2335c48a8d300cc838896a,,594792,36,,evan-feature22,full_rf_a,,0
2,32470,37,,,,1,1,1.0,1.0,1.0,0.0,,0.0-29.0,,1.0,490.4150004,1.0,0.642237155,1.0,0.648566321,1.0,0.389407674,1.0,0.285525717,True,,5f2335c48a8d300cc838896a,,605051,37,,evan-feature22,full_rf_a,,1
3,32471,38,,,,2,2,0.0,0.0,1.0,0.0,,0.0-30.0,,0.0,466.5250001,1.0,0.661086576,1.0,0.630492543,0.0,0.399058924,0.0,0.25,True,,5f2335c48a8d300cc838896a,,615283,38,,evan-feature22,full_rf_a,,1
4,32472,39,,,,1,1,1.0,0.0,0.0,-1.0,,0.0-31.0,,0.0,1265.205,1.0,0.631324137,0.0,0.6269842929999999,0.0,0.38734784299999997,1.0,0.25,True,,5f2335c48a8d300cc838896a,,626313,39,,evan-feature22,full_rf_a,,1
5,32473,40,,,,1,1,0.0,1.0,0.0,-1.0,,0.0-32.0,,-1.0,1959.0,0.0,0.6381991370000001,1.0,0.68987999,0.0,0.384107265,0.0,0.271332943,True,,5f2335c48a8d300cc838896a,,638035,40,,evan-feature22,full_rf_a,,0
6,32474,41,,,,2,2,0.0,0.0,1.0,0.0,,0.0-33.0,,0.0,1022.44,0.0,0.66034901,1.0,0.742641349,0.0,0.360225629,0.0,0.25,True,,5f2335c48a8d300cc838896a,,648822,41,,evan-feature22,full_rf_a,,1
7,32475,42,,,,2,2,0.0,0.0,1.0,0.0,,0.0-34.0,,0.0,1916.125,1.0,0.638612418,0.0,0.75,0.0,0.367273939,0.0,0.25,True,,5f2335c48a8d300cc838896a,,660506,42,,evan-feature22,full_rf_a,,0
8,32476,43,,,,2,2,0.0,0.0,0.0,-1.0,,0.0-35.0,,0.0,2764.905,0.0,0.624340629,1.0,0.75,0.0,0.425829545,0.0,0.25,True,,5f2335c48a8d300cc838896a,,673037,43,,evan-feature22,full_rf_a,,0
9,32477,44,,,,1,1,1.0,0.0,0.0,-1.0,,0.0-36.0,,0.0,1473.51,1.0,0.621999804,0.0,0.75,0.0,0.368609357,0.0,0.25,True,,5f2335c48a8d300cc838896a,,684275,44,,evan-feature22,full_rf_a,,1
10,32478,45,,,,1,1,0.0,1.0,1.0,0.0,,0.0-37.0,,0.0,1291.045,0.0,0.62666403,1.0,0.75,0.0,0.311151498,0.0,0.25,True,,5f2335c48a8d300cc838896a,,695330,45,,evan-feature22,full_rf_a,,0
11,32479,46,,,,1,1,1.0,1.0,0.0,-1.0,,0.0-38.0,,-1.0,2734.795,1.0,0.6819650009999999,1.0,0.75,1.0,0.310763048,0.0,0.25,True,,5f2335c48a8d300cc838896a,,707833,46,,evan-feature22,full_rf_a,,0
12,32480,47,,,,2,2,1.0,1.0,1.0,0.0,,0.0-39.0,,1.0,431.725,1.0,0.740626951,1.0,0.75,1.0,0.25,1.0,0.25,True,,5f2335c48a8d300cc838896a,,718031,47,,evan-feature22,full_rf_a,,1
13,32481,48,,,,2,2,1.0,1.0,1.0,0.0,,0.0-40.0,,1.0,1931.415,0.0,0.739599242,0.0,0.742034978,1.0,0.25397114600000004,1.0,0.25,True,,5f2335c48a8d300cc838896a,,729729,48,,evan-feature22,full_rf_a,,0
14,32482,49,,,,1,1,1.0,0.0,1.0,0.0,,0.0-41.0,,1.0,2044.92,1.0,0.732341315,0.0,0.72735643,0.0,0.25,0.0,0.25,True,,5f2335c48a8d300cc838896a,,741542,49,,evan-feature22,full_rf_a,,1
15,32483,50,,,,2,2,1.0,0.0,1.0,0.0,,0.0-42.0,,1.0,1856.645,0.0,0.7062287770000001,1.0,0.75,1.0,0.29002151,0.0,0.288256649,True,,5f2335c48a8d300cc838896a,,753169,50,,evan-feature22,full_rf_a,,1
16,32484,51,,,,2,2,1.0,1.0,1.0,0.0,,0.0-43.0,,1.0,1984.85,0.0,0.7086029209999999,1.0,0.75,1.0,0.274129113,1.0,0.262851608,True,,5f2335c48a8d300cc838896a,,764922,51,,evan-feature22,full_rf_a,,0
17,32485,52,,,,1,1,1.0,1.0,1.0,0.0,,0.0-44.0,,1.0,1615.025,1.0,0.669189651,1.0,0.727614338,1.0,0.298444036,0.0,0.296944518,True,,5f2335c48a8d300cc838896a,,776308,52,,evan-feature22,full_rf_a,,1
18,32486,53,,,,2,2,1.0,0.0,1.0,0.0,,0.0-45.0,,1.0,2037.785,0.0,0.6819912929999999,1.0,0.7179434290000001,1.0,0.265003961,0.0,0.28157921199999997,True,,5f2335c48a8d300cc838896a,,788113,53,,evan-feature22,full_rf_a,,1
19,32487,54,,,,SLOW,SLOW,,,0.0,-1.0,,0.0-46.0,,-3.0,,0.0,0.665275002,1.0,0.723065271,1.0,0.260414971,0.0,0.30973870000000003,True,,5f2335c48a8d300cc838896a,,793923,54,,evan-feature22,full_rf_a,,1
20,32488,55,,,,SLOW,SLOW,,,1.0,0.0,,0.0-47.0,,-3.0,,0.0,0.6660593260000001,0.0,0.728032907,0.0,0.30922817,0.0,0.338778608,True,,5f2335c48a8d300cc838896a,,799731,55,,evan-feature22,full_rf_a,,0
21,32489,56,,,,SLOW,SLOW,,,1.0,0.0,,0.0-48.0,,-3.0,,0.0,0.702068785,1.0,0.6528750879999999,1.0,0.287329608,0.0,0.35789613200000003,True,,5f2335c48a8d300cc838896a,,805538,56,,evan-feature22,full_rf_a,,0
22,32490,57,,,,SLOW,SLOW,,,1.0,0.0,,0.0-49.0,,-3.0,,0.0,0.651939787,1.0,0.636725589,1.0,0.284834488,0.0,0.358563756,True,,5f2335c48a8d300cc838896a,,811347,57,,evan-feature22,full_rf_a,,0
23,32491,58,,,,1,1,1.0,1.0,0.0,-1.0,,0.0-50.0,,-1.0,1789.38,1.0,0.67573929,1.0,0.612550049,1.0,0.37130387600000003,1.0,0.383542402,True,,5f2335c48a8d300cc838896a,,822905,58,,evan-feature22,full_rf_a,,1
24,32492,59,,,,1,1,1.0,0.0,0.0,-1.0,,0.0-51.0,,0.0,775.2999999,1.0,0.620753801,0.0,0.60513644,0.0,0.385529434,1.0,0.340361743,True,,5f2335c48a8d300cc838896a,,833443,59,,evan-feature22,full_rf_a,,0
25,32493,60,,,,1,1,0.0,1.0,0.0,-1.0,,0.0-52.0,,-1.0,1450.51,0.0,0.673564893,1.0,0.672437924,1.0,0.292955382,0.0,0.337633795,True,,5f2335c48a8d300cc838896a,,844661,60,,evan-feature22,full_rf_a,,0
26,32494,61,,,,1,1,1.0,1.0,1.0,0.0,,0.0-53.0,,1.0,634.84,1.0,0.6749427,1.0,0.724197502,1.0,0.32391132100000003,0.0,0.350995264,True,,5f2335c48a8d300cc838896a,,855066,61,,evan-feature22,full_rf_a,,0
27,32495,62,,,,2,2,1.0,0.0,1.0,0.0,,0.0-54.0,,1.0,3018.235,1.0,0.6940159379999999,0.0,0.75,1.0,0.31710554399999996,0.0,0.413450341,True,,5f2335c48a8d300cc838896a,,867847,62,,evan-feature22,full_rf_a,,1
28,32496,63,,,,1,1,1.0,1.0,1.0,0.0,,0.0-55.0,,1.0,847.2450002999999,1.0,0.6916018270000001,1.0,0.69001187,0.0,0.261817804,1.0,0.40038635,True,,5f2335c48a8d300cc838896a,,878463,63,,evan-feature22,full_rf_a,,1
29,32497,64,,,,2,2,0.0,1.0,1.0,0.0,,0.0-56.0,,0.0,710.4199999,1.0,0.641061544,0.0,0.71337992,0.0,0.277296461,1.0,0.47372791700000005,True,,5f2335c48a8d300cc838896a,,888938,64,,evan-feature22,full_rf_a,,1
30,32498,65,,,,2,2,1.0,1.0,1.0,0.0,,0.0-57.0,,1.0,383.42500010000003,0.0,0.6082438520000001,0.0,0.708471106,1.0,0.28745137,1.0,0.564174476,True,,5f2335c48a8d300cc838896a,,899091,65,,evan-feature22,full_rf_a,,0
31,32499,66,,,,1,1,0.0,0.0,1.0,0.0,,0.0-58.0,,0.0,489.32000020000004,0.0,0.6051112120000001,0.0,0.7118147229999999,0.0,0.272390611,0.0,0.5595149939999999,True,,5f2335c48a8d300cc838896a,,909345,66,,evan-feature22,full_rf_a,,1
32,32500,67,,,,2,2,0.0,0.0,1.0,0.0,,0.0-59.0,,0.0,1053.065,0.0,0.582420852,0.0,0.635867583,0.0,0.31089574,0.0,0.5227206520000001,True,,5f2335c48a8d300cc838896a,,920162,67,,evan-feature22,full_rf_a,,1
33,32501,68,,,,1,1,1.0,0.0,0.0,-1.0,,0.0-60.0,,0.0,439.8699999,1.0,0.623195575,0.0,0.655026044,0.0,0.25,1.0,0.560387538,True,,5f2335c48a8d300cc838896a,,930368,68,,evan-feature22,full_rf_a,,1
34,32502,69,,,,1,1,0.0,1.0,1.0,0.0,,0.0-61.0,,0.0,1542.955,0.0,0.601889598,1.0,0.678198724,0.0,0.25,1.0,0.559922936,True,,5f2335c48a8d300cc838896a,,941677,69,,evan-feature22,full_rf_a,,0
35,32503,70,,,,1,1,1.0,1.0,1.0,0.0,,0.0-62.0,,1.0,840.4399999,1.0,0.601259914,1.0,0.704681482,0.0,0.33908969299999997,0.0,0.505003715,True,,5f2335c48a8d300cc838896a,,952285,70,,evan-feature22,full_rf_a,,0
36,32504,71,,,,2,2,0.0,1.0,1.0,0.0,,0.0-63.0,,0.0,2541.97,1.0,0.59645454,1.0,0.710437172,0.0,0.327441879,1.0,0.391749613,True,,5f2335c48a8d300cc838896a,,964596,71,,evan-feature22,full_rf_a,,1
37,32505,72,,,,1,1,0.0,1.0,1.0,0.0,,0.0-64.0,,0.0,812.1400001000001,0.0,0.529473,1.0,0.636758527,0.0,0.301338063,0.0,0.365661481,True,,5f2335c48a8d300cc838896a,,975173,72,,evan-feature22,full_rf_a,,1
38,32506,73,,,,2,2,0.0,1.0,0.0,-1.0,,0.0-65.0,,-1.0,435.0700001,0.0,0.541657162,1.0,0.634541962,0.0,0.343535366,1.0,0.371763742,True,,5f2335c48a8d300cc838896a,,985372,73,,evan-feature22,full_rf_a,,1
39,32507,74,,,,1,1,0.0,1.0,1.0,0.0,,0.0-66.0,,0.0,1768.11,0.0,0.5707533260000001,1.0,0.589121171,0.0,0.326428396,0.0,0.43961622899999997,True,,5f2335c48a8d300cc838896a,,996904,74,,evan-feature22,full_rf_a,,1
40,32508,75,,,,2,2,0.0,1.0,1.0,0.0,,0.0-67.0,,0.0,3054.095,1.0,0.5707533260000001,1.0,0.589121171,0.0,0.326428396,1.0,0.43961622899999997,True,,5f2335c48a8d300cc838896a,,1009726,75,,evan-feature22,full_rf_a,,1
41,32509,76,,,,2,2,1.0,0.0,1.0,0.0,,0.0-68.0,,1.0,310.9250003,0.0,0.506271295,1.0,0.641775594,1.0,0.37149690700000004,0.0,0.404330166,True,,5f2335c48a8d300cc838896a,,1019806,76,,evan-feature22,full_rf_a,,0
42,32510,77,,,,SLOW,SLOW,,,0.0,-1.0,,0.0-69.0,,-3.0,,1.0,0.455642565,0.0,0.623605825,0.0,0.358753011,1.0,0.346174041,True,,5f2335c48a8d300cc838896a,,1025615,77,,evan-feature22,full_rf_a,,1
43,32511,78,,,,SLOW,SLOW,,,0.0,-1.0,,0.0-70.0,,-3.0,,1.0,0.483677308,1.0,0.5904681070000001,0.0,0.402218411,0.0,0.35344697,True,,5f2335c48a8d300cc838896a,,1031423,78,,evan-feature22,full_rf_a,,0
44,32512,79,,,,1,1,1.0,1.0,0.0,-1.0,,0.0-71.0,,-1.0,2273.185,1.0,0.394210977,1.0,0.558925494,0.0,0.540052017,1.0,0.35182128700000004,True,,5f2335c48a8d300cc838896a,,1043463,79,,evan-feature22,full_rf_a,,1
45,32513,80,,,,1,1,0.0,0.0,1.0,0.0,,0.0-72.0,,0.0,361.3899997,0.0,0.382300414,0.0,0.577670603,1.0,0.607608448,0.0,0.378261578,True,,5f2335c48a8d300cc838896a,,1053588,80,,evan-feature22,full_rf_a,,0
46,32514,81,,,,2,2,1.0,1.0,1.0,0.0,,0.0-73.0,,1.0,498.0249996,1.0,0.357596762,1.0,0.5929076529999999,1.0,0.6579790010000001,1.0,0.401326777,True,,5f2335c48a8d300cc838896a,,1063855,81,,evan-feature22,full_rf_a,,1
47,32515,82,,,,1,1,1.0,0.0,1.0,0.0,,0.0-74.0,,1.0,352.7950002,1.0,0.362033495,0.0,0.582308608,1.0,0.649195052,0.0,0.355158505,True,,5f2335c48a8d300cc838896a,,1073974,82,,evan-feature22,full_rf_a,,1
48,32516,83,,,,2,2,1.0,1.0,1.0,0.0,,0.0-75.0,,1.0,261.0650002,0.0,0.369620635,1.0,0.669100864,1.0,0.706059111,1.0,0.362516241,True,,5f2335c48a8d300cc838896a,,1084003,83,,evan-feature22,full_rf_a,,1
49,32517,84,,,,1,1,0.0,1.0,1.0,0.0,,0.0-76.0,,0.0,1174.005,0.0,0.41477751399999996,1.0,0.7284416779999999,1.0,0.7182656940000001,0.0,0.36228040899999997,True,,5f2335c48a8d300cc838896a,,1094942,84,,evan-feature22,full_rf_a,,1
50,32518,85,,,,1,1,1.0,0.0,0.0,-1.0,,0.0-77.0,,0.0,240.74500010000003,1.0,0.37675460299999997,0.0,0.703250285,1.0,0.75,0.0,0.461979164,True,,5f2335c48a8d300cc838896a,,1104947,85,,evan-feature22,full_rf_a,,0
51,32519,86,,,,1,1,1.0,0.0,0.0,-1.0,,0.0-78.0,,0.0,42.85500012,1.0,0.398716075,0.0,0.6723864890000001,1.0,0.674153818,1.0,0.519029516,True,,5f2335c48a8d300cc838896a,,1114761,86,,evan-feature22,full_rf_a,,0
52,32520,87,,,,2,2,1.0,1.0,1.0,0.0,,0.0-79.0,,1.0,428.5399998,1.0,0.34677856700000004,1.0,0.69057175,1.0,0.6822438540000001,1.0,0.477292237,True,,5f2335c48a8d300cc838896a,,1124958,87,,evan-feature22,full_rf_a,,1
53,32521,88,,,,1,1,0.0,0.0,0.0,-1.0,,0.0-80.0,,0.0,380.9700003,0.0,0.28580469199999997,0.0,0.68408818,0.0,0.684207565,0.0,0.49780448299999996,True,,5f2335c48a8d300cc838896a,,1135104,88,,evan-feature22,full_rf_a,,1
54,32523,90,,,,2,2,0.0,0.0,1.0,0.0,,0.0-82.0,,0.0,760.7749999,0.0,0.25,1.0,0.7405808970000001,0.0,0.679614108,0.0,0.436436964,True,,5f2335c48a8d300cc838896a,,1148424,90,,evan-feature22,full_rf_a,,1
55,32524,91,,,,2,2,1.0,0.0,0.0,-1.0,,0.0-83.0,,0.0,456.9999999,0.0,0.29890393,1.0,0.730505706,1.0,0.7328203320000001,0.0,0.439256938,True,,5f2335c48a8d300cc838896a,,1158648,91,,evan-feature22,full_rf_a,,0
56,32525,92,,,,1,1,0.0,1.0,1.0,0.0,,0.0-84.0,,0.0,297.8400001,0.0,0.326762398,1.0,0.7148059609999999,1.0,0.75,0.0,0.44389608799999997,True,,5f2335c48a8d300cc838896a,,1168712,92,,evan-feature22,full_rf_a,,1
57,32526,93,,,,1,1,0.0,0.0,1.0,0.0,,0.0-85.0,,0.0,1684.305,0.0,0.295168515,0.0,0.739760854,0.0,0.719947008,0.0,0.35277284600000003,True,,5f2335c48a8d300cc838896a,,1180158,93,,evan-feature22,full_rf_a,,0
58,32527,94,,,,2,2,0.0,0.0,1.0,0.0,,0.0-86.0,,0.0,237.3099998,1.0,0.25,1.0,0.70781482,0.0,0.75,0.0,0.286095925,True,,5f2335c48a8d300cc838896a,,1190161,94,,evan-feature22,full_rf_a,,1
59,32528,95,,,,1,1,0.0,0.0,0.0,-1.0,,0.0-87.0,,0.0,484.2249998,0.0,0.25638190899999996,0.0,0.704088163,0.0,0.75,0.0,0.26872601399999996,True,,5f2335c48a8d300cc838896a,,1200408,95,,evan-feature22,full_rf_a,,1
60,32529,96,,,,2,2,1.0,0.0,0.0,-1.0,,0.0-88.0,,0.0,780.7900002,0.0,0.271581126,1.0,0.669760107,1.0,0.733896663,0.0,0.273244572,True,,5f2335c48a8d300cc838896a,,1210951,96,,evan-feature22,full_rf_a,,1
61,32530,97,,,,1,1,0.0,0.0,0.0,-1.0,,0.0-89.0,,0.0,2162.49,0.0,0.257144401,0.0,0.600575706,1.0,0.74488122,0.0,0.25,True,,5f2335c48a8d300cc838896a,,1222880,97,,evan-feature22,full_rf_a,,1
62,32531,98,,,,2,2,0.0,0.0,1.0,0.0,,0.0-90.0,,0.0,2401.865,0.0,0.25,1.0,0.616870026,0.0,0.723610234,0.0,0.25,True,,5f2335c48a8d300cc838896a,,1235047,98,,evan-feature22,full_rf_a,,1
63,32532,99,,,,1,1,0.0,1.0,0.0,-1.0,,0.0-91.0,,-1.0,1186.8,0.0,0.25,1.0,0.583540187,1.0,0.7041042559999999,0.0,0.285961995,True,,5f2335c48a8d300cc838896a,,1246001,99,,evan-feature22,full_rf_a,,1
64,32533,100,,,,2,2,1.0,0.0,1.0,0.0,,0.0-92.0,,1.0,309.535,0.0,0.27254536,0.0,0.53875765,1.0,0.693783448,0.0,0.284961652,True,,5f2335c48a8d300cc838896a,,1256074,100,,evan-feature22,full_rf_a,,1
65,32534,101,,,,2,2,1.0,0.0,0.0,-1.0,,0.0-93.0,,0.0,849.1449999,0.0,0.25,1.0,0.548431252,1.0,0.734221895,0.0,0.279445214,True,,5f2335c48a8d300cc838896a,,1266687,101,,evan-feature22,full_rf_a,,0
66,32535,102,,,,1,1,1.0,1.0,1.0,0.0,,0.0-94.0,,1.0,616.9649996,1.0,0.258640684,1.0,0.545878066,1.0,0.725245965,0.0,0.31487537,True,,5f2335c48a8d300cc838896a,,1277075,102,,evan-feature22,full_rf_a,,1
67,32536,103,,,,2,2,1.0,0.0,1.0,0.0,,0.0-95.0,,1.0,34.09999982,0.0,0.251103711,1.0,0.5776290629999999,1.0,0.696320133,0.0,0.317831047,True,,5f2335c48a8d300cc838896a,,1286874,103,,evan-feature22,full_rf_a,,1
68,32537,104,,,,1,1,0.0,1.0,1.0,0.0,,0.0-96.0,,0.0,455.61000010000004,0.0,0.276630292,1.0,0.617329858,1.0,0.73838088,0.0,0.261471582,True,,5f2335c48a8d300cc838896a,,1297094,104,,evan-feature22,full_rf_a,,1
69,32538,105,,,,1,1,0.0,1.0,0.0,-1.0,,0.0-97.0,,-1.0,258.13,0.0,0.297716424,1.0,0.618863717,1.0,0.7402358259999999,0.0,0.262600834,True,,5f2335c48a8d300cc838896a,,1307115,105,,evan-feature22,full_rf_a,,0
70,32539,106,,,,1,1,1.0,1.0,1.0,0.0,,0.0-98.0,,1.0,899.5349999,1.0,0.290935512,1.0,0.695370945,1.0,0.706570507,0.0,0.280030553,True,,5f2335c48a8d300cc838896a,,1317780,106,,evan-feature22,full_rf_a,,0
71,32540,107,,,,2,2,0.0,0.0,1.0,0.0,,0.0-99.0,,0.0,297.13999989999996,0.0,0.25,0.0,0.6465277079999999,0.0,0.67766682,0.0,0.25,True,,5f2335c48a8d300cc838896a,,1327841,107,,evan-feature22,full_rf_a,,1
72,32541,108,,,,SLOW,SLOW,,,1.0,0.0,,0.0-100.0,,-3.0,,0.0,0.26463816,0.0,0.636100213,1.0,0.646048507,1.0,0.265607101,True,,5f2335c48a8d300cc838896a,,1333650,108,,evan-feature22,full_rf_a,,1
73,32542,109,,,,SLOW,SLOW,,,1.0,0.0,,0.0-101.0,,-3.0,,0.0,0.314340707,0.0,0.667795927,1.0,0.613630805,0.0,0.25,True,,5f2335c48a8d300cc838896a,,1339458,109,,evan-feature22,full_rf_a,,0
74,32543,110,,,,SLOW,SLOW,,,1.0,0.0,,0.0-102.0,,-3.0,,0.0,0.28685784,0.0,0.6622549529999999,1.0,0.652154117,1.0,0.25,True,,5f2335c48a8d300cc838896a,,1345266,110,,evan-feature22,full_rf_a,,0
75,32544,111,,,,SLOW,SLOW,,,0.0,-1.0,,0.0-103.0,,-3.0,,1.0,0.304106554,1.0,0.631289538,1.0,0.707041942,1.0,0.29314237,True,,5f2335c48a8d300cc838896a,,1351076,111,,evan-feature22,full_rf_a,,0
76,32545,112,,,,SLOW,SLOW,,,0.0,-1.0,,0.0-104.0,,-3.0,,0.0,0.304806932,0.0,0.571167718,1.0,0.680472346,0.0,0.25,True,,5f2335c48a8d300cc838896a,,1356888,112,,evan-feature22,full_rf_a,,0
77,32546,113,,,,SLOW,SLOW,,,0.0,-1.0,,0.0-105.0,,-3.0,,1.0,0.37919861,0.0,0.5724849710000001,1.0,0.705638003,1.0,0.30179300600000003,True,,5f2335c48a8d300cc838896a,,1362696,113,,evan-feature22,full_rf_a,,0
78,32547,114,,,,1,1,0.0,1.0,0.0,-1.0,,0.0-106.0,,-1.0,639.6050001,0.0,0.464277969,1.0,0.554034373,1.0,0.7372627340000001,0.0,0.264699741,True,,5f2335c48a8d300cc838896a,,1373102,114,,evan-feature22,full_rf_a,,1
79,32548,115,,,,1,1,0.0,1.0,1.0,0.0,,0.0-107.0,,0.0,1255.92,0.0,0.465104323,1.0,0.530793115,1.0,0.75,0.0,0.31683071,True,,5f2335c48a8d300cc838896a,,1384125,115,,evan-feature22,full_rf_a,,0
80,32549,116,,,,2,2,0.0,0.0,0.0,-1.0,,0.0-108.0,,0.0,1323.17,1.0,0.465104323,0.0,0.530793115,0.0,0.75,0.0,0.31683071,True,,5f2335c48a8d300cc838896a,,1395215,116,,evan-feature22,full_rf_a,,1
81,32550,117,,,,2,2,1.0,0.0,0.0,-1.0,,0.0-109.0,,0.0,2696.465,1.0,0.46833986,0.0,0.570249239,1.0,0.7244472590000001,0.0,0.364114163,True,,5f2335c48a8d300cc838896a,,1407681,117,,evan-feature22,full_rf_a,,0
82,32551,118,,,,1,1,0.0,0.0,0.0,-1.0,,0.0-110.0,,0.0,1598.54,0.0,0.445444024,0.0,0.649673355,1.0,0.6845441290000001,1.0,0.300660449,True,,5f2335c48a8d300cc838896a,,1419045,118,,evan-feature22,full_rf_a,,1
83,32552,119,,,,2,2,1.0,1.0,0.0,-1.0,,0.0-111.0,,-1.0,1169.87,1.0,0.39909721299999995,1.0,0.6715179509999999,1.0,0.742310028,1.0,0.35496088299999995,True,,5f2335c48a8d300cc838896a,,1429984,119,,evan-feature22,full_rf_a,,1
84,32553,120,,,,1,1,0.0,1.0,0.0,-1.0,,0.0-112.0,,-1.0,1194.82,0.0,0.37956104799999996,1.0,0.694725302,1.0,0.7181651309999999,0.0,0.38726906299999997,True,,5f2335c48a8d300cc838896a,,1440945,120,,evan-feature22,full_rf_a,,1
85,32554,121,,,,1,1,1.0,1.0,0.0,-1.0,,0.0-113.0,,-1.0,636.3850003,1.0,0.404995034,1.0,0.724375412,0.0,0.6910946859999999,1.0,0.387187347,True,,5f2335c48a8d300cc838896a,,1451350,121,,evan-feature22,full_rf_a,,0
86,32555,122,,,,2,2,1.0,0.0,0.0,-1.0,,0.0-114.0,,0.0,417.3150002,1.0,0.461740803,1.0,0.75,1.0,0.75,0.0,0.34872038200000005,True,,5f2335c48a8d300cc838896a,,1461533,122,,evan-feature22,full_rf_a,,1
87,32556,123,,,,2,2,1.0,1.0,1.0,0.0,,0.0-115.0,,1.0,338.8100001,0.0,0.43821380600000004,1.0,0.738833273,1.0,0.728286963,1.0,0.399538128,True,,5f2335c48a8d300cc838896a,,1471641,123,,evan-feature22,full_rf_a,,0
88,32557,124,,,,1,1,0.0,1.0,0.0,-1.0,,0.0-116.0,,-1.0,1362.36,0.0,0.41709882,1.0,0.736666736,1.0,0.75,0.0,0.389095584,True,,5f2335c48a8d300cc838896a,,1482772,124,,evan-feature22,full_rf_a,,1
89,32558,125,,,,2,2,1.0,1.0,0.0,-1.0,,0.0-117.0,,-1.0,823.3350002999999,0.0,0.39749009799999996,1.0,0.744320029,1.0,0.75,1.0,0.363848678,True,,5f2335c48a8d300cc838896a,,1493362,125,,evan-feature22,full_rf_a,,1
90,32559,126,,,,2,2,0.0,0.0,1.0,0.0,,0.0-118.0,,0.0,799.7300001,0.0,0.392653706,0.0,0.75,0.0,0.75,0.0,0.384386976,True,,5f2335c48a8d300cc838896a,,1503926,126,,evan-feature22,full_rf_a,,0
91,32560,127,,,,2,2,0.0,1.0,1.0,0.0,,0.0-119.0,,0.0,693.9650001,0.0,0.31190902600000003,1.0,0.75,0.0,0.732413819,1.0,0.413082932,True,,5f2335c48a8d300cc838896a,,1514386,127,,evan-feature22,full_rf_a,,0
92,32561,128,,,,1,1,0.0,0.0,0.0,-1.0,,0.0-120.0,,0.0,435.61,0.0,0.366917648,0.0,0.740073855,1.0,0.75,1.0,0.352861979,True,,5f2335c48a8d300cc838896a,,1524586,128,,evan-feature22,full_rf_a,,1
93,32562,129,,,,1,1,1.0,1.0,0.0,-1.0,,0.0-121.0,,-1.0,1011.17,1.0,0.3645172,1.0,0.721770713,1.0,0.75,1.0,0.404074511,True,,5f2335c48a8d300cc838896a,,1535366,129,,evan-feature22,full_rf_a,,0
94,32563,130,,,,2,2,1.0,1.0,0.0,-1.0,,0.0-122.0,,-1.0,653.3249998,0.0,0.35205600299999995,1.0,0.68983859,1.0,0.739735447,1.0,0.366895945,True,,5f2335c48a8d300cc838896a,,1545786,130,,evan-feature22,full_rf_a,,1
95,32564,131,,,,2,2,1.0,0.0,0.0,-1.0,,0.0-123.0,,0.0,530.5400002,0.0,0.40998722600000004,0.0,0.720859127,1.0,0.673854955,0.0,0.368528541,True,,5f2335c48a8d300cc838896a,,1556081,131,,evan-feature22,full_rf_a,,0
96,32565,132,,,,1,1,0.0,1.0,1.0,0.0,,0.0-124.0,,0.0,434.8599999,0.0,0.353625316,1.0,0.75,0.0,0.695605473,0.0,0.38303674200000004,True,,5f2335c48a8d300cc838896a,,1566279,132,,evan-feature22,full_rf_a,,1
97,32566,133,,,,1,1,1.0,0.0,0.0,-1.0,,0.0-125.0,,0.0,721.4249996,1.0,0.359216989,0.0,0.75,1.0,0.6987915090000001,0.0,0.35169046200000004,True,,5f2335c48a8d300cc838896a,,1576767,133,,evan-feature22,full_rf_a,,0
98,32567,134,,,,2,2,1.0,1.0,1.0,0.0,,0.0-126.0,,1.0,1805.805,0.0,0.35834496899999996,1.0,0.75,1.0,0.707067742,1.0,0.416763636,True,,5f2335c48a8d300cc838896a,,1588344,134,,evan-feature22,full_rf_a,,1
99,32568,135,,,,1,1,0.0,1.0,1.0,0.0,,0.0-127.0,,0.0,1718.785,0.0,0.38741613799999997,1.0,0.7177369570000001,0.0,0.734902455,1.0,0.49438664299999996,True,,5f2335c48a8d300cc838896a,,1599826,135,,evan-feature22,full_rf_a,,1
100,32569,136,,,,2,2,1.0,1.0,0.0,-1.0,,0.0-128.0,,-1.0,263.88,1.0,0.405255252,1.0,0.7300466640000001,1.0,0.7027748070000001,1.0,0.504359668,True,,5f2335c48a8d300cc838896a,,1609858,136,,evan-feature22,full_rf_a,,1
101,32570,137,,,,2,2,1.0,0.0,0.0,-1.0,,0.0-129.0,,0.0,488.31500020000004,0.0,0.40697073,1.0,0.7260142190000001,1.0,0.724461982,0.0,0.522779179,True,,5f2335c48a8d300cc838896a,,1620114,137,,evan-feature22,full_rf_a,,0
102,32571,138,,,,1,1,1.0,1.0,0.0,-1.0,,0.0-130.0,,-1.0,446.69499989999997,1.0,0.43906215299999996,1.0,0.7252802340000001,1.0,0.719079934,0.0,0.5712990579999999,True,,5f2335c48a8d300cc838896a,,1630328,138,,evan-feature22,full_rf_a,,1
103,32572,139,,,,1,1,0.0,1.0,0.0,-1.0,,0.0-131.0,,-1.0,643.805,0.0,0.4076705,1.0,0.73280499,1.0,0.681313127,1.0,0.523891346,True,,5f2335c48a8d300cc838896a,,1640737,139,,evan-feature22,full_rf_a,,0
104,32573,140,,,,2,2,1.0,1.0,0.0,-1.0,,0.0-132.0,,-1.0,484.1049998,0.0,0.399102911,1.0,0.730498344,1.0,0.661080239,1.0,0.46742603,True,,5f2335c48a8d300cc838896a,,1650985,140,,evan-feature22,full_rf_a,,1
105,32574,141,,,,1,1,0.0,1.0,1.0,0.0,,0.0-133.0,,0.0,1786.66,0.0,0.356477282,1.0,0.712296395,1.0,0.641812684,0.0,0.44868414,True,,5f2335c48a8d300cc838896a,,1662539,141,,evan-feature22,full_rf_a,,1
106,32575,142,,,,2,2,1.0,0.0,0.0,-1.0,,0.0-134.0,,0.0,2267.45,1.0,0.462760722,0.0,0.692349322,1.0,0.700947931,0.0,0.394680266,True,,5f2335c48a8d300cc838896a,,1674572,142,,evan-feature22,full_rf_a,,1
107,32576,143,,,,1,1,1.0,1.0,0.0,-1.0,,0.0-135.0,,-1.0,991.6900001,1.0,0.422306413,1.0,0.718375916,0.0,0.706340917,0.0,0.367787185,True,,5f2335c48a8d300cc838896a,,1685333,143,,evan-feature22,full_rf_a,,1
108,32578,145,,,,1,1,1.0,1.0,0.0,-1.0,,0.0-137.0,,-1.0,786.8550001,1.0,0.4582233,1.0,0.643834117,1.0,0.75,0.0,0.39615823299999997,True,,5f2335c48a8d300cc838896a,,1700630,145,,evan-feature22,full_rf_a,,0
109,32579,146,,,,1,1,1.0,1.0,0.0,-1.0,,0.0-138.0,,-1.0,464.16999960000004,1.0,0.43813437899999996,1.0,0.651283804,0.0,0.729674191,1.0,0.37711048,True,,5f2335c48a8d300cc838896a,,1710858,146,,evan-feature22,full_rf_a,,0
110,32580,147,,,,1,1,0.0,0.0,0.0,-1.0,,0.0-139.0,,0.0,351.0500002,0.0,0.471199094,0.0,0.6470010979999999,0.0,0.715008097,0.0,0.410656191,True,,5f2335c48a8d300cc838896a,,1720973,147,,evan-feature22,full_rf_a,,0
111,32581,148,,,,2,2,1.0,0.0,1.0,0.0,,0.0-140.0,,1.0,1065.795,0.0,0.42486406,0.0,0.629771829,1.0,0.6550939960000001,0.0,0.459093873,True,,5f2335c48a8d300cc838896a,,1731810,148,,evan-feature22,full_rf_a,,1
112,32582,149,,,,1,1,1.0,0.0,1.0,0.0,,0.0-141.0,,1.0,617.9849998999999,1.0,0.4803197,0.0,0.645842715,1.0,0.6421749920000001,1.0,0.443092151,True,,5f2335c48a8d300cc838896a,,1742192,149,,evan-feature22,full_rf_a,,1
113,32583,150,,,,SLOW,SLOW,,,1.0,0.0,,0.0-142.0,,-3.0,,1.0,0.521848997,1.0,0.735801074,1.0,0.6691348460000001,0.0,0.45259351600000003,True,,5f2335c48a8d300cc838896a,,1748000,150,,evan-feature22,full_rf_a,,1
114,32584,151,,,,1,1,1.0,1.0,0.0,-1.0,,0.0-143.0,,-1.0,3256.0,1.0,0.49565621299999996,1.0,0.742400847,1.0,0.661512553,1.0,0.483110831,True,,5f2335c48a8d300cc838896a,,1761026,151,,evan-feature22,full_rf_a,,1
115,32585,152,,,,2,2,0.0,0.0,1.0,0.0,,0.0-144.0,,0.0,495.8649999,0.0,0.521564361,0.0,0.731078632,0.0,0.6774886809999999,0.0,0.483263956,True,,5f2335c48a8d300cc838896a,,1771286,152,,evan-feature22,full_rf_a,,1
116,32586,153,,,,1,1,1.0,1.0,1.0,0.0,,0.0-145.0,,1.0,597.2450002999999,1.0,0.558893102,1.0,0.719810023,1.0,0.67461031,0.0,0.499349834,True,,5f2335c48a8d300cc838896a,,1781650,153,,evan-feature22,full_rf_a,,1
117,32587,154,,,,1,1,0.0,1.0,0.0,-1.0,,0.0-146.0,,-1.0,606.7150002000001,0.0,0.611031046,1.0,0.75,0.0,0.688072995,1.0,0.5321422729999999,True,,5f2335c48a8d300cc838896a,,1792023,154,,evan-feature22,full_rf_a,,0
118,32588,155,,,,2,2,0.0,1.0,1.0,0.0,,0.0-147.0,,0.0,519.045,1.0,0.633223941,1.0,0.713567728,0.0,0.75,1.0,0.48185314700000004,True,,5f2335c48a8d300cc838896a,,1802305,155,,evan-feature22,full_rf_a,,1
119,32589,156,,,,1,1,1.0,1.0,1.0,0.0,,0.0-148.0,,1.0,1149.425,1.0,0.664001694,1.0,0.705509768,1.0,0.75,0.0,0.500211065,True,,5f2335c48a8d300cc838896a,,1813224,156,,evan-feature22,full_rf_a,,1
120,32590,157,,,,2,2,1.0,0.0,0.0,-1.0,,0.0-149.0,,0.0,1482.8,0.0,0.664001694,1.0,0.705509768,1.0,0.75,0.0,0.500211065,True,,5f2335c48a8d300cc838896a,,1824474,157,,evan-feature22,full_rf_a,,1
121,32591,158,,,,2,2,0.0,0.0,0.0,-1.0,,0.0-150.0,,0.0,608.0450001,1.0,0.696508041,1.0,0.71066027,0.0,0.717028709,0.0,0.49792991,True,,5f2335c48a8d300cc838896a,,1834849,158,,evan-feature22,full_rf_a,,0
122,32592,159,,,,1,1,1.0,1.0,1.0,0.0,,0.0-151.0,,1.0,3489.915,1.0,0.699883272,1.0,0.75,1.0,0.713543895,0.0,0.496962643,True,,5f2335c48a8d300cc838896a,,1848105,159,,evan-feature22,full_rf_a,,1
123,32593,160,,,,2,2,1.0,1.0,0.0,-1.0,,0.0-152.0,,-1.0,1049.925,1.0,0.741163419,1.0,0.75,1.0,0.64691024,1.0,0.513858197,True,,5f2335c48a8d300cc838896a,,1858925,160,,evan-feature22,full_rf_a,,1
124,32594,161,,,,2,2,1.0,0.0,1.0,0.0,,0.0-153.0,,1.0,267.32499989999997,0.0,0.75,1.0,0.70816558,1.0,0.594499079,0.0,0.48502124,True,,5f2335c48a8d300cc838896a,,1868958,161,,evan-feature22,full_rf_a,,0
125,32595,162,,,,1,1,1.0,1.0,0.0,-1.0,,0.0-154.0,,-1.0,1094.585,1.0,0.75,1.0,0.721848901,0.0,0.62197249,0.0,0.48263586399999997,True,,5f2335c48a8d300cc838896a,,1879818,162,,evan-feature22,full_rf_a,,1
126,32596,163,,,,1,1,1.0,1.0,1.0,0.0,,0.0-155.0,,1.0,544.2749997999999,1.0,0.75,1.0,0.74813071,0.0,0.584357161,0.0,0.411477782,True,,5f2335c48a8d300cc838896a,,1890130,163,,evan-feature22,full_rf_a,,0
127,32597,164,,,,2,2,1.0,1.0,0.0,-1.0,,0.0-156.0,,-1.0,888.3199999,0.0,0.75,1.0,0.75,1.0,0.52287236,1.0,0.488290656,True,,5f2335c48a8d300cc838896a,,1900784,164,,evan-feature22,full_rf_a,,1
128,32598,165,,,,1,1,1.0,1.0,0.0,-1.0,,0.0-157.0,,-1.0,3143.485,1.0,0.75,1.0,0.75,0.0,0.544321581,1.0,0.53143059,True,,5f2335c48a8d300cc838896a,,1913696,165,,evan-feature22,full_rf_a,,1
129,32599,166,,,,2,2,0.0,1.0,0.0,-1.0,,0.0-158.0,,-1.0,428.905,1.0,0.726754564,0.0,0.75,0.0,0.5129306370000001,1.0,0.530592445,True,,5f2335c48a8d300cc838896a,,1923890,166,,evan-feature22,full_rf_a,,1
130,32600,167,,,,1,1,1.0,1.0,1.0,0.0,,0.0-159.0,,1.0,1782.135,1.0,0.75,1.0,0.7392590729999999,0.0,0.479875835,1.0,0.547007051,True,,5f2335c48a8d300cc838896a,,1935441,167,,evan-feature22,full_rf_a,,1
131,32601,168,,,,2,2,1.0,1.0,1.0,0.0,,0.0-160.0,,1.0,306.81,1.0,0.75,1.0,0.7393376979999999,1.0,0.546045419,1.0,0.541267353,True,,5f2335c48a8d300cc838896a,,1945518,168,,evan-feature22,full_rf_a,,1
132,32602,169,,,,2,2,1.0,0.0,1.0,0.0,,0.0-161.0,,1.0,332.03000019999996,1.0,0.75,1.0,0.75,1.0,0.485725895,0.0,0.527625395,True,,5f2335c48a8d300cc838896a,,1955615,169,,evan-feature22,full_rf_a,,0
133,32603,170,,,,1,1,0.0,1.0,0.0,-1.0,,0.0-162.0,,-1.0,452.945,0.0,0.75,1.0,0.725087974,1.0,0.488603595,1.0,0.504019206,True,,5f2335c48a8d300cc838896a,,1965831,170,,evan-feature22,full_rf_a,,1
134,32604,171,,,,1,1,1.0,0.0,0.0,-1.0,,0.0-163.0,,0.0,538.3299999,1.0,0.745504295,0.0,0.75,0.0,0.452379914,1.0,0.50131194,True,,5f2335c48a8d300cc838896a,,1976134,171,,evan-feature22,full_rf_a,,0
135,32605,172,,,,2,2,1.0,1.0,0.0,-1.0,,0.0-164.0,,-1.0,365.9600001,1.0,0.728513874,1.0,0.75,1.0,0.44125567200000004,1.0,0.531454591,True,,5f2335c48a8d300cc838896a,,1986267,172,,evan-feature22,full_rf_a,,1
136,32606,173,,,,1,1,1.0,0.0,1.0,0.0,,0.0-165.0,,1.0,439.0150001,1.0,0.73790804,0.0,0.75,0.0,0.413036656,0.0,0.524619035,True,,5f2335c48a8d300cc838896a,,1996473,173,,evan-feature22,full_rf_a,,1
137,32607,174,,,,2,2,0.0,1.0,0.0,-1.0,,0.0-166.0,,-1.0,1461.645,1.0,0.7080961309999999,1.0,0.708666865,0.0,0.431915581,1.0,0.481819489,True,,5f2335c48a8d300cc838896a,,2007702,174,,evan-feature22,full_rf_a,,1
138,32608,175,,,,2,2,0.0,1.0,0.0,-1.0,,0.0-167.0,,-1.0,1307.77,0.0,0.721378003,1.0,0.71605913,0.0,0.36642387,1.0,0.5036739929999999,True,,5f2335c48a8d300cc838896a,,2018774,175,,evan-feature22,full_rf_a,,0
139,32609,176,,,,1,1,1.0,1.0,0.0,-1.0,,0.0-168.0,,-1.0,539.7099997,1.0,0.7340618959999999,1.0,0.699323252,0.0,0.35298046299999997,0.0,0.511241692,True,,5f2335c48a8d300cc838896a,,2029080,176,,evan-feature22,full_rf_a,,1
140,32610,177,,,,2,2,1.0,0.0,1.0,0.0,,0.0-169.0,,1.0,714.7150002000001,1.0,0.75,1.0,0.70412698,1.0,0.380734814,0.0,0.529580116,True,,5f2335c48a8d300cc838896a,,2039562,177,,evan-feature22,full_rf_a,,1
141,32611,178,,,,1,1,1.0,1.0,0.0,-1.0,,0.0-170.0,,-1.0,1094.895,1.0,0.7436654909999999,1.0,0.711182751,1.0,0.41125331,1.0,0.49554405,True,,5f2335c48a8d300cc838896a,,2050427,178,,evan-feature22,full_rf_a,,1
142,32612,179,,,,2,2,0.0,0.0,0.0,-1.0,,0.0-171.0,,0.0,1440.65,1.0,0.731607915,1.0,0.651774583,0.0,0.35688023,0.0,0.45194491600000003,True,,5f2335c48a8d300cc838896a,,2061631,179,,evan-feature22,full_rf_a,,1
143,32613,180,,,,1,1,1.0,0.0,1.0,0.0,,0.0-172.0,,1.0,1793.495,1.0,0.75,0.0,0.75,1.0,0.283145374,0.0,0.528608005,True,,5f2335c48a8d300cc838896a,,2073188,180,,evan-feature22,full_rf_a,,1
144,32614,181,,,,1,1,1.0,1.0,1.0,0.0,,0.0-173.0,,1.0,763.0949998,1.0,0.7491416890000001,1.0,0.7423785959999999,0.0,0.29135870399999997,0.0,0.498888318,True,,5f2335c48a8d300cc838896a,,2083719,181,,evan-feature22,full_rf_a,,0
145,32615,182,,,,2,2,0.0,0.0,1.0,0.0,,0.0-174.0,,0.0,468.165,1.0,0.708569387,1.0,0.717682277,0.0,0.294421699,0.0,0.493838163,True,,5f2335c48a8d300cc838896a,,2093951,182,,evan-feature22,full_rf_a,,1
146,32616,183,,,,2,2,1.0,1.0,0.0,-1.0,,0.0-175.0,,-1.0,1045.33,0.0,0.75,1.0,0.7383382159999999,1.0,0.356098707,1.0,0.442533405,True,,5f2335c48a8d300cc838896a,,2104764,183,,evan-feature22,full_rf_a,,0
147,32617,184,,,,1,1,0.0,1.0,0.0,-1.0,,0.0-176.0,,-1.0,633.5100001000001,0.0,0.744527075,1.0,0.75,0.0,0.334127506,0.0,0.393165805,True,,5f2335c48a8d300cc838896a,,2115160,184,,evan-feature22,full_rf_a,,1
148,32618,185,,,,2,2,0.0,0.0,0.0,-1.0,,0.0-177.0,,0.0,1028.65,1.0,0.75,1.0,0.75,0.0,0.33571021799999995,0.0,0.350393962,True,,5f2335c48a8d300cc838896a,,2125953,185,,evan-feature22,full_rf_a,,1
149,32619,186,,,,2,2,0.0,0.0,0.0,-1.0,,0.0-178.0,,0.0,1266.715,1.0,0.75,1.0,0.75,0.0,0.313628297,0.0,0.36349657399999996,True,,5f2335c48a8d300cc838896a,,2136984,186,,evan-feature22,full_rf_a,,0
150,32620,187,,,,1,1,1.0,0.0,1.0,0.0,,0.0-179.0,,1.0,1122.745,1.0,0.75,0.0,0.734284182,0.0,0.262667667,1.0,0.380199119,True,,5f2335c48a8d300cc838896a,,2147870,187,,evan-feature22,full_rf_a,,1
151,32621,188,,,,1,1,1.0,0.0,0.0,-1.0,,0.0-180.0,,0.0,1172.325,1.0,0.75,0.0,0.75,1.0,0.25,1.0,0.394494013,True,,5f2335c48a8d300cc838896a,,2158814,188,,evan-feature22,full_rf_a,,0
152,32622,189,,,,2,2,0.0,0.0,1.0,0.0,,0.0-181.0,,0.0,648.5449997999999,1.0,0.722298145,1.0,0.7357822340000001,0.0,0.25,0.0,0.319142121,True,,5f2335c48a8d300cc838896a,,2169229,189,,evan-feature22,full_rf_a,,1
153,32623,190,,,,2,2,0.0,0.0,1.0,0.0,,0.0-182.0,,0.0,847.2750001,0.0,0.73149275,0.0,0.724276446,0.0,0.305856907,0.0,0.281315057,True,,5f2335c48a8d300cc838896a,,2179844,190,,evan-feature22,full_rf_a,,0
154,32624,191,,,,2,2,0.0,0.0,0.0,-1.0,,0.0-183.0,,0.0,1021.425,0.0,0.7458732690000001,1.0,0.7336382459999999,0.0,0.272571964,0.0,0.266021999,True,,5f2335c48a8d300cc838896a,,2190630,191,,evan-feature22,full_rf_a,,0
155,32625,192,,,,1,1,1.0,1.0,0.0,-1.0,,0.0-184.0,,-1.0,428.9499996,1.0,0.705579037,1.0,0.720778292,0.0,0.320238144,1.0,0.30971744,True,,5f2335c48a8d300cc838896a,,2200826,192,,evan-feature22,full_rf_a,,1
156,32626,193,,,,1,1,1.0,1.0,0.0,-1.0,,0.0-185.0,,-1.0,518.0449997999999,1.0,0.700425648,1.0,0.7198784009999999,0.0,0.272590393,0.0,0.304182931,True,,5f2335c48a8d300cc838896a,,2211114,193,,evan-feature22,full_rf_a,,0
157,32627,194,,,,2,2,0.0,1.0,0.0,-1.0,,0.0-186.0,,-1.0,1983.65,1.0,0.735590785,1.0,0.722714973,0.0,0.25,1.0,0.323421091,True,,5f2335c48a8d300cc838896a,,2222860,194,,evan-feature22,full_rf_a,,1
158,32628,195,,,,1,1,1.0,0.0,0.0,-1.0,,0.0-187.0,,0.0,1438.085,1.0,0.724807662,0.0,0.63146213,0.0,0.36836492600000004,1.0,0.34592153299999995,True,,5f2335c48a8d300cc838896a,,2234063,195,,evan-feature22,full_rf_a,,1
159,32629,196,,,,2,2,0.0,0.0,0.0,-1.0,,0.0-188.0,,0.0,775.2149999,1.0,0.7352796909999999,0.0,0.555111392,0.0,0.36003922,0.0,0.31433779999999995,True,,5f2335c48a8d300cc838896a,,2244603,196,,evan-feature22,full_rf_a,,1
160,32630,197,notice,,,,,,,,,,0.0-189.0,"{""Q0"":""no""}",,11185.0,,,,,,,,,True,,5f2335c48a8d300cc838896a,,2255792,197,Q,survey-text,full_rf_a,,1
161,32631,198,track1,,[1],,,,,,,,0.0-190.0,"{""Q0"":""no""}",,5957.0,,,,,,,,,True,,5f2335c48a8d300cc838896a,,2261754,198,Q,evan-quiz,full_rf_a,,1
162,32632,199,track2,,[0],,,,,,,,0.0-191.0,"{""Q0"":""yes""}",,7315.0,,,,,,,,,True,,5f2335c48a8d300cc838896a,,2269072,199,Q,evan-quiz,full_rf_a,,1
163,32633,200,strat,,,,,,,,,,0.0-192.0,"{""Q0"":""2 times left 3 times right ""}",,19240.0,,,,,,,,,True,,5f2335c48a8d300cc838896a,,2288315,200,Q,survey-text,full_rf_a,,1
