,index,Unnamed: 0,Q_name,button_pressed,choice_idxs,chosen_pos,chosen_state,chosen_state_f_1_outcome,chosen_state_f_2_outcome,f_1_reward,f_2_reward,incor_questions,internal_node_id,responses,reward_received,rt,s_1_f_1_outcome,s_1_f_1_prob,s_1_f_2_outcome,s_1_f_2_prob,s_2_f_1_outcome,s_2_f_1_prob,s_2_f_2_outcome,s_2_f_2_prob,safe_first,stimulus,subjectID,success,time_elapsed,trial_index,trial_num,trial_type,version,view_history,switching
0,42753,115,,,,2,2,1.0,1.0,-1.0,0.0,,0.0-27.0,,-1.0,2010.84,1.0,0.6,1.0,0.6,1.0,0.4,1.0,0.4,False,,5d518981f86dae0001de763b,,1691587,115,,evan-feature22,full_pf_b,,0
1,42754,116,,,,1,1,1.0,0.0,-1.0,0.0,,0.0-28.0,,-1.0,23.49,1.0,0.608053294,0.0,0.63424552,0.0,0.397152172,0.0,0.347069101,False,,5d518981f86dae0001de763b,,1701375,116,,evan-feature22,full_pf_b,,1
2,42755,117,,,,SLOW,SLOW,,,-1.0,0.0,,0.0-29.0,,-3.0,,1.0,0.642237155,1.0,0.648566321,0.0,0.389407674,1.0,0.285525717,False,,5d518981f86dae0001de763b,,1707179,117,,evan-feature22,full_pf_b,,1
3,42756,118,,,,1,1,1.0,1.0,-1.0,0.0,,0.0-30.0,,-1.0,986.795,1.0,0.661086576,1.0,0.630492543,1.0,0.399058924,0.0,0.25,False,,5d518981f86dae0001de763b,,1717928,118,,evan-feature22,full_pf_b,,1
4,42757,119,,,,2,2,0.0,0.0,0.0,1.0,,0.0-31.0,,0.0,200.08,0.0,0.631324137,1.0,0.6269842929999999,0.0,0.38734784299999997,0.0,0.25,False,,5d518981f86dae0001de763b,,1727887,119,,evan-feature22,full_pf_b,,1
5,42758,120,,,,1,1,0.0,1.0,0.0,1.0,,0.0-32.0,,1.0,190.705,0.0,0.6381991370000001,1.0,0.68987999,0.0,0.384107265,0.0,0.271332943,False,,5d518981f86dae0001de763b,,1737838,120,,evan-feature22,full_pf_b,,1
6,42759,121,,,,2,2,0.0,1.0,-1.0,0.0,,0.0-33.0,,0.0,143.265,1.0,0.66034901,1.0,0.742641349,0.0,0.360225629,1.0,0.25,False,,5d518981f86dae0001de763b,,1747742,121,,evan-feature22,full_pf_b,,1
7,42760,122,,,,1,1,1.0,1.0,-1.0,0.0,,0.0-34.0,,-1.0,195.925,1.0,0.638612418,1.0,0.75,0.0,0.367273939,0.0,0.25,False,,5d518981f86dae0001de763b,,1757701,122,,evan-feature22,full_pf_b,,1
8,42761,123,,,,1,1,1.0,1.0,0.0,1.0,,0.0-35.0,,1.0,84.92,1.0,0.624340629,1.0,0.75,0.0,0.425829545,0.0,0.25,False,,5d518981f86dae0001de763b,,1767550,123,,evan-feature22,full_pf_b,,0
9,42762,124,,,,2,2,0.0,1.0,0.0,1.0,,0.0-36.0,,1.0,19.85,0.0,0.621999804,0.0,0.75,0.0,0.368609357,1.0,0.25,False,,5d518981f86dae0001de763b,,1777329,124,,evan-feature22,full_pf_b,,1
10,42763,125,,,,2,2,0.0,1.0,-1.0,0.0,,0.0-37.0,,0.0,158.41,1.0,0.62666403,1.0,0.75,0.0,0.311151498,1.0,0.25,False,,5d518981f86dae0001de763b,,1787247,125,,evan-feature22,full_pf_b,,0
11,42764,126,,,,2,2,0.0,0.0,0.0,1.0,,0.0-38.0,,0.0,252.55,1.0,0.6819650009999999,1.0,0.75,0.0,0.310763048,0.0,0.25,False,,5d518981f86dae0001de763b,,1797260,126,,evan-feature22,full_pf_b,,0
12,42765,127,,,,1,1,1.0,1.0,-1.0,0.0,,0.0-39.0,,-1.0,283.44,1.0,0.740626951,1.0,0.75,0.0,0.25,0.0,0.25,False,,5d518981f86dae0001de763b,,1807306,127,,evan-feature22,full_pf_b,,1
13,42766,128,,,,2,2,1.0,0.0,-1.0,0.0,,0.0-40.0,,-1.0,9.735,1.0,0.739599242,0.0,0.742034978,1.0,0.25397114600000004,0.0,0.25,False,,5d518981f86dae0001de763b,,1817077,128,,evan-feature22,full_pf_b,,1
14,42767,129,,,,2,2,1.0,0.0,-1.0,0.0,,0.0-41.0,,-1.0,100.695,1.0,0.732341315,0.0,0.72735643,1.0,0.25,0.0,0.25,False,,5d518981f86dae0001de763b,,1826937,129,,evan-feature22,full_pf_b,,0
15,42768,130,,,,1,1,0.0,1.0,-1.0,0.0,,0.0-42.0,,0.0,51.59,0.0,0.7062287770000001,1.0,0.75,1.0,0.29002151,0.0,0.288256649,False,,5d518981f86dae0001de763b,,1836750,130,,evan-feature22,full_pf_b,,1
16,42769,131,,,,2,2,0.0,1.0,-1.0,0.0,,0.0-43.0,,0.0,42.55,1.0,0.7086029209999999,1.0,0.75,0.0,0.274129113,1.0,0.262851608,False,,5d518981f86dae0001de763b,,1846552,131,,evan-feature22,full_pf_b,,1
17,42770,132,,,,1,1,1.0,1.0,-1.0,0.0,,0.0-44.0,,-1.0,299.47,1.0,0.669189651,1.0,0.727614338,1.0,0.298444036,0.0,0.296944518,False,,5d518981f86dae0001de763b,,1856615,132,,evan-feature22,full_pf_b,,1
18,42771,133,,,,2,2,0.0,1.0,-1.0,0.0,,0.0-45.0,,0.0,281.725,0.0,0.6819912929999999,1.0,0.7179434290000001,0.0,0.265003961,1.0,0.28157921199999997,False,,5d518981f86dae0001de763b,,1866658,133,,evan-feature22,full_pf_b,,1
19,42772,134,,,,1,1,0.0,0.0,0.0,1.0,,0.0-46.0,,0.0,245.205,0.0,0.665275002,0.0,0.723065271,0.0,0.260414971,0.0,0.30973870000000003,False,,5d518981f86dae0001de763b,,1876661,134,,evan-feature22,full_pf_b,,1
20,42773,135,,,,1,1,1.0,0.0,-1.0,0.0,,0.0-47.0,,-1.0,332.34,1.0,0.6660593260000001,0.0,0.728032907,0.0,0.30922817,1.0,0.338778608,False,,5d518981f86dae0001de763b,,1886752,135,,evan-feature22,full_pf_b,,0
21,42774,136,,,,2,2,1.0,1.0,-1.0,0.0,,0.0-48.0,,-1.0,384.78,1.0,0.702068785,1.0,0.6528750879999999,1.0,0.287329608,1.0,0.35789613200000003,False,,5d518981f86dae0001de763b,,1896902,136,,evan-feature22,full_pf_b,,1
22,42775,137,,,,2,2,0.0,0.0,-1.0,0.0,,0.0-49.0,,0.0,97.575,1.0,0.651939787,0.0,0.636725589,0.0,0.284834488,0.0,0.358563756,False,,5d518981f86dae0001de763b,,1906758,137,,evan-feature22,full_pf_b,,0
23,42776,138,,,,1,1,1.0,0.0,0.0,1.0,,0.0-50.0,,0.0,44.83,1.0,0.67573929,0.0,0.612550049,0.0,0.37130387600000003,0.0,0.383542402,False,,5d518981f86dae0001de763b,,1916562,138,,evan-feature22,full_pf_b,,1
24,42777,139,,,,SLOW,SLOW,,,0.0,1.0,,0.0-51.0,,-3.0,,1.0,0.620753801,1.0,0.60513644,0.0,0.385529434,0.0,0.340361743,False,,5d518981f86dae0001de763b,,1922367,139,,evan-feature22,full_pf_b,,1
25,42778,140,,,,2,2,0.0,0.0,0.0,1.0,,0.0-52.0,,0.0,238.81,1.0,0.673564893,1.0,0.672437924,0.0,0.292955382,0.0,0.337633795,False,,5d518981f86dae0001de763b,,1932365,140,,evan-feature22,full_pf_b,,1
26,42779,141,,,,2,2,1.0,0.0,-1.0,0.0,,0.0-53.0,,-1.0,150.495,1.0,0.6749427,1.0,0.724197502,1.0,0.32391132100000003,0.0,0.350995264,False,,5d518981f86dae0001de763b,,1942279,141,,evan-feature22,full_pf_b,,0
27,42780,142,,,,2,2,0.0,1.0,-1.0,0.0,,0.0-54.0,,0.0,997.1,0.0,0.6940159379999999,1.0,0.75,0.0,0.31710554399999996,1.0,0.413450341,False,,5d518981f86dae0001de763b,,1953035,142,,evan-feature22,full_pf_b,,0
28,42781,143,,,,1,1,1.0,1.0,-1.0,0.0,,0.0-55.0,,-1.0,42.665,1.0,0.6916018270000001,1.0,0.69001187,0.0,0.261817804,1.0,0.40038635,False,,5d518981f86dae0001de763b,,1962841,143,,evan-feature22,full_pf_b,,1
29,42782,144,,,,1,1,1.0,0.0,-1.0,0.0,,0.0-56.0,,-1.0,54.155,1.0,0.641061544,0.0,0.71337992,1.0,0.277296461,1.0,0.47372791700000005,False,,5d518981f86dae0001de763b,,1972655,144,,evan-feature22,full_pf_b,,0
30,42783,145,,,,1,1,1.0,1.0,-1.0,0.0,,0.0-57.0,,-1.0,97.125,1.0,0.6082438520000001,1.0,0.708471106,0.0,0.28745137,1.0,0.564174476,False,,5d518981f86dae0001de763b,,1982516,145,,evan-feature22,full_pf_b,,0
31,42784,146,,,,1,1,0.0,0.0,-1.0,0.0,,0.0-58.0,,0.0,50.89,0.0,0.6051112120000001,0.0,0.7118147229999999,0.0,0.272390611,1.0,0.5595149939999999,False,,5d518981f86dae0001de763b,,1992329,146,,evan-feature22,full_pf_b,,0
32,42785,147,,,,1,1,1.0,1.0,-1.0,0.0,,0.0-59.0,,-1.0,51.58,1.0,0.582420852,1.0,0.635867583,1.0,0.31089574,0.0,0.5227206520000001,False,,5d518981f86dae0001de763b,,2002144,147,,evan-feature22,full_pf_b,,0
33,42786,148,,,,1,1,0.0,1.0,0.0,1.0,,0.0-60.0,,1.0,173.835,0.0,0.623195575,1.0,0.655026044,1.0,0.25,1.0,0.560387538,False,,5d518981f86dae0001de763b,,2012076,148,,evan-feature22,full_pf_b,,0
34,42787,149,,,,2,2,1.0,0.0,-1.0,0.0,,0.0-61.0,,-1.0,506.58,0.0,0.601889598,0.0,0.678198724,1.0,0.25,0.0,0.559922936,False,,5d518981f86dae0001de763b,,2022341,149,,evan-feature22,full_pf_b,,1
35,42788,150,,,,2,2,0.0,1.0,-1.0,0.0,,0.0-62.0,,0.0,501.115,0.0,0.601259914,1.0,0.704681482,0.0,0.33908969299999997,1.0,0.505003715,False,,5d518981f86dae0001de763b,,2032602,150,,evan-feature22,full_pf_b,,0
36,42789,151,,,,2,2,1.0,0.0,-1.0,0.0,,0.0-63.0,,-1.0,332.285,1.0,0.59645454,1.0,0.710437172,1.0,0.327441879,0.0,0.391749613,False,,5d518981f86dae0001de763b,,2042696,151,,evan-feature22,full_pf_b,,0
37,42790,152,,,,1,1,0.0,0.0,-1.0,0.0,,0.0-64.0,,0.0,494.665,0.0,0.529473,0.0,0.636758527,0.0,0.301338063,1.0,0.365661481,False,,5d518981f86dae0001de763b,,2052950,152,,evan-feature22,full_pf_b,,1
38,42791,153,,,,2,2,1.0,0.0,0.0,1.0,,0.0-65.0,,0.0,162.64,1.0,0.541657162,1.0,0.634541962,1.0,0.343535366,0.0,0.371763742,False,,5d518981f86dae0001de763b,,2062872,153,,evan-feature22,full_pf_b,,1
39,42792,154,,,,2,2,0.0,0.0,-1.0,0.0,,0.0-66.0,,0.0,80.93,1.0,0.5707533260000001,1.0,0.589121171,0.0,0.326428396,0.0,0.43961622899999997,False,,5d518981f86dae0001de763b,,2072713,154,,evan-feature22,full_pf_b,,0
40,42793,155,,,,1,1,0.0,1.0,-1.0,0.0,,0.0-67.0,,0.0,97.8,0.0,0.5707533260000001,1.0,0.589121171,1.0,0.326428396,1.0,0.43961622899999997,False,,5d518981f86dae0001de763b,,2082573,155,,evan-feature22,full_pf_b,,1
41,42794,156,,,,1,1,0.0,0.0,-1.0,0.0,,0.0-68.0,,0.0,682.76,0.0,0.506271295,0.0,0.641775594,1.0,0.37149690700000004,1.0,0.404330166,False,,5d518981f86dae0001de763b,,2093015,156,,evan-feature22,full_pf_b,,0
42,42795,157,,,,2,2,1.0,0.0,0.0,1.0,,0.0-69.0,,0.0,1622.0,0.0,0.455642565,0.0,0.623605825,1.0,0.358753011,0.0,0.346174041,False,,5d518981f86dae0001de763b,,2104396,157,,evan-feature22,full_pf_b,,1
43,42796,158,,,,2,2,0.0,0.0,0.0,1.0,,0.0-70.0,,0.0,222.835,0.0,0.483677308,0.0,0.5904681070000001,0.0,0.402218411,0.0,0.35344697,False,,5d518981f86dae0001de763b,,2114378,158,,evan-feature22,full_pf_b,,0
44,42797,159,,,,1,1,1.0,1.0,0.0,1.0,,0.0-71.0,,1.0,39.885,1.0,0.394210977,1.0,0.558925494,1.0,0.540052017,1.0,0.35182128700000004,False,,5d518981f86dae0001de763b,,2124181,159,,evan-feature22,full_pf_b,,1
45,42798,160,,,,2,2,1.0,1.0,-1.0,0.0,,0.0-72.0,,-1.0,14.355,0.0,0.382300414,1.0,0.577670603,1.0,0.607608448,1.0,0.378261578,False,,5d518981f86dae0001de763b,,2133958,160,,evan-feature22,full_pf_b,,1
46,42799,161,,,,2,2,1.0,0.0,-1.0,0.0,,0.0-73.0,,-1.0,92.71,0.0,0.357596762,1.0,0.5929076529999999,1.0,0.6579790010000001,0.0,0.401326777,False,,5d518981f86dae0001de763b,,2143811,161,,evan-feature22,full_pf_b,,0
47,42800,162,,,,1,1,0.0,1.0,-1.0,0.0,,0.0-74.0,,0.0,62.205,0.0,0.362033495,1.0,0.582308608,0.0,0.649195052,1.0,0.355158505,False,,5d518981f86dae0001de763b,,2153633,162,,evan-feature22,full_pf_b,,1
48,42801,163,,,,2,2,1.0,0.0,-1.0,0.0,,0.0-75.0,,-1.0,12.035,0.0,0.369620635,1.0,0.669100864,1.0,0.706059111,0.0,0.362516241,False,,5d518981f86dae0001de763b,,2163408,163,,evan-feature22,full_pf_b,,1
49,42802,164,,,,2,2,1.0,1.0,-1.0,0.0,,0.0-76.0,,-1.0,174.425,1.0,0.41477751399999996,1.0,0.7284416779999999,1.0,0.7182656940000001,1.0,0.36228040899999997,False,,5d518981f86dae0001de763b,,2173344,164,,evan-feature22,full_pf_b,,0
50,42803,165,,,,2,2,1.0,1.0,0.0,1.0,,0.0-77.0,,1.0,130.88,0.0,0.37675460299999997,1.0,0.703250285,1.0,0.75,1.0,0.461979164,False,,5d518981f86dae0001de763b,,2183238,165,,evan-feature22,full_pf_b,,0
51,42804,166,,,,1,1,0.0,1.0,0.0,1.0,,0.0-78.0,,1.0,130.285,0.0,0.398716075,1.0,0.6723864890000001,1.0,0.674153818,0.0,0.519029516,False,,5d518981f86dae0001de763b,,2193130,166,,evan-feature22,full_pf_b,,1
52,42805,167,,,,2,2,1.0,0.0,-1.0,0.0,,0.0-79.0,,-1.0,88.6,0.0,0.34677856700000004,1.0,0.69057175,1.0,0.6822438540000001,0.0,0.477292237,False,,5d518981f86dae0001de763b,,2202978,167,,evan-feature22,full_pf_b,,1
53,42806,168,,,,1,1,0.0,0.0,0.0,1.0,,0.0-80.0,,0.0,481.715,0.0,0.28580469199999997,0.0,0.68408818,0.0,0.684207565,0.0,0.49780448299999996,False,,5d518981f86dae0001de763b,,2213219,168,,evan-feature22,full_pf_b,,1
54,42808,170,,,,2,2,1.0,1.0,-1.0,0.0,,0.0-82.0,,-1.0,2831.635,0.0,0.25,1.0,0.7405808970000001,1.0,0.679614108,1.0,0.436436964,False,,5d518981f86dae0001de763b,,2230299,170,,evan-feature22,full_pf_b,,1
55,42809,171,,,,1,1,0.0,1.0,0.0,1.0,,0.0-83.0,,1.0,241.43,0.0,0.29890393,1.0,0.730505706,1.0,0.7328203320000001,0.0,0.439256938,False,,5d518981f86dae0001de763b,,2240302,171,,evan-feature22,full_pf_b,,1
56,42810,172,,,,1,1,0.0,1.0,-1.0,0.0,,0.0-84.0,,0.0,126.46,0.0,0.326762398,1.0,0.7148059609999999,1.0,0.75,1.0,0.44389608799999997,False,,5d518981f86dae0001de763b,,2250187,172,,evan-feature22,full_pf_b,,0
57,42811,173,,,,2,2,0.0,1.0,-1.0,0.0,,0.0-85.0,,0.0,138.565,0.0,0.295168515,1.0,0.739760854,0.0,0.719947008,1.0,0.35277284600000003,False,,5d518981f86dae0001de763b,,2260085,173,,evan-feature22,full_pf_b,,1
58,42812,174,,,,1,1,0.0,1.0,-1.0,0.0,,0.0-86.0,,0.0,83.345,0.0,0.25,1.0,0.70781482,0.0,0.75,0.0,0.286095925,False,,5d518981f86dae0001de763b,,2269931,174,,evan-feature22,full_pf_b,,1
59,42813,175,,,,1,1,1.0,0.0,0.0,1.0,,0.0-87.0,,0.0,94.11,1.0,0.25638190899999996,0.0,0.704088163,1.0,0.75,1.0,0.26872601399999996,False,,5d518981f86dae0001de763b,,2279786,175,,evan-feature22,full_pf_b,,0
60,42814,176,,,,1,1,0.0,1.0,0.0,1.0,,0.0-88.0,,1.0,118.785,0.0,0.271581126,1.0,0.669760107,1.0,0.733896663,0.0,0.273244572,False,,5d518981f86dae0001de763b,,2289666,176,,evan-feature22,full_pf_b,,0
61,42815,177,,,,1,1,1.0,1.0,0.0,1.0,,0.0-89.0,,1.0,10.245,1.0,0.257144401,1.0,0.600575706,1.0,0.74488122,1.0,0.25,False,,5d518981f86dae0001de763b,,2299439,177,,evan-feature22,full_pf_b,,0
62,42816,178,,,,2,2,1.0,0.0,-1.0,0.0,,0.0-90.0,,-1.0,125.49,0.0,0.25,1.0,0.616870026,1.0,0.723610234,0.0,0.25,False,,5d518981f86dae0001de763b,,2309323,178,,evan-feature22,full_pf_b,,1
63,42817,179,,,,1,1,0.0,0.0,0.0,1.0,,0.0-91.0,,0.0,293.39,0.0,0.25,0.0,0.583540187,1.0,0.7041042559999999,0.0,0.285961995,False,,5d518981f86dae0001de763b,,2319376,179,,evan-feature22,full_pf_b,,1
64,42818,180,,,,2,2,1.0,0.0,-1.0,0.0,,0.0-92.0,,-1.0,246.74,0.0,0.27254536,1.0,0.53875765,1.0,0.693783448,0.0,0.284961652,False,,5d518981f86dae0001de763b,,2329382,180,,evan-feature22,full_pf_b,,1
65,42819,181,,,,1,1,0.0,1.0,0.0,1.0,,0.0-93.0,,1.0,157.205,0.0,0.25,1.0,0.548431252,1.0,0.734221895,1.0,0.279445214,False,,5d518981f86dae0001de763b,,2339300,181,,evan-feature22,full_pf_b,,1
66,42820,182,,,,2,2,0.0,1.0,-1.0,0.0,,0.0-94.0,,0.0,51.87,0.0,0.258640684,0.0,0.545878066,0.0,0.725245965,1.0,0.31487537,False,,5d518981f86dae0001de763b,,2349111,182,,evan-feature22,full_pf_b,,1
67,42821,183,,,,2,2,1.0,0.0,-1.0,0.0,,0.0-95.0,,-1.0,72.485,0.0,0.251103711,0.0,0.5776290629999999,1.0,0.696320133,0.0,0.317831047,False,,5d518981f86dae0001de763b,,2358943,183,,evan-feature22,full_pf_b,,0
68,42822,184,,,,2,2,1.0,0.0,-1.0,0.0,,0.0-96.0,,-1.0,123.675,1.0,0.276630292,0.0,0.617329858,1.0,0.73838088,0.0,0.261471582,False,,5d518981f86dae0001de763b,,2368826,184,,evan-feature22,full_pf_b,,0
69,42823,185,,,,2,2,1.0,0.0,0.0,1.0,,0.0-97.0,,0.0,182.505,0.0,0.297716424,0.0,0.618863717,1.0,0.7402358259999999,0.0,0.262600834,False,,5d518981f86dae0001de763b,,2378767,185,,evan-feature22,full_pf_b,,0
70,42824,186,,,,2,2,1.0,0.0,-1.0,0.0,,0.0-98.0,,-1.0,47.585,0.0,0.290935512,1.0,0.695370945,1.0,0.706570507,0.0,0.280030553,False,,5d518981f86dae0001de763b,,2388577,186,,evan-feature22,full_pf_b,,0
71,42825,187,,,,2,2,0.0,0.0,-1.0,0.0,,0.0-99.0,,0.0,117.225,0.0,0.25,1.0,0.6465277079999999,0.0,0.67766682,0.0,0.25,False,,5d518981f86dae0001de763b,,2398454,187,,evan-feature22,full_pf_b,,0
72,42826,188,,,,2,2,1.0,0.0,-1.0,0.0,,0.0-100.0,,-1.0,69.175,1.0,0.26463816,0.0,0.636100213,1.0,0.646048507,0.0,0.265607101,False,,5d518981f86dae0001de763b,,2408283,188,,evan-feature22,full_pf_b,,0
73,42827,189,,,,2,2,1.0,0.0,-1.0,0.0,,0.0-101.0,,-1.0,92.09,0.0,0.314340707,1.0,0.667795927,1.0,0.613630805,0.0,0.25,False,,5d518981f86dae0001de763b,,2418134,189,,evan-feature22,full_pf_b,,0
74,42828,190,,,,1,1,0.0,0.0,-1.0,0.0,,0.0-102.0,,0.0,28.85,0.0,0.28685784,0.0,0.6622549529999999,1.0,0.652154117,0.0,0.25,False,,5d518981f86dae0001de763b,,2427934,190,,evan-feature22,full_pf_b,,1
75,42829,191,,,,2,2,1.0,0.0,0.0,1.0,,0.0-103.0,,0.0,493.305,1.0,0.304106554,0.0,0.631289538,1.0,0.707041942,0.0,0.29314237,False,,5d518981f86dae0001de763b,,2438187,191,,evan-feature22,full_pf_b,,1
76,42830,192,,,,2,2,1.0,0.0,0.0,1.0,,0.0-104.0,,0.0,252.55,0.0,0.304806932,0.0,0.571167718,1.0,0.680472346,0.0,0.25,False,,5d518981f86dae0001de763b,,2448199,192,,evan-feature22,full_pf_b,,0
77,42831,193,,,,2,2,1.0,0.0,0.0,1.0,,0.0-105.0,,0.0,156.88,1.0,0.37919861,1.0,0.5724849710000001,1.0,0.705638003,0.0,0.30179300600000003,False,,5d518981f86dae0001de763b,,2458116,193,,evan-feature22,full_pf_b,,0
78,42832,194,,,,1,1,1.0,1.0,0.0,1.0,,0.0-106.0,,1.0,16.205,1.0,0.464277969,1.0,0.554034373,1.0,0.7372627340000001,0.0,0.264699741,False,,5d518981f86dae0001de763b,,2467895,194,,evan-feature22,full_pf_b,,1
79,42833,195,,,,1,1,1.0,1.0,-1.0,0.0,,0.0-107.0,,-1.0,107.6,1.0,0.465104323,1.0,0.530793115,1.0,0.75,0.0,0.31683071,False,,5d518981f86dae0001de763b,,2477766,195,,evan-feature22,full_pf_b,,0
80,42834,196,,,,1,1,0.0,0.0,0.0,1.0,,0.0-108.0,,0.0,101.725,0.0,0.465104323,0.0,0.530793115,1.0,0.75,1.0,0.31683071,False,,5d518981f86dae0001de763b,,2487626,196,,evan-feature22,full_pf_b,,0
81,42835,197,,,,2,2,1.0,1.0,0.0,1.0,,0.0-109.0,,1.0,49.36,1.0,0.46833986,0.0,0.570249239,1.0,0.7244472590000001,1.0,0.364114163,False,,5d518981f86dae0001de763b,,2497440,197,,evan-feature22,full_pf_b,,1
82,42836,198,,,,2,2,0.0,1.0,0.0,1.0,,0.0-110.0,,1.0,6.05,0.0,0.445444024,1.0,0.649673355,0.0,0.6845441290000001,1.0,0.300660449,False,,5d518981f86dae0001de763b,,2507205,198,,evan-feature22,full_pf_b,,0
83,42837,199,,,,1,1,0.0,1.0,0.0,1.0,,0.0-111.0,,1.0,129.825,0.0,0.39909721299999995,1.0,0.6715179509999999,0.0,0.742310028,0.0,0.35496088299999995,False,,5d518981f86dae0001de763b,,2517094,199,,evan-feature22,full_pf_b,,1
84,42838,200,,,,1,1,1.0,1.0,0.0,1.0,,0.0-112.0,,1.0,28.425,1.0,0.37956104799999996,1.0,0.694725302,1.0,0.7181651309999999,0.0,0.38726906299999997,False,,5d518981f86dae0001de763b,,2526886,200,,evan-feature22,full_pf_b,,0
85,42839,201,,,,1,1,0.0,0.0,0.0,1.0,,0.0-113.0,,0.0,253.29,0.0,0.404995034,0.0,0.724375412,1.0,0.6910946859999999,0.0,0.387187347,False,,5d518981f86dae0001de763b,,2536899,201,,evan-feature22,full_pf_b,,0
86,42840,202,,,,2,2,1.0,0.0,0.0,1.0,,0.0-114.0,,0.0,437.07,0.0,0.461740803,1.0,0.75,1.0,0.75,0.0,0.34872038200000005,False,,5d518981f86dae0001de763b,,2547095,202,,evan-feature22,full_pf_b,,1
87,42841,203,,,,1,1,0.0,1.0,-1.0,0.0,,0.0-115.0,,0.0,9.51,0.0,0.43821380600000004,1.0,0.738833273,0.0,0.728286963,0.0,0.399538128,False,,5d518981f86dae0001de763b,,2556864,203,,evan-feature22,full_pf_b,,1
88,42842,204,,,,2,2,1.0,1.0,0.0,1.0,,0.0-116.0,,1.0,140.345,0.0,0.41709882,1.0,0.736666736,1.0,0.75,1.0,0.389095584,False,,5d518981f86dae0001de763b,,2566766,204,,evan-feature22,full_pf_b,,1
89,42843,205,,,,1,1,1.0,1.0,0.0,1.0,,0.0-117.0,,1.0,388.515,1.0,0.39749009799999996,1.0,0.744320029,1.0,0.75,0.0,0.363848678,False,,5d518981f86dae0001de763b,,2576919,205,,evan-feature22,full_pf_b,,1
90,42844,206,,,,1,1,0.0,1.0,-1.0,0.0,,0.0-118.0,,0.0,107.055,0.0,0.392653706,1.0,0.75,1.0,0.75,0.0,0.384386976,False,,5d518981f86dae0001de763b,,2586786,206,,evan-feature22,full_pf_b,,0
91,42845,207,,,,1,1,0.0,1.0,-1.0,0.0,,0.0-119.0,,0.0,94.025,0.0,0.31190902600000003,1.0,0.75,0.0,0.732413819,0.0,0.413082932,False,,5d518981f86dae0001de763b,,2596642,207,,evan-feature22,full_pf_b,,0
92,42846,208,,,,1,1,0.0,1.0,0.0,1.0,,0.0-120.0,,1.0,6.305,0.0,0.366917648,1.0,0.740073855,1.0,0.75,1.0,0.352861979,False,,5d518981f86dae0001de763b,,2606408,208,,evan-feature22,full_pf_b,,0
93,42847,209,,,,2,2,1.0,0.0,0.0,1.0,,0.0-121.0,,0.0,221.065,1.0,0.3645172,0.0,0.721770713,1.0,0.75,0.0,0.404074511,False,,5d518981f86dae0001de763b,,2616391,209,,evan-feature22,full_pf_b,,1
94,42848,210,,,,2,2,1.0,0.0,0.0,1.0,,0.0-122.0,,0.0,107.455,0.0,0.35205600299999995,1.0,0.68983859,1.0,0.739735447,0.0,0.366895945,False,,5d518981f86dae0001de763b,,2626261,210,,evan-feature22,full_pf_b,,0
95,42849,211,,,,2,2,1.0,0.0,0.0,1.0,,0.0-123.0,,0.0,246.15,1.0,0.40998722600000004,1.0,0.720859127,1.0,0.673854955,0.0,0.368528541,False,,5d518981f86dae0001de763b,,2636266,211,,evan-feature22,full_pf_b,,0
96,42850,212,,,,2,2,1.0,0.0,-1.0,0.0,,0.0-124.0,,-1.0,129.71,0.0,0.353625316,0.0,0.75,1.0,0.695605473,0.0,0.38303674200000004,False,,5d518981f86dae0001de763b,,2646157,212,,evan-feature22,full_pf_b,,0
97,42851,213,,,,2,2,1.0,0.0,0.0,1.0,,0.0-125.0,,0.0,148.935,0.0,0.359216989,1.0,0.75,1.0,0.6987915090000001,0.0,0.35169046200000004,False,,5d518981f86dae0001de763b,,2656065,213,,evan-feature22,full_pf_b,,0
98,42852,214,,,,2,2,1.0,1.0,-1.0,0.0,,0.0-126.0,,-1.0,163.535,1.0,0.35834496899999996,1.0,0.75,1.0,0.707067742,1.0,0.416763636,False,,5d518981f86dae0001de763b,,2665993,214,,evan-feature22,full_pf_b,,0
99,42853,215,,,,2,2,1.0,0.0,-1.0,0.0,,0.0-127.0,,-1.0,94.81,1.0,0.38741613799999997,1.0,0.7177369570000001,1.0,0.734902455,0.0,0.49438664299999996,False,,5d518981f86dae0001de763b,,2675847,215,,evan-feature22,full_pf_b,,0
100,42854,216,,,,2,2,1.0,0.0,0.0,1.0,,0.0-128.0,,0.0,87.89,1.0,0.405255252,1.0,0.7300466640000001,1.0,0.7027748070000001,0.0,0.504359668,False,,5d518981f86dae0001de763b,,2685694,216,,evan-feature22,full_pf_b,,0
101,42855,217,,,,2,2,0.0,0.0,0.0,1.0,,0.0-129.0,,0.0,171.985,0.0,0.40697073,1.0,0.7260142190000001,0.0,0.724461982,0.0,0.522779179,False,,5d518981f86dae0001de763b,,2695625,217,,evan-feature22,full_pf_b,,0
102,42856,218,,,,1,1,0.0,0.0,0.0,1.0,,0.0-130.0,,0.0,562.36,0.0,0.43906215299999996,0.0,0.7252802340000001,1.0,0.719079934,1.0,0.5712990579999999,False,,5d518981f86dae0001de763b,,2705947,218,,evan-feature22,full_pf_b,,1
103,42857,219,,,,2,2,0.0,0.0,0.0,1.0,,0.0-131.0,,0.0,166.92,0.0,0.4076705,1.0,0.73280499,0.0,0.681313127,0.0,0.523891346,False,,5d518981f86dae0001de763b,,2715873,219,,evan-feature22,full_pf_b,,1
104,42858,220,,,,1,1,1.0,0.0,0.0,1.0,,0.0-132.0,,0.0,47.51,1.0,0.399102911,0.0,0.730498344,1.0,0.661080239,1.0,0.46742603,False,,5d518981f86dae0001de763b,,2725679,220,,evan-feature22,full_pf_b,,1
105,42859,221,,,,2,2,1.0,0.0,-1.0,0.0,,0.0-133.0,,-1.0,153.4,0.0,0.356477282,0.0,0.712296395,1.0,0.641812684,0.0,0.44868414,False,,5d518981f86dae0001de763b,,2735591,221,,evan-feature22,full_pf_b,,1
106,42860,222,,,,2,2,0.0,0.0,0.0,1.0,,0.0-134.0,,0.0,208.455,1.0,0.462760722,1.0,0.692349322,0.0,0.700947931,0.0,0.394680266,False,,5d518981f86dae0001de763b,,2745558,222,,evan-feature22,full_pf_b,,0
107,42861,223,,,,2,2,0.0,1.0,0.0,1.0,,0.0-135.0,,1.0,47.845,1.0,0.422306413,1.0,0.718375916,0.0,0.706340917,1.0,0.367787185,False,,5d518981f86dae0001de763b,,2755365,223,,evan-feature22,full_pf_b,,0
108,42863,225,,,,2,2,1.0,0.0,0.0,1.0,,0.0-137.0,,0.0,1497.055,0.0,0.4582233,1.0,0.643834117,1.0,0.75,0.0,0.39615823299999997,False,,5d518981f86dae0001de763b,,2942468,225,,evan-feature22,full_pf_b,,0
109,42864,226,,,,2,2,0.0,0.0,0.0,1.0,,0.0-138.0,,0.0,1391.225,1.0,0.43813437899999996,0.0,0.651283804,0.0,0.729674191,0.0,0.37711048,False,,5d518981f86dae0001de763b,,2953617,226,,evan-feature22,full_pf_b,,0
110,42865,227,,,,1,1,1.0,1.0,0.0,1.0,,0.0-139.0,,1.0,12.82,1.0,0.471199094,1.0,0.6470010979999999,0.0,0.715008097,0.0,0.410656191,False,,5d518981f86dae0001de763b,,2963395,227,,evan-feature22,full_pf_b,,1
111,42866,228,,,,1,1,0.0,0.0,-1.0,0.0,,0.0-140.0,,0.0,530.935,0.0,0.42486406,0.0,0.629771829,1.0,0.6550939960000001,0.0,0.459093873,False,,5d518981f86dae0001de763b,,2973688,228,,evan-feature22,full_pf_b,,0
112,42867,229,,,,1,1,1.0,0.0,-1.0,0.0,,0.0-141.0,,-1.0,95.005,1.0,0.4803197,0.0,0.645842715,1.0,0.6421749920000001,0.0,0.443092151,False,,5d518981f86dae0001de763b,,2983542,229,,evan-feature22,full_pf_b,,0
113,42868,230,,,,2,2,1.0,1.0,-1.0,0.0,,0.0-142.0,,-1.0,327.71,1.0,0.521848997,1.0,0.735801074,1.0,0.6691348460000001,1.0,0.45259351600000003,False,,5d518981f86dae0001de763b,,2993633,230,,evan-feature22,full_pf_b,,1
114,42869,231,,,,2,2,1.0,1.0,0.0,1.0,,0.0-143.0,,1.0,851.3,0.0,0.49565621299999996,0.0,0.742400847,1.0,0.661512553,1.0,0.483110831,False,,5d518981f86dae0001de763b,,3004244,231,,evan-feature22,full_pf_b,,0
115,42870,232,,,,2,2,0.0,0.0,-1.0,0.0,,0.0-144.0,,0.0,142.23,1.0,0.521564361,0.0,0.731078632,0.0,0.6774886809999999,0.0,0.483263956,False,,5d518981f86dae0001de763b,,3014146,232,,evan-feature22,full_pf_b,,0
116,42871,233,,,,2,2,1.0,1.0,-1.0,0.0,,0.0-145.0,,-1.0,43.295,0.0,0.558893102,1.0,0.719810023,1.0,0.67461031,1.0,0.499349834,False,,5d518981f86dae0001de763b,,3023952,233,,evan-feature22,full_pf_b,,0
117,42872,234,,,,1,1,0.0,1.0,0.0,1.0,,0.0-146.0,,1.0,321.855,0.0,0.611031046,1.0,0.75,1.0,0.688072995,0.0,0.5321422729999999,False,,5d518981f86dae0001de763b,,3034035,234,,evan-feature22,full_pf_b,,1
118,42873,235,,,,2,2,1.0,0.0,-1.0,0.0,,0.0-147.0,,-1.0,744.99,1.0,0.633223941,1.0,0.713567728,1.0,0.75,0.0,0.48185314700000004,False,,5d518981f86dae0001de763b,,3044539,235,,evan-feature22,full_pf_b,,1
119,42874,236,,,,2,2,1.0,0.0,-1.0,0.0,,0.0-148.0,,-1.0,189.0,1.0,0.664001694,1.0,0.705509768,1.0,0.75,0.0,0.500211065,False,,5d518981f86dae0001de763b,,3054486,236,,evan-feature22,full_pf_b,,0
120,42875,237,,,,1,1,0.0,0.0,0.0,1.0,,0.0-149.0,,0.0,25.545,0.0,0.664001694,0.0,0.705509768,1.0,0.75,0.0,0.500211065,False,,5d518981f86dae0001de763b,,3064271,237,,evan-feature22,full_pf_b,,1
121,42876,238,,,,2,2,0.0,0.0,0.0,1.0,,0.0-150.0,,0.0,177.635,1.0,0.696508041,0.0,0.71066027,0.0,0.717028709,0.0,0.49792991,False,,5d518981f86dae0001de763b,,3074209,238,,evan-feature22,full_pf_b,,1
122,42877,239,,,,1,1,1.0,0.0,-1.0,0.0,,0.0-151.0,,-1.0,535.59,1.0,0.699883272,0.0,0.75,1.0,0.713543895,1.0,0.496962643,False,,5d518981f86dae0001de763b,,3084503,239,,evan-feature22,full_pf_b,,1
123,42878,240,,,,1,1,0.0,0.0,0.0,1.0,,0.0-152.0,,0.0,138.125,0.0,0.741163419,0.0,0.75,1.0,0.64691024,1.0,0.513858197,False,,5d518981f86dae0001de763b,,3094403,240,,evan-feature22,full_pf_b,,0
124,42879,241,,,,1,1,1.0,1.0,-1.0,0.0,,0.0-153.0,,-1.0,339.585,1.0,0.75,1.0,0.70816558,1.0,0.594499079,0.0,0.48502124,False,,5d518981f86dae0001de763b,,3104507,241,,evan-feature22,full_pf_b,,0
125,42880,242,,,,2,2,1.0,0.0,0.0,1.0,,0.0-154.0,,0.0,430.63,1.0,0.75,1.0,0.721848901,1.0,0.62197249,0.0,0.48263586399999997,False,,5d518981f86dae0001de763b,,3114697,242,,evan-feature22,full_pf_b,,1
126,42881,243,,,,2,2,0.0,0.0,-1.0,0.0,,0.0-155.0,,0.0,31.67,1.0,0.75,1.0,0.74813071,0.0,0.584357161,0.0,0.411477782,False,,5d518981f86dae0001de763b,,3124488,243,,evan-feature22,full_pf_b,,0
127,42882,244,,,,2,2,1.0,1.0,0.0,1.0,,0.0-156.0,,1.0,65.645,1.0,0.75,1.0,0.75,1.0,0.52287236,1.0,0.488290656,False,,5d518981f86dae0001de763b,,3134316,244,,evan-feature22,full_pf_b,,0
128,42883,245,,,,2,2,0.0,1.0,0.0,1.0,,0.0-157.0,,1.0,1760.315,1.0,0.75,1.0,0.75,0.0,0.544321581,1.0,0.53143059,False,,5d518981f86dae0001de763b,,3145836,245,,evan-feature22,full_pf_b,,0
129,42884,246,,,,2,2,1.0,0.0,0.0,1.0,,0.0-158.0,,0.0,101.16,1.0,0.726754564,1.0,0.75,1.0,0.5129306370000001,0.0,0.530592445,False,,5d518981f86dae0001de763b,,3155697,246,,evan-feature22,full_pf_b,,0
130,42885,247,,,,1,1,0.0,1.0,-1.0,0.0,,0.0-159.0,,0.0,8.915,0.0,0.75,1.0,0.7392590729999999,0.0,0.479875835,0.0,0.547007051,False,,5d518981f86dae0001de763b,,3165464,247,,evan-feature22,full_pf_b,,1
131,42886,248,,,,1,1,1.0,1.0,-1.0,0.0,,0.0-160.0,,-1.0,32.36,1.0,0.75,1.0,0.7393376979999999,1.0,0.546045419,0.0,0.541267353,False,,5d518981f86dae0001de763b,,3175262,248,,evan-feature22,full_pf_b,,0
132,42887,249,,,,2,2,1.0,0.0,-1.0,0.0,,0.0-161.0,,-1.0,81.095,1.0,0.75,1.0,0.75,1.0,0.485725895,0.0,0.527625395,False,,5d518981f86dae0001de763b,,3185103,249,,evan-feature22,full_pf_b,,1
133,42888,250,,,,1,1,1.0,1.0,0.0,1.0,,0.0-162.0,,1.0,45.025,1.0,0.75,1.0,0.725087974,0.0,0.488603595,0.0,0.504019206,False,,5d518981f86dae0001de763b,,3194910,250,,evan-feature22,full_pf_b,,1
134,42889,251,,,,2,2,0.0,1.0,0.0,1.0,,0.0-163.0,,1.0,460.52,1.0,0.745504295,1.0,0.75,0.0,0.452379914,1.0,0.50131194,False,,5d518981f86dae0001de763b,,3205129,251,,evan-feature22,full_pf_b,,1
135,42890,252,,,,1,1,1.0,1.0,0.0,1.0,,0.0-164.0,,1.0,228.755,1.0,0.728513874,1.0,0.75,0.0,0.44125567200000004,1.0,0.531454591,False,,5d518981f86dae0001de763b,,3215123,252,,evan-feature22,full_pf_b,,1
136,42891,253,,,,2,2,0.0,0.0,-1.0,0.0,,0.0-165.0,,0.0,200.545,1.0,0.73790804,0.0,0.75,0.0,0.413036656,0.0,0.524619035,False,,5d518981f86dae0001de763b,,3225083,253,,evan-feature22,full_pf_b,,1
137,42892,254,,,,2,2,0.0,0.0,0.0,1.0,,0.0-166.0,,0.0,88.855,1.0,0.7080961309999999,1.0,0.708666865,0.0,0.431915581,0.0,0.481819489,False,,5d518981f86dae0001de763b,,3234932,254,,evan-feature22,full_pf_b,,0
138,42893,255,,,,2,2,0.0,0.0,0.0,1.0,,0.0-167.0,,0.0,413.7,1.0,0.721378003,1.0,0.71605913,0.0,0.36642387,0.0,0.5036739929999999,False,,5d518981f86dae0001de763b,,3245104,255,,evan-feature22,full_pf_b,,0
139,42894,256,,,,1,1,1.0,0.0,0.0,1.0,,0.0-168.0,,0.0,294.425,1.0,0.7340618959999999,0.0,0.699323252,1.0,0.35298046299999997,1.0,0.511241692,False,,5d518981f86dae0001de763b,,3255158,256,,evan-feature22,full_pf_b,,1
140,42895,257,,,,2,2,0.0,1.0,-1.0,0.0,,0.0-169.0,,0.0,134.19,1.0,0.75,1.0,0.70412698,0.0,0.380734814,1.0,0.529580116,False,,5d518981f86dae0001de763b,,3265051,257,,evan-feature22,full_pf_b,,1
141,42896,258,,,,2,2,1.0,1.0,0.0,1.0,,0.0-170.0,,1.0,270.595,0.0,0.7436654909999999,1.0,0.711182751,1.0,0.41125331,1.0,0.49554405,False,,5d518981f86dae0001de763b,,3275087,258,,evan-feature22,full_pf_b,,0
142,42897,259,,,,2,2,1.0,1.0,0.0,1.0,,0.0-171.0,,1.0,39.525,1.0,0.731607915,1.0,0.651774583,1.0,0.35688023,1.0,0.45194491600000003,False,,5d518981f86dae0001de763b,,3284889,259,,evan-feature22,full_pf_b,,0
143,42898,260,,,,2,2,0.0,0.0,-1.0,0.0,,0.0-172.0,,0.0,212.675,1.0,0.75,1.0,0.75,0.0,0.283145374,0.0,0.528608005,False,,5d518981f86dae0001de763b,,3294861,260,,evan-feature22,full_pf_b,,0
144,42899,261,,,,2,2,1.0,0.0,-1.0,0.0,,0.0-173.0,,-1.0,86.765,1.0,0.7491416890000001,1.0,0.7423785959999999,1.0,0.29135870399999997,0.0,0.498888318,False,,5d518981f86dae0001de763b,,3304708,261,,evan-feature22,full_pf_b,,0
145,42900,262,,,,1,1,1.0,1.0,-1.0,0.0,,0.0-174.0,,-1.0,81.58,1.0,0.708569387,1.0,0.717682277,0.0,0.294421699,1.0,0.493838163,False,,5d518981f86dae0001de763b,,3314552,262,,evan-feature22,full_pf_b,,1
146,42901,263,,,,1,1,1.0,1.0,0.0,1.0,,0.0-175.0,,1.0,4.455000001,1.0,0.75,1.0,0.7383382159999999,0.0,0.356098707,0.0,0.442533405,False,,5d518981f86dae0001de763b,,3324319,263,,evan-feature22,full_pf_b,,0
147,42902,264,,,,1,1,1.0,1.0,0.0,1.0,,0.0-176.0,,1.0,1497.51,1.0,0.744527075,1.0,0.75,0.0,0.334127506,0.0,0.393165805,False,,5d518981f86dae0001de763b,,3335578,264,,evan-feature22,full_pf_b,,0
148,42903,265,,,,1,1,1.0,1.0,0.0,1.0,,0.0-177.0,,1.0,407.855,1.0,0.75,1.0,0.75,0.0,0.33571021799999995,0.0,0.350393962,False,,5d518981f86dae0001de763b,,3345749,265,,evan-feature22,full_pf_b,,0
149,42904,266,,,,2,2,1.0,0.0,0.0,1.0,,0.0-178.0,,0.0,186.37,1.0,0.75,1.0,0.75,1.0,0.313628297,0.0,0.36349657399999996,False,,5d518981f86dae0001de763b,,3355698,266,,evan-feature22,full_pf_b,,1
150,42905,267,,,,1,1,1.0,1.0,-1.0,0.0,,0.0-179.0,,-1.0,138.875,1.0,0.75,1.0,0.734284182,0.0,0.262667667,0.0,0.380199119,False,,5d518981f86dae0001de763b,,3365600,267,,evan-feature22,full_pf_b,,1
151,42906,268,,,,2,2,1.0,0.0,0.0,1.0,,0.0-180.0,,0.0,69.595,1.0,0.75,0.0,0.75,1.0,0.25,0.0,0.394494013,False,,5d518981f86dae0001de763b,,3375433,268,,evan-feature22,full_pf_b,,1
152,42907,269,,,,2,2,0.0,1.0,-1.0,0.0,,0.0-181.0,,0.0,68.575,1.0,0.722298145,1.0,0.7357822340000001,0.0,0.25,1.0,0.319142121,False,,5d518981f86dae0001de763b,,3385262,269,,evan-feature22,full_pf_b,,0
153,42908,270,,,,1,1,0.0,1.0,-1.0,0.0,,0.0-182.0,,0.0,198.545,0.0,0.73149275,1.0,0.724276446,0.0,0.305856907,1.0,0.281315057,False,,5d518981f86dae0001de763b,,3395221,270,,evan-feature22,full_pf_b,,1
154,42909,271,,,,2,2,0.0,0.0,0.0,1.0,,0.0-183.0,,0.0,582.535,1.0,0.7458732690000001,1.0,0.7336382459999999,0.0,0.272571964,0.0,0.266021999,False,,5d518981f86dae0001de763b,,3405564,271,,evan-feature22,full_pf_b,,1
155,42910,272,,,,1,1,0.0,1.0,0.0,1.0,,0.0-184.0,,1.0,104.11,0.0,0.705579037,1.0,0.720778292,0.0,0.320238144,1.0,0.30971744,False,,5d518981f86dae0001de763b,,3415432,272,,evan-feature22,full_pf_b,,1
156,42911,273,,,,1,1,1.0,1.0,0.0,1.0,,0.0-185.0,,1.0,537.59,1.0,0.700425648,1.0,0.7198784009999999,0.0,0.272590393,0.0,0.304182931,False,,5d518981f86dae0001de763b,,3425732,273,,evan-feature22,full_pf_b,,0
157,42912,274,,,,2,2,0.0,1.0,0.0,1.0,,0.0-186.0,,1.0,82.43,1.0,0.735590785,0.0,0.722714973,0.0,0.25,1.0,0.323421091,False,,5d518981f86dae0001de763b,,3435573,274,,evan-feature22,full_pf_b,,1
158,42913,275,,,,1,1,0.0,0.0,0.0,1.0,,0.0-187.0,,0.0,1471.565,0.0,0.724807662,0.0,0.63146213,1.0,0.36836492600000004,1.0,0.34592153299999995,False,,5d518981f86dae0001de763b,,3446805,275,,evan-feature22,full_pf_b,,1
159,42914,276,,,,2,2,0.0,0.0,0.0,1.0,,0.0-188.0,,0.0,181.735,1.0,0.7352796909999999,0.0,0.555111392,0.0,0.36003922,0.0,0.31433779999999995,False,,5d518981f86dae0001de763b,,3456747,276,,evan-feature22,full_pf_b,,1
160,42915,277,notice,,,,,,,,,,0.0-189.0,"{""Q0"":""no""}",,22939.0,,,,,,,,,False,,5d518981f86dae0001de763b,,3479688,277,Q,survey-text,full_pf_b,,1
161,42916,278,track1,,[1],,,,,,,,0.0-190.0,"{""Q0"":""no""}",,5312.0,,,,,,,,,False,,5d518981f86dae0001de763b,,3485005,278,Q,evan-quiz,full_pf_b,,1
162,42917,279,track2,,[1],,,,,,,,0.0-191.0,"{""Q0"":""no""}",,36879.0,,,,,,,,,False,,5d518981f86dae0001de763b,,3521887,279,Q,evan-quiz,full_pf_b,,1
163,42918,280,strat,,,,,,,,,,0.0-192.0,"{""Q0"":""ramdom""}",,36464.0,,,,,,,,,False,,5d518981f86dae0001de763b,,3558356,280,Q,survey-text,full_pf_b,,1
