,index,Unnamed: 0,Q_name,button_pressed,choice_idxs,chosen_pos,chosen_state,chosen_state_f_1_outcome,chosen_state_f_2_outcome,f_1_reward,f_2_reward,incor_questions,internal_node_id,responses,reward_received,rt,s_1_f_1_outcome,s_1_f_1_prob,s_1_f_2_outcome,s_1_f_2_prob,s_2_f_1_outcome,s_2_f_1_prob,s_2_f_2_outcome,s_2_f_2_prob,safe_first,stimulus,subjectID,success,time_elapsed,trial_index,trial_num,trial_type,version,view_history,switching
0,24818,25,,,,1,1,0.0,0.0,1.0,0.0,,0.0-27.0,,0.0,913.385,0.0,0.6,0.0,0.6,0.0,0.4,1.0,0.4,True,,5ee80047165e050e9e4d387b,,771786,25,,evan-feature22,full_rf_a,,0
1,24819,26,,,,2,2,1.0,0.0,1.0,0.0,,0.0-28.0,,1.0,1610.48,1.0,0.608053294,1.0,0.63424552,1.0,0.397152172,0.0,0.347069101,True,,5ee80047165e050e9e4d387b,,783168,26,,evan-feature22,full_rf_a,,1
2,24820,27,,,,2,2,1.0,0.0,1.0,0.0,,0.0-29.0,,1.0,1248.525,0.0,0.642237155,1.0,0.648566321,1.0,0.389407674,0.0,0.285525717,True,,5ee80047165e050e9e4d387b,,794186,27,,evan-feature22,full_rf_a,,0
3,24821,28,,,,1,1,1.0,0.0,1.0,0.0,,0.0-30.0,,1.0,1513.045,1.0,0.661086576,0.0,0.630492543,0.0,0.399058924,0.0,0.25,True,,5ee80047165e050e9e4d387b,,805472,28,,evan-feature22,full_rf_a,,1
4,24822,29,,,,2,2,0.0,0.0,0.0,-1.0,,0.0-31.0,,0.0,1368.735,0.0,0.631324137,0.0,0.6269842929999999,0.0,0.38734784299999997,0.0,0.25,True,,5ee80047165e050e9e4d387b,,816613,29,,evan-feature22,full_rf_a,,1
5,24823,30,,,,1,1,1.0,0.0,0.0,-1.0,,0.0-32.0,,0.0,1501.46,1.0,0.6381991370000001,0.0,0.68987999,0.0,0.384107265,1.0,0.271332943,True,,5ee80047165e050e9e4d387b,,827888,30,,evan-feature22,full_rf_a,,1
6,24824,31,,,,2,2,0.0,0.0,1.0,0.0,,0.0-33.0,,0.0,1230.82,1.0,0.66034901,1.0,0.742641349,0.0,0.360225629,0.0,0.25,True,,5ee80047165e050e9e4d387b,,838896,31,,evan-feature22,full_rf_a,,1
7,24825,32,,,,1,1,1.0,1.0,1.0,0.0,,0.0-34.0,,1.0,651.28,1.0,0.638612418,1.0,0.75,1.0,0.367273939,0.0,0.25,True,,5ee80047165e050e9e4d387b,,849323,32,,evan-feature22,full_rf_a,,1
8,24826,33,,,,2,2,0.0,0.0,0.0,-1.0,,0.0-35.0,,0.0,783.1,0.0,0.624340629,0.0,0.75,0.0,0.425829545,0.0,0.25,True,,5ee80047165e050e9e4d387b,,859883,33,,evan-feature22,full_rf_a,,1
9,24827,34,,,,1,1,1.0,1.0,0.0,-1.0,,0.0-36.0,,-1.0,941.54,1.0,0.621999804,1.0,0.75,0.0,0.368609357,0.0,0.25,True,,5ee80047165e050e9e4d387b,,870603,34,,evan-feature22,full_rf_a,,1
10,24828,35,,,,2,2,1.0,0.0,1.0,0.0,,0.0-37.0,,1.0,979.17,1.0,0.62666403,1.0,0.75,1.0,0.311151498,0.0,0.25,True,,5ee80047165e050e9e4d387b,,881360,35,,evan-feature22,full_rf_a,,1
11,24829,36,,,,2,2,1.0,0.0,0.0,-1.0,,0.0-38.0,,0.0,984.935,1.0,0.6819650009999999,1.0,0.75,1.0,0.310763048,0.0,0.25,True,,5ee80047165e050e9e4d387b,,892123,36,,evan-feature22,full_rf_a,,0
12,24830,37,,,,1,1,1.0,1.0,1.0,0.0,,0.0-39.0,,1.0,1627.25,1.0,0.740626951,1.0,0.75,0.0,0.25,1.0,0.25,True,,5ee80047165e050e9e4d387b,,903521,37,,evan-feature22,full_rf_a,,1
13,24831,38,,,,2,2,0.0,0.0,1.0,0.0,,0.0-40.0,,0.0,815.41,1.0,0.739599242,0.0,0.742034978,0.0,0.25397114600000004,0.0,0.25,True,,5ee80047165e050e9e4d387b,,914113,38,,evan-feature22,full_rf_a,,1
14,24832,39,,,,1,1,1.0,1.0,1.0,0.0,,0.0-41.0,,1.0,1163.545,1.0,0.732341315,1.0,0.72735643,0.0,0.25,0.0,0.25,True,,5ee80047165e050e9e4d387b,,925051,39,,evan-feature22,full_rf_a,,1
15,24833,40,,,,2,2,0.0,0.0,1.0,0.0,,0.0-42.0,,0.0,774.29,0.0,0.7062287770000001,1.0,0.75,0.0,0.29002151,0.0,0.288256649,True,,5ee80047165e050e9e4d387b,,935604,40,,evan-feature22,full_rf_a,,1
16,24834,41,,,,1,1,0.0,0.0,1.0,0.0,,0.0-43.0,,0.0,785.75,0.0,0.7086029209999999,0.0,0.75,0.0,0.274129113,0.0,0.262851608,True,,5ee80047165e050e9e4d387b,,946161,41,,evan-feature22,full_rf_a,,1
17,24835,42,,,,2,2,1.0,1.0,1.0,0.0,,0.0-44.0,,1.0,640.54,0.0,0.669189651,1.0,0.727614338,1.0,0.298444036,1.0,0.296944518,True,,5ee80047165e050e9e4d387b,,956577,42,,evan-feature22,full_rf_a,,1
18,24836,43,,,,1,1,1.0,1.0,1.0,0.0,,0.0-45.0,,1.0,1608.07,1.0,0.6819912929999999,1.0,0.7179434290000001,0.0,0.265003961,0.0,0.28157921199999997,True,,5ee80047165e050e9e4d387b,,967958,43,,evan-feature22,full_rf_a,,1
19,24837,44,,,,1,1,1.0,1.0,0.0,-1.0,,0.0-46.0,,-1.0,711.475,1.0,0.665275002,1.0,0.723065271,1.0,0.260414971,1.0,0.30973870000000003,True,,5ee80047165e050e9e4d387b,,978444,44,,evan-feature22,full_rf_a,,0
20,24838,45,,,,2,2,0.0,0.0,1.0,0.0,,0.0-47.0,,0.0,701.87,1.0,0.6660593260000001,1.0,0.728032907,0.0,0.30922817,0.0,0.338778608,True,,5ee80047165e050e9e4d387b,,988923,45,,evan-feature22,full_rf_a,,1
21,24839,46,,,,2,2,0.0,0.0,1.0,0.0,,0.0-48.0,,0.0,993.935,1.0,0.702068785,1.0,0.6528750879999999,0.0,0.287329608,0.0,0.35789613200000003,True,,5ee80047165e050e9e4d387b,,999697,46,,evan-feature22,full_rf_a,,0
22,24840,47,,,,2,2,0.0,0.0,1.0,0.0,,0.0-49.0,,0.0,724.52,0.0,0.651939787,0.0,0.636725589,0.0,0.284834488,0.0,0.358563756,True,,5ee80047165e050e9e4d387b,,1010198,47,,evan-feature22,full_rf_a,,0
23,24841,48,,,,1,1,1.0,0.0,0.0,-1.0,,0.0-50.0,,0.0,672.335,1.0,0.67573929,0.0,0.612550049,0.0,0.37130387600000003,0.0,0.383542402,True,,5ee80047165e050e9e4d387b,,1020646,48,,evan-feature22,full_rf_a,,1
24,24842,49,,,,1,1,0.0,0.0,0.0,-1.0,,0.0-51.0,,0.0,397.075,0.0,0.620753801,0.0,0.60513644,1.0,0.385529434,1.0,0.340361743,True,,5ee80047165e050e9e4d387b,,1030823,49,,evan-feature22,full_rf_a,,0
25,24843,50,,,,SLOW,SLOW,,,0.0,-1.0,,0.0-52.0,,-3.0,,1.0,0.673564893,0.0,0.672437924,0.0,0.292955382,0.0,0.337633795,True,,5ee80047165e050e9e4d387b,,1036635,50,,evan-feature22,full_rf_a,,1
26,24844,51,,,,2,2,0.0,0.0,1.0,0.0,,0.0-53.0,,0.0,830.5,0.0,0.6749427,1.0,0.724197502,0.0,0.32391132100000003,0.0,0.350995264,True,,5ee80047165e050e9e4d387b,,1047240,51,,evan-feature22,full_rf_a,,1
27,24845,52,,,,2,2,0.0,1.0,1.0,0.0,,0.0-54.0,,0.0,344.705,1.0,0.6940159379999999,1.0,0.75,0.0,0.31710554399999996,1.0,0.413450341,True,,5ee80047165e050e9e4d387b,,1057367,52,,evan-feature22,full_rf_a,,0
28,24846,53,,,,1,1,1.0,1.0,1.0,0.0,,0.0-55.0,,1.0,483.86,1.0,0.6916018270000001,1.0,0.69001187,0.0,0.261817804,0.0,0.40038635,True,,5ee80047165e050e9e4d387b,,1067628,53,,evan-feature22,full_rf_a,,1
29,24847,54,,,,1,1,0.0,1.0,1.0,0.0,,0.0-56.0,,0.0,1207.17,0.0,0.641061544,1.0,0.71337992,1.0,0.277296461,0.0,0.47372791700000005,True,,5ee80047165e050e9e4d387b,,1078610,54,,evan-feature22,full_rf_a,,0
30,24848,55,,,,1,1,1.0,1.0,1.0,0.0,,0.0-57.0,,1.0,2555.73,1.0,0.6082438520000001,1.0,0.708471106,0.0,0.28745137,1.0,0.564174476,True,,5ee80047165e050e9e4d387b,,1090946,55,,evan-feature22,full_rf_a,,0
31,24849,56,,,,2,2,0.0,0.0,1.0,0.0,,0.0-58.0,,0.0,427.61,1.0,0.6051112120000001,0.0,0.7118147229999999,0.0,0.272390611,0.0,0.5595149939999999,True,,5ee80047165e050e9e4d387b,,1101148,56,,evan-feature22,full_rf_a,,1
32,24850,57,,,,1,1,1.0,1.0,1.0,0.0,,0.0-59.0,,1.0,455.845,1.0,0.582420852,1.0,0.635867583,1.0,0.31089574,0.0,0.5227206520000001,True,,5ee80047165e050e9e4d387b,,1111381,57,,evan-feature22,full_rf_a,,1
33,24851,58,,,,2,2,0.0,1.0,0.0,-1.0,,0.0-60.0,,-1.0,1523.795,1.0,0.623195575,1.0,0.655026044,0.0,0.25,1.0,0.560387538,True,,5ee80047165e050e9e4d387b,,1122677,58,,evan-feature22,full_rf_a,,1
34,24852,59,,,,2,2,0.0,0.0,1.0,0.0,,0.0-61.0,,0.0,545.8,1.0,0.601889598,1.0,0.678198724,0.0,0.25,0.0,0.559922936,True,,5ee80047165e050e9e4d387b,,1132995,59,,evan-feature22,full_rf_a,,0
35,24853,60,,,,2,2,0.0,1.0,1.0,0.0,,0.0-62.0,,0.0,389.0,0.0,0.601259914,1.0,0.704681482,0.0,0.33908969299999997,1.0,0.505003715,True,,5ee80047165e050e9e4d387b,,1143159,60,,evan-feature22,full_rf_a,,0
36,24854,61,,,,1,1,1.0,1.0,1.0,0.0,,0.0-63.0,,1.0,386.595,1.0,0.59645454,1.0,0.710437172,1.0,0.327441879,0.0,0.391749613,True,,5ee80047165e050e9e4d387b,,1153330,61,,evan-feature22,full_rf_a,,1
37,24855,62,,,,1,1,0.0,0.0,1.0,0.0,,0.0-64.0,,0.0,618.925,0.0,0.529473,0.0,0.636758527,1.0,0.301338063,0.0,0.365661481,True,,5ee80047165e050e9e4d387b,,1163730,62,,evan-feature22,full_rf_a,,0
38,24856,63,,,,1,1,1.0,1.0,0.0,-1.0,,0.0-65.0,,-1.0,1408.84,1.0,0.541657162,1.0,0.634541962,0.0,0.343535366,0.0,0.371763742,True,,5ee80047165e050e9e4d387b,,1174914,63,,evan-feature22,full_rf_a,,0
39,24857,64,,,,1,1,1.0,1.0,1.0,0.0,,0.0-66.0,,1.0,1119.135,1.0,0.5707533260000001,1.0,0.589121171,1.0,0.326428396,0.0,0.43961622899999997,True,,5ee80047165e050e9e4d387b,,1185815,64,,evan-feature22,full_rf_a,,0
40,24858,65,,,,2,2,0.0,0.0,1.0,0.0,,0.0-67.0,,0.0,708.28,1.0,0.5707533260000001,0.0,0.589121171,0.0,0.326428396,0.0,0.43961622899999997,True,,5ee80047165e050e9e4d387b,,1196301,65,,evan-feature22,full_rf_a,,1
41,24859,66,,,,1,1,0.0,0.0,1.0,0.0,,0.0-68.0,,0.0,610.91,0.0,0.506271295,0.0,0.641775594,1.0,0.37149690700000004,1.0,0.404330166,True,,5ee80047165e050e9e4d387b,,1206690,66,,evan-feature22,full_rf_a,,1
42,24860,67,,,,2,2,0.0,0.0,0.0,-1.0,,0.0-69.0,,0.0,652.035,0.0,0.455642565,0.0,0.623605825,0.0,0.358753011,0.0,0.346174041,True,,5ee80047165e050e9e4d387b,,1217122,67,,evan-feature22,full_rf_a,,1
43,24861,68,,,,2,2,0.0,1.0,0.0,-1.0,,0.0-70.0,,-1.0,452.235,0.0,0.483677308,0.0,0.5904681070000001,0.0,0.402218411,1.0,0.35344697,True,,5ee80047165e050e9e4d387b,,1227346,68,,evan-feature22,full_rf_a,,0
44,24862,69,,,,2,2,0.0,1.0,0.0,-1.0,,0.0-71.0,,-1.0,431.98,0.0,0.394210977,0.0,0.558925494,0.0,0.540052017,1.0,0.35182128700000004,True,,5ee80047165e050e9e4d387b,,1237554,69,,evan-feature22,full_rf_a,,0
45,24863,70,,,,2,2,1.0,0.0,1.0,0.0,,0.0-72.0,,1.0,851.81,0.0,0.382300414,0.0,0.577670603,1.0,0.607608448,0.0,0.378261578,True,,5ee80047165e050e9e4d387b,,1248182,70,,evan-feature22,full_rf_a,,0
46,24864,71,,,,2,2,0.0,0.0,1.0,0.0,,0.0-73.0,,0.0,1711.04,0.0,0.357596762,1.0,0.5929076529999999,0.0,0.6579790010000001,0.0,0.401326777,True,,5ee80047165e050e9e4d387b,,1259672,71,,evan-feature22,full_rf_a,,0
47,24865,72,,,,1,1,0.0,1.0,1.0,0.0,,0.0-74.0,,0.0,767.645,0.0,0.362033495,1.0,0.582308608,1.0,0.649195052,1.0,0.355158505,True,,5ee80047165e050e9e4d387b,,1270214,72,,evan-feature22,full_rf_a,,1
48,24866,73,,,,1,1,0.0,1.0,1.0,0.0,,0.0-75.0,,0.0,116.23,0.0,0.369620635,1.0,0.669100864,1.0,0.706059111,0.0,0.362516241,True,,5ee80047165e050e9e4d387b,,1280099,73,,evan-feature22,full_rf_a,,0
49,24867,74,,,,2,2,1.0,1.0,1.0,0.0,,0.0-76.0,,1.0,1000.54,1.0,0.41477751399999996,1.0,0.7284416779999999,1.0,0.7182656940000001,1.0,0.36228040899999997,True,,5ee80047165e050e9e4d387b,,1290877,74,,evan-feature22,full_rf_a,,1
50,24868,75,,,,2,2,0.0,1.0,0.0,-1.0,,0.0-77.0,,-1.0,1594.33,0.0,0.37675460299999997,1.0,0.703250285,0.0,0.75,1.0,0.461979164,True,,5ee80047165e050e9e4d387b,,1302248,75,,evan-feature22,full_rf_a,,0
51,24869,76,,,,2,2,1.0,0.0,0.0,-1.0,,0.0-78.0,,0.0,888.39,0.0,0.398716075,1.0,0.6723864890000001,1.0,0.674153818,0.0,0.519029516,True,,5ee80047165e050e9e4d387b,,1312912,76,,evan-feature22,full_rf_a,,0
52,24870,77,,,,1,1,0.0,1.0,1.0,0.0,,0.0-79.0,,0.0,602.545,0.0,0.34677856700000004,1.0,0.69057175,0.0,0.6822438540000001,1.0,0.477292237,True,,5ee80047165e050e9e4d387b,,1323283,77,,evan-feature22,full_rf_a,,1
53,24871,78,,,,1,1,0.0,1.0,0.0,-1.0,,0.0-80.0,,-1.0,510.235,0.0,0.28580469199999997,1.0,0.68408818,0.0,0.684207565,0.0,0.49780448299999996,True,,5ee80047165e050e9e4d387b,,1333567,78,,evan-feature22,full_rf_a,,0
54,24873,80,,,,1,1,0.0,1.0,1.0,0.0,,0.0-82.0,,0.0,1179.175,0.0,0.25,1.0,0.7405808970000001,0.0,0.679614108,1.0,0.436436964,True,,5ee80047165e050e9e4d387b,,1348963,80,,evan-feature22,full_rf_a,,0
55,24874,81,,,,2,2,1.0,1.0,0.0,-1.0,,0.0-83.0,,-1.0,459.86,1.0,0.29890393,1.0,0.730505706,1.0,0.7328203320000001,1.0,0.439256938,True,,5ee80047165e050e9e4d387b,,1359207,81,,evan-feature22,full_rf_a,,1
56,24875,82,,,,2,2,1.0,0.0,1.0,0.0,,0.0-84.0,,1.0,387.495,0.0,0.326762398,1.0,0.7148059609999999,1.0,0.75,0.0,0.44389608799999997,True,,5ee80047165e050e9e4d387b,,1369376,82,,evan-feature22,full_rf_a,,0
57,24876,83,,,,2,2,1.0,0.0,1.0,0.0,,0.0-85.0,,1.0,1461.945,0.0,0.295168515,0.0,0.739760854,1.0,0.719947008,0.0,0.35277284600000003,True,,5ee80047165e050e9e4d387b,,1380619,83,,evan-feature22,full_rf_a,,0
58,24877,84,,,,2,2,0.0,0.0,1.0,0.0,,0.0-86.0,,0.0,773.8,0.0,0.25,0.0,0.70781482,0.0,0.75,0.0,0.286095925,True,,5ee80047165e050e9e4d387b,,1391168,84,,evan-feature22,full_rf_a,,0
59,24878,85,,,,2,2,0.0,0.0,0.0,-1.0,,0.0-87.0,,0.0,744.23,1.0,0.25638190899999996,1.0,0.704088163,0.0,0.75,0.0,0.26872601399999996,True,,5ee80047165e050e9e4d387b,,1401686,85,,evan-feature22,full_rf_a,,0
60,24879,86,,,,1,1,0.0,1.0,0.0,-1.0,,0.0-88.0,,-1.0,776.89,0.0,0.271581126,1.0,0.669760107,1.0,0.733896663,1.0,0.273244572,True,,5ee80047165e050e9e4d387b,,1412237,86,,evan-feature22,full_rf_a,,1
61,24880,87,,,,2,2,0.0,0.0,0.0,-1.0,,0.0-89.0,,0.0,845.675,0.0,0.257144401,1.0,0.600575706,0.0,0.74488122,0.0,0.25,True,,5ee80047165e050e9e4d387b,,1422865,87,,evan-feature22,full_rf_a,,1
62,24881,88,,,,2,2,0.0,0.0,1.0,0.0,,0.0-90.0,,0.0,781.26,0.0,0.25,0.0,0.616870026,0.0,0.723610234,0.0,0.25,True,,5ee80047165e050e9e4d387b,,1433424,88,,evan-feature22,full_rf_a,,0
63,24882,89,,,,2,2,1.0,0.0,0.0,-1.0,,0.0-91.0,,0.0,438.46,0.0,0.25,0.0,0.583540187,1.0,0.7041042559999999,0.0,0.285961995,True,,5ee80047165e050e9e4d387b,,1443640,89,,evan-feature22,full_rf_a,,0
64,24883,90,,,,1,1,1.0,1.0,1.0,0.0,,0.0-92.0,,1.0,423.385,1.0,0.27254536,1.0,0.53875765,0.0,0.693783448,0.0,0.284961652,True,,5ee80047165e050e9e4d387b,,1453831,90,,evan-feature22,full_rf_a,,1
65,24884,91,,,,2,2,1.0,0.0,0.0,-1.0,,0.0-93.0,,0.0,585.16,0.0,0.25,1.0,0.548431252,1.0,0.734221895,0.0,0.279445214,True,,5ee80047165e050e9e4d387b,,1464193,91,,evan-feature22,full_rf_a,,1
66,24885,92,,,,2,2,0.0,0.0,1.0,0.0,,0.0-94.0,,0.0,557.605,0.0,0.258640684,1.0,0.545878066,0.0,0.725245965,0.0,0.31487537,True,,5ee80047165e050e9e4d387b,,1474524,92,,evan-feature22,full_rf_a,,0
67,24886,93,,,,2,2,1.0,1.0,1.0,0.0,,0.0-95.0,,1.0,894.96,0.0,0.251103711,1.0,0.5776290629999999,1.0,0.696320133,1.0,0.317831047,True,,5ee80047165e050e9e4d387b,,1485191,93,,evan-feature22,full_rf_a,,0
68,24887,94,,,,1,1,0.0,1.0,1.0,0.0,,0.0-96.0,,0.0,515.1749999,0.0,0.276630292,1.0,0.617329858,1.0,0.73838088,1.0,0.261471582,True,,5ee80047165e050e9e4d387b,,1495483,94,,evan-feature22,full_rf_a,,1
69,24888,95,,,,1,1,0.0,1.0,0.0,-1.0,,0.0-97.0,,-1.0,981.475,0.0,0.297716424,1.0,0.618863717,1.0,0.7402358259999999,0.0,0.262600834,True,,5ee80047165e050e9e4d387b,,1506242,95,,evan-feature22,full_rf_a,,0
70,24889,96,,,,2,2,1.0,0.0,1.0,0.0,,0.0-98.0,,1.0,597.625,0.0,0.290935512,1.0,0.695370945,1.0,0.706570507,0.0,0.280030553,True,,5ee80047165e050e9e4d387b,,1516620,96,,evan-feature22,full_rf_a,,1
71,24890,97,,,,2,2,1.0,1.0,1.0,0.0,,0.0-99.0,,1.0,895.03,1.0,0.25,1.0,0.6465277079999999,1.0,0.67766682,1.0,0.25,True,,5ee80047165e050e9e4d387b,,1527298,97,,evan-feature22,full_rf_a,,0
72,24891,98,,,,2,2,1.0,0.0,1.0,0.0,,0.0-100.0,,1.0,590.485,1.0,0.26463816,1.0,0.636100213,1.0,0.646048507,0.0,0.265607101,True,,5ee80047165e050e9e4d387b,,1537666,98,,evan-feature22,full_rf_a,,0
73,24892,99,,,,2,2,1.0,0.0,1.0,0.0,,0.0-101.0,,1.0,538.01,0.0,0.314340707,1.0,0.667795927,1.0,0.613630805,0.0,0.25,True,,5ee80047165e050e9e4d387b,,1547977,99,,evan-feature22,full_rf_a,,0
74,24893,100,,,,1,1,0.0,0.0,1.0,0.0,,0.0-102.0,,0.0,841.775,0.0,0.28685784,0.0,0.6622549529999999,1.0,0.652154117,1.0,0.25,True,,5ee80047165e050e9e4d387b,,1558599,100,,evan-feature22,full_rf_a,,1
75,24894,101,,,,1,1,0.0,0.0,0.0,-1.0,,0.0-103.0,,0.0,1067.67,0.0,0.304106554,0.0,0.631289538,1.0,0.707041942,0.0,0.29314237,True,,5ee80047165e050e9e4d387b,,1569442,101,,evan-feature22,full_rf_a,,0
76,24895,102,,,,2,2,1.0,0.0,0.0,-1.0,,0.0-104.0,,0.0,543.24,1.0,0.304806932,0.0,0.571167718,1.0,0.680472346,0.0,0.25,True,,5ee80047165e050e9e4d387b,,1579764,102,,evan-feature22,full_rf_a,,1
77,24896,103,,,,1,1,0.0,0.0,0.0,-1.0,,0.0-105.0,,0.0,755.57,0.0,0.37919861,0.0,0.5724849710000001,0.0,0.705638003,0.0,0.30179300600000003,True,,5ee80047165e050e9e4d387b,,1590295,103,,evan-feature22,full_rf_a,,1
78,24897,104,,,,2,2,0.0,0.0,0.0,-1.0,,0.0-106.0,,0.0,1300.16,1.0,0.464277969,0.0,0.554034373,0.0,0.7372627340000001,0.0,0.264699741,True,,5ee80047165e050e9e4d387b,,1601378,104,,evan-feature22,full_rf_a,,1
79,24898,105,,,,2,2,1.0,0.0,1.0,0.0,,0.0-107.0,,1.0,983.595,1.0,0.465104323,0.0,0.530793115,1.0,0.75,0.0,0.31683071,True,,5ee80047165e050e9e4d387b,,1612141,105,,evan-feature22,full_rf_a,,0
80,24899,106,,,,2,2,0.0,0.0,0.0,-1.0,,0.0-108.0,,0.0,730.05,1.0,0.465104323,0.0,0.530793115,0.0,0.75,0.0,0.31683071,True,,5ee80047165e050e9e4d387b,,1622642,106,,evan-feature22,full_rf_a,,0
81,24900,107,,,,2,2,1.0,1.0,0.0,-1.0,,0.0-109.0,,-1.0,725.1550001,1.0,0.46833986,1.0,0.570249239,1.0,0.7244472590000001,1.0,0.364114163,True,,5ee80047165e050e9e4d387b,,1633151,107,,evan-feature22,full_rf_a,,0
82,24901,108,,,,2,2,1.0,0.0,0.0,-1.0,,0.0-110.0,,0.0,624.07,0.0,0.445444024,0.0,0.649673355,1.0,0.6845441290000001,0.0,0.300660449,True,,5ee80047165e050e9e4d387b,,1643549,108,,evan-feature22,full_rf_a,,0
83,24902,109,,,,2,2,1.0,1.0,0.0,-1.0,,0.0-111.0,,-1.0,757.56,1.0,0.39909721299999995,1.0,0.6715179509999999,1.0,0.742310028,1.0,0.35496088299999995,True,,5ee80047165e050e9e4d387b,,1654082,109,,evan-feature22,full_rf_a,,0
84,24903,110,,,,2,2,0.0,0.0,0.0,-1.0,,0.0-112.0,,0.0,721.685,1.0,0.37956104799999996,0.0,0.694725302,0.0,0.7181651309999999,0.0,0.38726906299999997,True,,5ee80047165e050e9e4d387b,,1664589,110,,evan-feature22,full_rf_a,,0
85,24904,111,,,,1,1,0.0,1.0,0.0,-1.0,,0.0-113.0,,-1.0,390.0,0.0,0.404995034,1.0,0.724375412,1.0,0.6910946859999999,0.0,0.387187347,True,,5ee80047165e050e9e4d387b,,1674751,111,,evan-feature22,full_rf_a,,1
86,24905,112,,,,1,1,0.0,0.0,0.0,-1.0,,0.0-114.0,,0.0,1080.33,0.0,0.461740803,0.0,0.75,1.0,0.75,0.0,0.34872038200000005,True,,5ee80047165e050e9e4d387b,,1685605,112,,evan-feature22,full_rf_a,,0
87,24906,113,,,,2,2,0.0,0.0,1.0,0.0,,0.0-115.0,,0.0,1063.48,0.0,0.43821380600000004,1.0,0.738833273,0.0,0.728286963,0.0,0.399538128,True,,5ee80047165e050e9e4d387b,,1696452,113,,evan-feature22,full_rf_a,,1
88,24907,114,,,,2,2,1.0,0.0,0.0,-1.0,,0.0-116.0,,0.0,954.115,0.0,0.41709882,1.0,0.736666736,1.0,0.75,0.0,0.389095584,True,,5ee80047165e050e9e4d387b,,1707187,114,,evan-feature22,full_rf_a,,0
89,24908,115,,,,1,1,1.0,1.0,0.0,-1.0,,0.0-117.0,,-1.0,1075.585,1.0,0.39749009799999996,1.0,0.744320029,0.0,0.75,0.0,0.363848678,True,,5ee80047165e050e9e4d387b,,1718035,115,,evan-feature22,full_rf_a,,1
90,24909,116,,,,2,2,0.0,0.0,1.0,0.0,,0.0-118.0,,0.0,505.125,0.0,0.392653706,1.0,0.75,0.0,0.75,0.0,0.384386976,True,,5ee80047165e050e9e4d387b,,1728320,116,,evan-feature22,full_rf_a,,1
91,24910,117,,,,1,1,0.0,1.0,1.0,0.0,,0.0-119.0,,0.0,1315.725,0.0,0.31190902600000003,1.0,0.75,0.0,0.732413819,1.0,0.413082932,True,,5ee80047165e050e9e4d387b,,1739411,117,,evan-feature22,full_rf_a,,1
92,24911,118,,,,2,2,0.0,0.0,0.0,-1.0,,0.0-120.0,,0.0,1294.56,0.0,0.366917648,0.0,0.740073855,0.0,0.75,0.0,0.352861979,True,,5ee80047165e050e9e4d387b,,1750480,118,,evan-feature22,full_rf_a,,1
93,24912,119,,,,1,1,1.0,0.0,0.0,-1.0,,0.0-121.0,,0.0,646.825,1.0,0.3645172,0.0,0.721770713,1.0,0.75,1.0,0.404074511,True,,5ee80047165e050e9e4d387b,,1760905,119,,evan-feature22,full_rf_a,,1
94,24913,120,,,,1,1,0.0,0.0,0.0,-1.0,,0.0-122.0,,0.0,657.86,0.0,0.35205600299999995,0.0,0.68983859,1.0,0.739735447,1.0,0.366895945,True,,5ee80047165e050e9e4d387b,,1771344,120,,evan-feature22,full_rf_a,,0
95,24914,121,,,,2,2,1.0,0.0,0.0,-1.0,,0.0-123.0,,0.0,1744.175,0.0,0.40998722600000004,1.0,0.720859127,1.0,0.673854955,0.0,0.368528541,True,,5ee80047165e050e9e4d387b,,1782861,121,,evan-feature22,full_rf_a,,1
96,24915,122,,,,2,2,0.0,0.0,1.0,0.0,,0.0-124.0,,0.0,1220.12,0.0,0.353625316,1.0,0.75,0.0,0.695605473,0.0,0.38303674200000004,True,,5ee80047165e050e9e4d387b,,1793865,122,,evan-feature22,full_rf_a,,0
97,24916,123,,,,2,2,0.0,1.0,0.0,-1.0,,0.0-125.0,,-1.0,1180.25,1.0,0.359216989,1.0,0.75,0.0,0.6987915090000001,1.0,0.35169046200000004,True,,5ee80047165e050e9e4d387b,,1804825,123,,evan-feature22,full_rf_a,,0
98,24917,124,,,,2,2,1.0,0.0,1.0,0.0,,0.0-126.0,,1.0,672.66,1.0,0.35834496899999996,0.0,0.75,1.0,0.707067742,0.0,0.416763636,True,,5ee80047165e050e9e4d387b,,1815278,124,,evan-feature22,full_rf_a,,0
99,24918,125,,,,1,1,1.0,1.0,1.0,0.0,,0.0-127.0,,1.0,978.055,1.0,0.38741613799999997,1.0,0.7177369570000001,0.0,0.734902455,1.0,0.49438664299999996,True,,5ee80047165e050e9e4d387b,,1826028,125,,evan-feature22,full_rf_a,,1
100,24919,126,,,,2,2,1.0,0.0,0.0,-1.0,,0.0-128.0,,0.0,540.095,0.0,0.405255252,1.0,0.7300466640000001,1.0,0.7027748070000001,0.0,0.504359668,True,,5ee80047165e050e9e4d387b,,1836341,126,,evan-feature22,full_rf_a,,1
101,24920,127,,,,2,2,1.0,0.0,0.0,-1.0,,0.0-129.0,,0.0,522.975,1.0,0.40697073,1.0,0.7260142190000001,1.0,0.724461982,0.0,0.522779179,True,,5ee80047165e050e9e4d387b,,1846654,127,,evan-feature22,full_rf_a,,0
102,24921,128,,,,1,1,1.0,1.0,0.0,-1.0,,0.0-130.0,,-1.0,371.765,1.0,0.43906215299999996,1.0,0.7252802340000001,1.0,0.719079934,0.0,0.5712990579999999,True,,5ee80047165e050e9e4d387b,,1856804,128,,evan-feature22,full_rf_a,,1
103,24922,129,,,,2,2,1.0,1.0,0.0,-1.0,,0.0-131.0,,-1.0,985.115,0.0,0.4076705,1.0,0.73280499,1.0,0.681313127,1.0,0.523891346,True,,5ee80047165e050e9e4d387b,,1867565,129,,evan-feature22,full_rf_a,,1
104,24923,130,,,,2,2,1.0,1.0,0.0,-1.0,,0.0-132.0,,-1.0,887.21,0.0,0.399102911,1.0,0.730498344,1.0,0.661080239,1.0,0.46742603,True,,5ee80047165e050e9e4d387b,,1878232,130,,evan-feature22,full_rf_a,,0
105,24924,131,,,,2,2,1.0,0.0,1.0,0.0,,0.0-133.0,,1.0,927.49,0.0,0.356477282,1.0,0.712296395,1.0,0.641812684,0.0,0.44868414,True,,5ee80047165e050e9e4d387b,,1888937,131,,evan-feature22,full_rf_a,,0
106,24925,132,,,,SLOW,SLOW,,,0.0,-1.0,,0.0-134.0,,-3.0,,0.0,0.462760722,0.0,0.692349322,1.0,0.700947931,1.0,0.394680266,True,,5ee80047165e050e9e4d387b,,1894745,132,,evan-feature22,full_rf_a,,1
107,24926,133,,,,1,1,0.0,1.0,0.0,-1.0,,0.0-135.0,,-1.0,1169.595,0.0,0.422306413,1.0,0.718375916,1.0,0.706340917,0.0,0.367787185,True,,5ee80047165e050e9e4d387b,,1905695,133,,evan-feature22,full_rf_a,,1
108,24928,135,,,,1,1,0.0,0.0,0.0,-1.0,,0.0-137.0,,0.0,1049.765,0.0,0.4582233,0.0,0.643834117,0.0,0.75,0.0,0.39615823299999997,True,,5ee80047165e050e9e4d387b,,1918941,135,,evan-feature22,full_rf_a,,0
109,24929,136,,,,2,2,1.0,0.0,0.0,-1.0,,0.0-138.0,,0.0,1560.215,0.0,0.43813437899999996,0.0,0.651283804,1.0,0.729674191,0.0,0.37711048,True,,5ee80047165e050e9e4d387b,,1930281,136,,evan-feature22,full_rf_a,,1
110,24930,137,,,,2,2,0.0,0.0,0.0,-1.0,,0.0-139.0,,0.0,387.725,1.0,0.471199094,0.0,0.6470010979999999,0.0,0.715008097,0.0,0.410656191,True,,5ee80047165e050e9e4d387b,,1940442,137,,evan-feature22,full_rf_a,,0
111,24931,138,,,,2,2,1.0,0.0,1.0,0.0,,0.0-140.0,,1.0,354.56,1.0,0.42486406,0.0,0.629771829,1.0,0.6550939960000001,0.0,0.459093873,True,,5ee80047165e050e9e4d387b,,1950576,138,,evan-feature22,full_rf_a,,0
112,24932,139,,,,2,2,1.0,0.0,1.0,0.0,,0.0-141.0,,1.0,715.76,0.0,0.4803197,1.0,0.645842715,1.0,0.6421749920000001,0.0,0.443092151,True,,5ee80047165e050e9e4d387b,,1961071,139,,evan-feature22,full_rf_a,,0
113,24933,140,,,,2,2,1.0,0.0,1.0,0.0,,0.0-142.0,,1.0,989.715,1.0,0.521848997,1.0,0.735801074,1.0,0.6691348460000001,0.0,0.45259351600000003,True,,5ee80047165e050e9e4d387b,,1971839,140,,evan-feature22,full_rf_a,,0
114,24934,141,,,,2,2,1.0,0.0,0.0,-1.0,,0.0-143.0,,0.0,1204.955,1.0,0.49565621299999996,1.0,0.742400847,1.0,0.661512553,0.0,0.483110831,True,,5ee80047165e050e9e4d387b,,1982826,141,,evan-feature22,full_rf_a,,0
115,24935,142,,,,2,2,1.0,0.0,1.0,0.0,,0.0-144.0,,1.0,494.295,0.0,0.521564361,0.0,0.731078632,1.0,0.6774886809999999,0.0,0.483263956,True,,5ee80047165e050e9e4d387b,,1993098,142,,evan-feature22,full_rf_a,,0
116,24936,143,,,,2,2,0.0,1.0,1.0,0.0,,0.0-145.0,,0.0,381.885,0.0,0.558893102,1.0,0.719810023,0.0,0.67461031,1.0,0.499349834,True,,5ee80047165e050e9e4d387b,,2003253,143,,evan-feature22,full_rf_a,,0
117,24937,144,,,,2,2,0.0,0.0,0.0,-1.0,,0.0-146.0,,0.0,347.44,1.0,0.611031046,1.0,0.75,0.0,0.688072995,0.0,0.5321422729999999,True,,5ee80047165e050e9e4d387b,,2013378,144,,evan-feature22,full_rf_a,,0
118,24938,145,,,,1,1,1.0,1.0,1.0,0.0,,0.0-147.0,,1.0,1375.56,1.0,0.633223941,1.0,0.713567728,1.0,0.75,0.0,0.48185314700000004,True,,5ee80047165e050e9e4d387b,,2024529,145,,evan-feature22,full_rf_a,,1
119,24939,146,,,,1,1,1.0,1.0,1.0,0.0,,0.0-148.0,,1.0,1823.585,1.0,0.664001694,1.0,0.705509768,0.0,0.75,1.0,0.500211065,True,,5ee80047165e050e9e4d387b,,2036133,146,,evan-feature22,full_rf_a,,0
120,24940,147,,,,2,2,1.0,0.0,0.0,-1.0,,0.0-149.0,,0.0,592.295,1.0,0.664001694,1.0,0.705509768,1.0,0.75,0.0,0.500211065,True,,5ee80047165e050e9e4d387b,,2046501,147,,evan-feature22,full_rf_a,,1
121,24941,148,,,,2,2,0.0,1.0,0.0,-1.0,,0.0-150.0,,-1.0,432.855,1.0,0.696508041,1.0,0.71066027,0.0,0.717028709,1.0,0.49792991,True,,5ee80047165e050e9e4d387b,,2056709,148,,evan-feature22,full_rf_a,,0
122,24942,149,,,,2,2,1.0,1.0,1.0,0.0,,0.0-151.0,,1.0,532.555,0.0,0.699883272,1.0,0.75,1.0,0.713543895,1.0,0.496962643,True,,5ee80047165e050e9e4d387b,,2067018,149,,evan-feature22,full_rf_a,,0
123,24943,150,,,,1,1,1.0,1.0,0.0,-1.0,,0.0-152.0,,-1.0,469.435,1.0,0.741163419,1.0,0.75,1.0,0.64691024,0.0,0.513858197,True,,5ee80047165e050e9e4d387b,,2077264,150,,evan-feature22,full_rf_a,,1
124,24944,151,,,,1,1,0.0,0.0,1.0,0.0,,0.0-153.0,,0.0,544.795,0.0,0.75,0.0,0.70816558,1.0,0.594499079,1.0,0.48502124,True,,5ee80047165e050e9e4d387b,,2087589,151,,evan-feature22,full_rf_a,,0
125,24945,152,,,,1,1,1.0,0.0,0.0,-1.0,,0.0-154.0,,0.0,446.455,1.0,0.75,0.0,0.721848901,1.0,0.62197249,0.0,0.48263586399999997,True,,5ee80047165e050e9e4d387b,,2097808,152,,evan-feature22,full_rf_a,,0
126,24946,153,,,,1,1,1.0,1.0,1.0,0.0,,0.0-155.0,,1.0,866.89,1.0,0.75,1.0,0.74813071,1.0,0.584357161,0.0,0.411477782,True,,5ee80047165e050e9e4d387b,,2108448,153,,evan-feature22,full_rf_a,,0
127,24947,154,,,,2,2,0.0,0.0,0.0,-1.0,,0.0-156.0,,0.0,561.03,1.0,0.75,0.0,0.75,0.0,0.52287236,0.0,0.488290656,True,,5ee80047165e050e9e4d387b,,2118789,154,,evan-feature22,full_rf_a,,1
128,24948,155,,,,2,2,0.0,1.0,0.0,-1.0,,0.0-157.0,,-1.0,374.665,1.0,0.75,0.0,0.75,0.0,0.544321581,1.0,0.53143059,True,,5ee80047165e050e9e4d387b,,2128942,155,,evan-feature22,full_rf_a,,0
129,24949,156,,,,2,2,0.0,0.0,0.0,-1.0,,0.0-158.0,,0.0,394.57,1.0,0.726754564,1.0,0.75,0.0,0.5129306370000001,0.0,0.530592445,True,,5ee80047165e050e9e4d387b,,2139120,156,,evan-feature22,full_rf_a,,0
130,24950,157,,,,2,2,0.0,1.0,1.0,0.0,,0.0-159.0,,0.0,443.805,1.0,0.75,1.0,0.7392590729999999,0.0,0.479875835,1.0,0.547007051,True,,5ee80047165e050e9e4d387b,,2149344,157,,evan-feature22,full_rf_a,,0
131,24951,158,,,,1,1,1.0,1.0,1.0,0.0,,0.0-160.0,,1.0,452.425,1.0,0.75,1.0,0.7393376979999999,1.0,0.546045419,0.0,0.541267353,True,,5ee80047165e050e9e4d387b,,2159574,158,,evan-feature22,full_rf_a,,1
132,24952,159,,,,2,2,1.0,1.0,1.0,0.0,,0.0-161.0,,1.0,477.055,1.0,0.75,1.0,0.75,1.0,0.485725895,1.0,0.527625395,True,,5ee80047165e050e9e4d387b,,2169830,159,,evan-feature22,full_rf_a,,1
133,24953,160,,,,2,2,1.0,1.0,0.0,-1.0,,0.0-162.0,,-1.0,379.715,1.0,0.75,0.0,0.725087974,1.0,0.488603595,1.0,0.504019206,True,,5ee80047165e050e9e4d387b,,2179982,160,,evan-feature22,full_rf_a,,0
134,24954,161,,,,2,2,0.0,1.0,0.0,-1.0,,0.0-163.0,,-1.0,542.745,0.0,0.745504295,1.0,0.75,0.0,0.452379914,1.0,0.50131194,True,,5ee80047165e050e9e4d387b,,2190305,161,,evan-feature22,full_rf_a,,0
135,24955,162,,,,2,2,1.0,1.0,0.0,-1.0,,0.0-164.0,,-1.0,629.765,1.0,0.728513874,0.0,0.75,1.0,0.44125567200000004,1.0,0.531454591,True,,5ee80047165e050e9e4d387b,,2200715,162,,evan-feature22,full_rf_a,,0
136,24956,163,,,,2,2,1.0,0.0,1.0,0.0,,0.0-165.0,,1.0,366.11,0.0,0.73790804,1.0,0.75,1.0,0.413036656,0.0,0.524619035,True,,5ee80047165e050e9e4d387b,,2210859,163,,evan-feature22,full_rf_a,,0
137,24957,164,,,,1,1,0.0,1.0,0.0,-1.0,,0.0-166.0,,-1.0,526.215,0.0,0.7080961309999999,1.0,0.708666865,0.0,0.431915581,1.0,0.481819489,True,,5ee80047165e050e9e4d387b,,2221161,164,,evan-feature22,full_rf_a,,1
138,24958,165,,,,1,1,1.0,1.0,0.0,-1.0,,0.0-167.0,,-1.0,560.06,1.0,0.721378003,1.0,0.71605913,0.0,0.36642387,1.0,0.5036739929999999,True,,5ee80047165e050e9e4d387b,,2231489,165,,evan-feature22,full_rf_a,,0
139,24959,166,,,,1,1,0.0,1.0,0.0,-1.0,,0.0-168.0,,-1.0,573.8599998999999,0.0,0.7340618959999999,1.0,0.699323252,0.0,0.35298046299999997,0.0,0.511241692,True,,5ee80047165e050e9e4d387b,,2241839,166,,evan-feature22,full_rf_a,,0
140,24960,167,,,,2,2,1.0,0.0,1.0,0.0,,0.0-169.0,,1.0,540.62,1.0,0.75,1.0,0.70412698,1.0,0.380734814,0.0,0.529580116,True,,5ee80047165e050e9e4d387b,,2252150,167,,evan-feature22,full_rf_a,,1
141,24961,168,,,,2,2,1.0,0.0,0.0,-1.0,,0.0-170.0,,0.0,530.735,1.0,0.7436654909999999,1.0,0.711182751,1.0,0.41125331,0.0,0.49554405,True,,5ee80047165e050e9e4d387b,,2262461,168,,evan-feature22,full_rf_a,,0
142,24962,169,,,,1,1,0.0,1.0,0.0,-1.0,,0.0-171.0,,-1.0,779.195,0.0,0.731607915,1.0,0.651774583,1.0,0.35688023,0.0,0.45194491600000003,True,,5ee80047165e050e9e4d387b,,2273009,169,,evan-feature22,full_rf_a,,1
143,24963,170,,,,1,1,1.0,1.0,1.0,0.0,,0.0-172.0,,1.0,785.8299999,1.0,0.75,1.0,0.75,1.0,0.283145374,1.0,0.528608005,True,,5ee80047165e050e9e4d387b,,2283575,170,,evan-feature22,full_rf_a,,0
144,24964,171,,,,1,1,1.0,1.0,1.0,0.0,,0.0-173.0,,1.0,1121.775,1.0,0.7491416890000001,1.0,0.7423785959999999,0.0,0.29135870399999997,0.0,0.498888318,True,,5ee80047165e050e9e4d387b,,2294476,171,,evan-feature22,full_rf_a,,0
145,24965,172,,,,1,1,1.0,1.0,1.0,0.0,,0.0-174.0,,1.0,890.41,1.0,0.708569387,1.0,0.717682277,1.0,0.294421699,0.0,0.493838163,True,,5ee80047165e050e9e4d387b,,2305148,172,,evan-feature22,full_rf_a,,0
146,24966,173,,,,2,2,1.0,1.0,0.0,-1.0,,0.0-175.0,,-1.0,1669.845,1.0,0.75,1.0,0.7383382159999999,1.0,0.356098707,1.0,0.442533405,True,,5ee80047165e050e9e4d387b,,2316599,173,,evan-feature22,full_rf_a,,1
147,24967,174,,,,2,2,0.0,0.0,0.0,-1.0,,0.0-176.0,,0.0,2598.055,1.0,0.744527075,1.0,0.75,0.0,0.334127506,0.0,0.393165805,True,,5ee80047165e050e9e4d387b,,2328975,174,,evan-feature22,full_rf_a,,0
148,24968,175,,,,2,2,0.0,0.0,0.0,-1.0,,0.0-177.0,,0.0,917.195,1.0,0.75,1.0,0.75,0.0,0.33571021799999995,0.0,0.350393962,True,,5ee80047165e050e9e4d387b,,2339662,175,,evan-feature22,full_rf_a,,0
149,24969,176,,,,2,2,0.0,1.0,0.0,-1.0,,0.0-178.0,,-1.0,472.83,1.0,0.75,1.0,0.75,0.0,0.313628297,1.0,0.36349657399999996,True,,5ee80047165e050e9e4d387b,,2349916,176,,evan-feature22,full_rf_a,,0
150,24970,177,,,,1,1,1.0,1.0,1.0,0.0,,0.0-179.0,,1.0,481.925,1.0,0.75,1.0,0.734284182,0.0,0.262667667,0.0,0.380199119,True,,5ee80047165e050e9e4d387b,,2360173,177,,evan-feature22,full_rf_a,,1
151,24971,178,,,,2,2,0.0,0.0,0.0,-1.0,,0.0-180.0,,0.0,711.535,1.0,0.75,1.0,0.75,0.0,0.25,0.0,0.394494013,True,,5ee80047165e050e9e4d387b,,2370658,178,,evan-feature22,full_rf_a,,1
152,24972,179,,,,2,2,0.0,0.0,1.0,0.0,,0.0-181.0,,0.0,496.145,1.0,0.722298145,0.0,0.7357822340000001,0.0,0.25,0.0,0.319142121,True,,5ee80047165e050e9e4d387b,,2380930,179,,evan-feature22,full_rf_a,,0
153,24973,180,,,,1,1,1.0,1.0,1.0,0.0,,0.0-182.0,,1.0,434.815,1.0,0.73149275,1.0,0.724276446,0.0,0.305856907,0.0,0.281315057,True,,5ee80047165e050e9e4d387b,,2391141,180,,evan-feature22,full_rf_a,,1
154,24974,181,,,,2,2,0.0,0.0,0.0,-1.0,,0.0-183.0,,0.0,872.54,1.0,0.7458732690000001,1.0,0.7336382459999999,0.0,0.272571964,0.0,0.266021999,True,,5ee80047165e050e9e4d387b,,2401789,181,,evan-feature22,full_rf_a,,1
155,24975,182,,,,1,1,0.0,0.0,0.0,-1.0,,0.0-184.0,,0.0,897.65,0.0,0.705579037,0.0,0.720778292,0.0,0.320238144,0.0,0.30971744,True,,5ee80047165e050e9e4d387b,,2412464,182,,evan-feature22,full_rf_a,,1
156,24976,183,,,,2,2,0.0,0.0,0.0,-1.0,,0.0-185.0,,0.0,519.775,0.0,0.700425648,1.0,0.7198784009999999,0.0,0.272590393,0.0,0.304182931,True,,5ee80047165e050e9e4d387b,,2422765,183,,evan-feature22,full_rf_a,,1
157,24977,184,,,,2,2,0.0,1.0,0.0,-1.0,,0.0-186.0,,-1.0,495.815,1.0,0.735590785,0.0,0.722714973,0.0,0.25,1.0,0.323421091,True,,5ee80047165e050e9e4d387b,,2433037,184,,evan-feature22,full_rf_a,,0
158,24978,185,,,,1,1,1.0,1.0,0.0,-1.0,,0.0-187.0,,-1.0,757.01,1.0,0.724807662,1.0,0.63146213,1.0,0.36836492600000004,0.0,0.34592153299999995,True,,5ee80047165e050e9e4d387b,,2443565,185,,evan-feature22,full_rf_a,,1
159,24979,186,,,,2,2,1.0,0.0,0.0,-1.0,,0.0-188.0,,0.0,346.325,1.0,0.7352796909999999,1.0,0.555111392,1.0,0.36003922,0.0,0.31433779999999995,True,,5ee80047165e050e9e4d387b,,2453693,186,,evan-feature22,full_rf_a,,1
160,24980,187,notice,,,,,,,,,,0.0-189.0,"{""Q0"":""no""}",,9104.0,,,,,,,,,True,,5ee80047165e050e9e4d387b,,2462799,187,Q,survey-text,full_rf_a,,1
161,24981,188,track1,,[0],,,,,,,,0.0-190.0,"{""Q0"":""yes""}",,5715.0,,,,,,,,,True,,5ee80047165e050e9e4d387b,,2468517,188,Q,evan-quiz,full_rf_a,,1
162,24982,189,track2,,[2],,,,,,,,0.0-191.0,"{""Q0"":""N/A""}",,4884.0,,,,,,,,,True,,5ee80047165e050e9e4d387b,,2473404,189,Q,evan-quiz,full_rf_a,,1
163,24983,190,strat,,,,,,,,,,0.0-192.0,"{""Q0"":""if one was wrong, doing the opposite after two more trys ""}",,22044.0,,,,,,,,,True,,5ee80047165e050e9e4d387b,,2495450,190,Q,survey-text,full_rf_a,,1
