,index,Unnamed: 0,Q_name,button_pressed,choice_idxs,chosen_pos,chosen_state,chosen_state_f_1_outcome,chosen_state_f_2_outcome,f_1_reward,f_2_reward,incor_questions,internal_node_id,responses,reward_received,rt,s_1_f_1_outcome,s_1_f_1_prob,s_1_f_2_outcome,s_1_f_2_prob,s_2_f_1_outcome,s_2_f_1_prob,s_2_f_2_outcome,s_2_f_2_prob,safe_first,stimulus,subjectID,success,time_elapsed,trial_index,trial_num,trial_type,version,view_history,switching
0,6667,30,,,,1,1,1.0,1.0,1.0,0.0,,0.0-27.0,,1.0,1339.365,1.0,0.6,1.0,0.6,0.0,0.4,0.0,0.4,True,,5f443f239d4eda77437dae01,,909666,30,,evan-feature22,full_rf_a,,0
1,6668,31,,,,2,2,0.0,0.0,1.0,0.0,,0.0-28.0,,0.0,1623.475,0.0,0.608053294,1.0,0.63424552,0.0,0.397152172,0.0,0.347069101,True,,5f443f239d4eda77437dae01,,921118,31,,evan-feature22,full_rf_a,,1
2,6669,32,,,,2,2,1.0,1.0,1.0,0.0,,0.0-29.0,,1.0,1778.81,1.0,0.642237155,0.0,0.648566321,1.0,0.389407674,1.0,0.285525717,True,,5f443f239d4eda77437dae01,,932728,32,,evan-feature22,full_rf_a,,0
3,6670,33,,,,2,2,0.0,0.0,1.0,0.0,,0.0-30.0,,0.0,1655.745,0.0,0.661086576,1.0,0.630492543,0.0,0.399058924,0.0,0.25,True,,5f443f239d4eda77437dae01,,944208,33,,evan-feature22,full_rf_a,,0
4,6671,34,,,,2,2,0.0,0.0,0.0,-1.0,,0.0-31.0,,0.0,3948.23,1.0,0.631324137,1.0,0.6269842929999999,0.0,0.38734784299999997,0.0,0.25,True,,5f443f239d4eda77437dae01,,957960,34,,evan-feature22,full_rf_a,,0
5,6672,35,,,,SLOW,SLOW,,,0.0,-1.0,,0.0-32.0,,-3.0,,1.0,0.6381991370000001,1.0,0.68987999,0.0,0.384107265,0.0,0.271332943,True,,5f443f239d4eda77437dae01,,963792,35,,evan-feature22,full_rf_a,,1
6,6673,36,,,,2,2,0.0,1.0,1.0,0.0,,0.0-33.0,,0.0,2300.19,1.0,0.66034901,1.0,0.742641349,0.0,0.360225629,1.0,0.25,True,,5f443f239d4eda77437dae01,,975883,36,,evan-feature22,full_rf_a,,1
7,6674,37,,,,1,1,1.0,1.0,1.0,0.0,,0.0-34.0,,1.0,418.55000010000003,1.0,0.638612418,1.0,0.75,0.0,0.367273939,0.0,0.25,True,,5f443f239d4eda77437dae01,,986132,37,,evan-feature22,full_rf_a,,1
8,6675,38,,,,2,2,0.0,0.0,0.0,-1.0,,0.0-35.0,,0.0,731.745,1.0,0.624340629,1.0,0.75,0.0,0.425829545,0.0,0.25,True,,5f443f239d4eda77437dae01,,996672,38,,evan-feature22,full_rf_a,,1
9,6676,39,,,,2,2,0.0,0.0,0.0,-1.0,,0.0-36.0,,0.0,1326.905,1.0,0.621999804,1.0,0.75,0.0,0.368609357,0.0,0.25,True,,5f443f239d4eda77437dae01,,1007801,39,,evan-feature22,full_rf_a,,0
10,6677,40,,,,1,1,1.0,1.0,1.0,0.0,,0.0-37.0,,1.0,1035.685,1.0,0.62666403,1.0,0.75,0.0,0.311151498,0.0,0.25,True,,5f443f239d4eda77437dae01,,1018654,40,,evan-feature22,full_rf_a,,1
11,6678,41,,,,1,1,0.0,1.0,0.0,-1.0,,0.0-38.0,,-1.0,920.2599999,0.0,0.6819650009999999,1.0,0.75,1.0,0.310763048,0.0,0.25,True,,5f443f239d4eda77437dae01,,1029386,41,,evan-feature22,full_rf_a,,0
12,6679,42,,,,2,2,0.0,0.0,1.0,0.0,,0.0-39.0,,0.0,490.03,1.0,0.740626951,1.0,0.75,0.0,0.25,0.0,0.25,True,,5f443f239d4eda77437dae01,,1039691,42,,evan-feature22,full_rf_a,,1
13,6680,43,,,,2,2,0.0,0.0,1.0,0.0,,0.0-40.0,,0.0,1399.9,1.0,0.739599242,0.0,0.742034978,0.0,0.25397114600000004,0.0,0.25,True,,5f443f239d4eda77437dae01,,1050897,43,,evan-feature22,full_rf_a,,0
14,6681,44,,,,1,1,0.0,1.0,1.0,0.0,,0.0-41.0,,0.0,1408.32,0.0,0.732341315,1.0,0.72735643,0.0,0.25,0.0,0.25,True,,5f443f239d4eda77437dae01,,1062114,44,,evan-feature22,full_rf_a,,1
15,6682,45,,,,2,2,0.0,0.0,1.0,0.0,,0.0-42.0,,0.0,1471.13,1.0,0.7062287770000001,1.0,0.75,0.0,0.29002151,0.0,0.288256649,True,,5f443f239d4eda77437dae01,,1073418,45,,evan-feature22,full_rf_a,,1
16,6683,46,,,,2,2,1.0,0.0,1.0,0.0,,0.0-43.0,,1.0,1023.245,1.0,0.7086029209999999,1.0,0.75,1.0,0.274129113,0.0,0.262851608,True,,5f443f239d4eda77437dae01,,1084255,46,,evan-feature22,full_rf_a,,0
17,6684,47,,,,2,2,1.0,0.0,1.0,0.0,,0.0-44.0,,1.0,963.12,0.0,0.669189651,1.0,0.727614338,1.0,0.298444036,0.0,0.296944518,True,,5f443f239d4eda77437dae01,,1095037,47,,evan-feature22,full_rf_a,,0
18,6685,48,,,,1,1,1.0,1.0,1.0,0.0,,0.0-45.0,,1.0,927.935,1.0,0.6819912929999999,1.0,0.7179434290000001,0.0,0.265003961,0.0,0.28157921199999997,True,,5f443f239d4eda77437dae01,,1105801,48,,evan-feature22,full_rf_a,,1
19,6686,49,,,,2,2,0.0,0.0,0.0,-1.0,,0.0-46.0,,0.0,818.305,0.0,0.665275002,1.0,0.723065271,0.0,0.260414971,0.0,0.30973870000000003,True,,5f443f239d4eda77437dae01,,1116409,49,,evan-feature22,full_rf_a,,1
20,6687,50,,,,2,2,0.0,0.0,1.0,0.0,,0.0-47.0,,0.0,1594.11,1.0,0.6660593260000001,1.0,0.728032907,0.0,0.30922817,0.0,0.338778608,True,,5f443f239d4eda77437dae01,,1127806,50,,evan-feature22,full_rf_a,,0
21,6688,51,,,,2,2,0.0,1.0,1.0,0.0,,0.0-48.0,,0.0,619.2450001,0.0,0.702068785,0.0,0.6528750879999999,0.0,0.287329608,1.0,0.35789613200000003,True,,5f443f239d4eda77437dae01,,1138248,51,,evan-feature22,full_rf_a,,0
22,6689,52,,,,2,2,0.0,0.0,1.0,0.0,,0.0-49.0,,0.0,2026.755,1.0,0.651939787,0.0,0.636725589,0.0,0.284834488,0.0,0.358563756,True,,5f443f239d4eda77437dae01,,1150092,52,,evan-feature22,full_rf_a,,0
23,6690,53,,,,1,1,1.0,0.0,0.0,-1.0,,0.0-50.0,,0.0,1381.615,1.0,0.67573929,0.0,0.612550049,0.0,0.37130387600000003,0.0,0.383542402,True,,5f443f239d4eda77437dae01,,1161306,53,,evan-feature22,full_rf_a,,1
24,6691,54,,,,2,2,1.0,0.0,0.0,-1.0,,0.0-51.0,,0.0,1113.58,0.0,0.620753801,1.0,0.60513644,1.0,0.385529434,0.0,0.340361743,True,,5f443f239d4eda77437dae01,,1172239,54,,evan-feature22,full_rf_a,,1
25,6692,55,,,,2,2,1.0,0.0,0.0,-1.0,,0.0-52.0,,0.0,2049.615,0.0,0.673564893,1.0,0.672437924,1.0,0.292955382,0.0,0.337633795,True,,5f443f239d4eda77437dae01,,1184097,55,,evan-feature22,full_rf_a,,0
26,6693,56,,,,2,2,0.0,0.0,1.0,0.0,,0.0-53.0,,0.0,1347.805,1.0,0.6749427,0.0,0.724197502,0.0,0.32391132100000003,0.0,0.350995264,True,,5f443f239d4eda77437dae01,,1195253,56,,evan-feature22,full_rf_a,,0
27,6694,57,,,,1,1,1.0,1.0,1.0,0.0,,0.0-54.0,,1.0,701.545,1.0,0.6940159379999999,1.0,0.75,0.0,0.31710554399999996,1.0,0.413450341,True,,5f443f239d4eda77437dae01,,1205787,57,,evan-feature22,full_rf_a,,1
28,6695,58,,,,2,2,0.0,1.0,1.0,0.0,,0.0-55.0,,0.0,2169.625,1.0,0.6916018270000001,1.0,0.69001187,0.0,0.261817804,1.0,0.40038635,True,,5f443f239d4eda77437dae01,,1217782,58,,evan-feature22,full_rf_a,,1
29,6696,59,,,,1,1,0.0,0.0,1.0,0.0,,0.0-56.0,,0.0,1105.07,0.0,0.641061544,0.0,0.71337992,0.0,0.277296461,0.0,0.47372791700000005,True,,5f443f239d4eda77437dae01,,1228703,59,,evan-feature22,full_rf_a,,1
30,6697,60,,,,2,2,0.0,0.0,1.0,0.0,,0.0-57.0,,0.0,1147.155,0.0,0.6082438520000001,0.0,0.708471106,0.0,0.28745137,0.0,0.564174476,True,,5f443f239d4eda77437dae01,,1239676,60,,evan-feature22,full_rf_a,,1
31,6698,61,,,,2,2,0.0,1.0,1.0,0.0,,0.0-58.0,,0.0,1177.385,1.0,0.6051112120000001,0.0,0.7118147229999999,0.0,0.272390611,1.0,0.5595149939999999,True,,5f443f239d4eda77437dae01,,1250678,61,,evan-feature22,full_rf_a,,0
32,6699,62,,,,2,2,0.0,1.0,1.0,0.0,,0.0-59.0,,0.0,1134.07,1.0,0.582420852,1.0,0.635867583,0.0,0.31089574,1.0,0.5227206520000001,True,,5f443f239d4eda77437dae01,,1261630,62,,evan-feature22,full_rf_a,,0
33,6700,63,,,,1,1,1.0,0.0,0.0,-1.0,,0.0-60.0,,0.0,1001.175,1.0,0.623195575,0.0,0.655026044,1.0,0.25,1.0,0.560387538,True,,5f443f239d4eda77437dae01,,1272468,63,,evan-feature22,full_rf_a,,1
34,6701,64,,,,2,2,1.0,1.0,1.0,0.0,,0.0-61.0,,1.0,833.28,0.0,0.601889598,1.0,0.678198724,1.0,0.25,1.0,0.559922936,True,,5f443f239d4eda77437dae01,,1283112,64,,evan-feature22,full_rf_a,,1
35,6702,65,,,,1,1,0.0,1.0,1.0,0.0,,0.0-62.0,,0.0,1972.125,0.0,0.601259914,1.0,0.704681482,0.0,0.33908969299999997,0.0,0.505003715,True,,5f443f239d4eda77437dae01,,1294906,65,,evan-feature22,full_rf_a,,1
36,6703,66,,,,2,2,1.0,0.0,1.0,0.0,,0.0-63.0,,1.0,1371.69,1.0,0.59645454,1.0,0.710437172,1.0,0.327441879,0.0,0.391749613,True,,5f443f239d4eda77437dae01,,1306099,66,,evan-feature22,full_rf_a,,1
37,6704,67,,,,1,1,0.0,0.0,1.0,0.0,,0.0-64.0,,0.0,972.265,0.0,0.529473,0.0,0.636758527,1.0,0.301338063,0.0,0.365661481,True,,5f443f239d4eda77437dae01,,1316875,67,,evan-feature22,full_rf_a,,1
38,6705,68,,,,2,2,0.0,1.0,0.0,-1.0,,0.0-65.0,,-1.0,1855.535,0.0,0.541657162,0.0,0.634541962,0.0,0.343535366,1.0,0.371763742,True,,5f443f239d4eda77437dae01,,1328555,68,,evan-feature22,full_rf_a,,1
39,6706,69,,,,SLOW,SLOW,,,1.0,0.0,,0.0-66.0,,-3.0,,1.0,0.5707533260000001,1.0,0.589121171,0.0,0.326428396,0.0,0.43961622899999997,True,,5f443f239d4eda77437dae01,,1334387,69,,evan-feature22,full_rf_a,,1
40,6707,70,,,,1,1,0.0,0.0,1.0,0.0,,0.0-67.0,,0.0,1255.895,0.0,0.5707533260000001,0.0,0.589121171,0.0,0.326428396,1.0,0.43961622899999997,True,,5f443f239d4eda77437dae01,,1345450,70,,evan-feature22,full_rf_a,,1
41,6708,71,,,,2,2,1.0,1.0,1.0,0.0,,0.0-68.0,,1.0,727.33,1.0,0.506271295,1.0,0.641775594,1.0,0.37149690700000004,1.0,0.404330166,True,,5f443f239d4eda77437dae01,,1355968,71,,evan-feature22,full_rf_a,,1
42,6709,72,,,,2,2,0.0,0.0,0.0,-1.0,,0.0-69.0,,0.0,400.895,1.0,0.455642565,1.0,0.623605825,0.0,0.358753011,0.0,0.346174041,True,,5f443f239d4eda77437dae01,,1366199,72,,evan-feature22,full_rf_a,,0
43,6710,73,,,,2,2,0.0,0.0,0.0,-1.0,,0.0-70.0,,0.0,491.1249999,0.0,0.483677308,1.0,0.5904681070000001,0.0,0.402218411,0.0,0.35344697,True,,5f443f239d4eda77437dae01,,1376515,73,,evan-feature22,full_rf_a,,0
44,6711,74,,,,1,1,0.0,1.0,0.0,-1.0,,0.0-71.0,,-1.0,411.89,0.0,0.394210977,1.0,0.558925494,0.0,0.540052017,0.0,0.35182128700000004,True,,5f443f239d4eda77437dae01,,1386734,74,,evan-feature22,full_rf_a,,1
45,6712,75,,,,2,2,0.0,1.0,1.0,0.0,,0.0-72.0,,0.0,505.9000001,1.0,0.382300414,0.0,0.577670603,0.0,0.607608448,1.0,0.378261578,True,,5f443f239d4eda77437dae01,,1397062,75,,evan-feature22,full_rf_a,,1
46,6713,76,,,,1,1,0.0,1.0,1.0,0.0,,0.0-73.0,,0.0,676.145,0.0,0.357596762,1.0,0.5929076529999999,1.0,0.6579790010000001,1.0,0.401326777,True,,5f443f239d4eda77437dae01,,1407574,76,,evan-feature22,full_rf_a,,1
47,6714,77,,,,1,1,1.0,1.0,1.0,0.0,,0.0-74.0,,1.0,1367.91,1.0,0.362033495,1.0,0.582308608,1.0,0.649195052,1.0,0.355158505,True,,5f443f239d4eda77437dae01,,1418750,77,,evan-feature22,full_rf_a,,0
48,6715,78,,,,2,2,1.0,0.0,1.0,0.0,,0.0-75.0,,1.0,930.5,1.0,0.369620635,1.0,0.669100864,1.0,0.706059111,0.0,0.362516241,True,,5f443f239d4eda77437dae01,,1429501,78,,evan-feature22,full_rf_a,,1
49,6716,79,,,,1,1,1.0,1.0,1.0,0.0,,0.0-76.0,,1.0,1690.855,1.0,0.41477751399999996,1.0,0.7284416779999999,1.0,0.7182656940000001,0.0,0.36228040899999997,True,,5f443f239d4eda77437dae01,,1441023,79,,evan-feature22,full_rf_a,,1
50,6717,80,,,,2,2,0.0,0.0,0.0,-1.0,,0.0-77.0,,0.0,1121.235,1.0,0.37675460299999997,0.0,0.703250285,0.0,0.75,0.0,0.461979164,True,,5f443f239d4eda77437dae01,,1451974,80,,evan-feature22,full_rf_a,,1
51,6718,81,,,,1,1,1.0,1.0,0.0,-1.0,,0.0-78.0,,-1.0,1386.99,1.0,0.398716075,1.0,0.6723864890000001,1.0,0.674153818,0.0,0.519029516,True,,5f443f239d4eda77437dae01,,1463191,81,,evan-feature22,full_rf_a,,1
52,6719,82,,,,2,2,1.0,1.0,1.0,0.0,,0.0-79.0,,1.0,623.765,0.0,0.34677856700000004,1.0,0.69057175,1.0,0.6822438540000001,1.0,0.477292237,True,,5f443f239d4eda77437dae01,,1473627,82,,evan-feature22,full_rf_a,,1
53,6720,83,,,,1,1,0.0,1.0,0.0,-1.0,,0.0-80.0,,-1.0,1299.2,0.0,0.28580469199999997,1.0,0.68408818,1.0,0.684207565,1.0,0.49780448299999996,True,,5f443f239d4eda77437dae01,,1484734,83,,evan-feature22,full_rf_a,,1
54,6722,85,,,,1,1,1.0,1.0,1.0,0.0,,0.0-82.0,,1.0,1852.94,1.0,0.25,1.0,0.7405808970000001,0.0,0.679614108,0.0,0.436436964,True,,5f443f239d4eda77437dae01,,1499369,85,,evan-feature22,full_rf_a,,0
55,6723,86,,,,2,2,1.0,0.0,0.0,-1.0,,0.0-83.0,,0.0,951.51,1.0,0.29890393,1.0,0.730505706,1.0,0.7328203320000001,0.0,0.439256938,True,,5f443f239d4eda77437dae01,,1510149,86,,evan-feature22,full_rf_a,,1
56,6724,87,,,,2,2,1.0,0.0,1.0,0.0,,0.0-84.0,,1.0,1054.08,0.0,0.326762398,1.0,0.7148059609999999,1.0,0.75,0.0,0.44389608799999997,True,,5f443f239d4eda77437dae01,,1521018,87,,evan-feature22,full_rf_a,,0
57,6725,88,,,,1,1,1.0,0.0,1.0,0.0,,0.0-85.0,,1.0,1182.745,1.0,0.295168515,0.0,0.739760854,1.0,0.719947008,1.0,0.35277284600000003,True,,5f443f239d4eda77437dae01,,1532044,88,,evan-feature22,full_rf_a,,1
58,6726,89,,,,1,1,0.0,0.0,1.0,0.0,,0.0-86.0,,0.0,1366.52,0.0,0.25,0.0,0.70781482,0.0,0.75,0.0,0.286095925,True,,5f443f239d4eda77437dae01,,1543199,89,,evan-feature22,full_rf_a,,0
59,6727,90,,,,2,2,0.0,0.0,0.0,-1.0,,0.0-87.0,,0.0,570.525,1.0,0.25638190899999996,1.0,0.704088163,0.0,0.75,0.0,0.26872601399999996,True,,5f443f239d4eda77437dae01,,1553579,90,,evan-feature22,full_rf_a,,1
60,6728,91,,,,1,1,0.0,1.0,0.0,-1.0,,0.0-88.0,,-1.0,488.135,0.0,0.271581126,1.0,0.669760107,0.0,0.733896663,0.0,0.273244572,True,,5f443f239d4eda77437dae01,,1563871,91,,evan-feature22,full_rf_a,,1
61,6729,92,,,,2,2,1.0,0.0,0.0,-1.0,,0.0-89.0,,0.0,1303.835,0.0,0.257144401,1.0,0.600575706,1.0,0.74488122,0.0,0.25,True,,5f443f239d4eda77437dae01,,1574991,92,,evan-feature22,full_rf_a,,1
62,6730,93,,,,1,1,1.0,0.0,1.0,0.0,,0.0-90.0,,1.0,1560.595,1.0,0.25,0.0,0.616870026,1.0,0.723610234,1.0,0.25,True,,5f443f239d4eda77437dae01,,1586372,93,,evan-feature22,full_rf_a,,1
63,6731,94,,,,2,2,0.0,0.0,0.0,-1.0,,0.0-91.0,,0.0,1178.72,0.0,0.25,1.0,0.583540187,0.0,0.7041042559999999,0.0,0.285961995,True,,5f443f239d4eda77437dae01,,1597361,94,,evan-feature22,full_rf_a,,1
64,6732,95,,,,1,1,0.0,0.0,1.0,0.0,,0.0-92.0,,0.0,1477.43,0.0,0.27254536,0.0,0.53875765,1.0,0.693783448,0.0,0.284961652,True,,5f443f239d4eda77437dae01,,1608656,95,,evan-feature22,full_rf_a,,1
65,6733,96,,,,2,2,1.0,0.0,0.0,-1.0,,0.0-93.0,,0.0,3330.1,0.0,0.25,0.0,0.548431252,1.0,0.734221895,0.0,0.279445214,True,,5f443f239d4eda77437dae01,,1621799,96,,evan-feature22,full_rf_a,,1
66,6734,97,,,,1,1,1.0,0.0,1.0,0.0,,0.0-94.0,,1.0,1028.175,1.0,0.258640684,0.0,0.545878066,1.0,0.725245965,0.0,0.31487537,True,,5f443f239d4eda77437dae01,,1632625,97,,evan-feature22,full_rf_a,,1
67,6735,98,,,,2,2,1.0,0.0,1.0,0.0,,0.0-95.0,,1.0,735.745,1.0,0.251103711,1.0,0.5776290629999999,1.0,0.696320133,0.0,0.317831047,True,,5f443f239d4eda77437dae01,,1643161,98,,evan-feature22,full_rf_a,,1
68,6736,99,,,,2,2,1.0,0.0,1.0,0.0,,0.0-96.0,,1.0,412.25999989999997,1.0,0.276630292,0.0,0.617329858,1.0,0.73838088,0.0,0.261471582,True,,5f443f239d4eda77437dae01,,1653391,99,,evan-feature22,full_rf_a,,0
69,6737,100,,,,1,1,0.0,1.0,0.0,-1.0,,0.0-97.0,,-1.0,381.9149999,0.0,0.297716424,1.0,0.618863717,1.0,0.7402358259999999,0.0,0.262600834,True,,5f443f239d4eda77437dae01,,1663612,100,,evan-feature22,full_rf_a,,1
70,6738,101,,,,2,2,1.0,0.0,1.0,0.0,,0.0-98.0,,1.0,879.265,1.0,0.290935512,1.0,0.695370945,1.0,0.706570507,0.0,0.280030553,True,,5f443f239d4eda77437dae01,,1674307,101,,evan-feature22,full_rf_a,,1
71,6739,102,,,,1,1,0.0,1.0,1.0,0.0,,0.0-99.0,,0.0,581.4350001,0.0,0.25,1.0,0.6465277079999999,1.0,0.67766682,0.0,0.25,True,,5f443f239d4eda77437dae01,,1684701,102,,evan-feature22,full_rf_a,,1
72,6740,103,,,,2,2,1.0,0.0,1.0,0.0,,0.0-100.0,,1.0,678.0749999,0.0,0.26463816,0.0,0.636100213,1.0,0.646048507,0.0,0.265607101,True,,5f443f239d4eda77437dae01,,1695197,103,,evan-feature22,full_rf_a,,1
73,6741,104,,,,SLOW,SLOW,,,1.0,0.0,,0.0-101.0,,-3.0,,1.0,0.314340707,0.0,0.667795927,1.0,0.613630805,0.0,0.25,True,,5f443f239d4eda77437dae01,,1701019,104,,evan-feature22,full_rf_a,,1
74,6742,105,,,,2,2,0.0,0.0,1.0,0.0,,0.0-102.0,,0.0,1182.78,1.0,0.28685784,1.0,0.6622549529999999,0.0,0.652154117,0.0,0.25,True,,5f443f239d4eda77437dae01,,1711993,105,,evan-feature22,full_rf_a,,1
75,6743,106,,,,2,2,1.0,0.0,0.0,-1.0,,0.0-103.0,,0.0,1161.07,0.0,0.304106554,1.0,0.631289538,1.0,0.707041942,0.0,0.29314237,True,,5f443f239d4eda77437dae01,,1722949,106,,evan-feature22,full_rf_a,,0
76,6744,107,,,,2,2,1.0,1.0,0.0,-1.0,,0.0-104.0,,-1.0,1204.555,0.0,0.304806932,1.0,0.571167718,1.0,0.680472346,1.0,0.25,True,,5f443f239d4eda77437dae01,,1733965,107,,evan-feature22,full_rf_a,,0
77,6745,108,,,,1,1,0.0,0.0,0.0,-1.0,,0.0-105.0,,0.0,1043.325,0.0,0.37919861,0.0,0.5724849710000001,1.0,0.705638003,0.0,0.30179300600000003,True,,5f443f239d4eda77437dae01,,1744836,108,,evan-feature22,full_rf_a,,1
78,6746,109,,,,2,2,1.0,0.0,0.0,-1.0,,0.0-106.0,,0.0,1198.295,1.0,0.464277969,1.0,0.554034373,1.0,0.7372627340000001,0.0,0.264699741,True,,5f443f239d4eda77437dae01,,1755867,109,,evan-feature22,full_rf_a,,1
79,6747,110,,,,2,2,1.0,1.0,1.0,0.0,,0.0-107.0,,1.0,991.465,0.0,0.465104323,1.0,0.530793115,1.0,0.75,1.0,0.31683071,True,,5f443f239d4eda77437dae01,,1766669,110,,evan-feature22,full_rf_a,,0
80,6748,111,,,,1,1,0.0,1.0,0.0,-1.0,,0.0-108.0,,-1.0,1442.35,0.0,0.465104323,1.0,0.530793115,1.0,0.75,0.0,0.31683071,True,,5f443f239d4eda77437dae01,,1777925,111,,evan-feature22,full_rf_a,,1
81,6749,112,,,,1,1,1.0,1.0,0.0,-1.0,,0.0-109.0,,-1.0,602.985,1.0,0.46833986,1.0,0.570249239,1.0,0.7244472590000001,1.0,0.364114163,True,,5f443f239d4eda77437dae01,,1788343,112,,evan-feature22,full_rf_a,,0
82,6750,113,,,,2,2,1.0,0.0,0.0,-1.0,,0.0-110.0,,0.0,639.1,1.0,0.445444024,0.0,0.649673355,1.0,0.6845441290000001,0.0,0.300660449,True,,5f443f239d4eda77437dae01,,1798780,113,,evan-feature22,full_rf_a,,1
83,6751,114,,,,2,2,1.0,0.0,0.0,-1.0,,0.0-111.0,,0.0,916.535,1.0,0.39909721299999995,1.0,0.6715179509999999,1.0,0.742310028,0.0,0.35496088299999995,True,,5f443f239d4eda77437dae01,,1809539,114,,evan-feature22,full_rf_a,,0
84,6752,115,,,,2,2,1.0,1.0,0.0,-1.0,,0.0-112.0,,-1.0,1245.43,1.0,0.37956104799999996,1.0,0.694725302,1.0,0.7181651309999999,1.0,0.38726906299999997,True,,5f443f239d4eda77437dae01,,1820617,115,,evan-feature22,full_rf_a,,0
85,6753,116,,,,2,2,1.0,0.0,0.0,-1.0,,0.0-113.0,,0.0,900.595,1.0,0.404995034,1.0,0.724375412,1.0,0.6910946859999999,0.0,0.387187347,True,,5f443f239d4eda77437dae01,,1831343,116,,evan-feature22,full_rf_a,,0
86,6754,117,,,,2,2,0.0,1.0,0.0,-1.0,,0.0-114.0,,-1.0,2039.19,0.0,0.461740803,0.0,0.75,0.0,0.75,1.0,0.34872038200000005,True,,5f443f239d4eda77437dae01,,1843183,117,,evan-feature22,full_rf_a,,0
87,6755,118,,,,2,2,1.0,0.0,1.0,0.0,,0.0-115.0,,1.0,859.18,0.0,0.43821380600000004,1.0,0.738833273,1.0,0.728286963,0.0,0.399538128,True,,5f443f239d4eda77437dae01,,1853860,118,,evan-feature22,full_rf_a,,0
88,6756,119,,,,1,1,0.0,0.0,0.0,-1.0,,0.0-116.0,,0.0,535.93,0.0,0.41709882,0.0,0.736666736,1.0,0.75,0.0,0.389095584,True,,5f443f239d4eda77437dae01,,1864230,119,,evan-feature22,full_rf_a,,1
89,6757,120,,,,2,2,0.0,0.0,0.0,-1.0,,0.0-117.0,,0.0,412.165,1.0,0.39749009799999996,1.0,0.744320029,0.0,0.75,0.0,0.363848678,True,,5f443f239d4eda77437dae01,,1874437,120,,evan-feature22,full_rf_a,,1
90,6758,121,,,,2,2,0.0,0.0,1.0,0.0,,0.0-118.0,,0.0,666.445,0.0,0.392653706,1.0,0.75,0.0,0.75,0.0,0.384386976,True,,5f443f239d4eda77437dae01,,1884918,121,,evan-feature22,full_rf_a,,0
91,6759,122,,,,1,1,0.0,1.0,1.0,0.0,,0.0-119.0,,0.0,1193.55,0.0,0.31190902600000003,1.0,0.75,1.0,0.732413819,0.0,0.413082932,True,,5f443f239d4eda77437dae01,,1895932,122,,evan-feature22,full_rf_a,,1
92,6760,123,,,,1,1,0.0,1.0,0.0,-1.0,,0.0-120.0,,-1.0,463.68,0.0,0.366917648,1.0,0.740073855,1.0,0.75,0.0,0.352861979,True,,5f443f239d4eda77437dae01,,1906218,123,,evan-feature22,full_rf_a,,0
93,6761,124,,,,2,2,1.0,0.0,0.0,-1.0,,0.0-121.0,,0.0,1029.69,1.0,0.3645172,1.0,0.721770713,1.0,0.75,0.0,0.404074511,True,,5f443f239d4eda77437dae01,,1917057,124,,evan-feature22,full_rf_a,,1
94,6762,125,,,,2,2,0.0,1.0,0.0,-1.0,,0.0-122.0,,-1.0,1340.48,1.0,0.35205600299999995,1.0,0.68983859,0.0,0.739735447,1.0,0.366895945,True,,5f443f239d4eda77437dae01,,1928239,125,,evan-feature22,full_rf_a,,0
95,6763,126,,,,2,2,1.0,0.0,0.0,-1.0,,0.0-123.0,,0.0,1368.285,1.0,0.40998722600000004,1.0,0.720859127,1.0,0.673854955,0.0,0.368528541,True,,5f443f239d4eda77437dae01,,1939443,126,,evan-feature22,full_rf_a,,0
96,6764,127,,,,1,1,0.0,1.0,1.0,0.0,,0.0-124.0,,0.0,784.335,0.0,0.353625316,1.0,0.75,1.0,0.695605473,1.0,0.38303674200000004,True,,5f443f239d4eda77437dae01,,1950038,127,,evan-feature22,full_rf_a,,1
97,6765,128,,,,2,2,1.0,0.0,0.0,-1.0,,0.0-125.0,,0.0,1415.265,1.0,0.359216989,0.0,0.75,1.0,0.6987915090000001,0.0,0.35169046200000004,True,,5f443f239d4eda77437dae01,,1961282,128,,evan-feature22,full_rf_a,,1
98,6766,129,,,,1,1,1.0,0.0,1.0,0.0,,0.0-126.0,,1.0,1036.94,1.0,0.35834496899999996,0.0,0.75,1.0,0.707067742,0.0,0.416763636,True,,5f443f239d4eda77437dae01,,1972154,129,,evan-feature22,full_rf_a,,1
99,6767,130,,,,2,2,0.0,0.0,1.0,0.0,,0.0-127.0,,0.0,498.73,1.0,0.38741613799999997,0.0,0.7177369570000001,0.0,0.734902455,0.0,0.49438664299999996,True,,5f443f239d4eda77437dae01,,1982477,130,,evan-feature22,full_rf_a,,1
100,6768,131,,,,2,2,0.0,1.0,0.0,-1.0,,0.0-128.0,,-1.0,488.2949999,0.0,0.405255252,1.0,0.7300466640000001,0.0,0.7027748070000001,1.0,0.504359668,True,,5f443f239d4eda77437dae01,,1992773,131,,evan-feature22,full_rf_a,,0
101,6769,132,,,,1,1,0.0,0.0,0.0,-1.0,,0.0-129.0,,0.0,713.0100001000001,0.0,0.40697073,0.0,0.7260142190000001,1.0,0.724461982,0.0,0.522779179,True,,5f443f239d4eda77437dae01,,2003289,132,,evan-feature22,full_rf_a,,1
102,6770,133,,,,2,2,1.0,1.0,0.0,-1.0,,0.0-130.0,,-1.0,461.1599999,1.0,0.43906215299999996,0.0,0.7252802340000001,1.0,0.719079934,1.0,0.5712990579999999,True,,5f443f239d4eda77437dae01,,2013564,133,,evan-feature22,full_rf_a,,1
103,6771,134,,,,2,2,0.0,0.0,0.0,-1.0,,0.0-131.0,,0.0,1002.37,1.0,0.4076705,1.0,0.73280499,0.0,0.681313127,0.0,0.523891346,True,,5f443f239d4eda77437dae01,,2024375,134,,evan-feature22,full_rf_a,,0
104,6772,135,,,,2,2,0.0,0.0,0.0,-1.0,,0.0-132.0,,0.0,1199.215,1.0,0.399102911,0.0,0.730498344,0.0,0.661080239,0.0,0.46742603,True,,5f443f239d4eda77437dae01,,2035404,135,,evan-feature22,full_rf_a,,0
105,6773,136,,,,2,2,1.0,0.0,1.0,0.0,,0.0-133.0,,1.0,1047.58,0.0,0.356477282,0.0,0.712296395,1.0,0.641812684,0.0,0.44868414,True,,5f443f239d4eda77437dae01,,2046265,136,,evan-feature22,full_rf_a,,0
106,6774,137,,,,2,2,1.0,1.0,0.0,-1.0,,0.0-134.0,,-1.0,980.62,0.0,0.462760722,1.0,0.692349322,1.0,0.700947931,1.0,0.394680266,True,,5f443f239d4eda77437dae01,,2057058,137,,evan-feature22,full_rf_a,,0
107,6775,138,,,,2,2,0.0,1.0,0.0,-1.0,,0.0-135.0,,-1.0,775.9250001,0.0,0.422306413,0.0,0.718375916,0.0,0.706340917,1.0,0.367787185,True,,5f443f239d4eda77437dae01,,2067668,138,,evan-feature22,full_rf_a,,0
108,6777,140,,,,1,1,1.0,1.0,0.0,-1.0,,0.0-137.0,,-1.0,683.85,1.0,0.4582233,1.0,0.643834117,1.0,0.75,0.0,0.39615823299999997,True,,5f443f239d4eda77437dae01,,2080101,140,,evan-feature22,full_rf_a,,1
109,6778,141,,,,2,2,1.0,0.0,0.0,-1.0,,0.0-138.0,,0.0,340.4699999,0.0,0.43813437899999996,1.0,0.651283804,1.0,0.729674191,0.0,0.37711048,True,,5f443f239d4eda77437dae01,,2090250,141,,evan-feature22,full_rf_a,,1
110,6779,142,,,,2,2,1.0,1.0,0.0,-1.0,,0.0-139.0,,-1.0,690.435,0.0,0.471199094,0.0,0.6470010979999999,1.0,0.715008097,1.0,0.410656191,True,,5f443f239d4eda77437dae01,,2100739,142,,evan-feature22,full_rf_a,,0
111,6780,143,,,,2,2,0.0,1.0,1.0,0.0,,0.0-140.0,,0.0,805.645,1.0,0.42486406,0.0,0.629771829,0.0,0.6550939960000001,1.0,0.459093873,True,,5f443f239d4eda77437dae01,,2111348,143,,evan-feature22,full_rf_a,,0
112,6781,144,,,,1,1,1.0,0.0,1.0,0.0,,0.0-141.0,,1.0,492.475,1.0,0.4803197,0.0,0.645842715,1.0,0.6421749920000001,1.0,0.443092151,True,,5f443f239d4eda77437dae01,,2121648,144,,evan-feature22,full_rf_a,,1
113,6782,145,,,,2,2,1.0,1.0,1.0,0.0,,0.0-142.0,,1.0,866.6599999,0.0,0.521848997,1.0,0.735801074,1.0,0.6691348460000001,1.0,0.45259351600000003,True,,5f443f239d4eda77437dae01,,2132322,145,,evan-feature22,full_rf_a,,1
114,6783,146,,,,2,2,1.0,0.0,0.0,-1.0,,0.0-143.0,,0.0,1889.565,0.0,0.49565621299999996,1.0,0.742400847,1.0,0.661512553,0.0,0.483110831,True,,5f443f239d4eda77437dae01,,2144039,146,,evan-feature22,full_rf_a,,0
115,6784,147,,,,2,2,1.0,1.0,1.0,0.0,,0.0-144.0,,1.0,865.89,1.0,0.521564361,1.0,0.731078632,1.0,0.6774886809999999,1.0,0.483263956,True,,5f443f239d4eda77437dae01,,2154733,147,,evan-feature22,full_rf_a,,0
116,6785,148,,,,2,2,1.0,0.0,1.0,0.0,,0.0-145.0,,1.0,1552.995,1.0,0.558893102,1.0,0.719810023,1.0,0.67461031,0.0,0.499349834,True,,5f443f239d4eda77437dae01,,2166119,148,,evan-feature22,full_rf_a,,0
117,6786,149,,,,2,2,0.0,1.0,0.0,-1.0,,0.0-146.0,,-1.0,1094.88,1.0,0.611031046,1.0,0.75,0.0,0.688072995,1.0,0.5321422729999999,True,,5f443f239d4eda77437dae01,,2177037,149,,evan-feature22,full_rf_a,,0
118,6787,150,,,,2,2,0.0,1.0,1.0,0.0,,0.0-147.0,,0.0,1240.315,1.0,0.633223941,1.0,0.713567728,0.0,0.75,1.0,0.48185314700000004,True,,5f443f239d4eda77437dae01,,2188084,150,,evan-feature22,full_rf_a,,0
119,6788,151,,,,1,1,1.0,0.0,1.0,0.0,,0.0-148.0,,1.0,517.51,1.0,0.664001694,0.0,0.705509768,1.0,0.75,1.0,0.500211065,True,,5f443f239d4eda77437dae01,,2198413,151,,evan-feature22,full_rf_a,,1
120,6789,152,,,,1,1,1.0,1.0,0.0,-1.0,,0.0-149.0,,-1.0,1496.555,1.0,0.664001694,1.0,0.705509768,1.0,0.75,1.0,0.500211065,True,,5f443f239d4eda77437dae01,,2209723,152,,evan-feature22,full_rf_a,,0
121,6790,153,,,,2,2,1.0,0.0,0.0,-1.0,,0.0-150.0,,0.0,799.735,0.0,0.696508041,1.0,0.71066027,1.0,0.717028709,0.0,0.49792991,True,,5f443f239d4eda77437dae01,,2220318,153,,evan-feature22,full_rf_a,,1
122,6791,154,,,,2,2,0.0,1.0,1.0,0.0,,0.0-151.0,,0.0,1174.61,1.0,0.699883272,0.0,0.75,0.0,0.713543895,1.0,0.496962643,True,,5f443f239d4eda77437dae01,,2231300,154,,evan-feature22,full_rf_a,,0
123,6792,155,,,,1,1,1.0,1.0,0.0,-1.0,,0.0-152.0,,-1.0,1258.875,1.0,0.741163419,1.0,0.75,1.0,0.64691024,0.0,0.513858197,True,,5f443f239d4eda77437dae01,,2242379,155,,evan-feature22,full_rf_a,,1
124,6793,156,,,,1,1,0.0,1.0,1.0,0.0,,0.0-153.0,,0.0,1415.23,0.0,0.75,1.0,0.70816558,1.0,0.594499079,1.0,0.48502124,True,,5f443f239d4eda77437dae01,,2253602,156,,evan-feature22,full_rf_a,,0
125,6794,157,,,,2,2,0.0,0.0,0.0,-1.0,,0.0-154.0,,0.0,1339.91,1.0,0.75,1.0,0.721848901,0.0,0.62197249,0.0,0.48263586399999997,True,,5f443f239d4eda77437dae01,,2264734,157,,evan-feature22,full_rf_a,,1
126,6795,158,,,,2,2,1.0,0.0,1.0,0.0,,0.0-155.0,,1.0,1252.0,0.0,0.75,1.0,0.74813071,1.0,0.584357161,0.0,0.411477782,True,,5f443f239d4eda77437dae01,,2275812,158,,evan-feature22,full_rf_a,,0
127,6796,159,,,,2,2,1.0,1.0,0.0,-1.0,,0.0-156.0,,-1.0,1500.48,1.0,0.75,1.0,0.75,1.0,0.52287236,1.0,0.488290656,True,,5f443f239d4eda77437dae01,,2287134,159,,evan-feature22,full_rf_a,,0
128,6797,160,,,,1,1,1.0,1.0,0.0,-1.0,,0.0-157.0,,-1.0,1086.405,1.0,0.75,1.0,0.75,0.0,0.544321581,0.0,0.53143059,True,,5f443f239d4eda77437dae01,,2298012,160,,evan-feature22,full_rf_a,,1
129,6798,161,,,,2,2,1.0,1.0,0.0,-1.0,,0.0-158.0,,-1.0,802.85,1.0,0.726754564,1.0,0.75,1.0,0.5129306370000001,1.0,0.530592445,True,,5f443f239d4eda77437dae01,,2308640,161,,evan-feature22,full_rf_a,,1
130,6799,162,,,,2,2,0.0,1.0,1.0,0.0,,0.0-159.0,,0.0,1134.68,1.0,0.75,1.0,0.7392590729999999,0.0,0.479875835,1.0,0.547007051,True,,5f443f239d4eda77437dae01,,2319586,162,,evan-feature22,full_rf_a,,0
131,6800,163,,,,2,2,1.0,0.0,1.0,0.0,,0.0-160.0,,1.0,1254.44,1.0,0.75,1.0,0.7393376979999999,1.0,0.546045419,0.0,0.541267353,True,,5f443f239d4eda77437dae01,,2330660,163,,evan-feature22,full_rf_a,,0
132,6801,164,,,,1,1,0.0,1.0,1.0,0.0,,0.0-161.0,,0.0,2358.845,0.0,0.75,1.0,0.75,0.0,0.485725895,0.0,0.527625395,True,,5f443f239d4eda77437dae01,,2342833,164,,evan-feature22,full_rf_a,,1
133,6802,165,,,,2,2,1.0,0.0,0.0,-1.0,,0.0-162.0,,0.0,2234.07,1.0,0.75,1.0,0.725087974,1.0,0.488603595,0.0,0.504019206,True,,5f443f239d4eda77437dae01,,2354879,165,,evan-feature22,full_rf_a,,1
134,6803,166,,,,1,1,0.0,1.0,0.0,-1.0,,0.0-163.0,,-1.0,1275.81,0.0,0.745504295,1.0,0.75,0.0,0.452379914,0.0,0.50131194,True,,5f443f239d4eda77437dae01,,2365960,166,,evan-feature22,full_rf_a,,1
135,6804,167,,,,2,2,0.0,0.0,0.0,-1.0,,0.0-164.0,,0.0,1511.115,1.0,0.728513874,1.0,0.75,0.0,0.44125567200000004,0.0,0.531454591,True,,5f443f239d4eda77437dae01,,2377263,167,,evan-feature22,full_rf_a,,1
136,6805,168,,,,2,2,1.0,0.0,1.0,0.0,,0.0-165.0,,1.0,1239.2,1.0,0.73790804,1.0,0.75,1.0,0.413036656,0.0,0.524619035,True,,5f443f239d4eda77437dae01,,2388329,168,,evan-feature22,full_rf_a,,0
137,6806,169,,,,2,2,0.0,0.0,0.0,-1.0,,0.0-166.0,,0.0,1495.205,1.0,0.7080961309999999,1.0,0.708666865,0.0,0.431915581,0.0,0.481819489,True,,5f443f239d4eda77437dae01,,2399632,169,,evan-feature22,full_rf_a,,0
138,6807,170,,,,2,2,0.0,0.0,0.0,-1.0,,0.0-167.0,,0.0,2187.61,1.0,0.721378003,1.0,0.71605913,0.0,0.36642387,0.0,0.5036739929999999,True,,5f443f239d4eda77437dae01,,2411636,170,,evan-feature22,full_rf_a,,0
139,6808,171,,,,2,2,1.0,1.0,0.0,-1.0,,0.0-168.0,,-1.0,524.585,1.0,0.7340618959999999,0.0,0.699323252,1.0,0.35298046299999997,1.0,0.511241692,True,,5f443f239d4eda77437dae01,,2421978,171,,evan-feature22,full_rf_a,,0
140,6809,172,,,,2,2,0.0,1.0,1.0,0.0,,0.0-169.0,,0.0,489.4099999,0.0,0.75,0.0,0.70412698,0.0,0.380734814,1.0,0.529580116,True,,5f443f239d4eda77437dae01,,2432292,172,,evan-feature22,full_rf_a,,0
141,6810,173,,,,2,2,1.0,1.0,0.0,-1.0,,0.0-170.0,,-1.0,1394.2,1.0,0.7436654909999999,1.0,0.711182751,1.0,0.41125331,1.0,0.49554405,True,,5f443f239d4eda77437dae01,,2443516,173,,evan-feature22,full_rf_a,,0
142,6811,174,,,,2,2,0.0,0.0,0.0,-1.0,,0.0-171.0,,0.0,1375.44,0.0,0.731607915,0.0,0.651774583,0.0,0.35688023,0.0,0.45194491600000003,True,,5f443f239d4eda77437dae01,,2454714,174,,evan-feature22,full_rf_a,,0
143,6812,175,,,,1,1,1.0,0.0,1.0,0.0,,0.0-172.0,,1.0,1409.575,1.0,0.75,0.0,0.75,1.0,0.283145374,0.0,0.528608005,True,,5f443f239d4eda77437dae01,,2465923,175,,evan-feature22,full_rf_a,,1
144,6813,176,,,,2,2,1.0,1.0,1.0,0.0,,0.0-173.0,,1.0,1085.215,1.0,0.7491416890000001,1.0,0.7423785959999999,1.0,0.29135870399999997,1.0,0.498888318,True,,5f443f239d4eda77437dae01,,2476834,176,,evan-feature22,full_rf_a,,1
145,6814,177,,,,2,2,0.0,1.0,1.0,0.0,,0.0-174.0,,0.0,1302.14,1.0,0.708569387,1.0,0.717682277,0.0,0.294421699,1.0,0.493838163,True,,5f443f239d4eda77437dae01,,2487954,177,,evan-feature22,full_rf_a,,0
146,6815,178,,,,2,2,0.0,1.0,0.0,-1.0,,0.0-175.0,,-1.0,491.085,1.0,0.75,0.0,0.7383382159999999,0.0,0.356098707,1.0,0.442533405,True,,5f443f239d4eda77437dae01,,2498270,178,,evan-feature22,full_rf_a,,0
147,6816,179,,,,2,2,1.0,1.0,0.0,-1.0,,0.0-176.0,,-1.0,1138.885,0.0,0.744527075,1.0,0.75,1.0,0.334127506,1.0,0.393165805,True,,5f443f239d4eda77437dae01,,2509209,179,,evan-feature22,full_rf_a,,0
148,6817,180,,,,2,2,0.0,1.0,0.0,-1.0,,0.0-177.0,,-1.0,866.495,1.0,0.75,1.0,0.75,0.0,0.33571021799999995,1.0,0.350393962,True,,5f443f239d4eda77437dae01,,2519864,180,,evan-feature22,full_rf_a,,0
149,6818,181,,,,2,2,0.0,0.0,0.0,-1.0,,0.0-178.0,,0.0,764.35,1.0,0.75,0.0,0.75,0.0,0.313628297,0.0,0.36349657399999996,True,,5f443f239d4eda77437dae01,,2530476,181,,evan-feature22,full_rf_a,,0
150,6819,182,,,,2,2,0.0,1.0,1.0,0.0,,0.0-179.0,,0.0,879.6850001,1.0,0.75,1.0,0.734284182,0.0,0.262667667,1.0,0.380199119,True,,5f443f239d4eda77437dae01,,2541165,182,,evan-feature22,full_rf_a,,0
151,6820,183,,,,1,1,1.0,0.0,0.0,-1.0,,0.0-180.0,,0.0,3085.1,1.0,0.75,0.0,0.75,0.0,0.25,1.0,0.394494013,True,,5f443f239d4eda77437dae01,,2554055,183,,evan-feature22,full_rf_a,,1
152,6821,184,,,,2,2,0.0,0.0,1.0,0.0,,0.0-181.0,,0.0,1806.025,1.0,0.722298145,1.0,0.7357822340000001,0.0,0.25,0.0,0.319142121,True,,5f443f239d4eda77437dae01,,2565692,184,,evan-feature22,full_rf_a,,1
153,6822,185,,,,2,2,0.0,0.0,1.0,0.0,,0.0-182.0,,0.0,1757.975,1.0,0.73149275,0.0,0.724276446,0.0,0.305856907,0.0,0.281315057,True,,5f443f239d4eda77437dae01,,2577265,185,,evan-feature22,full_rf_a,,0
154,6823,186,,,,1,1,1.0,1.0,0.0,-1.0,,0.0-183.0,,-1.0,1058.965,1.0,0.7458732690000001,1.0,0.7336382459999999,0.0,0.272571964,0.0,0.266021999,True,,5f443f239d4eda77437dae01,,2588140,186,,evan-feature22,full_rf_a,,1
155,6824,187,,,,2,2,0.0,0.0,0.0,-1.0,,0.0-184.0,,0.0,1166.805,1.0,0.705579037,1.0,0.720778292,0.0,0.320238144,0.0,0.30971744,True,,5f443f239d4eda77437dae01,,2599128,187,,evan-feature22,full_rf_a,,1
156,6825,188,,,,2,2,0.0,0.0,0.0,-1.0,,0.0-185.0,,0.0,1405.855,1.0,0.700425648,0.0,0.7198784009999999,0.0,0.272590393,0.0,0.304182931,True,,5f443f239d4eda77437dae01,,2610343,188,,evan-feature22,full_rf_a,,0
157,6826,189,,,,1,1,1.0,0.0,0.0,-1.0,,0.0-186.0,,0.0,1523.27,1.0,0.735590785,0.0,0.722714973,0.0,0.25,1.0,0.323421091,True,,5f443f239d4eda77437dae01,,2621707,189,,evan-feature22,full_rf_a,,1
158,6827,190,,,,2,2,0.0,0.0,0.0,-1.0,,0.0-187.0,,0.0,880.7000001,0.0,0.724807662,0.0,0.63146213,0.0,0.36836492600000004,0.0,0.34592153299999995,True,,5f443f239d4eda77437dae01,,2632416,190,,evan-feature22,full_rf_a,,1
159,6828,191,,,,2,2,0.0,0.0,0.0,-1.0,,0.0-188.0,,0.0,722.315,1.0,0.7352796909999999,0.0,0.555111392,0.0,0.36003922,0.0,0.31433779999999995,True,,5f443f239d4eda77437dae01,,2642960,191,,evan-feature22,full_rf_a,,0
160,6829,192,notice,,,,,,,,,,0.0-189.0,"{""Q0"":""No""}",,13212.0,,,,,,,,,True,,5f443f239d4eda77437dae01,,2656175,192,Q,survey-text,full_rf_a,,1
161,6830,193,track1,,[1],,,,,,,,0.0-190.0,"{""Q0"":""no""}",,4540.0,,,,,,,,,True,,5f443f239d4eda77437dae01,,2660719,193,Q,evan-quiz,full_rf_a,,1
162,6831,194,track2,,[0],,,,,,,,0.0-191.0,"{""Q0"":""yes""}",,5745.0,,,,,,,,,True,,5f443f239d4eda77437dae01,,2666467,194,Q,evan-quiz,full_rf_a,,1
163,6832,195,strat,,,,,,,,,,0.0-192.0,"{""Q0"":""When a door had a yellow alien behind it i picked the other door on the next round""}",,44666.0,,,,,,,,,True,,5f443f239d4eda77437dae01,,2711135,195,Q,survey-text,full_rf_a,,1
