,index,Unnamed: 0,Q_name,button_pressed,choice_idxs,chosen_pos,chosen_state,chosen_state_f_1_outcome,chosen_state_f_2_outcome,f_1_reward,f_2_reward,incor_questions,internal_node_id,responses,reward_received,rt,s_1_f_1_outcome,s_1_f_1_prob,s_1_f_2_outcome,s_1_f_2_prob,s_2_f_1_outcome,s_2_f_1_prob,s_2_f_2_outcome,s_2_f_2_prob,safe_first,stimulus,subjectID,success,time_elapsed,trial_index,trial_num,trial_type,version,view_history,switching
0,43527,25,,,,1,1,0.0,1.0,-1.0,0.0,,0.0-27.0,,0.0,1985.0,0.0,0.6,1.0,0.6,0.0,0.4,1.0,0.4,False,,55ba0babfdf99b09bd1bec17,,1060906,25,,evan-feature22,full_pf_b,,0
1,43528,26,,,,2,2,0.0,1.0,-1.0,0.0,,0.0-28.0,,0.0,1278.0,1.0,0.608053294,0.0,0.63424552,0.0,0.397152172,1.0,0.347069101,False,,55ba0babfdf99b09bd1bec17,,1072002,26,,evan-feature22,full_pf_b,,1
2,43529,27,,,,2,2,0.0,0.0,-1.0,0.0,,0.0-29.0,,0.0,1032.0,1.0,0.642237155,1.0,0.648566321,0.0,0.389407674,0.0,0.285525717,False,,55ba0babfdf99b09bd1bec17,,1082861,27,,evan-feature22,full_pf_b,,0
3,43530,28,,,,2,2,1.0,1.0,-1.0,0.0,,0.0-30.0,,-1.0,1154.0,1.0,0.661086576,0.0,0.630492543,1.0,0.399058924,1.0,0.25,False,,55ba0babfdf99b09bd1bec17,,1093828,28,,evan-feature22,full_pf_b,,0
4,43531,29,,,,2,2,0.0,1.0,0.0,1.0,,0.0-31.0,,1.0,1012.0,1.0,0.631324137,1.0,0.6269842929999999,0.0,0.38734784299999997,1.0,0.25,False,,55ba0babfdf99b09bd1bec17,,1104662,29,,evan-feature22,full_pf_b,,0
5,43532,30,,,,2,2,1.0,0.0,0.0,1.0,,0.0-32.0,,0.0,935.0,1.0,0.6381991370000001,1.0,0.68987999,1.0,0.384107265,0.0,0.271332943,False,,55ba0babfdf99b09bd1bec17,,1115406,30,,evan-feature22,full_pf_b,,0
6,43533,31,,,,2,2,0.0,1.0,-1.0,0.0,,0.0-33.0,,0.0,912.0,1.0,0.66034901,0.0,0.742641349,0.0,0.360225629,1.0,0.25,False,,55ba0babfdf99b09bd1bec17,,1126134,31,,evan-feature22,full_pf_b,,0
7,43534,32,,,,2,2,0.0,1.0,-1.0,0.0,,0.0-34.0,,0.0,1244.0,1.0,0.638612418,0.0,0.75,0.0,0.367273939,1.0,0.25,False,,55ba0babfdf99b09bd1bec17,,1137188,32,,evan-feature22,full_pf_b,,0
8,43535,33,,,,2,2,1.0,0.0,0.0,1.0,,0.0-35.0,,0.0,1488.0,1.0,0.624340629,1.0,0.75,1.0,0.425829545,0.0,0.25,False,,55ba0babfdf99b09bd1bec17,,1148489,33,,evan-feature22,full_pf_b,,0
9,43536,34,,,,2,2,0.0,0.0,0.0,1.0,,0.0-36.0,,0.0,816.0,1.0,0.621999804,0.0,0.75,0.0,0.368609357,0.0,0.25,False,,55ba0babfdf99b09bd1bec17,,1159105,34,,evan-feature22,full_pf_b,,0
10,43537,35,,,,2,2,0.0,0.0,-1.0,0.0,,0.0-37.0,,0.0,1247.0,1.0,0.62666403,1.0,0.75,0.0,0.311151498,0.0,0.25,False,,55ba0babfdf99b09bd1bec17,,1170169,35,,evan-feature22,full_pf_b,,0
11,43538,36,,,,2,2,0.0,0.0,0.0,1.0,,0.0-38.0,,0.0,1491.0,1.0,0.6819650009999999,0.0,0.75,0.0,0.310763048,0.0,0.25,False,,55ba0babfdf99b09bd1bec17,,1181477,36,,evan-feature22,full_pf_b,,0
12,43539,37,,,,2,2,0.0,1.0,-1.0,0.0,,0.0-39.0,,0.0,795.0,1.0,0.740626951,1.0,0.75,0.0,0.25,1.0,0.25,False,,55ba0babfdf99b09bd1bec17,,1192093,37,,evan-feature22,full_pf_b,,0
13,43540,38,,,,2,2,1.0,1.0,-1.0,0.0,,0.0-40.0,,-1.0,1295.0,1.0,0.739599242,0.0,0.742034978,1.0,0.25397114600000004,1.0,0.25,False,,55ba0babfdf99b09bd1bec17,,1203235,38,,evan-feature22,full_pf_b,,0
14,43541,39,,,,1,1,1.0,1.0,-1.0,0.0,,0.0-41.0,,-1.0,1603.0,1.0,0.732341315,1.0,0.72735643,0.0,0.25,1.0,0.25,False,,55ba0babfdf99b09bd1bec17,,1214663,39,,evan-feature22,full_pf_b,,1
15,43542,40,,,,1,1,0.0,1.0,-1.0,0.0,,0.0-42.0,,0.0,884.0,0.0,0.7062287770000001,1.0,0.75,1.0,0.29002151,0.0,0.288256649,False,,55ba0babfdf99b09bd1bec17,,1225362,40,,evan-feature22,full_pf_b,,0
16,43543,41,,,,1,1,1.0,1.0,-1.0,0.0,,0.0-43.0,,-1.0,1474.0,1.0,0.7086029209999999,1.0,0.75,0.0,0.274129113,0.0,0.262851608,False,,55ba0babfdf99b09bd1bec17,,1236638,41,,evan-feature22,full_pf_b,,0
17,43544,42,,,,1,1,0.0,1.0,-1.0,0.0,,0.0-44.0,,0.0,960.0,0.0,0.669189651,1.0,0.727614338,0.0,0.298444036,0.0,0.296944518,False,,55ba0babfdf99b09bd1bec17,,1247408,42,,evan-feature22,full_pf_b,,0
18,43545,43,,,,2,2,1.0,1.0,-1.0,0.0,,0.0-45.0,,-1.0,1437.0,0.0,0.6819912929999999,1.0,0.7179434290000001,1.0,0.265003961,1.0,0.28157921199999997,False,,55ba0babfdf99b09bd1bec17,,1258670,43,,evan-feature22,full_pf_b,,1
19,43546,44,,,,1,1,0.0,0.0,0.0,1.0,,0.0-46.0,,0.0,1256.0,0.0,0.665275002,0.0,0.723065271,1.0,0.260414971,0.0,0.30973870000000003,False,,55ba0babfdf99b09bd1bec17,,1269742,44,,evan-feature22,full_pf_b,,1
20,43547,45,,,,1,1,1.0,0.0,-1.0,0.0,,0.0-47.0,,-1.0,831.0,1.0,0.6660593260000001,0.0,0.728032907,1.0,0.30922817,0.0,0.338778608,False,,55ba0babfdf99b09bd1bec17,,1280379,45,,evan-feature22,full_pf_b,,0
21,43548,46,,,,2,2,0.0,1.0,-1.0,0.0,,0.0-48.0,,0.0,850.0,1.0,0.702068785,0.0,0.6528750879999999,0.0,0.287329608,1.0,0.35789613200000003,False,,55ba0babfdf99b09bd1bec17,,1291019,46,,evan-feature22,full_pf_b,,1
22,43549,47,,,,2,2,0.0,0.0,-1.0,0.0,,0.0-49.0,,0.0,1029.0,0.0,0.651939787,1.0,0.636725589,0.0,0.284834488,0.0,0.358563756,False,,55ba0babfdf99b09bd1bec17,,1301852,47,,evan-feature22,full_pf_b,,0
23,43550,48,,,,2,2,1.0,0.0,0.0,1.0,,0.0-50.0,,0.0,954.0,0.0,0.67573929,1.0,0.612550049,1.0,0.37130387600000003,0.0,0.383542402,False,,55ba0babfdf99b09bd1bec17,,1312617,48,,evan-feature22,full_pf_b,,0
24,43551,49,,,,1,1,1.0,0.0,0.0,1.0,,0.0-51.0,,0.0,1273.0,1.0,0.620753801,0.0,0.60513644,0.0,0.385529434,0.0,0.340361743,False,,55ba0babfdf99b09bd1bec17,,1323687,49,,evan-feature22,full_pf_b,,1
25,43552,50,,,,1,1,0.0,1.0,0.0,1.0,,0.0-52.0,,1.0,826.0,0.0,0.673564893,1.0,0.672437924,0.0,0.292955382,0.0,0.337633795,False,,55ba0babfdf99b09bd1bec17,,1334314,50,,evan-feature22,full_pf_b,,0
26,43553,51,,,,2,2,0.0,0.0,-1.0,0.0,,0.0-53.0,,0.0,1056.0,0.0,0.6749427,1.0,0.724197502,0.0,0.32391132100000003,0.0,0.350995264,False,,55ba0babfdf99b09bd1bec17,,1345168,51,,evan-feature22,full_pf_b,,1
27,43554,52,,,,1,1,1.0,1.0,-1.0,0.0,,0.0-54.0,,-1.0,1379.0,1.0,0.6940159379999999,1.0,0.75,1.0,0.31710554399999996,0.0,0.413450341,False,,55ba0babfdf99b09bd1bec17,,1356348,52,,evan-feature22,full_pf_b,,1
28,43555,53,,,,1,1,1.0,1.0,-1.0,0.0,,0.0-55.0,,-1.0,896.0,1.0,0.6916018270000001,1.0,0.69001187,1.0,0.261817804,0.0,0.40038635,False,,55ba0babfdf99b09bd1bec17,,1367065,53,,evan-feature22,full_pf_b,,0
29,43556,54,,,,1,1,0.0,1.0,-1.0,0.0,,0.0-56.0,,0.0,1319.0,0.0,0.641061544,1.0,0.71337992,0.0,0.277296461,1.0,0.47372791700000005,False,,55ba0babfdf99b09bd1bec17,,1378188,54,,evan-feature22,full_pf_b,,0
30,43557,55,,,,2,2,0.0,1.0,-1.0,0.0,,0.0-57.0,,0.0,1487.0,0.0,0.6082438520000001,0.0,0.708471106,0.0,0.28745137,1.0,0.564174476,False,,55ba0babfdf99b09bd1bec17,,1389471,55,,evan-feature22,full_pf_b,,1
31,43558,56,,,,1,1,1.0,1.0,-1.0,0.0,,0.0-58.0,,-1.0,1364.0,1.0,0.6051112120000001,1.0,0.7118147229999999,1.0,0.272390611,1.0,0.5595149939999999,False,,55ba0babfdf99b09bd1bec17,,1400663,56,,evan-feature22,full_pf_b,,1
32,43559,57,,,,1,1,0.0,1.0,-1.0,0.0,,0.0-59.0,,0.0,662.0,0.0,0.582420852,1.0,0.635867583,0.0,0.31089574,1.0,0.5227206520000001,False,,55ba0babfdf99b09bd1bec17,,1411150,57,,evan-feature22,full_pf_b,,0
33,43560,58,,,,1,1,1.0,1.0,0.0,1.0,,0.0-60.0,,1.0,787.0,1.0,0.623195575,1.0,0.655026044,0.0,0.25,1.0,0.560387538,False,,55ba0babfdf99b09bd1bec17,,1421756,58,,evan-feature22,full_pf_b,,0
34,43561,59,,,,2,2,1.0,0.0,-1.0,0.0,,0.0-61.0,,-1.0,1022.0,0.0,0.601889598,1.0,0.678198724,1.0,0.25,0.0,0.559922936,False,,55ba0babfdf99b09bd1bec17,,1432592,59,,evan-feature22,full_pf_b,,1
35,43562,60,,,,2,2,0.0,1.0,-1.0,0.0,,0.0-62.0,,0.0,968.0,0.0,0.601259914,1.0,0.704681482,0.0,0.33908969299999997,1.0,0.505003715,False,,55ba0babfdf99b09bd1bec17,,1443378,60,,evan-feature22,full_pf_b,,0
36,43563,61,,,,1,1,1.0,0.0,-1.0,0.0,,0.0-63.0,,-1.0,1195.0,1.0,0.59645454,0.0,0.710437172,0.0,0.327441879,0.0,0.391749613,False,,55ba0babfdf99b09bd1bec17,,1454377,61,,evan-feature22,full_pf_b,,1
37,43564,62,,,,1,1,0.0,1.0,-1.0,0.0,,0.0-64.0,,0.0,980.0,0.0,0.529473,1.0,0.636758527,1.0,0.301338063,1.0,0.365661481,False,,55ba0babfdf99b09bd1bec17,,1465174,62,,evan-feature22,full_pf_b,,0
38,43565,63,,,,2,2,1.0,1.0,0.0,1.0,,0.0-65.0,,1.0,890.0,0.0,0.541657162,1.0,0.634541962,1.0,0.343535366,1.0,0.371763742,False,,55ba0babfdf99b09bd1bec17,,1475854,63,,evan-feature22,full_pf_b,,1
39,43566,64,,,,1,1,1.0,0.0,-1.0,0.0,,0.0-66.0,,-1.0,1060.0,1.0,0.5707533260000001,0.0,0.589121171,0.0,0.326428396,0.0,0.43961622899999997,False,,55ba0babfdf99b09bd1bec17,,1486709,64,,evan-feature22,full_pf_b,,1
40,43567,65,,,,1,1,1.0,1.0,-1.0,0.0,,0.0-67.0,,-1.0,901.0,1.0,0.5707533260000001,1.0,0.589121171,0.0,0.326428396,1.0,0.43961622899999997,False,,55ba0babfdf99b09bd1bec17,,1497430,65,,evan-feature22,full_pf_b,,0
41,43568,66,,,,2,2,0.0,0.0,-1.0,0.0,,0.0-68.0,,0.0,954.0,1.0,0.506271295,1.0,0.641775594,0.0,0.37149690700000004,0.0,0.404330166,False,,55ba0babfdf99b09bd1bec17,,1508169,66,,evan-feature22,full_pf_b,,1
42,43569,67,,,,2,2,1.0,1.0,0.0,1.0,,0.0-69.0,,1.0,991.0,0.0,0.455642565,1.0,0.623605825,1.0,0.358753011,1.0,0.346174041,False,,55ba0babfdf99b09bd1bec17,,1518979,67,,evan-feature22,full_pf_b,,0
43,43570,68,,,,2,2,1.0,0.0,0.0,1.0,,0.0-70.0,,0.0,810.0,0.0,0.483677308,1.0,0.5904681070000001,1.0,0.402218411,0.0,0.35344697,False,,55ba0babfdf99b09bd1bec17,,1529595,68,,evan-feature22,full_pf_b,,0
44,43571,69,,,,2,2,1.0,0.0,0.0,1.0,,0.0-71.0,,0.0,830.0,0.0,0.394210977,0.0,0.558925494,1.0,0.540052017,0.0,0.35182128700000004,False,,55ba0babfdf99b09bd1bec17,,1540230,69,,evan-feature22,full_pf_b,,0
45,43572,70,,,,2,2,0.0,1.0,-1.0,0.0,,0.0-72.0,,0.0,1008.0,1.0,0.382300414,1.0,0.577670603,0.0,0.607608448,1.0,0.378261578,False,,55ba0babfdf99b09bd1bec17,,1551058,70,,evan-feature22,full_pf_b,,0
46,43573,71,,,,2,2,0.0,1.0,-1.0,0.0,,0.0-73.0,,0.0,666.0,0.0,0.357596762,1.0,0.5929076529999999,0.0,0.6579790010000001,1.0,0.401326777,False,,55ba0babfdf99b09bd1bec17,,1561527,71,,evan-feature22,full_pf_b,,0
47,43574,72,,,,2,2,0.0,1.0,-1.0,0.0,,0.0-74.0,,0.0,715.0,0.0,0.362033495,1.0,0.582308608,0.0,0.649195052,1.0,0.355158505,False,,55ba0babfdf99b09bd1bec17,,1572057,72,,evan-feature22,full_pf_b,,0
48,43575,73,,,,2,2,1.0,0.0,-1.0,0.0,,0.0-75.0,,-1.0,744.0,0.0,0.369620635,1.0,0.669100864,1.0,0.706059111,0.0,0.362516241,False,,55ba0babfdf99b09bd1bec17,,1582618,73,,evan-feature22,full_pf_b,,0
49,43576,74,,,,2,2,0.0,0.0,-1.0,0.0,,0.0-76.0,,0.0,1089.0,1.0,0.41477751399999996,1.0,0.7284416779999999,0.0,0.7182656940000001,0.0,0.36228040899999997,False,,55ba0babfdf99b09bd1bec17,,1593525,74,,evan-feature22,full_pf_b,,0
50,43577,75,,,,2,2,1.0,0.0,0.0,1.0,,0.0-77.0,,0.0,996.0,0.0,0.37675460299999997,1.0,0.703250285,1.0,0.75,0.0,0.461979164,False,,55ba0babfdf99b09bd1bec17,,1604333,75,,evan-feature22,full_pf_b,,0
51,43578,76,,,,2,2,1.0,0.0,0.0,1.0,,0.0-78.0,,0.0,1218.0,0.0,0.398716075,0.0,0.6723864890000001,1.0,0.674153818,0.0,0.519029516,False,,55ba0babfdf99b09bd1bec17,,1615367,76,,evan-feature22,full_pf_b,,0
52,43579,77,,,,2,2,1.0,1.0,-1.0,0.0,,0.0-79.0,,-1.0,796.0,0.0,0.34677856700000004,1.0,0.69057175,1.0,0.6822438540000001,1.0,0.477292237,False,,55ba0babfdf99b09bd1bec17,,1625974,77,,evan-feature22,full_pf_b,,0
53,43580,78,,,,2,2,1.0,1.0,0.0,1.0,,0.0-80.0,,1.0,1117.0,0.0,0.28580469199999997,1.0,0.68408818,1.0,0.684207565,1.0,0.49780448299999996,False,,55ba0babfdf99b09bd1bec17,,1636936,78,,evan-feature22,full_pf_b,,0
54,43582,80,,,,1,1,0.0,0.0,-1.0,0.0,,0.0-82.0,,0.0,1377.0,0.0,0.25,0.0,0.7405808970000001,0.0,0.679614108,0.0,0.436436964,False,,55ba0babfdf99b09bd1bec17,,1651462,80,,evan-feature22,full_pf_b,,1
55,43583,81,,,,1,1,0.0,1.0,0.0,1.0,,0.0-83.0,,1.0,903.0,0.0,0.29890393,1.0,0.730505706,0.0,0.7328203320000001,0.0,0.439256938,False,,55ba0babfdf99b09bd1bec17,,1662193,81,,evan-feature22,full_pf_b,,0
56,43584,82,,,,2,2,1.0,0.0,-1.0,0.0,,0.0-84.0,,-1.0,873.0,0.0,0.326762398,1.0,0.7148059609999999,1.0,0.75,0.0,0.44389608799999997,False,,55ba0babfdf99b09bd1bec17,,1672888,82,,evan-feature22,full_pf_b,,1
57,43585,83,,,,1,1,0.0,1.0,-1.0,0.0,,0.0-85.0,,0.0,1250.0,0.0,0.295168515,1.0,0.739760854,0.0,0.719947008,0.0,0.35277284600000003,False,,55ba0babfdf99b09bd1bec17,,1683956,83,,evan-feature22,full_pf_b,,1
58,43586,84,,,,2,2,1.0,0.0,-1.0,0.0,,0.0-86.0,,-1.0,1400.0,0.0,0.25,1.0,0.70781482,1.0,0.75,0.0,0.286095925,False,,55ba0babfdf99b09bd1bec17,,1695166,84,,evan-feature22,full_pf_b,,1
59,43587,85,,,,1,1,0.0,0.0,0.0,1.0,,0.0-87.0,,0.0,1345.0,0.0,0.25638190899999996,0.0,0.704088163,1.0,0.75,0.0,0.26872601399999996,False,,55ba0babfdf99b09bd1bec17,,1706318,85,,evan-feature22,full_pf_b,,1
60,43588,86,,,,1,1,0.0,1.0,0.0,1.0,,0.0-88.0,,1.0,1049.0,0.0,0.271581126,1.0,0.669760107,1.0,0.733896663,0.0,0.273244572,False,,55ba0babfdf99b09bd1bec17,,1717185,86,,evan-feature22,full_pf_b,,0
61,43589,87,,,,2,2,1.0,0.0,0.0,1.0,,0.0-89.0,,0.0,982.0,1.0,0.257144401,1.0,0.600575706,1.0,0.74488122,0.0,0.25,False,,55ba0babfdf99b09bd1bec17,,1727969,87,,evan-feature22,full_pf_b,,1
62,43590,88,,,,2,2,1.0,1.0,-1.0,0.0,,0.0-90.0,,-1.0,1178.0,0.0,0.25,1.0,0.616870026,1.0,0.723610234,1.0,0.25,False,,55ba0babfdf99b09bd1bec17,,1738964,88,,evan-feature22,full_pf_b,,0
63,43591,89,,,,1,1,0.0,1.0,0.0,1.0,,0.0-91.0,,1.0,852.0,0.0,0.25,1.0,0.583540187,1.0,0.7041042559999999,0.0,0.285961995,False,,55ba0babfdf99b09bd1bec17,,1749618,89,,evan-feature22,full_pf_b,,1
64,43592,90,,,,2,2,0.0,0.0,-1.0,0.0,,0.0-92.0,,0.0,889.0,0.0,0.27254536,1.0,0.53875765,0.0,0.693783448,0.0,0.284961652,False,,55ba0babfdf99b09bd1bec17,,1760302,90,,evan-feature22,full_pf_b,,1
65,43593,91,,,,1,1,1.0,0.0,0.0,1.0,,0.0-93.0,,0.0,735.0,1.0,0.25,0.0,0.548431252,1.0,0.734221895,1.0,0.279445214,False,,55ba0babfdf99b09bd1bec17,,1770848,91,,evan-feature22,full_pf_b,,1
66,43594,92,,,,1,1,0.0,0.0,-1.0,0.0,,0.0-94.0,,0.0,792.0,0.0,0.258640684,0.0,0.545878066,0.0,0.725245965,0.0,0.31487537,False,,55ba0babfdf99b09bd1bec17,,1781446,92,,evan-feature22,full_pf_b,,0
67,43595,93,,,,1,1,0.0,1.0,-1.0,0.0,,0.0-95.0,,0.0,719.0,0.0,0.251103711,1.0,0.5776290629999999,1.0,0.696320133,0.0,0.317831047,False,,55ba0babfdf99b09bd1bec17,,1791962,93,,evan-feature22,full_pf_b,,0
68,43596,94,,,,1,1,1.0,1.0,-1.0,0.0,,0.0-96.0,,-1.0,724.0,1.0,0.276630292,1.0,0.617329858,0.0,0.73838088,0.0,0.261471582,False,,55ba0babfdf99b09bd1bec17,,1802498,94,,evan-feature22,full_pf_b,,0
69,43597,95,,,,2,2,1.0,0.0,0.0,1.0,,0.0-97.0,,0.0,2239.0,1.0,0.297716424,0.0,0.618863717,1.0,0.7402358259999999,0.0,0.262600834,False,,55ba0babfdf99b09bd1bec17,,1814532,95,,evan-feature22,full_pf_b,,1
70,43598,96,,,,SLOW,SLOW,,,-1.0,0.0,,0.0-98.0,,-3.0,,0.0,0.290935512,1.0,0.695370945,0.0,0.706570507,0.0,0.280030553,False,,55ba0babfdf99b09bd1bec17,,1820364,96,,evan-feature22,full_pf_b,,1
71,43599,97,,,,1,1,1.0,1.0,-1.0,0.0,,0.0-99.0,,-1.0,3569.0,1.0,0.25,1.0,0.6465277079999999,0.0,0.67766682,0.0,0.25,False,,55ba0babfdf99b09bd1bec17,,1833747,97,,evan-feature22,full_pf_b,,1
72,43600,98,,,,2,2,0.0,1.0,-1.0,0.0,,0.0-100.0,,0.0,1353.0,0.0,0.26463816,1.0,0.636100213,0.0,0.646048507,1.0,0.265607101,False,,55ba0babfdf99b09bd1bec17,,1844907,98,,evan-feature22,full_pf_b,,1
73,43601,99,,,,1,1,0.0,1.0,-1.0,0.0,,0.0-101.0,,0.0,977.0,0.0,0.314340707,1.0,0.667795927,1.0,0.613630805,0.0,0.25,False,,55ba0babfdf99b09bd1bec17,,1855691,99,,evan-feature22,full_pf_b,,1
74,43602,100,,,,2,2,1.0,0.0,-1.0,0.0,,0.0-102.0,,-1.0,1610.0,0.0,0.28685784,1.0,0.6622549529999999,1.0,0.652154117,0.0,0.25,False,,55ba0babfdf99b09bd1bec17,,1867136,100,,evan-feature22,full_pf_b,,1
75,43603,101,,,,1,1,1.0,1.0,0.0,1.0,,0.0-103.0,,1.0,989.0,1.0,0.304106554,1.0,0.631289538,1.0,0.707041942,0.0,0.29314237,False,,55ba0babfdf99b09bd1bec17,,1877943,101,,evan-feature22,full_pf_b,,1
76,43604,102,,,,2,2,1.0,0.0,0.0,1.0,,0.0-104.0,,0.0,1235.0,1.0,0.304806932,0.0,0.571167718,1.0,0.680472346,0.0,0.25,False,,55ba0babfdf99b09bd1bec17,,1888984,102,,evan-feature22,full_pf_b,,1
77,43605,103,,,,1,1,0.0,0.0,0.0,1.0,,0.0-105.0,,0.0,1207.0,0.0,0.37919861,0.0,0.5724849710000001,1.0,0.705638003,1.0,0.30179300600000003,False,,55ba0babfdf99b09bd1bec17,,1899992,103,,evan-feature22,full_pf_b,,1
78,43606,104,,,,2,2,0.0,1.0,0.0,1.0,,0.0-106.0,,1.0,1149.0,1.0,0.464277969,1.0,0.554034373,0.0,0.7372627340000001,1.0,0.264699741,False,,55ba0babfdf99b09bd1bec17,,1910977,104,,evan-feature22,full_pf_b,,1
79,43607,105,,,,1,1,0.0,0.0,-1.0,0.0,,0.0-107.0,,0.0,714.0,0.0,0.465104323,0.0,0.530793115,0.0,0.75,1.0,0.31683071,False,,55ba0babfdf99b09bd1bec17,,1921502,105,,evan-feature22,full_pf_b,,1
80,43608,106,,,,2,2,1.0,1.0,0.0,1.0,,0.0-108.0,,1.0,1102.0,1.0,0.465104323,1.0,0.530793115,1.0,0.75,1.0,0.31683071,False,,55ba0babfdf99b09bd1bec17,,1932416,106,,evan-feature22,full_pf_b,,1
81,43609,107,,,,2,2,1.0,1.0,0.0,1.0,,0.0-109.0,,1.0,907.0,0.0,0.46833986,0.0,0.570249239,1.0,0.7244472590000001,1.0,0.364114163,False,,55ba0babfdf99b09bd1bec17,,1943129,107,,evan-feature22,full_pf_b,,0
82,43610,108,,,,1,1,0.0,1.0,0.0,1.0,,0.0-110.0,,1.0,913.0,0.0,0.445444024,1.0,0.649673355,1.0,0.6845441290000001,0.0,0.300660449,False,,55ba0babfdf99b09bd1bec17,,1953836,108,,evan-feature22,full_pf_b,,1
83,43611,109,,,,2,2,1.0,1.0,0.0,1.0,,0.0-111.0,,1.0,842.0,0.0,0.39909721299999995,1.0,0.6715179509999999,1.0,0.742310028,1.0,0.35496088299999995,False,,55ba0babfdf99b09bd1bec17,,1964496,109,,evan-feature22,full_pf_b,,1
84,43612,110,,,,1,1,0.0,1.0,0.0,1.0,,0.0-112.0,,1.0,1148.0,0.0,0.37956104799999996,1.0,0.694725302,1.0,0.7181651309999999,0.0,0.38726906299999997,False,,55ba0babfdf99b09bd1bec17,,1975442,110,,evan-feature22,full_pf_b,,1
85,43613,111,,,,2,2,0.0,1.0,0.0,1.0,,0.0-113.0,,1.0,1419.0,1.0,0.404995034,0.0,0.724375412,0.0,0.6910946859999999,1.0,0.387187347,False,,55ba0babfdf99b09bd1bec17,,1986652,111,,evan-feature22,full_pf_b,,1
86,43614,112,,,,1,1,1.0,1.0,0.0,1.0,,0.0-114.0,,1.0,1124.0,1.0,0.461740803,1.0,0.75,1.0,0.75,1.0,0.34872038200000005,False,,55ba0babfdf99b09bd1bec17,,1997606,112,,evan-feature22,full_pf_b,,1
87,43615,113,,,,2,2,1.0,1.0,-1.0,0.0,,0.0-115.0,,-1.0,1026.0,1.0,0.43821380600000004,0.0,0.738833273,1.0,0.728286963,1.0,0.399538128,False,,55ba0babfdf99b09bd1bec17,,2008455,113,,evan-feature22,full_pf_b,,1
88,43616,114,,,,1,1,1.0,1.0,0.0,1.0,,0.0-116.0,,1.0,821.0,1.0,0.41709882,1.0,0.736666736,1.0,0.75,1.0,0.389095584,False,,55ba0babfdf99b09bd1bec17,,2019073,114,,evan-feature22,full_pf_b,,1
89,43617,115,,,,2,2,1.0,0.0,0.0,1.0,,0.0-117.0,,0.0,727.0,0.0,0.39749009799999996,1.0,0.744320029,1.0,0.75,0.0,0.363848678,False,,55ba0babfdf99b09bd1bec17,,2029626,115,,evan-feature22,full_pf_b,,1
90,43618,116,,,,1,1,0.0,0.0,-1.0,0.0,,0.0-118.0,,0.0,676.0,0.0,0.392653706,0.0,0.75,0.0,0.75,1.0,0.384386976,False,,55ba0babfdf99b09bd1bec17,,2040116,116,,evan-feature22,full_pf_b,,1
91,43619,117,,,,1,1,0.0,1.0,-1.0,0.0,,0.0-119.0,,0.0,757.0,0.0,0.31190902600000003,1.0,0.75,0.0,0.732413819,0.0,0.413082932,False,,55ba0babfdf99b09bd1bec17,,2050701,117,,evan-feature22,full_pf_b,,0
92,43620,118,,,,1,1,0.0,0.0,0.0,1.0,,0.0-120.0,,0.0,941.0,0.0,0.366917648,0.0,0.740073855,1.0,0.75,0.0,0.352861979,False,,55ba0babfdf99b09bd1bec17,,2061449,118,,evan-feature22,full_pf_b,,0
93,43621,119,,,,2,2,0.0,1.0,0.0,1.0,,0.0-121.0,,1.0,806.0,0.0,0.3645172,1.0,0.721770713,0.0,0.75,1.0,0.404074511,False,,55ba0babfdf99b09bd1bec17,,2072078,119,,evan-feature22,full_pf_b,,1
94,43622,120,,,,1,1,0.0,1.0,0.0,1.0,,0.0-122.0,,1.0,1060.0,0.0,0.35205600299999995,1.0,0.68983859,1.0,0.739735447,0.0,0.366895945,False,,55ba0babfdf99b09bd1bec17,,2082974,120,,evan-feature22,full_pf_b,,1
95,43623,121,,,,2,2,0.0,0.0,0.0,1.0,,0.0-123.0,,0.0,924.0,0.0,0.40998722600000004,1.0,0.720859127,0.0,0.673854955,0.0,0.368528541,False,,55ba0babfdf99b09bd1bec17,,2093711,121,,evan-feature22,full_pf_b,,1
96,43624,122,,,,1,1,1.0,1.0,-1.0,0.0,,0.0-124.0,,-1.0,1493.0,1.0,0.353625316,1.0,0.75,1.0,0.695605473,1.0,0.38303674200000004,False,,55ba0babfdf99b09bd1bec17,,2105014,122,,evan-feature22,full_pf_b,,1
97,43625,123,,,,2,2,1.0,0.0,0.0,1.0,,0.0-125.0,,0.0,868.0,0.0,0.359216989,1.0,0.75,1.0,0.6987915090000001,0.0,0.35169046200000004,False,,55ba0babfdf99b09bd1bec17,,2115705,123,,evan-feature22,full_pf_b,,1
98,43626,124,,,,1,1,0.0,1.0,-1.0,0.0,,0.0-126.0,,0.0,860.0,0.0,0.35834496899999996,1.0,0.75,0.0,0.707067742,0.0,0.416763636,False,,55ba0babfdf99b09bd1bec17,,2126370,124,,evan-feature22,full_pf_b,,1
99,43627,125,,,,2,2,1.0,1.0,-1.0,0.0,,0.0-127.0,,-1.0,803.0,1.0,0.38741613799999997,1.0,0.7177369570000001,1.0,0.734902455,1.0,0.49438664299999996,False,,55ba0babfdf99b09bd1bec17,,2136980,125,,evan-feature22,full_pf_b,,1
100,43628,126,,,,2,2,1.0,0.0,0.0,1.0,,0.0-128.0,,0.0,603.0,0.0,0.405255252,1.0,0.7300466640000001,1.0,0.7027748070000001,0.0,0.504359668,False,,55ba0babfdf99b09bd1bec17,,2147380,126,,evan-feature22,full_pf_b,,0
101,43629,127,,,,2,2,1.0,1.0,0.0,1.0,,0.0-129.0,,1.0,777.0,0.0,0.40697073,1.0,0.7260142190000001,1.0,0.724461982,1.0,0.522779179,False,,55ba0babfdf99b09bd1bec17,,2157963,127,,evan-feature22,full_pf_b,,0
102,43630,128,,,,2,2,0.0,1.0,0.0,1.0,,0.0-130.0,,1.0,629.0,0.0,0.43906215299999996,0.0,0.7252802340000001,0.0,0.719079934,1.0,0.5712990579999999,False,,55ba0babfdf99b09bd1bec17,,2168378,128,,evan-feature22,full_pf_b,,0
103,43631,129,,,,1,1,0.0,1.0,0.0,1.0,,0.0-131.0,,1.0,1206.0,0.0,0.4076705,1.0,0.73280499,1.0,0.681313127,1.0,0.523891346,False,,55ba0babfdf99b09bd1bec17,,2179391,129,,evan-feature22,full_pf_b,,1
104,43632,130,,,,2,2,1.0,1.0,0.0,1.0,,0.0-132.0,,1.0,1166.0,1.0,0.399102911,1.0,0.730498344,1.0,0.661080239,1.0,0.46742603,False,,55ba0babfdf99b09bd1bec17,,2190395,130,,evan-feature22,full_pf_b,,1
105,43633,131,,,,1,1,0.0,1.0,-1.0,0.0,,0.0-133.0,,0.0,821.0,0.0,0.356477282,1.0,0.712296395,1.0,0.641812684,1.0,0.44868414,False,,55ba0babfdf99b09bd1bec17,,2201031,131,,evan-feature22,full_pf_b,,1
106,43634,132,,,,2,2,0.0,1.0,0.0,1.0,,0.0-134.0,,1.0,885.0,0.0,0.462760722,1.0,0.692349322,0.0,0.700947931,1.0,0.394680266,False,,55ba0babfdf99b09bd1bec17,,2211738,132,,evan-feature22,full_pf_b,,1
107,43635,133,,,,1,1,0.0,1.0,0.0,1.0,,0.0-135.0,,1.0,791.0,0.0,0.422306413,1.0,0.718375916,1.0,0.706340917,0.0,0.367787185,False,,55ba0babfdf99b09bd1bec17,,2222321,133,,evan-feature22,full_pf_b,,1
108,43637,135,,,,2,2,1.0,0.0,0.0,1.0,,0.0-137.0,,0.0,1178.0,0.0,0.4582233,0.0,0.643834117,1.0,0.75,0.0,0.39615823299999997,False,,55ba0babfdf99b09bd1bec17,,2237599,135,,evan-feature22,full_pf_b,,1
109,43638,136,,,,2,2,1.0,1.0,0.0,1.0,,0.0-138.0,,1.0,667.0,1.0,0.43813437899999996,0.0,0.651283804,1.0,0.729674191,1.0,0.37711048,False,,55ba0babfdf99b09bd1bec17,,2248078,136,,evan-feature22,full_pf_b,,0
110,43639,137,,,,2,2,0.0,0.0,0.0,1.0,,0.0-139.0,,0.0,762.0,1.0,0.471199094,0.0,0.6470010979999999,0.0,0.715008097,0.0,0.410656191,False,,55ba0babfdf99b09bd1bec17,,2258639,137,,evan-feature22,full_pf_b,,0
111,43640,138,,,,2,2,1.0,1.0,-1.0,0.0,,0.0-140.0,,-1.0,722.0,1.0,0.42486406,0.0,0.629771829,1.0,0.6550939960000001,1.0,0.459093873,False,,55ba0babfdf99b09bd1bec17,,2269178,138,,evan-feature22,full_pf_b,,0
112,43641,139,,,,2,2,1.0,0.0,-1.0,0.0,,0.0-141.0,,-1.0,884.0,0.0,0.4803197,1.0,0.645842715,1.0,0.6421749920000001,0.0,0.443092151,False,,55ba0babfdf99b09bd1bec17,,2279867,139,,evan-feature22,full_pf_b,,0
113,43642,140,,,,2,2,1.0,0.0,-1.0,0.0,,0.0-142.0,,-1.0,657.0,0.0,0.521848997,1.0,0.735801074,1.0,0.6691348460000001,0.0,0.45259351600000003,False,,55ba0babfdf99b09bd1bec17,,2290342,140,,evan-feature22,full_pf_b,,0
114,43643,141,,,,2,2,0.0,0.0,0.0,1.0,,0.0-143.0,,0.0,593.0,1.0,0.49565621299999996,1.0,0.742400847,0.0,0.661512553,0.0,0.483110831,False,,55ba0babfdf99b09bd1bec17,,2300737,141,,evan-feature22,full_pf_b,,0
115,43644,142,,,,2,2,1.0,0.0,-1.0,0.0,,0.0-144.0,,-1.0,539.0,0.0,0.521564361,1.0,0.731078632,1.0,0.6774886809999999,0.0,0.483263956,False,,55ba0babfdf99b09bd1bec17,,2311098,142,,evan-feature22,full_pf_b,,0
116,43645,143,,,,1,1,0.0,1.0,-1.0,0.0,,0.0-145.0,,0.0,959.0,0.0,0.558893102,1.0,0.719810023,1.0,0.67461031,1.0,0.499349834,False,,55ba0babfdf99b09bd1bec17,,2321873,143,,evan-feature22,full_pf_b,,1
117,43646,144,,,,1,1,1.0,1.0,0.0,1.0,,0.0-146.0,,1.0,717.0,1.0,0.611031046,1.0,0.75,0.0,0.688072995,0.0,0.5321422729999999,False,,55ba0babfdf99b09bd1bec17,,2332391,144,,evan-feature22,full_pf_b,,0
118,43647,145,,,,1,1,1.0,1.0,-1.0,0.0,,0.0-147.0,,-1.0,707.0,1.0,0.633223941,1.0,0.713567728,1.0,0.75,0.0,0.48185314700000004,False,,55ba0babfdf99b09bd1bec17,,2342905,145,,evan-feature22,full_pf_b,,0
119,43648,146,,,,1,1,1.0,0.0,-1.0,0.0,,0.0-148.0,,-1.0,623.0,1.0,0.664001694,0.0,0.705509768,1.0,0.75,0.0,0.500211065,False,,55ba0babfdf99b09bd1bec17,,2353335,146,,evan-feature22,full_pf_b,,0
120,43649,147,,,,1,1,0.0,0.0,0.0,1.0,,0.0-149.0,,0.0,691.0,0.0,0.664001694,0.0,0.705509768,0.0,0.75,1.0,0.500211065,False,,55ba0babfdf99b09bd1bec17,,2363837,147,,evan-feature22,full_pf_b,,0
121,43650,148,,,,1,1,1.0,1.0,0.0,1.0,,0.0-150.0,,1.0,815.0,1.0,0.696508041,1.0,0.71066027,1.0,0.717028709,1.0,0.49792991,False,,55ba0babfdf99b09bd1bec17,,2374457,148,,evan-feature22,full_pf_b,,0
122,43651,149,,,,2,2,1.0,1.0,-1.0,0.0,,0.0-151.0,,-1.0,1198.0,0.0,0.699883272,1.0,0.75,1.0,0.713543895,1.0,0.496962643,False,,55ba0babfdf99b09bd1bec17,,2385475,149,,evan-feature22,full_pf_b,,1
123,43652,150,,,,2,2,1.0,0.0,0.0,1.0,,0.0-152.0,,0.0,708.0,0.0,0.741163419,1.0,0.75,1.0,0.64691024,0.0,0.513858197,False,,55ba0babfdf99b09bd1bec17,,2396008,150,,evan-feature22,full_pf_b,,0
124,43653,151,,,,2,2,0.0,1.0,-1.0,0.0,,0.0-153.0,,0.0,655.0,1.0,0.75,1.0,0.70816558,0.0,0.594499079,1.0,0.48502124,False,,55ba0babfdf99b09bd1bec17,,2406488,151,,evan-feature22,full_pf_b,,0
125,43654,152,,,,1,1,1.0,0.0,0.0,1.0,,0.0-154.0,,0.0,961.0,1.0,0.75,0.0,0.721848901,0.0,0.62197249,1.0,0.48263586399999997,False,,55ba0babfdf99b09bd1bec17,,2417270,152,,evan-feature22,full_pf_b,,1
126,43655,153,,,,2,2,1.0,1.0,-1.0,0.0,,0.0-155.0,,-1.0,730.0,0.0,0.75,1.0,0.74813071,1.0,0.584357161,1.0,0.411477782,False,,55ba0babfdf99b09bd1bec17,,2427812,153,,evan-feature22,full_pf_b,,1
127,43656,154,,,,2,2,1.0,1.0,0.0,1.0,,0.0-156.0,,1.0,613.0,1.0,0.75,1.0,0.75,1.0,0.52287236,1.0,0.488290656,False,,55ba0babfdf99b09bd1bec17,,2438227,154,,evan-feature22,full_pf_b,,0
128,43657,155,,,,1,1,1.0,1.0,0.0,1.0,,0.0-157.0,,1.0,1172.0,1.0,0.75,1.0,0.75,0.0,0.544321581,1.0,0.53143059,False,,55ba0babfdf99b09bd1bec17,,2449230,155,,evan-feature22,full_pf_b,,1
129,43658,156,,,,1,1,1.0,0.0,0.0,1.0,,0.0-158.0,,0.0,962.0,1.0,0.726754564,0.0,0.75,0.0,0.5129306370000001,1.0,0.530592445,False,,55ba0babfdf99b09bd1bec17,,2460015,156,,evan-feature22,full_pf_b,,0
130,43659,157,,,,1,1,1.0,1.0,-1.0,0.0,,0.0-159.0,,-1.0,954.0,1.0,0.75,1.0,0.7392590729999999,0.0,0.479875835,0.0,0.547007051,False,,55ba0babfdf99b09bd1bec17,,2470793,157,,evan-feature22,full_pf_b,,0
131,43660,158,,,,1,1,1.0,1.0,-1.0,0.0,,0.0-160.0,,-1.0,774.0,1.0,0.75,1.0,0.7393376979999999,1.0,0.546045419,0.0,0.541267353,False,,55ba0babfdf99b09bd1bec17,,2481385,158,,evan-feature22,full_pf_b,,0
132,43661,159,,,,1,1,1.0,1.0,-1.0,0.0,,0.0-161.0,,-1.0,787.0,1.0,0.75,1.0,0.75,1.0,0.485725895,1.0,0.527625395,False,,55ba0babfdf99b09bd1bec17,,2491985,159,,evan-feature22,full_pf_b,,0
133,43662,160,,,,1,1,1.0,1.0,0.0,1.0,,0.0-162.0,,1.0,924.0,1.0,0.75,1.0,0.725087974,0.0,0.488603595,1.0,0.504019206,False,,55ba0babfdf99b09bd1bec17,,2502729,160,,evan-feature22,full_pf_b,,0
134,43663,161,,,,2,2,0.0,0.0,0.0,1.0,,0.0-163.0,,0.0,1211.0,1.0,0.745504295,1.0,0.75,0.0,0.452379914,0.0,0.50131194,False,,55ba0babfdf99b09bd1bec17,,2513766,161,,evan-feature22,full_pf_b,,1
135,43664,162,,,,2,2,1.0,1.0,0.0,1.0,,0.0-164.0,,1.0,712.0,1.0,0.728513874,1.0,0.75,1.0,0.44125567200000004,1.0,0.531454591,False,,55ba0babfdf99b09bd1bec17,,2524283,162,,evan-feature22,full_pf_b,,0
136,43665,163,,,,2,2,0.0,1.0,-1.0,0.0,,0.0-165.0,,0.0,1138.0,1.0,0.73790804,1.0,0.75,0.0,0.413036656,1.0,0.524619035,False,,55ba0babfdf99b09bd1bec17,,2535228,163,,evan-feature22,full_pf_b,,0
137,43666,164,,,,2,2,0.0,0.0,0.0,1.0,,0.0-166.0,,0.0,884.0,0.0,0.7080961309999999,1.0,0.708666865,0.0,0.431915581,0.0,0.481819489,False,,55ba0babfdf99b09bd1bec17,,2545927,164,,evan-feature22,full_pf_b,,0
138,43667,165,,,,1,1,1.0,0.0,0.0,1.0,,0.0-167.0,,0.0,906.0,1.0,0.721378003,0.0,0.71605913,0.0,0.36642387,0.0,0.5036739929999999,False,,55ba0babfdf99b09bd1bec17,,2556664,165,,evan-feature22,full_pf_b,,1
139,43668,166,,,,1,1,1.0,1.0,0.0,1.0,,0.0-168.0,,1.0,662.0,1.0,0.7340618959999999,1.0,0.699323252,0.0,0.35298046299999997,0.0,0.511241692,False,,55ba0babfdf99b09bd1bec17,,2567132,166,,evan-feature22,full_pf_b,,0
140,43669,167,,,,2,2,0.0,0.0,-1.0,0.0,,0.0-169.0,,0.0,1020.0,1.0,0.75,1.0,0.70412698,0.0,0.380734814,0.0,0.529580116,False,,55ba0babfdf99b09bd1bec17,,2577977,167,,evan-feature22,full_pf_b,,1
141,43670,168,,,,2,2,1.0,1.0,0.0,1.0,,0.0-170.0,,1.0,707.0,1.0,0.7436654909999999,0.0,0.711182751,1.0,0.41125331,1.0,0.49554405,False,,55ba0babfdf99b09bd1bec17,,2588519,168,,evan-feature22,full_pf_b,,0
142,43671,169,,,,1,1,1.0,1.0,0.0,1.0,,0.0-171.0,,1.0,959.0,1.0,0.731607915,1.0,0.651774583,1.0,0.35688023,0.0,0.45194491600000003,False,,55ba0babfdf99b09bd1bec17,,2599282,169,,evan-feature22,full_pf_b,,1
143,43672,170,,,,2,2,1.0,1.0,-1.0,0.0,,0.0-172.0,,-1.0,848.0,1.0,0.75,1.0,0.75,1.0,0.283145374,1.0,0.528608005,False,,55ba0babfdf99b09bd1bec17,,2609940,170,,evan-feature22,full_pf_b,,1
144,43673,171,,,,2,2,0.0,0.0,-1.0,0.0,,0.0-173.0,,0.0,889.0,1.0,0.7491416890000001,0.0,0.7423785959999999,0.0,0.29135870399999997,0.0,0.498888318,False,,55ba0babfdf99b09bd1bec17,,2620662,171,,evan-feature22,full_pf_b,,0
145,43674,172,,,,2,2,1.0,0.0,-1.0,0.0,,0.0-174.0,,-1.0,881.0,1.0,0.708569387,0.0,0.717682277,1.0,0.294421699,0.0,0.493838163,False,,55ba0babfdf99b09bd1bec17,,2631351,172,,evan-feature22,full_pf_b,,0
146,43675,173,,,,2,2,0.0,1.0,0.0,1.0,,0.0-175.0,,1.0,762.0,1.0,0.75,1.0,0.7383382159999999,0.0,0.356098707,1.0,0.442533405,False,,55ba0babfdf99b09bd1bec17,,2641928,173,,evan-feature22,full_pf_b,,0
147,43676,174,,,,1,1,0.0,1.0,0.0,1.0,,0.0-176.0,,1.0,1267.0,0.0,0.744527075,1.0,0.75,0.0,0.334127506,1.0,0.393165805,False,,55ba0babfdf99b09bd1bec17,,2653004,174,,evan-feature22,full_pf_b,,1
148,43677,175,,,,2,2,1.0,1.0,0.0,1.0,,0.0-177.0,,1.0,1024.0,1.0,0.75,1.0,0.75,1.0,0.33571021799999995,1.0,0.350393962,False,,55ba0babfdf99b09bd1bec17,,2663829,175,,evan-feature22,full_pf_b,,1
149,43678,176,,,,1,1,1.0,1.0,0.0,1.0,,0.0-178.0,,1.0,756.0,1.0,0.75,1.0,0.75,0.0,0.313628297,1.0,0.36349657399999996,False,,55ba0babfdf99b09bd1bec17,,2674393,176,,evan-feature22,full_pf_b,,1
150,43679,177,,,,2,2,1.0,0.0,-1.0,0.0,,0.0-179.0,,-1.0,883.0,1.0,0.75,1.0,0.734284182,1.0,0.262667667,0.0,0.380199119,False,,55ba0babfdf99b09bd1bec17,,2685089,177,,evan-feature22,full_pf_b,,1
151,43680,178,,,,2,2,1.0,1.0,0.0,1.0,,0.0-180.0,,1.0,976.0,1.0,0.75,0.0,0.75,1.0,0.25,1.0,0.394494013,False,,55ba0babfdf99b09bd1bec17,,2695885,178,,evan-feature22,full_pf_b,,0
152,43681,179,,,,1,1,1.0,1.0,-1.0,0.0,,0.0-181.0,,-1.0,777.0,1.0,0.722298145,1.0,0.7357822340000001,0.0,0.25,0.0,0.319142121,False,,55ba0babfdf99b09bd1bec17,,2706491,179,,evan-feature22,full_pf_b,,1
153,43682,180,,,,1,1,0.0,1.0,-1.0,0.0,,0.0-182.0,,0.0,866.0,0.0,0.73149275,1.0,0.724276446,0.0,0.305856907,0.0,0.281315057,False,,55ba0babfdf99b09bd1bec17,,2717136,180,,evan-feature22,full_pf_b,,0
154,43683,181,,,,1,1,1.0,1.0,0.0,1.0,,0.0-183.0,,1.0,842.0,1.0,0.7458732690000001,1.0,0.7336382459999999,0.0,0.272571964,1.0,0.266021999,False,,55ba0babfdf99b09bd1bec17,,2727782,181,,evan-feature22,full_pf_b,,0
155,43684,182,,,,2,2,0.0,0.0,0.0,1.0,,0.0-184.0,,0.0,1329.0,0.0,0.705579037,1.0,0.720778292,0.0,0.320238144,0.0,0.30971744,False,,55ba0babfdf99b09bd1bec17,,2738917,182,,evan-feature22,full_pf_b,,1
156,43685,183,,,,2,2,1.0,1.0,0.0,1.0,,0.0-185.0,,1.0,1684.0,1.0,0.700425648,1.0,0.7198784009999999,1.0,0.272590393,1.0,0.304182931,False,,55ba0babfdf99b09bd1bec17,,2750405,183,,evan-feature22,full_pf_b,,0
157,43686,184,,,,2,2,0.0,0.0,0.0,1.0,,0.0-186.0,,0.0,2212.0,0.0,0.735590785,1.0,0.722714973,0.0,0.25,0.0,0.323421091,False,,55ba0babfdf99b09bd1bec17,,2762440,184,,evan-feature22,full_pf_b,,0
158,43687,185,,,,2,2,0.0,0.0,0.0,1.0,,0.0-187.0,,0.0,1936.0,0.0,0.724807662,0.0,0.63146213,0.0,0.36836492600000004,0.0,0.34592153299999995,False,,55ba0babfdf99b09bd1bec17,,2774188,185,,evan-feature22,full_pf_b,,0
159,43688,186,,,,2,2,0.0,0.0,0.0,1.0,,0.0-188.0,,0.0,899.0,1.0,0.7352796909999999,0.0,0.555111392,0.0,0.36003922,0.0,0.31433779999999995,False,,55ba0babfdf99b09bd1bec17,,2784896,186,,evan-feature22,full_pf_b,,0
160,43689,187,notice,,,,,,,,,,0.0-189.0,"{""Q0"":""I think there were less negative points in the second one""}",,62917.0,,,,,,,,,False,,55ba0babfdf99b09bd1bec17,,2847815,187,Q,survey-text,full_pf_b,,1
161,43690,188,track1,,[1],,,,,,,,0.0-190.0,"{""Q0"":""no""}",,8198.0,,,,,,,,,False,,55ba0babfdf99b09bd1bec17,,2856017,188,Q,evan-quiz,full_pf_b,,1
162,43691,189,track2,,[0],,,,,,,,0.0-191.0,"{""Q0"":""yes""}",,15704.0,,,,,,,,,False,,55ba0babfdf99b09bd1bec17,,2871723,189,Q,evan-quiz,full_pf_b,,1
163,43692,190,strat,,,,,,,,,,0.0-192.0,"{""Q0"":""If you win, then go on to another door in the next move ""}",,41654.0,,,,,,,,,False,,55ba0babfdf99b09bd1bec17,,2913380,190,Q,survey-text,full_pf_b,,1
