,index,Unnamed: 0,Q_name,button_pressed,choice_idxs,chosen_pos,chosen_state,chosen_state_f_1_outcome,chosen_state_f_2_outcome,f_1_reward,f_2_reward,incor_questions,internal_node_id,responses,reward_received,rt,s_1_f_1_outcome,s_1_f_1_prob,s_1_f_2_outcome,s_1_f_2_prob,s_2_f_1_outcome,s_2_f_1_prob,s_2_f_2_outcome,s_2_f_2_prob,safe_first,stimulus,subjectID,success,time_elapsed,trial_index,trial_num,trial_type,version,view_history,switching
0,20757,30,,,,2,2,0.0,0.0,-1.0,0.0,,0.0-27.0,,0.0,1301.525,1.0,0.6,0.0,0.6,0.0,0.4,0.0,0.4,False,,5baad65d3b4cee0001da2b3d,,546609,30,,evan-feature22,full_pf_b,,0
1,20758,31,,,,2,2,0.0,0.0,-1.0,0.0,,0.0-28.0,,0.0,422.385,1.0,0.608053294,0.0,0.63424552,0.0,0.397152172,0.0,0.347069101,False,,5baad65d3b4cee0001da2b3d,,556814,31,,evan-feature22,full_pf_b,,0
2,20759,32,,,,2,2,0.0,0.0,-1.0,0.0,,0.0-29.0,,0.0,1036.855,0.0,0.642237155,0.0,0.648566321,0.0,0.389407674,0.0,0.285525717,False,,5baad65d3b4cee0001da2b3d,,567626,32,,evan-feature22,full_pf_b,,0
3,20760,33,,,,1,1,0.0,1.0,-1.0,0.0,,0.0-30.0,,0.0,512.635,0.0,0.661086576,1.0,0.630492543,0.0,0.399058924,0.0,0.25,False,,5baad65d3b4cee0001da2b3d,,577913,33,,evan-feature22,full_pf_b,,1
4,20761,34,,,,2,2,1.0,0.0,0.0,1.0,,0.0-31.0,,0.0,358.805,0.0,0.631324137,1.0,0.6269842929999999,1.0,0.38734784299999997,0.0,0.25,False,,5baad65d3b4cee0001da2b3d,,588048,34,,evan-feature22,full_pf_b,,1
5,20762,35,,,,1,1,1.0,1.0,0.0,1.0,,0.0-32.0,,1.0,516.54,1.0,0.6381991370000001,1.0,0.68987999,1.0,0.384107265,0.0,0.271332943,False,,5baad65d3b4cee0001da2b3d,,598341,35,,evan-feature22,full_pf_b,,1
6,20763,36,,,,1,1,1.0,0.0,-1.0,0.0,,0.0-33.0,,-1.0,490.825,1.0,0.66034901,0.0,0.742641349,1.0,0.360225629,0.0,0.25,False,,5baad65d3b4cee0001da2b3d,,608611,36,,evan-feature22,full_pf_b,,0
7,20764,37,,,,2,2,1.0,0.0,-1.0,0.0,,0.0-34.0,,-1.0,349.74,1.0,0.638612418,1.0,0.75,1.0,0.367273939,0.0,0.25,False,,5baad65d3b4cee0001da2b3d,,618736,37,,evan-feature22,full_pf_b,,1
8,20765,38,,,,2,2,0.0,0.0,0.0,1.0,,0.0-35.0,,0.0,383.27,1.0,0.624340629,1.0,0.75,0.0,0.425829545,0.0,0.25,False,,5baad65d3b4cee0001da2b3d,,628892,38,,evan-feature22,full_pf_b,,0
9,20766,39,,,,1,1,0.0,1.0,0.0,1.0,,0.0-36.0,,1.0,610.14,0.0,0.621999804,1.0,0.75,0.0,0.368609357,1.0,0.25,False,,5baad65d3b4cee0001da2b3d,,639277,39,,evan-feature22,full_pf_b,,1
10,20767,40,,,,1,1,0.0,1.0,-1.0,0.0,,0.0-37.0,,0.0,912.375,0.0,0.62666403,1.0,0.75,0.0,0.311151498,0.0,0.25,False,,5baad65d3b4cee0001da2b3d,,649980,40,,evan-feature22,full_pf_b,,0
11,20768,41,,,,2,2,1.0,0.0,0.0,1.0,,0.0-38.0,,0.0,601.465,1.0,0.6819650009999999,1.0,0.75,1.0,0.310763048,0.0,0.25,False,,5baad65d3b4cee0001da2b3d,,660359,41,,evan-feature22,full_pf_b,,1
12,20769,42,,,,2,2,0.0,0.0,-1.0,0.0,,0.0-39.0,,0.0,419.715,0.0,0.740626951,1.0,0.75,0.0,0.25,0.0,0.25,False,,5baad65d3b4cee0001da2b3d,,670557,42,,evan-feature22,full_pf_b,,0
13,20770,43,,,,1,1,0.0,1.0,-1.0,0.0,,0.0-40.0,,0.0,864.76,0.0,0.739599242,1.0,0.742034978,0.0,0.25397114600000004,0.0,0.25,False,,5baad65d3b4cee0001da2b3d,,681198,43,,evan-feature22,full_pf_b,,1
14,20771,44,,,,1,1,1.0,1.0,-1.0,0.0,,0.0-41.0,,-1.0,579.06,1.0,0.732341315,1.0,0.72735643,0.0,0.25,0.0,0.25,False,,5baad65d3b4cee0001da2b3d,,691549,44,,evan-feature22,full_pf_b,,0
15,20772,45,,,,2,2,1.0,0.0,-1.0,0.0,,0.0-42.0,,-1.0,467.395,1.0,0.7062287770000001,0.0,0.75,1.0,0.29002151,0.0,0.288256649,False,,5baad65d3b4cee0001da2b3d,,701795,45,,evan-feature22,full_pf_b,,1
16,20773,46,,,,2,2,0.0,0.0,-1.0,0.0,,0.0-43.0,,0.0,554.05,1.0,0.7086029209999999,1.0,0.75,0.0,0.274129113,0.0,0.262851608,False,,5baad65d3b4cee0001da2b3d,,712119,46,,evan-feature22,full_pf_b,,0
17,20774,47,,,,2,2,0.0,0.0,-1.0,0.0,,0.0-44.0,,0.0,553.525,1.0,0.669189651,1.0,0.727614338,0.0,0.298444036,0.0,0.296944518,False,,5baad65d3b4cee0001da2b3d,,722444,47,,evan-feature22,full_pf_b,,0
18,20775,48,,,,1,1,1.0,0.0,-1.0,0.0,,0.0-45.0,,-1.0,407.88,1.0,0.6819912929999999,0.0,0.7179434290000001,1.0,0.265003961,0.0,0.28157921199999997,False,,5baad65d3b4cee0001da2b3d,,732626,48,,evan-feature22,full_pf_b,,1
19,20776,49,,,,1,1,1.0,1.0,0.0,1.0,,0.0-46.0,,1.0,681.785,1.0,0.665275002,1.0,0.723065271,0.0,0.260414971,1.0,0.30973870000000003,False,,5baad65d3b4cee0001da2b3d,,743081,49,,evan-feature22,full_pf_b,,0
20,20777,50,,,,1,1,0.0,1.0,-1.0,0.0,,0.0-47.0,,0.0,804.255,0.0,0.6660593260000001,1.0,0.728032907,0.0,0.30922817,0.0,0.338778608,False,,5baad65d3b4cee0001da2b3d,,753664,50,,evan-feature22,full_pf_b,,0
21,20778,51,,,,2,2,0.0,0.0,-1.0,0.0,,0.0-48.0,,0.0,700.095,1.0,0.702068785,1.0,0.6528750879999999,0.0,0.287329608,0.0,0.35789613200000003,False,,5baad65d3b4cee0001da2b3d,,764142,51,,evan-feature22,full_pf_b,,1
22,20779,52,,,,1,1,1.0,1.0,-1.0,0.0,,0.0-49.0,,-1.0,558.22,1.0,0.651939787,1.0,0.636725589,0.0,0.284834488,0.0,0.358563756,False,,5baad65d3b4cee0001da2b3d,,774476,52,,evan-feature22,full_pf_b,,1
23,20780,53,,,,1,1,1.0,0.0,0.0,1.0,,0.0-50.0,,0.0,491.065,1.0,0.67573929,0.0,0.612550049,0.0,0.37130387600000003,1.0,0.383542402,False,,5baad65d3b4cee0001da2b3d,,784745,53,,evan-feature22,full_pf_b,,0
24,20781,54,,,,1,1,1.0,0.0,0.0,1.0,,0.0-51.0,,0.0,299.405,1.0,0.620753801,0.0,0.60513644,0.0,0.385529434,0.0,0.340361743,False,,5baad65d3b4cee0001da2b3d,,794825,54,,evan-feature22,full_pf_b,,0
25,20782,55,,,,2,2,0.0,0.0,0.0,1.0,,0.0-52.0,,0.0,333.615,1.0,0.673564893,1.0,0.672437924,0.0,0.292955382,0.0,0.337633795,False,,5baad65d3b4cee0001da2b3d,,804935,55,,evan-feature22,full_pf_b,,1
26,20783,56,,,,1,1,1.0,1.0,-1.0,0.0,,0.0-53.0,,-1.0,50.75,1.0,0.6749427,1.0,0.724197502,0.0,0.32391132100000003,0.0,0.350995264,False,,5baad65d3b4cee0001da2b3d,,814764,56,,evan-feature22,full_pf_b,,1
27,20784,57,,,,1,1,1.0,0.0,-1.0,0.0,,0.0-54.0,,-1.0,274.16,1.0,0.6940159379999999,0.0,0.75,0.0,0.31710554399999996,1.0,0.413450341,False,,5baad65d3b4cee0001da2b3d,,824818,57,,evan-feature22,full_pf_b,,0
28,20785,58,,,,1,1,1.0,1.0,-1.0,0.0,,0.0-55.0,,-1.0,449.92,1.0,0.6916018270000001,1.0,0.69001187,0.0,0.261817804,1.0,0.40038635,False,,5baad65d3b4cee0001da2b3d,,835045,58,,evan-feature22,full_pf_b,,0
29,20786,59,,,,2,2,0.0,0.0,-1.0,0.0,,0.0-56.0,,0.0,343.47,0.0,0.641061544,1.0,0.71337992,0.0,0.277296461,0.0,0.47372791700000005,False,,5baad65d3b4cee0001da2b3d,,845165,59,,evan-feature22,full_pf_b,,1
30,20787,60,,,,2,2,0.0,0.0,-1.0,0.0,,0.0-57.0,,0.0,426.18,1.0,0.6082438520000001,1.0,0.708471106,0.0,0.28745137,0.0,0.564174476,False,,5baad65d3b4cee0001da2b3d,,855371,60,,evan-feature22,full_pf_b,,0
31,20788,61,,,,1,1,1.0,1.0,-1.0,0.0,,0.0-58.0,,-1.0,313.31,1.0,0.6051112120000001,1.0,0.7118147229999999,0.0,0.272390611,1.0,0.5595149939999999,False,,5baad65d3b4cee0001da2b3d,,865459,61,,evan-feature22,full_pf_b,,1
32,20789,62,,,,1,1,1.0,1.0,-1.0,0.0,,0.0-59.0,,-1.0,286.41,1.0,0.582420852,1.0,0.635867583,0.0,0.31089574,0.0,0.5227206520000001,False,,5baad65d3b4cee0001da2b3d,,875520,62,,evan-feature22,full_pf_b,,0
33,20790,63,,,,2,2,0.0,0.0,0.0,1.0,,0.0-60.0,,0.0,69.355,0.0,0.623195575,1.0,0.655026044,0.0,0.25,0.0,0.560387538,False,,5baad65d3b4cee0001da2b3d,,885366,63,,evan-feature22,full_pf_b,,1
34,20791,64,,,,2,2,0.0,1.0,-1.0,0.0,,0.0-61.0,,0.0,357.35,1.0,0.601889598,0.0,0.678198724,0.0,0.25,1.0,0.559922936,False,,5baad65d3b4cee0001da2b3d,,895502,64,,evan-feature22,full_pf_b,,0
35,20792,65,,,,1,1,0.0,1.0,-1.0,0.0,,0.0-62.0,,0.0,413.435,0.0,0.601259914,1.0,0.704681482,0.0,0.33908969299999997,1.0,0.505003715,False,,5baad65d3b4cee0001da2b3d,,905692,65,,evan-feature22,full_pf_b,,1
36,20793,66,,,,2,2,0.0,1.0,-1.0,0.0,,0.0-63.0,,0.0,403.61,1.0,0.59645454,0.0,0.710437172,0.0,0.327441879,1.0,0.391749613,False,,5baad65d3b4cee0001da2b3d,,915866,66,,evan-feature22,full_pf_b,,1
37,20794,67,,,,1,1,0.0,1.0,-1.0,0.0,,0.0-64.0,,0.0,969.875,0.0,0.529473,1.0,0.636758527,0.0,0.301338063,0.0,0.365661481,False,,5baad65d3b4cee0001da2b3d,,926611,67,,evan-feature22,full_pf_b,,1
38,20795,68,,,,1,1,1.0,1.0,0.0,1.0,,0.0-65.0,,1.0,269.97,1.0,0.541657162,1.0,0.634541962,0.0,0.343535366,0.0,0.371763742,False,,5baad65d3b4cee0001da2b3d,,936655,68,,evan-feature22,full_pf_b,,0
39,20796,69,,,,2,2,0.0,0.0,-1.0,0.0,,0.0-66.0,,0.0,781.79,0.0,0.5707533260000001,1.0,0.589121171,0.0,0.326428396,0.0,0.43961622899999997,False,,5baad65d3b4cee0001da2b3d,,947206,69,,evan-feature22,full_pf_b,,1
40,20797,70,,,,1,1,1.0,0.0,-1.0,0.0,,0.0-67.0,,-1.0,166.26,1.0,0.5707533260000001,0.0,0.589121171,0.0,0.326428396,0.0,0.43961622899999997,False,,5baad65d3b4cee0001da2b3d,,957160,70,,evan-feature22,full_pf_b,,1
41,20798,71,,,,2,2,0.0,1.0,-1.0,0.0,,0.0-68.0,,0.0,254.99,0.0,0.506271295,1.0,0.641775594,0.0,0.37149690700000004,1.0,0.404330166,False,,5baad65d3b4cee0001da2b3d,,967184,71,,evan-feature22,full_pf_b,,1
42,20799,72,,,,1,1,0.0,1.0,0.0,1.0,,0.0-69.0,,1.0,405.45,0.0,0.455642565,1.0,0.623605825,0.0,0.358753011,1.0,0.346174041,False,,5baad65d3b4cee0001da2b3d,,977366,72,,evan-feature22,full_pf_b,,1
43,20800,73,,,,1,1,0.0,1.0,0.0,1.0,,0.0-70.0,,1.0,783.25,0.0,0.483677308,1.0,0.5904681070000001,1.0,0.402218411,0.0,0.35344697,False,,5baad65d3b4cee0001da2b3d,,987932,73,,evan-feature22,full_pf_b,,0
44,20801,74,,,,2,2,1.0,1.0,0.0,1.0,,0.0-71.0,,1.0,622.57,0.0,0.394210977,1.0,0.558925494,1.0,0.540052017,1.0,0.35182128700000004,False,,5baad65d3b4cee0001da2b3d,,998328,74,,evan-feature22,full_pf_b,,1
45,20802,75,,,,1,1,1.0,0.0,-1.0,0.0,,0.0-72.0,,-1.0,550.99,1.0,0.382300414,0.0,0.577670603,0.0,0.607608448,0.0,0.378261578,False,,5baad65d3b4cee0001da2b3d,,1008656,75,,evan-feature22,full_pf_b,,1
46,20803,76,,,,2,2,0.0,0.0,-1.0,0.0,,0.0-73.0,,0.0,1068.96,0.0,0.357596762,1.0,0.5929076529999999,0.0,0.6579790010000001,0.0,0.401326777,False,,5baad65d3b4cee0001da2b3d,,1019500,76,,evan-feature22,full_pf_b,,1
47,20804,77,,,,1,1,0.0,1.0,-1.0,0.0,,0.0-74.0,,0.0,252.415,0.0,0.362033495,1.0,0.582308608,1.0,0.649195052,1.0,0.355158505,False,,5baad65d3b4cee0001da2b3d,,1029525,77,,evan-feature22,full_pf_b,,1
48,20805,78,,,,1,1,0.0,0.0,-1.0,0.0,,0.0-75.0,,0.0,294.965,0.0,0.369620635,0.0,0.669100864,1.0,0.706059111,0.0,0.362516241,False,,5baad65d3b4cee0001da2b3d,,1039592,78,,evan-feature22,full_pf_b,,0
49,20806,79,,,,2,2,0.0,0.0,-1.0,0.0,,0.0-76.0,,0.0,221.415,1.0,0.41477751399999996,1.0,0.7284416779999999,0.0,0.7182656940000001,0.0,0.36228040899999997,False,,5baad65d3b4cee0001da2b3d,,1049588,79,,evan-feature22,full_pf_b,,1
50,20807,80,,,,1,1,1.0,1.0,0.0,1.0,,0.0-77.0,,1.0,111.385,1.0,0.37675460299999997,1.0,0.703250285,0.0,0.75,1.0,0.461979164,False,,5baad65d3b4cee0001da2b3d,,1059482,80,,evan-feature22,full_pf_b,,1
51,20808,81,,,,1,1,0.0,0.0,0.0,1.0,,0.0-78.0,,0.0,312.8,0.0,0.398716075,0.0,0.6723864890000001,1.0,0.674153818,1.0,0.519029516,False,,5baad65d3b4cee0001da2b3d,,1069569,81,,evan-feature22,full_pf_b,,0
52,20809,82,,,,1,1,0.0,1.0,-1.0,0.0,,0.0-79.0,,0.0,280.955,0.0,0.34677856700000004,1.0,0.69057175,1.0,0.6822438540000001,1.0,0.477292237,False,,5baad65d3b4cee0001da2b3d,,1079630,82,,evan-feature22,full_pf_b,,0
53,20810,83,,,,1,1,0.0,1.0,0.0,1.0,,0.0-80.0,,1.0,9.744999996,0.0,0.28580469199999997,1.0,0.68408818,1.0,0.684207565,0.0,0.49780448299999996,False,,5baad65d3b4cee0001da2b3d,,1089412,83,,evan-feature22,full_pf_b,,0
54,20812,85,,,,2,2,1.0,1.0,-1.0,0.0,,0.0-82.0,,-1.0,795.16,0.0,0.25,0.0,0.7405808970000001,1.0,0.679614108,1.0,0.436436964,False,,5baad65d3b4cee0001da2b3d,,1102159,85,,evan-feature22,full_pf_b,,1
55,20813,86,,,,1,1,1.0,1.0,0.0,1.0,,0.0-83.0,,1.0,669.695,1.0,0.29890393,1.0,0.730505706,1.0,0.7328203320000001,1.0,0.439256938,False,,5baad65d3b4cee0001da2b3d,,1112603,86,,evan-feature22,full_pf_b,,1
56,20814,87,,,,1,1,0.0,0.0,-1.0,0.0,,0.0-84.0,,0.0,288.965,0.0,0.326762398,0.0,0.7148059609999999,1.0,0.75,0.0,0.44389608799999997,False,,5baad65d3b4cee0001da2b3d,,1122669,87,,evan-feature22,full_pf_b,,0
57,20815,88,,,,2,2,1.0,0.0,-1.0,0.0,,0.0-85.0,,-1.0,337.13,0.0,0.295168515,1.0,0.739760854,1.0,0.719947008,0.0,0.35277284600000003,False,,5baad65d3b4cee0001da2b3d,,1132780,88,,evan-feature22,full_pf_b,,1
58,20816,89,,,,1,1,0.0,1.0,-1.0,0.0,,0.0-86.0,,0.0,561.175,0.0,0.25,1.0,0.70781482,1.0,0.75,0.0,0.286095925,False,,5baad65d3b4cee0001da2b3d,,1143129,89,,evan-feature22,full_pf_b,,1
59,20817,90,,,,1,1,0.0,1.0,0.0,1.0,,0.0-87.0,,1.0,233.755,0.0,0.25638190899999996,1.0,0.704088163,1.0,0.75,0.0,0.26872601399999996,False,,5baad65d3b4cee0001da2b3d,,1153141,90,,evan-feature22,full_pf_b,,0
60,20818,91,,,,2,2,1.0,1.0,0.0,1.0,,0.0-88.0,,1.0,305.23,1.0,0.271581126,1.0,0.669760107,1.0,0.733896663,1.0,0.273244572,False,,5baad65d3b4cee0001da2b3d,,1163232,91,,evan-feature22,full_pf_b,,1
61,20819,92,,,,2,2,1.0,0.0,0.0,1.0,,0.0-89.0,,0.0,879.485,0.0,0.257144401,1.0,0.600575706,1.0,0.74488122,0.0,0.25,False,,5baad65d3b4cee0001da2b3d,,1173891,92,,evan-feature22,full_pf_b,,0
62,20820,93,,,,2,2,0.0,0.0,-1.0,0.0,,0.0-90.0,,0.0,313.9,1.0,0.25,1.0,0.616870026,0.0,0.723610234,0.0,0.25,False,,5baad65d3b4cee0001da2b3d,,1183977,93,,evan-feature22,full_pf_b,,0
63,20821,94,,,,1,1,0.0,1.0,0.0,1.0,,0.0-91.0,,1.0,8.780000004,0.0,0.25,1.0,0.583540187,1.0,0.7041042559999999,0.0,0.285961995,False,,5baad65d3b4cee0001da2b3d,,1193759,94,,evan-feature22,full_pf_b,,1
64,20822,95,,,,1,1,0.0,1.0,-1.0,0.0,,0.0-92.0,,0.0,347.315,0.0,0.27254536,1.0,0.53875765,1.0,0.693783448,0.0,0.284961652,False,,5baad65d3b4cee0001da2b3d,,1203888,95,,evan-feature22,full_pf_b,,0
65,20823,96,,,,2,2,1.0,0.0,0.0,1.0,,0.0-93.0,,0.0,369.445,0.0,0.25,0.0,0.548431252,1.0,0.734221895,0.0,0.279445214,False,,5baad65d3b4cee0001da2b3d,,1214036,96,,evan-feature22,full_pf_b,,1
66,20824,97,,,,1,1,1.0,1.0,-1.0,0.0,,0.0-94.0,,-1.0,465.165,1.0,0.258640684,1.0,0.545878066,0.0,0.725245965,0.0,0.31487537,False,,5baad65d3b4cee0001da2b3d,,1224277,97,,evan-feature22,full_pf_b,,1
67,20825,98,,,,1,1,0.0,0.0,-1.0,0.0,,0.0-95.0,,0.0,167.76,0.0,0.251103711,0.0,0.5776290629999999,0.0,0.696320133,0.0,0.317831047,False,,5baad65d3b4cee0001da2b3d,,1234221,98,,evan-feature22,full_pf_b,,0
68,20826,99,,,,2,2,0.0,0.0,-1.0,0.0,,0.0-96.0,,0.0,524.17,1.0,0.276630292,1.0,0.617329858,0.0,0.73838088,0.0,0.261471582,False,,5baad65d3b4cee0001da2b3d,,1244514,99,,evan-feature22,full_pf_b,,1
69,20827,100,,,,1,1,0.0,0.0,0.0,1.0,,0.0-97.0,,0.0,302.27,0.0,0.297716424,0.0,0.618863717,0.0,0.7402358259999999,0.0,0.262600834,False,,5baad65d3b4cee0001da2b3d,,1254592,100,,evan-feature22,full_pf_b,,1
70,20828,101,,,,1,1,0.0,1.0,-1.0,0.0,,0.0-98.0,,0.0,265.305,0.0,0.290935512,1.0,0.695370945,0.0,0.706570507,0.0,0.280030553,False,,5baad65d3b4cee0001da2b3d,,1264636,101,,evan-feature22,full_pf_b,,0
71,20829,102,,,,2,2,1.0,0.0,-1.0,0.0,,0.0-99.0,,-1.0,297.015,0.0,0.25,1.0,0.6465277079999999,1.0,0.67766682,0.0,0.25,False,,5baad65d3b4cee0001da2b3d,,1274713,102,,evan-feature22,full_pf_b,,1
72,20830,103,,,,1,1,0.0,1.0,-1.0,0.0,,0.0-100.0,,0.0,126.55,0.0,0.26463816,1.0,0.636100213,0.0,0.646048507,0.0,0.265607101,False,,5baad65d3b4cee0001da2b3d,,1284616,103,,evan-feature22,full_pf_b,,1
73,20831,104,,,,2,2,1.0,0.0,-1.0,0.0,,0.0-101.0,,-1.0,670.935,0.0,0.314340707,0.0,0.667795927,1.0,0.613630805,0.0,0.25,False,,5baad65d3b4cee0001da2b3d,,1295071,104,,evan-feature22,full_pf_b,,1
74,20832,105,,,,1,1,0.0,1.0,-1.0,0.0,,0.0-102.0,,0.0,455.84,0.0,0.28685784,1.0,0.6622549529999999,1.0,0.652154117,0.0,0.25,False,,5baad65d3b4cee0001da2b3d,,1305305,105,,evan-feature22,full_pf_b,,1
75,20833,106,,,,2,2,1.0,1.0,0.0,1.0,,0.0-103.0,,1.0,577.43,1.0,0.304106554,1.0,0.631289538,1.0,0.707041942,1.0,0.29314237,False,,5baad65d3b4cee0001da2b3d,,1315656,106,,evan-feature22,full_pf_b,,1
76,20834,107,,,,2,2,1.0,0.0,0.0,1.0,,0.0-104.0,,0.0,295.735,0.0,0.304806932,1.0,0.571167718,1.0,0.680472346,0.0,0.25,False,,5baad65d3b4cee0001da2b3d,,1325728,107,,evan-feature22,full_pf_b,,0
77,20835,108,,,,1,1,0.0,0.0,0.0,1.0,,0.0-105.0,,0.0,502.77,0.0,0.37919861,0.0,0.5724849710000001,1.0,0.705638003,0.0,0.30179300600000003,False,,5baad65d3b4cee0001da2b3d,,1336012,108,,evan-feature22,full_pf_b,,1
78,20836,109,,,,2,2,1.0,0.0,0.0,1.0,,0.0-106.0,,0.0,644.1,1.0,0.464277969,1.0,0.554034373,1.0,0.7372627340000001,0.0,0.264699741,False,,5baad65d3b4cee0001da2b3d,,1346435,109,,evan-feature22,full_pf_b,,1
79,20837,110,,,,1,1,0.0,1.0,-1.0,0.0,,0.0-107.0,,0.0,626.11,0.0,0.465104323,1.0,0.530793115,1.0,0.75,1.0,0.31683071,False,,5baad65d3b4cee0001da2b3d,,1356836,110,,evan-feature22,full_pf_b,,1
80,20838,111,,,,2,2,1.0,0.0,0.0,1.0,,0.0-108.0,,0.0,344.505,1.0,0.465104323,1.0,0.530793115,1.0,0.75,0.0,0.31683071,False,,5baad65d3b4cee0001da2b3d,,1366956,111,,evan-feature22,full_pf_b,,1
81,20839,112,,,,2,2,1.0,0.0,0.0,1.0,,0.0-109.0,,0.0,2320.525,0.0,0.46833986,1.0,0.570249239,1.0,0.7244472590000001,0.0,0.364114163,False,,5baad65d3b4cee0001da2b3d,,1379048,112,,evan-feature22,full_pf_b,,0
82,20840,113,,,,1,1,0.0,0.0,0.0,1.0,,0.0-110.0,,0.0,837.89,0.0,0.445444024,0.0,0.649673355,0.0,0.6845441290000001,0.0,0.300660449,False,,5baad65d3b4cee0001da2b3d,,1389660,113,,evan-feature22,full_pf_b,,1
83,20841,114,,,,1,1,1.0,0.0,0.0,1.0,,0.0-111.0,,0.0,282.08,1.0,0.39909721299999995,0.0,0.6715179509999999,0.0,0.742310028,0.0,0.35496088299999995,False,,5baad65d3b4cee0001da2b3d,,1399715,114,,evan-feature22,full_pf_b,,0
84,20842,115,,,,2,2,1.0,1.0,0.0,1.0,,0.0-112.0,,1.0,334.395,0.0,0.37956104799999996,1.0,0.694725302,1.0,0.7181651309999999,1.0,0.38726906299999997,False,,5baad65d3b4cee0001da2b3d,,1409827,115,,evan-feature22,full_pf_b,,1
85,20843,116,,,,1,1,0.0,1.0,0.0,1.0,,0.0-113.0,,1.0,366.6,0.0,0.404995034,1.0,0.724375412,0.0,0.6910946859999999,0.0,0.387187347,False,,5baad65d3b4cee0001da2b3d,,1419981,116,,evan-feature22,full_pf_b,,1
86,20844,117,,,,1,1,0.0,1.0,0.0,1.0,,0.0-114.0,,1.0,565.73,0.0,0.461740803,1.0,0.75,1.0,0.75,0.0,0.34872038200000005,False,,5baad65d3b4cee0001da2b3d,,1430325,117,,evan-feature22,full_pf_b,,0
87,20845,118,,,,2,2,1.0,0.0,-1.0,0.0,,0.0-115.0,,-1.0,718.22,1.0,0.43821380600000004,1.0,0.738833273,1.0,0.728286963,0.0,0.399538128,False,,5baad65d3b4cee0001da2b3d,,1440815,118,,evan-feature22,full_pf_b,,1
88,20846,119,,,,1,1,0.0,1.0,0.0,1.0,,0.0-116.0,,1.0,407.335,0.0,0.41709882,1.0,0.736666736,1.0,0.75,1.0,0.389095584,False,,5baad65d3b4cee0001da2b3d,,1450998,119,,evan-feature22,full_pf_b,,1
89,20847,120,,,,1,1,1.0,0.0,0.0,1.0,,0.0-117.0,,0.0,486.41,1.0,0.39749009799999996,0.0,0.744320029,1.0,0.75,0.0,0.363848678,False,,5baad65d3b4cee0001da2b3d,,1461261,120,,evan-feature22,full_pf_b,,0
90,20848,121,,,,1,1,1.0,1.0,-1.0,0.0,,0.0-118.0,,-1.0,267.565,1.0,0.392653706,1.0,0.75,1.0,0.75,0.0,0.384386976,False,,5baad65d3b4cee0001da2b3d,,1471312,121,,evan-feature22,full_pf_b,,0
91,20849,122,,,,1,1,1.0,1.0,-1.0,0.0,,0.0-119.0,,-1.0,346.97,1.0,0.31190902600000003,1.0,0.75,1.0,0.732413819,0.0,0.413082932,False,,5baad65d3b4cee0001da2b3d,,1481434,122,,evan-feature22,full_pf_b,,0
92,20850,123,,,,1,1,0.0,1.0,0.0,1.0,,0.0-120.0,,1.0,378.985,0.0,0.366917648,1.0,0.740073855,1.0,0.75,0.0,0.352861979,False,,5baad65d3b4cee0001da2b3d,,1491582,123,,evan-feature22,full_pf_b,,0
93,20851,124,,,,2,2,1.0,1.0,0.0,1.0,,0.0-121.0,,1.0,439.255,1.0,0.3645172,1.0,0.721770713,1.0,0.75,1.0,0.404074511,False,,5baad65d3b4cee0001da2b3d,,1501803,124,,evan-feature22,full_pf_b,,1
94,20852,125,,,,2,2,0.0,0.0,0.0,1.0,,0.0-122.0,,0.0,394.395,0.0,0.35205600299999995,1.0,0.68983859,0.0,0.739735447,0.0,0.366895945,False,,5baad65d3b4cee0001da2b3d,,1511972,125,,evan-feature22,full_pf_b,,0
95,20853,126,,,,2,2,0.0,1.0,0.0,1.0,,0.0-123.0,,1.0,95.57,1.0,0.40998722600000004,0.0,0.720859127,0.0,0.673854955,1.0,0.368528541,False,,5baad65d3b4cee0001da2b3d,,1521847,126,,evan-feature22,full_pf_b,,0
96,20854,127,,,,2,2,0.0,1.0,-1.0,0.0,,0.0-124.0,,0.0,294.085,0.0,0.353625316,1.0,0.75,0.0,0.695605473,1.0,0.38303674200000004,False,,5baad65d3b4cee0001da2b3d,,1531919,127,,evan-feature22,full_pf_b,,0
97,20855,128,,,,1,1,0.0,1.0,0.0,1.0,,0.0-125.0,,1.0,380.48,0.0,0.359216989,1.0,0.75,1.0,0.6987915090000001,0.0,0.35169046200000004,False,,5baad65d3b4cee0001da2b3d,,1542078,128,,evan-feature22,full_pf_b,,1
98,20856,129,,,,1,1,1.0,1.0,-1.0,0.0,,0.0-126.0,,-1.0,283.445,1.0,0.35834496899999996,1.0,0.75,1.0,0.707067742,0.0,0.416763636,False,,5baad65d3b4cee0001da2b3d,,1552139,129,,evan-feature22,full_pf_b,,0
99,20857,130,,,,2,2,1.0,1.0,-1.0,0.0,,0.0-127.0,,-1.0,382.925,0.0,0.38741613799999997,1.0,0.7177369570000001,1.0,0.734902455,1.0,0.49438664299999996,False,,5baad65d3b4cee0001da2b3d,,1562298,130,,evan-feature22,full_pf_b,,1
100,20858,131,,,,1,1,0.0,1.0,0.0,1.0,,0.0-128.0,,1.0,267.02,0.0,0.405255252,1.0,0.7300466640000001,1.0,0.7027748070000001,1.0,0.504359668,False,,5baad65d3b4cee0001da2b3d,,1572343,131,,evan-feature22,full_pf_b,,1
101,20859,132,,,,2,2,1.0,1.0,0.0,1.0,,0.0-129.0,,1.0,753.51,1.0,0.40697073,0.0,0.7260142190000001,1.0,0.724461982,1.0,0.522779179,False,,5baad65d3b4cee0001da2b3d,,1582866,132,,evan-feature22,full_pf_b,,1
102,20860,133,,,,2,2,1.0,1.0,0.0,1.0,,0.0-130.0,,1.0,467.44,0.0,0.43906215299999996,0.0,0.7252802340000001,1.0,0.719079934,1.0,0.5712990579999999,False,,5baad65d3b4cee0001da2b3d,,1593106,133,,evan-feature22,full_pf_b,,0
103,20861,134,,,,1,1,1.0,1.0,0.0,1.0,,0.0-131.0,,1.0,329.36,1.0,0.4076705,1.0,0.73280499,0.0,0.681313127,0.0,0.523891346,False,,5baad65d3b4cee0001da2b3d,,1603213,134,,evan-feature22,full_pf_b,,1
104,20862,135,,,,1,1,0.0,0.0,0.0,1.0,,0.0-132.0,,0.0,322.805,0.0,0.399102911,0.0,0.730498344,0.0,0.661080239,0.0,0.46742603,False,,5baad65d3b4cee0001da2b3d,,1613314,135,,evan-feature22,full_pf_b,,0
105,20863,136,,,,2,2,1.0,1.0,-1.0,0.0,,0.0-133.0,,-1.0,112.675,1.0,0.356477282,0.0,0.712296395,1.0,0.641812684,1.0,0.44868414,False,,5baad65d3b4cee0001da2b3d,,1623199,136,,evan-feature22,full_pf_b,,1
106,20864,137,,,,1,1,0.0,1.0,0.0,1.0,,0.0-134.0,,1.0,466.435,0.0,0.462760722,1.0,0.692349322,0.0,0.700947931,1.0,0.394680266,False,,5baad65d3b4cee0001da2b3d,,1633440,137,,evan-feature22,full_pf_b,,1
107,20865,138,,,,1,1,0.0,0.0,0.0,1.0,,0.0-135.0,,0.0,337.115,0.0,0.422306413,0.0,0.718375916,1.0,0.706340917,1.0,0.367787185,False,,5baad65d3b4cee0001da2b3d,,1643547,138,,evan-feature22,full_pf_b,,0
108,20867,140,,,,2,2,1.0,0.0,0.0,1.0,,0.0-137.0,,0.0,981.515,1.0,0.4582233,1.0,0.643834117,1.0,0.75,0.0,0.39615823299999997,False,,5baad65d3b4cee0001da2b3d,,1675156,140,,evan-feature22,full_pf_b,,1
109,20868,141,,,,1,1,1.0,0.0,0.0,1.0,,0.0-138.0,,0.0,298.585,1.0,0.43813437899999996,0.0,0.651283804,0.0,0.729674191,0.0,0.37711048,False,,5baad65d3b4cee0001da2b3d,,1685228,141,,evan-feature22,full_pf_b,,1
110,20869,142,,,,2,2,1.0,1.0,0.0,1.0,,0.0-139.0,,1.0,521.43,1.0,0.471199094,1.0,0.6470010979999999,1.0,0.715008097,1.0,0.410656191,False,,5baad65d3b4cee0001da2b3d,,1695534,142,,evan-feature22,full_pf_b,,1
111,20870,143,,,,2,2,1.0,0.0,-1.0,0.0,,0.0-140.0,,-1.0,347.905,0.0,0.42486406,0.0,0.629771829,1.0,0.6550939960000001,0.0,0.459093873,False,,5baad65d3b4cee0001da2b3d,,1705656,143,,evan-feature22,full_pf_b,,0
112,20871,144,,,,2,2,1.0,0.0,-1.0,0.0,,0.0-141.0,,-1.0,507.665,0.0,0.4803197,1.0,0.645842715,1.0,0.6421749920000001,0.0,0.443092151,False,,5baad65d3b4cee0001da2b3d,,1715943,144,,evan-feature22,full_pf_b,,0
113,20872,145,,,,1,1,0.0,1.0,-1.0,0.0,,0.0-142.0,,0.0,168.92,0.0,0.521848997,1.0,0.735801074,0.0,0.6691348460000001,0.0,0.45259351600000003,False,,5baad65d3b4cee0001da2b3d,,1725886,145,,evan-feature22,full_pf_b,,1
114,20873,146,,,,1,1,1.0,1.0,0.0,1.0,,0.0-143.0,,1.0,378.145,1.0,0.49565621299999996,1.0,0.742400847,0.0,0.661512553,0.0,0.483110831,False,,5baad65d3b4cee0001da2b3d,,1736043,146,,evan-feature22,full_pf_b,,0
115,20874,147,,,,1,1,1.0,1.0,-1.0,0.0,,0.0-144.0,,-1.0,354.17,1.0,0.521564361,1.0,0.731078632,0.0,0.6774886809999999,1.0,0.483263956,False,,5baad65d3b4cee0001da2b3d,,1746177,147,,evan-feature22,full_pf_b,,0
116,20875,148,,,,2,2,1.0,1.0,-1.0,0.0,,0.0-145.0,,-1.0,24.86999999,1.0,0.558893102,1.0,0.719810023,1.0,0.67461031,1.0,0.499349834,False,,5baad65d3b4cee0001da2b3d,,1755979,148,,evan-feature22,full_pf_b,,1
117,20876,149,,,,1,1,1.0,1.0,0.0,1.0,,0.0-146.0,,1.0,1263.3,1.0,0.611031046,1.0,0.75,1.0,0.688072995,1.0,0.5321422729999999,False,,5baad65d3b4cee0001da2b3d,,1767023,149,,evan-feature22,full_pf_b,,1
118,20877,150,,,,1,1,1.0,1.0,-1.0,0.0,,0.0-147.0,,-1.0,311.795,1.0,0.633223941,1.0,0.713567728,1.0,0.75,1.0,0.48185314700000004,False,,5baad65d3b4cee0001da2b3d,,1777112,150,,evan-feature22,full_pf_b,,0
119,20878,151,,,,2,2,1.0,0.0,-1.0,0.0,,0.0-148.0,,-1.0,603.03,1.0,0.664001694,0.0,0.705509768,1.0,0.75,0.0,0.500211065,False,,5baad65d3b4cee0001da2b3d,,1787492,151,,evan-feature22,full_pf_b,,1
120,20879,152,,,,1,1,0.0,1.0,0.0,1.0,,0.0-149.0,,1.0,477.115,0.0,0.664001694,1.0,0.705509768,1.0,0.75,1.0,0.500211065,False,,5baad65d3b4cee0001da2b3d,,1797744,152,,evan-feature22,full_pf_b,,1
121,20880,153,,,,1,1,1.0,1.0,0.0,1.0,,0.0-150.0,,1.0,279.935,1.0,0.696508041,1.0,0.71066027,1.0,0.717028709,1.0,0.49792991,False,,5baad65d3b4cee0001da2b3d,,1807798,153,,evan-feature22,full_pf_b,,0
122,20881,154,,,,1,1,1.0,1.0,-1.0,0.0,,0.0-151.0,,-1.0,464.38,1.0,0.699883272,1.0,0.75,0.0,0.713543895,0.0,0.496962643,False,,5baad65d3b4cee0001da2b3d,,1818039,154,,evan-feature22,full_pf_b,,0
123,20882,155,,,,2,2,0.0,0.0,0.0,1.0,,0.0-152.0,,0.0,322.92,1.0,0.741163419,1.0,0.75,0.0,0.64691024,0.0,0.513858197,False,,5baad65d3b4cee0001da2b3d,,1828141,155,,evan-feature22,full_pf_b,,1
124,20883,156,,,,1,1,1.0,1.0,-1.0,0.0,,0.0-153.0,,-1.0,405.335,1.0,0.75,1.0,0.70816558,1.0,0.594499079,0.0,0.48502124,False,,5baad65d3b4cee0001da2b3d,,1838322,156,,evan-feature22,full_pf_b,,1
125,20884,157,,,,1,1,0.0,0.0,0.0,1.0,,0.0-154.0,,0.0,354.515,0.0,0.75,0.0,0.721848901,0.0,0.62197249,0.0,0.48263586399999997,False,,5baad65d3b4cee0001da2b3d,,1848452,157,,evan-feature22,full_pf_b,,0
126,20885,158,,,,2,2,0.0,1.0,-1.0,0.0,,0.0-155.0,,0.0,411.43,1.0,0.75,1.0,0.74813071,0.0,0.584357161,1.0,0.411477782,False,,5baad65d3b4cee0001da2b3d,,1858640,158,,evan-feature22,full_pf_b,,1
127,20886,159,,,,2,2,0.0,0.0,0.0,1.0,,0.0-156.0,,0.0,405.26,1.0,0.75,1.0,0.75,0.0,0.52287236,0.0,0.488290656,False,,5baad65d3b4cee0001da2b3d,,1868822,159,,evan-feature22,full_pf_b,,0
128,20887,160,,,,1,1,1.0,1.0,0.0,1.0,,0.0-157.0,,1.0,435.745,1.0,0.75,1.0,0.75,1.0,0.544321581,1.0,0.53143059,False,,5baad65d3b4cee0001da2b3d,,1879033,160,,evan-feature22,full_pf_b,,1
129,20888,161,,,,1,1,1.0,1.0,0.0,1.0,,0.0-158.0,,1.0,409.31,1.0,0.726754564,1.0,0.75,0.0,0.5129306370000001,1.0,0.530592445,False,,5baad65d3b4cee0001da2b3d,,1889222,161,,evan-feature22,full_pf_b,,0
130,20889,162,,,,2,2,1.0,0.0,-1.0,0.0,,0.0-159.0,,-1.0,246.59,1.0,0.75,1.0,0.7392590729999999,1.0,0.479875835,0.0,0.547007051,False,,5baad65d3b4cee0001da2b3d,,1899244,162,,evan-feature22,full_pf_b,,1
131,20890,163,,,,1,1,1.0,1.0,-1.0,0.0,,0.0-160.0,,-1.0,1719.785,1.0,0.75,1.0,0.7393376979999999,1.0,0.546045419,0.0,0.541267353,False,,5baad65d3b4cee0001da2b3d,,1910741,163,,evan-feature22,full_pf_b,,1
132,20891,164,,,,2,2,1.0,1.0,-1.0,0.0,,0.0-161.0,,-1.0,335.965,0.0,0.75,1.0,0.75,1.0,0.485725895,1.0,0.527625395,False,,5baad65d3b4cee0001da2b3d,,1920854,164,,evan-feature22,full_pf_b,,1
133,20892,165,,,,1,1,0.0,1.0,0.0,1.0,,0.0-162.0,,1.0,247.725,0.0,0.75,1.0,0.725087974,1.0,0.488603595,1.0,0.504019206,False,,5baad65d3b4cee0001da2b3d,,1930878,165,,evan-feature22,full_pf_b,,1
134,20893,166,,,,1,1,1.0,0.0,0.0,1.0,,0.0-163.0,,0.0,351.935,1.0,0.745504295,0.0,0.75,0.0,0.452379914,0.0,0.50131194,False,,5baad65d3b4cee0001da2b3d,,1941009,166,,evan-feature22,full_pf_b,,0
135,20894,167,,,,2,2,0.0,1.0,0.0,1.0,,0.0-164.0,,1.0,356.395,1.0,0.728513874,1.0,0.75,0.0,0.44125567200000004,1.0,0.531454591,False,,5baad65d3b4cee0001da2b3d,,1951145,167,,evan-feature22,full_pf_b,,1
136,20895,168,,,,2,2,0.0,0.0,-1.0,0.0,,0.0-165.0,,0.0,375.77,1.0,0.73790804,1.0,0.75,0.0,0.413036656,0.0,0.524619035,False,,5baad65d3b4cee0001da2b3d,,1961294,168,,evan-feature22,full_pf_b,,0
137,20896,169,,,,1,1,0.0,1.0,0.0,1.0,,0.0-166.0,,1.0,282.905,0.0,0.7080961309999999,1.0,0.708666865,1.0,0.431915581,1.0,0.481819489,False,,5baad65d3b4cee0001da2b3d,,1971353,169,,evan-feature22,full_pf_b,,1
138,20897,170,,,,1,1,0.0,1.0,0.0,1.0,,0.0-167.0,,1.0,404.69,0.0,0.721378003,1.0,0.71605913,0.0,0.36642387,0.0,0.5036739929999999,False,,5baad65d3b4cee0001da2b3d,,1981535,170,,evan-feature22,full_pf_b,,0
139,20898,171,,,,2,2,0.0,1.0,0.0,1.0,,0.0-168.0,,1.0,459.615,1.0,0.7340618959999999,1.0,0.699323252,0.0,0.35298046299999997,1.0,0.511241692,False,,5baad65d3b4cee0001da2b3d,,1991768,171,,evan-feature22,full_pf_b,,1
140,20899,172,,,,2,2,1.0,0.0,-1.0,0.0,,0.0-169.0,,-1.0,722.965,1.0,0.75,0.0,0.70412698,1.0,0.380734814,0.0,0.529580116,False,,5baad65d3b4cee0001da2b3d,,2002271,172,,evan-feature22,full_pf_b,,0
141,20900,173,,,,1,1,1.0,1.0,0.0,1.0,,0.0-170.0,,1.0,637.635,1.0,0.7436654909999999,1.0,0.711182751,1.0,0.41125331,0.0,0.49554405,False,,5baad65d3b4cee0001da2b3d,,2012688,173,,evan-feature22,full_pf_b,,1
142,20901,174,,,,1,1,1.0,1.0,0.0,1.0,,0.0-171.0,,1.0,725.2,1.0,0.731607915,1.0,0.651774583,0.0,0.35688023,1.0,0.45194491600000003,False,,5baad65d3b4cee0001da2b3d,,2023181,174,,evan-feature22,full_pf_b,,0
143,20902,175,,,,1,1,1.0,1.0,-1.0,0.0,,0.0-172.0,,-1.0,1047.61,1.0,0.75,1.0,0.75,1.0,0.283145374,0.0,0.528608005,False,,5baad65d3b4cee0001da2b3d,,2034002,175,,evan-feature22,full_pf_b,,0
144,20903,176,,,,2,2,0.0,0.0,-1.0,0.0,,0.0-173.0,,0.0,693.475,1.0,0.7491416890000001,1.0,0.7423785959999999,0.0,0.29135870399999997,0.0,0.498888318,False,,5baad65d3b4cee0001da2b3d,,2044467,176,,evan-feature22,full_pf_b,,1
145,20904,177,,,,2,2,0.0,0.0,-1.0,0.0,,0.0-174.0,,0.0,1027.835,1.0,0.708569387,1.0,0.717682277,0.0,0.294421699,0.0,0.493838163,False,,5baad65d3b4cee0001da2b3d,,2055272,177,,evan-feature22,full_pf_b,,0
146,20905,178,,,,1,1,0.0,0.0,0.0,1.0,,0.0-175.0,,0.0,391.3,0.0,0.75,0.0,0.7383382159999999,0.0,0.356098707,0.0,0.442533405,False,,5baad65d3b4cee0001da2b3d,,2065437,178,,evan-feature22,full_pf_b,,1
147,20906,179,,,,1,1,1.0,1.0,0.0,1.0,,0.0-176.0,,1.0,403.235,1.0,0.744527075,1.0,0.75,0.0,0.334127506,0.0,0.393165805,False,,5baad65d3b4cee0001da2b3d,,2075614,179,,evan-feature22,full_pf_b,,0
148,20907,180,,,,1,1,1.0,0.0,0.0,1.0,,0.0-177.0,,0.0,330.825,1.0,0.75,0.0,0.75,0.0,0.33571021799999995,0.0,0.350393962,False,,5baad65d3b4cee0001da2b3d,,2085726,180,,evan-feature22,full_pf_b,,0
149,20908,181,,,,2,2,0.0,0.0,0.0,1.0,,0.0-178.0,,0.0,439.045,1.0,0.75,1.0,0.75,0.0,0.313628297,0.0,0.36349657399999996,False,,5baad65d3b4cee0001da2b3d,,2095943,181,,evan-feature22,full_pf_b,,1
150,20909,182,,,,1,1,1.0,1.0,-1.0,0.0,,0.0-179.0,,-1.0,238.63,1.0,0.75,1.0,0.734284182,0.0,0.262667667,0.0,0.380199119,False,,5baad65d3b4cee0001da2b3d,,2105957,182,,evan-feature22,full_pf_b,,1
151,20910,183,,,,2,2,0.0,1.0,0.0,1.0,,0.0-180.0,,1.0,1087.43,1.0,0.75,1.0,0.75,0.0,0.25,1.0,0.394494013,False,,5baad65d3b4cee0001da2b3d,,2116824,183,,evan-feature22,full_pf_b,,1
152,20911,184,,,,2,2,0.0,0.0,-1.0,0.0,,0.0-181.0,,0.0,177.735,1.0,0.722298145,0.0,0.7357822340000001,0.0,0.25,0.0,0.319142121,False,,5baad65d3b4cee0001da2b3d,,2126780,184,,evan-feature22,full_pf_b,,0
153,20912,185,,,,1,1,1.0,0.0,-1.0,0.0,,0.0-182.0,,-1.0,689.855,1.0,0.73149275,0.0,0.724276446,0.0,0.305856907,0.0,0.281315057,False,,5baad65d3b4cee0001da2b3d,,2137241,185,,evan-feature22,full_pf_b,,1
154,20913,186,,,,2,2,1.0,0.0,0.0,1.0,,0.0-183.0,,0.0,537.74,0.0,0.7458732690000001,1.0,0.7336382459999999,1.0,0.272571964,0.0,0.266021999,False,,5baad65d3b4cee0001da2b3d,,2147557,186,,evan-feature22,full_pf_b,,1
155,20914,187,,,,2,2,0.0,1.0,0.0,1.0,,0.0-184.0,,1.0,517.885,1.0,0.705579037,1.0,0.720778292,0.0,0.320238144,1.0,0.30971744,False,,5baad65d3b4cee0001da2b3d,,2157846,187,,evan-feature22,full_pf_b,,0
156,20915,188,,,,2,2,0.0,0.0,0.0,1.0,,0.0-185.0,,0.0,539.795,1.0,0.700425648,1.0,0.7198784009999999,0.0,0.272590393,0.0,0.304182931,False,,5baad65d3b4cee0001da2b3d,,2168160,188,,evan-feature22,full_pf_b,,0
157,20916,189,,,,1,1,1.0,1.0,0.0,1.0,,0.0-186.0,,1.0,290.62,1.0,0.735590785,1.0,0.722714973,0.0,0.25,0.0,0.323421091,False,,5baad65d3b4cee0001da2b3d,,2178226,189,,evan-feature22,full_pf_b,,1
158,20917,190,,,,2,2,1.0,1.0,0.0,1.0,,0.0-187.0,,1.0,1355.01,1.0,0.724807662,1.0,0.63146213,1.0,0.36836492600000004,1.0,0.34592153299999995,False,,5baad65d3b4cee0001da2b3d,,2189354,190,,evan-feature22,full_pf_b,,1
159,20918,191,,,,1,1,1.0,1.0,0.0,1.0,,0.0-188.0,,1.0,790.33,1.0,0.7352796909999999,1.0,0.555111392,0.0,0.36003922,0.0,0.31433779999999995,False,,5baad65d3b4cee0001da2b3d,,2199920,191,,evan-feature22,full_pf_b,,1
160,20919,192,notice,,,,,,,,,,0.0-189.0,"{""Q0"":""I was winning more in the second halves""}",,22038.0,,,,,,,,,False,,5baad65d3b4cee0001da2b3d,,2221960,192,Q,survey-text,full_pf_b,,1
161,20920,193,track1,,[0],,,,,,,,0.0-190.0,"{""Q0"":""yes""}",,6044.0,,,,,,,,,False,,5baad65d3b4cee0001da2b3d,,2228011,193,Q,evan-quiz,full_pf_b,,1
162,20921,194,track2,,[2],,,,,,,,0.0-191.0,"{""Q0"":""N/A""}",,6439.0,,,,,,,,,False,,5baad65d3b4cee0001da2b3d,,2234453,194,Q,evan-quiz,full_pf_b,,1
163,20922,195,strat,,,,,,,,,,0.0-192.0,"{""Q0"":""If I got a win I would risk clicking on the same block. I found the left block better than right.""}",,31351.0,,,,,,,,,False,,5baad65d3b4cee0001da2b3d,,2265808,195,Q,survey-text,full_pf_b,,1
