,index,Unnamed: 0,Q_name,button_pressed,choice_idxs,chosen_pos,chosen_state,chosen_state_f_1_outcome,chosen_state_f_2_outcome,f_1_reward,f_2_reward,incor_questions,internal_node_id,responses,reward_received,rt,s_1_f_1_outcome,s_1_f_1_prob,s_1_f_2_outcome,s_1_f_2_prob,s_2_f_1_outcome,s_2_f_1_prob,s_2_f_2_outcome,s_2_f_2_prob,safe_first,stimulus,subjectID,success,time_elapsed,trial_index,trial_num,trial_type,version,view_history,switching
0,28872,25,,,,2,2,0.0,0.0,1.0,0.0,,0.0-27.0,,0.0,682.18,1.0,0.6,0.0,0.6,0.0,0.4,0.0,0.4,True,,5768dabf8e454c000133a60b,,539293,25,,evan-feature22,full_rf_a,,0
1,28873,26,,,,1,1,0.0,1.0,1.0,0.0,,0.0-28.0,,0.0,581.395,0.0,0.608053294,1.0,0.63424552,1.0,0.397152172,0.0,0.347069101,True,,5768dabf8e454c000133a60b,,549684,26,,evan-feature22,full_rf_a,,1
2,28874,27,,,,2,2,1.0,0.0,1.0,0.0,,0.0-29.0,,1.0,821.78,0.0,0.642237155,1.0,0.648566321,1.0,0.389407674,0.0,0.285525717,True,,5768dabf8e454c000133a60b,,560311,27,,evan-feature22,full_rf_a,,1
3,28875,28,,,,2,2,0.0,0.0,1.0,0.0,,0.0-30.0,,0.0,496.29,1.0,0.661086576,1.0,0.630492543,0.0,0.399058924,0.0,0.25,True,,5768dabf8e454c000133a60b,,570621,28,,evan-feature22,full_rf_a,,0
4,28876,29,,,,1,1,1.0,0.0,0.0,-1.0,,0.0-31.0,,0.0,194.155,1.0,0.631324137,0.0,0.6269842929999999,0.0,0.38734784299999997,1.0,0.25,True,,5768dabf8e454c000133a60b,,580638,29,,evan-feature22,full_rf_a,,1
5,28877,30,,,,1,1,1.0,1.0,0.0,-1.0,,0.0-32.0,,-1.0,122.215,1.0,0.6381991370000001,1.0,0.68987999,1.0,0.384107265,1.0,0.271332943,True,,5768dabf8e454c000133a60b,,590583,30,,evan-feature22,full_rf_a,,0
6,28878,31,,,,2,2,0.0,0.0,1.0,0.0,,0.0-33.0,,0.0,81.49999997,1.0,0.66034901,0.0,0.742641349,0.0,0.360225629,0.0,0.25,True,,5768dabf8e454c000133a60b,,600494,31,,evan-feature22,full_rf_a,,1
7,28879,32,,,,1,1,1.0,0.0,1.0,0.0,,0.0-34.0,,1.0,667.44,1.0,0.638612418,0.0,0.75,0.0,0.367273939,0.0,0.25,True,,5768dabf8e454c000133a60b,,610987,32,,evan-feature22,full_rf_a,,1
8,28880,33,,,,1,1,0.0,1.0,0.0,-1.0,,0.0-35.0,,-1.0,247.895,0.0,0.624340629,1.0,0.75,1.0,0.425829545,0.0,0.25,True,,5768dabf8e454c000133a60b,,621037,33,,evan-feature22,full_rf_a,,0
9,28881,34,,,,1,1,1.0,1.0,0.0,-1.0,,0.0-36.0,,-1.0,344.895,1.0,0.621999804,1.0,0.75,0.0,0.368609357,0.0,0.25,True,,5768dabf8e454c000133a60b,,631218,34,,evan-feature22,full_rf_a,,0
10,28882,35,,,,2,2,1.0,1.0,1.0,0.0,,0.0-37.0,,1.0,263.12,0.0,0.62666403,0.0,0.75,1.0,0.311151498,1.0,0.25,True,,5768dabf8e454c000133a60b,,641297,35,,evan-feature22,full_rf_a,,1
11,28883,36,,,,2,2,0.0,1.0,0.0,-1.0,,0.0-38.0,,-1.0,175.9649999,0.0,0.6819650009999999,1.0,0.75,0.0,0.310763048,1.0,0.25,True,,5768dabf8e454c000133a60b,,651285,36,,evan-feature22,full_rf_a,,0
12,28884,37,,,,2,2,1.0,0.0,1.0,0.0,,0.0-39.0,,1.0,170.985,1.0,0.740626951,1.0,0.75,1.0,0.25,0.0,0.25,True,,5768dabf8e454c000133a60b,,661262,37,,evan-feature22,full_rf_a,,0
13,28885,38,,,,2,2,0.0,1.0,1.0,0.0,,0.0-40.0,,0.0,123.03,1.0,0.739599242,1.0,0.742034978,0.0,0.25397114600000004,1.0,0.25,True,,5768dabf8e454c000133a60b,,671211,38,,evan-feature22,full_rf_a,,0
14,28886,39,,,,2,2,1.0,0.0,1.0,0.0,,0.0-41.0,,1.0,95.70499999,0.0,0.732341315,1.0,0.72735643,1.0,0.25,0.0,0.25,True,,5768dabf8e454c000133a60b,,681111,39,,evan-feature22,full_rf_a,,0
15,28887,40,,,,2,2,0.0,0.0,1.0,0.0,,0.0-42.0,,0.0,233.835,1.0,0.7062287770000001,1.0,0.75,0.0,0.29002151,0.0,0.288256649,True,,5768dabf8e454c000133a60b,,691164,40,,evan-feature22,full_rf_a,,0
16,28888,41,,,,2,2,0.0,0.0,1.0,0.0,,0.0-43.0,,0.0,220.88,1.0,0.7086029209999999,1.0,0.75,0.0,0.274129113,0.0,0.262851608,True,,5768dabf8e454c000133a60b,,701192,41,,evan-feature22,full_rf_a,,0
17,28889,42,,,,1,1,0.0,0.0,1.0,0.0,,0.0-44.0,,0.0,181.88,0.0,0.669189651,0.0,0.727614338,0.0,0.298444036,1.0,0.296944518,True,,5768dabf8e454c000133a60b,,711208,42,,evan-feature22,full_rf_a,,1
18,28890,43,,,,2,2,0.0,0.0,1.0,0.0,,0.0-45.0,,0.0,182.325,1.0,0.6819912929999999,1.0,0.7179434290000001,0.0,0.265003961,0.0,0.28157921199999997,True,,5768dabf8e454c000133a60b,,721196,43,,evan-feature22,full_rf_a,,1
19,28891,44,,,,1,1,1.0,1.0,0.0,-1.0,,0.0-46.0,,-1.0,70.435,1.0,0.665275002,1.0,0.723065271,1.0,0.260414971,0.0,0.30973870000000003,True,,5768dabf8e454c000133a60b,,731091,44,,evan-feature22,full_rf_a,,1
20,28892,45,,,,2,2,1.0,0.0,1.0,0.0,,0.0-47.0,,1.0,184.94,1.0,0.6660593260000001,1.0,0.728032907,1.0,0.30922817,0.0,0.338778608,True,,5768dabf8e454c000133a60b,,741090,45,,evan-feature22,full_rf_a,,1
21,28893,46,,,,2,2,0.0,1.0,1.0,0.0,,0.0-48.0,,0.0,154.945,0.0,0.702068785,0.0,0.6528750879999999,0.0,0.287329608,1.0,0.35789613200000003,True,,5768dabf8e454c000133a60b,,751069,46,,evan-feature22,full_rf_a,,0
22,28894,47,,,,2,2,1.0,1.0,1.0,0.0,,0.0-49.0,,1.0,90.14500002,1.0,0.651939787,1.0,0.636725589,1.0,0.284834488,1.0,0.358563756,True,,5768dabf8e454c000133a60b,,760969,47,,evan-feature22,full_rf_a,,0
23,28895,48,,,,2,2,0.0,0.0,0.0,-1.0,,0.0-50.0,,0.0,327.73,1.0,0.67573929,0.0,0.612550049,0.0,0.37130387600000003,0.0,0.383542402,True,,5768dabf8e454c000133a60b,,771119,48,,evan-feature22,full_rf_a,,0
24,28896,49,,,,1,1,1.0,0.0,0.0,-1.0,,0.0-51.0,,0.0,1496.705,1.0,0.620753801,0.0,0.60513644,1.0,0.385529434,1.0,0.340361743,True,,5768dabf8e454c000133a60b,,782421,49,,evan-feature22,full_rf_a,,1
25,28897,50,,,,1,1,1.0,0.0,0.0,-1.0,,0.0-52.0,,0.0,666.535,1.0,0.673564893,0.0,0.672437924,0.0,0.292955382,0.0,0.337633795,True,,5768dabf8e454c000133a60b,,792897,50,,evan-feature22,full_rf_a,,0
26,28898,51,,,,2,2,0.0,1.0,1.0,0.0,,0.0-53.0,,0.0,285.645,1.0,0.6749427,1.0,0.724197502,0.0,0.32391132100000003,1.0,0.350995264,True,,5768dabf8e454c000133a60b,,802996,51,,evan-feature22,full_rf_a,,1
27,28899,52,,,,2,2,0.0,0.0,1.0,0.0,,0.0-54.0,,0.0,171.035,1.0,0.6940159379999999,1.0,0.75,0.0,0.31710554399999996,0.0,0.413450341,True,,5768dabf8e454c000133a60b,,813010,52,,evan-feature22,full_rf_a,,0
28,28900,53,,,,1,1,1.0,1.0,1.0,0.0,,0.0-55.0,,1.0,569.225,1.0,0.6916018270000001,1.0,0.69001187,1.0,0.261817804,1.0,0.40038635,True,,5768dabf8e454c000133a60b,,823408,53,,evan-feature22,full_rf_a,,1
29,28901,54,,,,1,1,1.0,1.0,1.0,0.0,,0.0-56.0,,1.0,266.18,1.0,0.641061544,1.0,0.71337992,0.0,0.277296461,1.0,0.47372791700000005,True,,5768dabf8e454c000133a60b,,833509,54,,evan-feature22,full_rf_a,,0
30,28902,55,,,,2,2,0.0,0.0,1.0,0.0,,0.0-57.0,,0.0,248.38,1.0,0.6082438520000001,0.0,0.708471106,0.0,0.28745137,0.0,0.564174476,True,,5768dabf8e454c000133a60b,,843586,55,,evan-feature22,full_rf_a,,1
31,28903,56,,,,2,2,0.0,1.0,1.0,0.0,,0.0-58.0,,0.0,314.71,1.0,0.6051112120000001,1.0,0.7118147229999999,0.0,0.272390611,1.0,0.5595149939999999,True,,5768dabf8e454c000133a60b,,853724,56,,evan-feature22,full_rf_a,,0
32,28904,57,,,,2,2,1.0,1.0,1.0,0.0,,0.0-59.0,,1.0,269.7,0.0,0.582420852,1.0,0.635867583,1.0,0.31089574,1.0,0.5227206520000001,True,,5768dabf8e454c000133a60b,,863823,57,,evan-feature22,full_rf_a,,0
33,28905,58,,,,2,2,1.0,1.0,0.0,-1.0,,0.0-60.0,,-1.0,149.03,1.0,0.623195575,1.0,0.655026044,1.0,0.25,1.0,0.560387538,True,,5768dabf8e454c000133a60b,,873838,58,,evan-feature22,full_rf_a,,0
34,28906,59,,,,1,1,0.0,1.0,1.0,0.0,,0.0-61.0,,0.0,10.26499999,0.0,0.601889598,1.0,0.678198724,0.0,0.25,1.0,0.559922936,True,,5768dabf8e454c000133a60b,,883671,59,,evan-feature22,full_rf_a,,1
35,28907,60,,,,1,1,0.0,1.0,1.0,0.0,,0.0-62.0,,0.0,199.4,0.0,0.601259914,1.0,0.704681482,0.0,0.33908969299999997,1.0,0.505003715,True,,5768dabf8e454c000133a60b,,893686,60,,evan-feature22,full_rf_a,,0
36,28908,61,,,,1,1,1.0,1.0,1.0,0.0,,0.0-63.0,,1.0,126.065,1.0,0.59645454,1.0,0.710437172,0.0,0.327441879,1.0,0.391749613,True,,5768dabf8e454c000133a60b,,903666,61,,evan-feature22,full_rf_a,,0
37,28909,62,,,,2,2,0.0,0.0,1.0,0.0,,0.0-64.0,,0.0,144.675,0.0,0.529473,1.0,0.636758527,0.0,0.301338063,0.0,0.365661481,True,,5768dabf8e454c000133a60b,,913636,62,,evan-feature22,full_rf_a,,1
38,28910,63,,,,1,1,0.0,0.0,0.0,-1.0,,0.0-65.0,,0.0,57.10999999,0.0,0.541657162,0.0,0.634541962,1.0,0.343535366,0.0,0.371763742,True,,5768dabf8e454c000133a60b,,923521,63,,evan-feature22,full_rf_a,,1
39,28911,64,,,,1,1,1.0,1.0,1.0,0.0,,0.0-66.0,,1.0,339.725,1.0,0.5707533260000001,1.0,0.589121171,0.0,0.326428396,0.0,0.43961622899999997,True,,5768dabf8e454c000133a60b,,933689,64,,evan-feature22,full_rf_a,,0
40,28912,65,,,,1,1,1.0,1.0,1.0,0.0,,0.0-67.0,,1.0,58.45499999,1.0,0.5707533260000001,1.0,0.589121171,0.0,0.326428396,0.0,0.43961622899999997,True,,5768dabf8e454c000133a60b,,943600,65,,evan-feature22,full_rf_a,,0
41,28913,66,,,,1,1,0.0,0.0,1.0,0.0,,0.0-68.0,,0.0,795.94,0.0,0.506271295,0.0,0.641775594,1.0,0.37149690700000004,1.0,0.404330166,True,,5768dabf8e454c000133a60b,,954216,66,,evan-feature22,full_rf_a,,0
42,28914,67,,,,2,2,0.0,0.0,0.0,-1.0,,0.0-69.0,,0.0,135.64,0.0,0.455642565,0.0,0.623605825,0.0,0.358753011,0.0,0.346174041,True,,5768dabf8e454c000133a60b,,964185,67,,evan-feature22,full_rf_a,,1
43,28915,68,,,,1,1,1.0,1.0,0.0,-1.0,,0.0-70.0,,-1.0,220.7,1.0,0.483677308,1.0,0.5904681070000001,0.0,0.402218411,0.0,0.35344697,True,,5768dabf8e454c000133a60b,,974264,68,,evan-feature22,full_rf_a,,1
44,28916,69,,,,2,2,1.0,0.0,0.0,-1.0,,0.0-71.0,,0.0,319.59,1.0,0.394210977,0.0,0.558925494,1.0,0.540052017,0.0,0.35182128700000004,True,,5768dabf8e454c000133a60b,,984397,69,,evan-feature22,full_rf_a,,1
45,28917,70,,,,2,2,0.0,0.0,1.0,0.0,,0.0-72.0,,0.0,430.9,0.0,0.382300414,1.0,0.577670603,0.0,0.607608448,0.0,0.378261578,True,,5768dabf8e454c000133a60b,,994645,70,,evan-feature22,full_rf_a,,0
46,28918,71,,,,1,1,0.0,0.0,1.0,0.0,,0.0-73.0,,0.0,187.255,0.0,0.357596762,0.0,0.5929076529999999,1.0,0.6579790010000001,0.0,0.401326777,True,,5768dabf8e454c000133a60b,,1004662,71,,evan-feature22,full_rf_a,,1
47,28919,72,,,,1,1,0.0,1.0,1.0,0.0,,0.0-74.0,,0.0,1067.185,0.0,0.362033495,1.0,0.582308608,1.0,0.649195052,0.0,0.355158505,True,,5768dabf8e454c000133a60b,,1015577,72,,evan-feature22,full_rf_a,,0
48,28920,73,,,,1,1,0.0,0.0,1.0,0.0,,0.0-75.0,,0.0,238.695,0.0,0.369620635,0.0,0.669100864,1.0,0.706059111,1.0,0.362516241,True,,5768dabf8e454c000133a60b,,1025645,73,,evan-feature22,full_rf_a,,0
49,28921,74,,,,1,1,0.0,1.0,1.0,0.0,,0.0-76.0,,0.0,124.35,0.0,0.41477751399999996,1.0,0.7284416779999999,0.0,0.7182656940000001,1.0,0.36228040899999997,True,,5768dabf8e454c000133a60b,,1035608,74,,evan-feature22,full_rf_a,,0
50,28922,75,,,,1,1,0.0,1.0,0.0,-1.0,,0.0-77.0,,-1.0,47.26000002,0.0,0.37675460299999997,1.0,0.703250285,1.0,0.75,0.0,0.461979164,True,,5768dabf8e454c000133a60b,,1045474,75,,evan-feature22,full_rf_a,,0
51,28923,76,,,,1,1,0.0,1.0,0.0,-1.0,,0.0-78.0,,-1.0,367.775,0.0,0.398716075,1.0,0.6723864890000001,0.0,0.674153818,0.0,0.519029516,True,,5768dabf8e454c000133a60b,,1055676,76,,evan-feature22,full_rf_a,,0
52,28924,77,,,,1,1,1.0,0.0,1.0,0.0,,0.0-79.0,,1.0,89.06000003,1.0,0.34677856700000004,0.0,0.69057175,1.0,0.6822438540000001,0.0,0.477292237,True,,5768dabf8e454c000133a60b,,1065606,77,,evan-feature22,full_rf_a,,0
53,28925,78,,,,1,1,0.0,1.0,0.0,-1.0,,0.0-80.0,,-1.0,187.625,0.0,0.28580469199999997,1.0,0.68408818,0.0,0.684207565,0.0,0.49780448299999996,True,,5768dabf8e454c000133a60b,,1075622,78,,evan-feature22,full_rf_a,,0
54,28927,80,,,,2,2,0.0,0.0,1.0,0.0,,0.0-82.0,,0.0,976.81,0.0,0.25,1.0,0.7405808970000001,0.0,0.679614108,0.0,0.436436964,True,,5768dabf8e454c000133a60b,,1088403,80,,evan-feature22,full_rf_a,,1
55,28928,81,,,,1,1,0.0,1.0,0.0,-1.0,,0.0-83.0,,-1.0,40.55499996,0.0,0.29890393,1.0,0.730505706,1.0,0.7328203320000001,1.0,0.439256938,True,,5768dabf8e454c000133a60b,,1098273,81,,evan-feature22,full_rf_a,,1
56,28929,82,,,,2,2,0.0,1.0,1.0,0.0,,0.0-84.0,,0.0,244.175,1.0,0.326762398,1.0,0.7148059609999999,0.0,0.75,1.0,0.44389608799999997,True,,5768dabf8e454c000133a60b,,1108342,82,,evan-feature22,full_rf_a,,1
57,28930,83,,,,2,2,1.0,0.0,1.0,0.0,,0.0-85.0,,1.0,32.15499996,0.0,0.295168515,0.0,0.739760854,1.0,0.719947008,0.0,0.35277284600000003,True,,5768dabf8e454c000133a60b,,1118195,83,,evan-feature22,full_rf_a,,0
58,28931,84,,,,2,2,1.0,0.0,1.0,0.0,,0.0-86.0,,1.0,39.39499997,0.0,0.25,1.0,0.70781482,1.0,0.75,0.0,0.286095925,True,,5768dabf8e454c000133a60b,,1128052,84,,evan-feature22,full_rf_a,,0
59,28932,85,,,,2,2,1.0,0.0,0.0,-1.0,,0.0-87.0,,0.0,580.88,0.0,0.25638190899999996,0.0,0.704088163,1.0,0.75,0.0,0.26872601399999996,True,,5768dabf8e454c000133a60b,,1138466,85,,evan-feature22,full_rf_a,,0
60,28933,86,,,,2,2,1.0,1.0,0.0,-1.0,,0.0-88.0,,-1.0,393.32,0.0,0.271581126,1.0,0.669760107,1.0,0.733896663,1.0,0.273244572,True,,5768dabf8e454c000133a60b,,1148698,86,,evan-feature22,full_rf_a,,0
61,28934,87,,,,2,2,1.0,1.0,0.0,-1.0,,0.0-89.0,,-1.0,1894.985,0.0,0.257144401,1.0,0.600575706,1.0,0.74488122,1.0,0.25,True,,5768dabf8e454c000133a60b,,1160429,87,,evan-feature22,full_rf_a,,0
62,28935,88,,,,2,2,0.0,1.0,1.0,0.0,,0.0-90.0,,0.0,315.21,1.0,0.25,0.0,0.616870026,0.0,0.723610234,1.0,0.25,True,,5768dabf8e454c000133a60b,,1170577,88,,evan-feature22,full_rf_a,,0
63,28936,89,,,,1,1,1.0,0.0,0.0,-1.0,,0.0-91.0,,0.0,30.84999998,1.0,0.25,0.0,0.583540187,0.0,0.7041042559999999,0.0,0.285961995,True,,5768dabf8e454c000133a60b,,1180417,89,,evan-feature22,full_rf_a,,1
64,28937,90,,,,1,1,1.0,0.0,1.0,0.0,,0.0-92.0,,1.0,483.325,1.0,0.27254536,0.0,0.53875765,1.0,0.693783448,0.0,0.284961652,True,,5768dabf8e454c000133a60b,,1190742,90,,evan-feature22,full_rf_a,,0
65,28938,91,,,,1,1,0.0,1.0,0.0,-1.0,,0.0-93.0,,-1.0,3.590000037,0.0,0.25,1.0,0.548431252,0.0,0.734221895,0.0,0.279445214,True,,5768dabf8e454c000133a60b,,1200559,91,,evan-feature22,full_rf_a,,0
66,28939,92,,,,2,2,0.0,0.0,1.0,0.0,,0.0-94.0,,0.0,464.75999989999997,0.0,0.258640684,0.0,0.545878066,0.0,0.725245965,0.0,0.31487537,True,,5768dabf8e454c000133a60b,,1210822,92,,evan-feature22,full_rf_a,,1
67,28940,93,,,,1,1,0.0,0.0,1.0,0.0,,0.0-95.0,,0.0,620.46,0.0,0.251103711,0.0,0.5776290629999999,1.0,0.696320133,1.0,0.317831047,True,,5768dabf8e454c000133a60b,,1221264,93,,evan-feature22,full_rf_a,,1
68,28941,94,,,,2,2,1.0,0.0,1.0,0.0,,0.0-96.0,,1.0,207.83,0.0,0.276630292,0.0,0.617329858,1.0,0.73838088,0.0,0.261471582,True,,5768dabf8e454c000133a60b,,1231316,94,,evan-feature22,full_rf_a,,1
69,28942,95,,,,2,2,1.0,0.0,0.0,-1.0,,0.0-97.0,,0.0,107.34,1.0,0.297716424,1.0,0.618863717,1.0,0.7402358259999999,0.0,0.262600834,True,,5768dabf8e454c000133a60b,,1241247,95,,evan-feature22,full_rf_a,,0
70,28943,96,,,,1,1,0.0,1.0,1.0,0.0,,0.0-98.0,,0.0,159.62,0.0,0.290935512,1.0,0.695370945,1.0,0.706570507,0.0,0.280030553,True,,5768dabf8e454c000133a60b,,1251229,96,,evan-feature22,full_rf_a,,1
71,28944,97,,,,1,1,1.0,0.0,1.0,0.0,,0.0-99.0,,1.0,33.31500001,1.0,0.25,0.0,0.6465277079999999,1.0,0.67766682,0.0,0.25,True,,5768dabf8e454c000133a60b,,1261097,97,,evan-feature22,full_rf_a,,0
72,28945,98,,,,1,1,1.0,0.0,1.0,0.0,,0.0-100.0,,1.0,164.555,1.0,0.26463816,0.0,0.636100213,1.0,0.646048507,0.0,0.265607101,True,,5768dabf8e454c000133a60b,,1271090,98,,evan-feature22,full_rf_a,,0
73,28946,99,,,,2,2,0.0,0.0,1.0,0.0,,0.0-101.0,,0.0,476.32,1.0,0.314340707,1.0,0.667795927,0.0,0.613630805,0.0,0.25,True,,5768dabf8e454c000133a60b,,1281403,99,,evan-feature22,full_rf_a,,1
74,28947,100,,,,2,2,1.0,1.0,1.0,0.0,,0.0-102.0,,1.0,397.52,0.0,0.28685784,0.0,0.6622549529999999,1.0,0.652154117,1.0,0.25,True,,5768dabf8e454c000133a60b,,1291620,100,,evan-feature22,full_rf_a,,0
75,28948,101,,,,1,1,0.0,1.0,0.0,-1.0,,0.0-103.0,,-1.0,66.56000001,0.0,0.304106554,1.0,0.631289538,0.0,0.707041942,1.0,0.29314237,True,,5768dabf8e454c000133a60b,,1301487,101,,evan-feature22,full_rf_a,,1
76,28949,102,,,,1,1,1.0,1.0,0.0,-1.0,,0.0-104.0,,-1.0,3.9150000080000003,1.0,0.304806932,1.0,0.571167718,0.0,0.680472346,1.0,0.25,True,,5768dabf8e454c000133a60b,,1311306,102,,evan-feature22,full_rf_a,,0
77,28950,103,,,,1,1,0.0,1.0,0.0,-1.0,,0.0-105.0,,-1.0,24.225,0.0,0.37919861,1.0,0.5724849710000001,1.0,0.705638003,0.0,0.30179300600000003,True,,5768dabf8e454c000133a60b,,1321139,103,,evan-feature22,full_rf_a,,0
78,28951,104,,,,2,2,1.0,0.0,0.0,-1.0,,0.0-106.0,,0.0,53.30500001,1.0,0.464277969,0.0,0.554034373,1.0,0.7372627340000001,0.0,0.264699741,True,,5768dabf8e454c000133a60b,,1331016,104,,evan-feature22,full_rf_a,,1
79,28952,105,,,,2,2,0.0,0.0,1.0,0.0,,0.0-107.0,,0.0,247.365,1.0,0.465104323,0.0,0.530793115,0.0,0.75,0.0,0.31683071,True,,5768dabf8e454c000133a60b,,1341081,105,,evan-feature22,full_rf_a,,0
80,28953,106,,,,2,2,1.0,1.0,0.0,-1.0,,0.0-108.0,,-1.0,1531.34,1.0,0.465104323,1.0,0.530793115,1.0,0.75,1.0,0.31683071,True,,5768dabf8e454c000133a60b,,1352479,106,,evan-feature22,full_rf_a,,0
81,28954,107,,,,2,2,1.0,0.0,0.0,-1.0,,0.0-109.0,,0.0,220.915,0.0,0.46833986,0.0,0.570249239,1.0,0.7244472590000001,0.0,0.364114163,True,,5768dabf8e454c000133a60b,,1362532,107,,evan-feature22,full_rf_a,,0
82,28955,108,,,,2,2,1.0,0.0,0.0,-1.0,,0.0-110.0,,0.0,421.56,0.0,0.445444024,1.0,0.649673355,1.0,0.6845441290000001,0.0,0.300660449,True,,5768dabf8e454c000133a60b,,1372778,108,,evan-feature22,full_rf_a,,0
83,28956,109,,,,1,1,0.0,1.0,0.0,-1.0,,0.0-111.0,,-1.0,831.35,0.0,0.39909721299999995,1.0,0.6715179509999999,1.0,0.742310028,0.0,0.35496088299999995,True,,5768dabf8e454c000133a60b,,1383461,109,,evan-feature22,full_rf_a,,1
84,28957,110,,,,2,2,1.0,0.0,0.0,-1.0,,0.0-112.0,,0.0,130.875,1.0,0.37956104799999996,1.0,0.694725302,1.0,0.7181651309999999,0.0,0.38726906299999997,True,,5768dabf8e454c000133a60b,,1393393,110,,evan-feature22,full_rf_a,,1
85,28958,111,,,,1,1,0.0,0.0,0.0,-1.0,,0.0-113.0,,0.0,690.035,0.0,0.404995034,0.0,0.724375412,1.0,0.6910946859999999,1.0,0.387187347,True,,5768dabf8e454c000133a60b,,1403926,111,,evan-feature22,full_rf_a,,1
86,28959,112,,,,1,1,1.0,0.0,0.0,-1.0,,0.0-114.0,,0.0,118.63,1.0,0.461740803,0.0,0.75,1.0,0.75,0.0,0.34872038200000005,True,,5768dabf8e454c000133a60b,,1413879,112,,evan-feature22,full_rf_a,,0
87,28960,113,,,,1,1,1.0,1.0,1.0,0.0,,0.0-115.0,,1.0,445.765,1.0,0.43821380600000004,1.0,0.738833273,1.0,0.728286963,1.0,0.399538128,True,,5768dabf8e454c000133a60b,,1424144,113,,evan-feature22,full_rf_a,,0
88,28961,114,,,,1,1,0.0,0.0,0.0,-1.0,,0.0-116.0,,0.0,105.305,0.0,0.41709882,0.0,0.736666736,1.0,0.75,0.0,0.389095584,True,,5768dabf8e454c000133a60b,,1434086,114,,evan-feature22,full_rf_a,,0
89,28962,115,,,,1,1,0.0,0.0,0.0,-1.0,,0.0-117.0,,0.0,668.585,0.0,0.39749009799999996,0.0,0.744320029,0.0,0.75,0.0,0.363848678,True,,5768dabf8e454c000133a60b,,1444588,115,,evan-feature22,full_rf_a,,0
90,28963,116,,,,2,2,0.0,1.0,1.0,0.0,,0.0-118.0,,0.0,1239.605,0.0,0.392653706,1.0,0.75,0.0,0.75,1.0,0.384386976,True,,5768dabf8e454c000133a60b,,1455654,116,,evan-feature22,full_rf_a,,1
91,28964,117,,,,1,1,0.0,1.0,1.0,0.0,,0.0-119.0,,0.0,381.49,0.0,0.31190902600000003,1.0,0.75,0.0,0.732413819,1.0,0.413082932,True,,5768dabf8e454c000133a60b,,1465851,117,,evan-feature22,full_rf_a,,1
92,28965,118,,,,2,2,1.0,1.0,0.0,-1.0,,0.0-120.0,,-1.0,98.26,0.0,0.366917648,0.0,0.740073855,1.0,0.75,1.0,0.352861979,True,,5768dabf8e454c000133a60b,,1475772,118,,evan-feature22,full_rf_a,,1
93,28966,119,,,,1,1,0.0,1.0,0.0,-1.0,,0.0-121.0,,-1.0,329.085,0.0,0.3645172,1.0,0.721770713,0.0,0.75,1.0,0.404074511,True,,5768dabf8e454c000133a60b,,1485933,119,,evan-feature22,full_rf_a,,1
94,28967,120,,,,1,1,0.0,0.0,0.0,-1.0,,0.0-122.0,,0.0,53.24000004,0.0,0.35205600299999995,0.0,0.68983859,1.0,0.739735447,1.0,0.366895945,True,,5768dabf8e454c000133a60b,,1495799,120,,evan-feature22,full_rf_a,,0
95,28968,121,,,,1,1,0.0,1.0,0.0,-1.0,,0.0-123.0,,-1.0,184.685,0.0,0.40998722600000004,1.0,0.720859127,1.0,0.673854955,1.0,0.368528541,True,,5768dabf8e454c000133a60b,,1505817,121,,evan-feature22,full_rf_a,,0
96,28969,122,,,,1,1,1.0,0.0,1.0,0.0,,0.0-124.0,,1.0,1324.45,1.0,0.353625316,0.0,0.75,0.0,0.695605473,0.0,0.38303674200000004,True,,5768dabf8e454c000133a60b,,1516963,122,,evan-feature22,full_rf_a,,0
97,28970,123,,,,1,1,1.0,0.0,0.0,-1.0,,0.0-125.0,,0.0,92.01999998,1.0,0.359216989,0.0,0.75,1.0,0.6987915090000001,0.0,0.35169046200000004,True,,5768dabf8e454c000133a60b,,1526881,123,,evan-feature22,full_rf_a,,0
98,28971,124,,,,2,2,1.0,1.0,1.0,0.0,,0.0-126.0,,1.0,591.215,0.0,0.35834496899999996,1.0,0.75,1.0,0.707067742,1.0,0.416763636,True,,5768dabf8e454c000133a60b,,1537313,124,,evan-feature22,full_rf_a,,1
99,28972,125,,,,2,2,0.0,1.0,1.0,0.0,,0.0-127.0,,0.0,304.26,0.0,0.38741613799999997,1.0,0.7177369570000001,0.0,0.734902455,1.0,0.49438664299999996,True,,5768dabf8e454c000133a60b,,1547444,125,,evan-feature22,full_rf_a,,0
100,28973,126,,,,2,2,1.0,1.0,0.0,-1.0,,0.0-128.0,,-1.0,100.1,0.0,0.405255252,0.0,0.7300466640000001,1.0,0.7027748070000001,1.0,0.504359668,True,,5768dabf8e454c000133a60b,,1557411,126,,evan-feature22,full_rf_a,,0
101,28974,127,,,,1,1,0.0,1.0,0.0,-1.0,,0.0-129.0,,-1.0,52.64999997,0.0,0.40697073,1.0,0.7260142190000001,1.0,0.724461982,1.0,0.522779179,True,,5768dabf8e454c000133a60b,,1567289,127,,evan-feature22,full_rf_a,,1
102,28975,128,,,,1,1,1.0,1.0,0.0,-1.0,,0.0-130.0,,-1.0,545.685,1.0,0.43906215299999996,1.0,0.7252802340000001,1.0,0.719079934,0.0,0.5712990579999999,True,,5768dabf8e454c000133a60b,,1577691,128,,evan-feature22,full_rf_a,,0
103,28976,129,,,,1,1,1.0,1.0,0.0,-1.0,,0.0-131.0,,-1.0,11.765,1.0,0.4076705,1.0,0.73280499,1.0,0.681313127,0.0,0.523891346,True,,5768dabf8e454c000133a60b,,1587492,129,,evan-feature22,full_rf_a,,0
104,28977,130,,,,2,2,0.0,0.0,0.0,-1.0,,0.0-132.0,,0.0,92.84999996,0.0,0.399102911,0.0,0.730498344,0.0,0.661080239,0.0,0.46742603,True,,5768dabf8e454c000133a60b,,1597410,130,,evan-feature22,full_rf_a,,1
105,28978,131,,,,2,2,0.0,0.0,1.0,0.0,,0.0-133.0,,0.0,158.51,1.0,0.356477282,1.0,0.712296395,0.0,0.641812684,0.0,0.44868414,True,,5768dabf8e454c000133a60b,,1607382,131,,evan-feature22,full_rf_a,,0
106,28979,132,,,,2,2,1.0,0.0,0.0,-1.0,,0.0-134.0,,0.0,279.39,1.0,0.462760722,0.0,0.692349322,1.0,0.700947931,0.0,0.394680266,True,,5768dabf8e454c000133a60b,,1617483,132,,evan-feature22,full_rf_a,,0
107,28980,133,,,,2,2,0.0,1.0,0.0,-1.0,,0.0-135.0,,-1.0,43.43000002,1.0,0.422306413,1.0,0.718375916,0.0,0.706340917,1.0,0.367787185,True,,5768dabf8e454c000133a60b,,1627331,133,,evan-feature22,full_rf_a,,0
108,28982,135,,,,2,2,1.0,0.0,0.0,-1.0,,0.0-137.0,,0.0,1503.25,0.0,0.4582233,1.0,0.643834117,1.0,0.75,0.0,0.39615823299999997,True,,5768dabf8e454c000133a60b,,1642005,135,,evan-feature22,full_rf_a,,0
109,28983,136,,,,1,1,0.0,0.0,0.0,-1.0,,0.0-138.0,,0.0,111.31,0.0,0.43813437899999996,0.0,0.651283804,1.0,0.729674191,0.0,0.37711048,True,,5768dabf8e454c000133a60b,,1651952,136,,evan-feature22,full_rf_a,,1
110,28984,137,,,,2,2,1.0,0.0,0.0,-1.0,,0.0-139.0,,0.0,185.375,1.0,0.471199094,1.0,0.6470010979999999,1.0,0.715008097,0.0,0.410656191,True,,5768dabf8e454c000133a60b,,1661952,137,,evan-feature22,full_rf_a,,1
111,28985,138,,,,2,2,0.0,1.0,1.0,0.0,,0.0-140.0,,0.0,69.02999996,0.0,0.42486406,1.0,0.629771829,0.0,0.6550939960000001,1.0,0.459093873,True,,5768dabf8e454c000133a60b,,1671851,138,,evan-feature22,full_rf_a,,0
112,28986,139,,,,2,2,0.0,1.0,1.0,0.0,,0.0-141.0,,0.0,270.34,0.0,0.4803197,0.0,0.645842715,0.0,0.6421749920000001,1.0,0.443092151,True,,5768dabf8e454c000133a60b,,1681968,139,,evan-feature22,full_rf_a,,0
113,28987,140,,,,2,2,1.0,1.0,1.0,0.0,,0.0-142.0,,1.0,82.635,1.0,0.521848997,1.0,0.735801074,1.0,0.6691348460000001,1.0,0.45259351600000003,True,,5768dabf8e454c000133a60b,,1691883,140,,evan-feature22,full_rf_a,,0
114,28988,141,,,,2,2,1.0,0.0,0.0,-1.0,,0.0-143.0,,0.0,254.365,0.0,0.49565621299999996,1.0,0.742400847,1.0,0.661512553,0.0,0.483110831,True,,5768dabf8e454c000133a60b,,1701982,141,,evan-feature22,full_rf_a,,0
115,28989,142,,,,2,2,1.0,1.0,1.0,0.0,,0.0-144.0,,1.0,107.29,1.0,0.521564361,1.0,0.731078632,1.0,0.6774886809999999,1.0,0.483263956,True,,5768dabf8e454c000133a60b,,1711948,142,,evan-feature22,full_rf_a,,0
116,28990,143,,,,1,1,1.0,1.0,1.0,0.0,,0.0-145.0,,1.0,366.875,1.0,0.558893102,1.0,0.719810023,1.0,0.67461031,0.0,0.499349834,True,,5768dabf8e454c000133a60b,,1722147,143,,evan-feature22,full_rf_a,,1
117,28991,144,,,,2,2,0.0,1.0,0.0,-1.0,,0.0-146.0,,-1.0,320.205,1.0,0.611031046,0.0,0.75,0.0,0.688072995,1.0,0.5321422729999999,True,,5768dabf8e454c000133a60b,,1732296,144,,evan-feature22,full_rf_a,,1
118,28992,145,,,,1,1,1.0,1.0,1.0,0.0,,0.0-147.0,,1.0,55.94999995,1.0,0.633223941,1.0,0.713567728,1.0,0.75,0.0,0.48185314700000004,True,,5768dabf8e454c000133a60b,,1742182,145,,evan-feature22,full_rf_a,,1
119,28993,146,,,,2,2,1.0,1.0,1.0,0.0,,0.0-148.0,,1.0,259.93,1.0,0.664001694,1.0,0.705509768,1.0,0.75,1.0,0.500211065,True,,5768dabf8e454c000133a60b,,1752258,146,,evan-feature22,full_rf_a,,1
120,28994,147,,,,1,1,1.0,1.0,0.0,-1.0,,0.0-149.0,,-1.0,427.53,1.0,0.664001694,1.0,0.705509768,1.0,0.75,1.0,0.500211065,True,,5768dabf8e454c000133a60b,,1762525,147,,evan-feature22,full_rf_a,,1
121,28995,148,,,,2,2,1.0,1.0,0.0,-1.0,,0.0-150.0,,-1.0,257.3,1.0,0.696508041,1.0,0.71066027,1.0,0.717028709,1.0,0.49792991,True,,5768dabf8e454c000133a60b,,1772628,148,,evan-feature22,full_rf_a,,1
122,28996,149,,,,2,2,0.0,1.0,1.0,0.0,,0.0-151.0,,0.0,228.56,1.0,0.699883272,0.0,0.75,0.0,0.713543895,1.0,0.496962643,True,,5768dabf8e454c000133a60b,,1782690,149,,evan-feature22,full_rf_a,,0
123,28997,150,,,,1,1,0.0,1.0,0.0,-1.0,,0.0-152.0,,-1.0,2155.955,0.0,0.741163419,1.0,0.75,0.0,0.64691024,1.0,0.513858197,True,,5768dabf8e454c000133a60b,,1794676,150,,evan-feature22,full_rf_a,,1
124,28998,151,,,,2,2,0.0,0.0,1.0,0.0,,0.0-153.0,,0.0,90.36999999,1.0,0.75,1.0,0.70816558,0.0,0.594499079,0.0,0.48502124,True,,5768dabf8e454c000133a60b,,1804595,151,,evan-feature22,full_rf_a,,1
125,28999,152,,,,2,2,0.0,0.0,0.0,-1.0,,0.0-154.0,,0.0,124.24,0.0,0.75,1.0,0.721848901,0.0,0.62197249,0.0,0.48263586399999997,True,,5768dabf8e454c000133a60b,,1814570,152,,evan-feature22,full_rf_a,,0
126,29000,153,,,,2,2,1.0,1.0,1.0,0.0,,0.0-155.0,,1.0,131.99,0.0,0.75,1.0,0.74813071,1.0,0.584357161,1.0,0.411477782,True,,5768dabf8e454c000133a60b,,1824541,153,,evan-feature22,full_rf_a,,0
127,29001,154,,,,SLOW,SLOW,,,0.0,-1.0,,0.0-156.0,,-3.0,,1.0,0.75,1.0,0.75,0.0,0.52287236,1.0,0.488290656,True,,5768dabf8e454c000133a60b,,1830368,154,,evan-feature22,full_rf_a,,1
128,29002,155,,,,SLOW,SLOW,,,0.0,-1.0,,0.0-157.0,,-3.0,,1.0,0.75,1.0,0.75,1.0,0.544321581,1.0,0.53143059,True,,5768dabf8e454c000133a60b,,1836201,155,,evan-feature22,full_rf_a,,0
129,29003,156,,,,SLOW,SLOW,,,0.0,-1.0,,0.0-158.0,,-3.0,,1.0,0.726754564,1.0,0.75,1.0,0.5129306370000001,1.0,0.530592445,True,,5768dabf8e454c000133a60b,,1842020,156,,evan-feature22,full_rf_a,,0
130,29004,157,,,,SLOW,SLOW,,,1.0,0.0,,0.0-159.0,,-3.0,,1.0,0.75,1.0,0.7392590729999999,0.0,0.479875835,0.0,0.547007051,True,,5768dabf8e454c000133a60b,,1847867,157,,evan-feature22,full_rf_a,,0
131,29005,158,,,,2,2,0.0,1.0,1.0,0.0,,0.0-160.0,,0.0,2366.745,0.0,0.75,1.0,0.7393376979999999,0.0,0.546045419,1.0,0.541267353,True,,5768dabf8e454c000133a60b,,1860068,158,,evan-feature22,full_rf_a,,1
132,29006,159,,,,1,1,0.0,1.0,1.0,0.0,,0.0-161.0,,0.0,493.39,0.0,0.75,1.0,0.75,1.0,0.485725895,0.0,0.527625395,True,,5768dabf8e454c000133a60b,,1870383,159,,evan-feature22,full_rf_a,,1
133,29007,160,,,,2,2,1.0,1.0,0.0,-1.0,,0.0-162.0,,-1.0,963.72,1.0,0.75,1.0,0.725087974,1.0,0.488603595,1.0,0.504019206,True,,5768dabf8e454c000133a60b,,1881175,160,,evan-feature22,full_rf_a,,1
134,29008,161,,,,2,2,0.0,1.0,0.0,-1.0,,0.0-163.0,,-1.0,593.595,1.0,0.745504295,1.0,0.75,0.0,0.452379914,1.0,0.50131194,True,,5768dabf8e454c000133a60b,,1891582,161,,evan-feature22,full_rf_a,,0
135,29009,162,,,,1,1,1.0,1.0,0.0,-1.0,,0.0-164.0,,-1.0,219.35,1.0,0.728513874,1.0,0.75,0.0,0.44125567200000004,1.0,0.531454591,True,,5768dabf8e454c000133a60b,,1901633,162,,evan-feature22,full_rf_a,,1
136,29010,163,,,,2,2,0.0,0.0,1.0,0.0,,0.0-165.0,,0.0,163.005,0.0,0.73790804,0.0,0.75,0.0,0.413036656,0.0,0.524619035,True,,5768dabf8e454c000133a60b,,1911624,163,,evan-feature22,full_rf_a,,1
137,29011,164,,,,2,2,1.0,0.0,0.0,-1.0,,0.0-166.0,,0.0,759.34,1.0,0.7080961309999999,1.0,0.708666865,1.0,0.431915581,0.0,0.481819489,True,,5768dabf8e454c000133a60b,,1922197,164,,evan-feature22,full_rf_a,,0
138,29012,165,,,,2,2,1.0,0.0,0.0,-1.0,,0.0-167.0,,0.0,1081.09,1.0,0.721378003,0.0,0.71605913,1.0,0.36642387,0.0,0.5036739929999999,True,,5768dabf8e454c000133a60b,,1933110,165,,evan-feature22,full_rf_a,,0
139,29013,166,,,,1,1,1.0,1.0,0.0,-1.0,,0.0-168.0,,-1.0,361.205,1.0,0.7340618959999999,1.0,0.699323252,1.0,0.35298046299999997,1.0,0.511241692,True,,5768dabf8e454c000133a60b,,1943311,166,,evan-feature22,full_rf_a,,1
140,29014,167,,,,2,2,0.0,1.0,1.0,0.0,,0.0-169.0,,0.0,85.50499997,1.0,0.75,0.0,0.70412698,0.0,0.380734814,1.0,0.529580116,True,,5768dabf8e454c000133a60b,,1953214,167,,evan-feature22,full_rf_a,,1
141,29015,168,,,,2,2,0.0,1.0,0.0,-1.0,,0.0-170.0,,-1.0,10.15000005,1.0,0.7436654909999999,0.0,0.711182751,0.0,0.41125331,1.0,0.49554405,True,,5768dabf8e454c000133a60b,,1963024,168,,evan-feature22,full_rf_a,,0
142,29016,169,,,,2,2,1.0,0.0,0.0,-1.0,,0.0-171.0,,0.0,135.025,1.0,0.731607915,0.0,0.651774583,1.0,0.35688023,0.0,0.45194491600000003,True,,5768dabf8e454c000133a60b,,1972990,169,,evan-feature22,full_rf_a,,0
143,29017,170,,,,SLOW,SLOW,,,1.0,0.0,,0.0-172.0,,-3.0,,1.0,0.75,1.0,0.75,0.0,0.283145374,1.0,0.528608005,True,,5768dabf8e454c000133a60b,,1978820,170,,evan-feature22,full_rf_a,,1
144,29018,171,,,,2,2,0.0,0.0,1.0,0.0,,0.0-173.0,,0.0,506.05,1.0,0.7491416890000001,1.0,0.7423785959999999,0.0,0.29135870399999997,0.0,0.498888318,True,,5768dabf8e454c000133a60b,,1989139,171,,evan-feature22,full_rf_a,,1
145,29019,172,,,,2,2,0.0,1.0,1.0,0.0,,0.0-174.0,,0.0,1624.115,1.0,0.708569387,1.0,0.717682277,0.0,0.294421699,1.0,0.493838163,True,,5768dabf8e454c000133a60b,,2000586,172,,evan-feature22,full_rf_a,,0
146,29020,173,,,,2,2,1.0,0.0,0.0,-1.0,,0.0-175.0,,0.0,292.19,1.0,0.75,1.0,0.7383382159999999,1.0,0.356098707,0.0,0.442533405,True,,5768dabf8e454c000133a60b,,2010689,173,,evan-feature22,full_rf_a,,0
147,29021,174,,,,2,2,0.0,1.0,0.0,-1.0,,0.0-176.0,,-1.0,411.525,1.0,0.744527075,1.0,0.75,0.0,0.334127506,1.0,0.393165805,True,,5768dabf8e454c000133a60b,,2020907,174,,evan-feature22,full_rf_a,,0
148,29022,175,,,,SLOW,SLOW,,,0.0,-1.0,,0.0-177.0,,-3.0,,1.0,0.75,0.0,0.75,1.0,0.33571021799999995,0.0,0.350393962,True,,5768dabf8e454c000133a60b,,2026726,175,,evan-feature22,full_rf_a,,1
149,29023,176,,,,2,2,1.0,1.0,0.0,-1.0,,0.0-178.0,,-1.0,122.66,1.0,0.75,1.0,0.75,1.0,0.313628297,1.0,0.36349657399999996,True,,5768dabf8e454c000133a60b,,2036691,176,,evan-feature22,full_rf_a,,1
150,29024,177,,,,1,1,0.0,1.0,1.0,0.0,,0.0-179.0,,0.0,138.01,0.0,0.75,1.0,0.734284182,0.0,0.262667667,0.0,0.380199119,True,,5768dabf8e454c000133a60b,,2046638,177,,evan-feature22,full_rf_a,,1
151,29025,178,,,,SLOW,SLOW,,,0.0,-1.0,,0.0-180.0,,-3.0,,1.0,0.75,1.0,0.75,0.0,0.25,0.0,0.394494013,True,,5768dabf8e454c000133a60b,,2052466,178,,evan-feature22,full_rf_a,,1
152,29026,179,,,,SLOW,SLOW,,,1.0,0.0,,0.0-181.0,,-3.0,,1.0,0.722298145,0.0,0.7357822340000001,1.0,0.25,1.0,0.319142121,True,,5768dabf8e454c000133a60b,,2058315,179,,evan-feature22,full_rf_a,,0
153,29027,180,,,,SLOW,SLOW,,,1.0,0.0,,0.0-182.0,,-3.0,,1.0,0.73149275,0.0,0.724276446,1.0,0.305856907,1.0,0.281315057,True,,5768dabf8e454c000133a60b,,2064163,180,,evan-feature22,full_rf_a,,0
154,29028,181,,,,SLOW,SLOW,,,0.0,-1.0,,0.0-183.0,,-3.0,,1.0,0.7458732690000001,1.0,0.7336382459999999,0.0,0.272571964,0.0,0.266021999,True,,5768dabf8e454c000133a60b,,2069982,181,,evan-feature22,full_rf_a,,0
155,29029,182,,,,SLOW,SLOW,,,0.0,-1.0,,0.0-184.0,,-3.0,,0.0,0.705579037,0.0,0.720778292,0.0,0.320238144,0.0,0.30971744,True,,5768dabf8e454c000133a60b,,2075828,182,,evan-feature22,full_rf_a,,0
156,29030,183,,,,SLOW,SLOW,,,0.0,-1.0,,0.0-185.0,,-3.0,,1.0,0.700425648,0.0,0.7198784009999999,0.0,0.272590393,0.0,0.304182931,True,,5768dabf8e454c000133a60b,,2081648,183,,evan-feature22,full_rf_a,,0
157,29031,184,,,,SLOW,SLOW,,,0.0,-1.0,,0.0-186.0,,-3.0,,0.0,0.735590785,1.0,0.722714973,0.0,0.25,0.0,0.323421091,True,,5768dabf8e454c000133a60b,,2087495,184,,evan-feature22,full_rf_a,,0
158,29032,185,,,,2,2,0.0,1.0,0.0,-1.0,,0.0-187.0,,-1.0,89.18499999,1.0,0.724807662,1.0,0.63146213,0.0,0.36836492600000004,1.0,0.34592153299999995,True,,5768dabf8e454c000133a60b,,2097395,185,,evan-feature22,full_rf_a,,1
159,29033,186,,,,1,1,0.0,1.0,0.0,-1.0,,0.0-188.0,,-1.0,126.545,0.0,0.7352796909999999,1.0,0.555111392,1.0,0.36003922,0.0,0.31433779999999995,True,,5768dabf8e454c000133a60b,,2107358,186,,evan-feature22,full_rf_a,,1
160,29034,187,notice,,,,,,,,,,0.0-189.0,"{""Q0"":""fewer yellows?""}",,11887.0,,,,,,,,,True,,5768dabf8e454c000133a60b,,2119247,187,Q,survey-text,full_rf_a,,1
161,29035,188,track1,,[1],,,,,,,,0.0-190.0,"{""Q0"":""no""}",,3183.0,,,,,,,,,True,,5768dabf8e454c000133a60b,,2122433,188,Q,evan-quiz,full_rf_a,,1
162,29036,189,track2,,[1],,,,,,,,0.0-191.0,"{""Q0"":""no""}",,3784.0,,,,,,,,,True,,5768dabf8e454c000133a60b,,2126220,189,Q,evan-quiz,full_rf_a,,1
163,29037,190,strat,,,,,,,,,,0.0-192.0,"{""Q0"":""i tried to feel it out, but am not sure that i succeeded at all!""}",,17693.0,,,,,,,,,True,,5768dabf8e454c000133a60b,,2143915,190,Q,survey-text,full_rf_a,,1
