,index,Unnamed: 0,Q_name,button_pressed,choice_idxs,chosen_pos,chosen_state,chosen_state_f_1_outcome,chosen_state_f_2_outcome,f_1_reward,f_2_reward,incor_questions,internal_node_id,responses,reward_received,rt,s_1_f_1_outcome,s_1_f_1_prob,s_1_f_2_outcome,s_1_f_2_prob,s_2_f_1_outcome,s_2_f_1_prob,s_2_f_2_outcome,s_2_f_2_prob,safe_first,stimulus,subjectID,success,time_elapsed,trial_index,trial_num,trial_type,version,view_history,switching
0,17700,30,,,,1,1,0.0,1.0,0.0,-1.0,,0.0-27.0,,-1.0,1677.28,0.0,0.6,1.0,0.6,0.0,0.4,0.0,0.4,False,,5db0e17518230d00170d4332,,1481827,30,,evan-feature22,full_pf_a,,0
1,17701,31,,,,2,2,0.0,0.0,0.0,-1.0,,0.0-28.0,,0.0,1419.65,1.0,0.608053294,0.0,0.63424552,0.0,0.397152172,0.0,0.347069101,False,,5db0e17518230d00170d4332,,1493029,31,,evan-feature22,full_pf_a,,1
2,17702,32,,,,1,1,0.0,1.0,0.0,-1.0,,0.0-29.0,,-1.0,757.62,0.0,0.642237155,1.0,0.648566321,0.0,0.389407674,1.0,0.285525717,False,,5db0e17518230d00170d4332,,1503568,32,,evan-feature22,full_pf_a,,1
3,17703,33,,,,2,2,1.0,0.0,0.0,-1.0,,0.0-30.0,,0.0,571.6249999,0.0,0.661086576,1.0,0.630492543,1.0,0.399058924,0.0,0.25,False,,5db0e17518230d00170d4332,,1513932,33,,evan-feature22,full_pf_a,,1
4,17704,34,,,,2,2,0.0,0.0,0.0,-1.0,,0.0-31.0,,0.0,1055.635,1.0,0.631324137,1.0,0.6269842929999999,0.0,0.38734784299999997,0.0,0.25,False,,5db0e17518230d00170d4332,,1524785,34,,evan-feature22,full_pf_a,,0
5,17705,35,,,,2,2,0.0,0.0,0.0,-1.0,,0.0-32.0,,0.0,1498.025,0.0,0.6381991370000001,0.0,0.68987999,0.0,0.384107265,0.0,0.271332943,False,,5db0e17518230d00170d4332,,1536086,35,,evan-feature22,full_pf_a,,0
6,17706,36,,,,2,2,1.0,0.0,0.0,-1.0,,0.0-33.0,,0.0,908.0000001,1.0,0.66034901,1.0,0.742641349,1.0,0.360225629,0.0,0.25,False,,5db0e17518230d00170d4332,,1546808,36,,evan-feature22,full_pf_a,,0
7,17707,37,,,,2,2,0.0,0.0,1.0,0.0,,0.0-34.0,,0.0,500.885,1.0,0.638612418,1.0,0.75,0.0,0.367273939,0.0,0.25,False,,5db0e17518230d00170d4332,,1557105,37,,evan-feature22,full_pf_a,,0
8,17708,38,,,,2,2,0.0,0.0,0.0,-1.0,,0.0-35.0,,0.0,624.265,0.0,0.624340629,1.0,0.75,0.0,0.425829545,0.0,0.25,False,,5db0e17518230d00170d4332,,1567542,38,,evan-feature22,full_pf_a,,0
9,17709,39,,,,2,2,0.0,0.0,0.0,-1.0,,0.0-36.0,,0.0,611.7200002000001,1.0,0.621999804,1.0,0.75,0.0,0.368609357,0.0,0.25,False,,5db0e17518230d00170d4332,,1577953,39,,evan-feature22,full_pf_a,,0
10,17710,40,,,,1,1,1.0,1.0,1.0,0.0,,0.0-37.0,,1.0,1270.435,1.0,0.62666403,1.0,0.75,0.0,0.311151498,0.0,0.25,False,,5db0e17518230d00170d4332,,1589018,40,,evan-feature22,full_pf_a,,1
11,17711,41,,,,1,1,0.0,1.0,1.0,0.0,,0.0-38.0,,0.0,521.3500001,0.0,0.6819650009999999,1.0,0.75,0.0,0.310763048,1.0,0.25,False,,5db0e17518230d00170d4332,,1599339,41,,evan-feature22,full_pf_a,,0
12,17712,42,,,,1,1,0.0,1.0,0.0,-1.0,,0.0-39.0,,-1.0,405.7649998,0.0,0.740626951,1.0,0.75,0.0,0.25,0.0,0.25,False,,5db0e17518230d00170d4332,,1609565,42,,evan-feature22,full_pf_a,,0
13,17713,43,,,,1,1,1.0,1.0,0.0,-1.0,,0.0-40.0,,-1.0,348.0750001,1.0,0.739599242,1.0,0.742034978,0.0,0.25397114600000004,1.0,0.25,False,,5db0e17518230d00170d4332,,1619737,43,,evan-feature22,full_pf_a,,0
14,17714,44,,,,1,1,1.0,1.0,0.0,-1.0,,0.0-41.0,,-1.0,507.15,1.0,0.732341315,1.0,0.72735643,1.0,0.25,1.0,0.25,False,,5db0e17518230d00170d4332,,1630042,44,,evan-feature22,full_pf_a,,0
15,17715,45,,,,1,1,1.0,1.0,0.0,-1.0,,0.0-42.0,,-1.0,476.87500020000004,1.0,0.7062287770000001,1.0,0.75,0.0,0.29002151,0.0,0.288256649,False,,5db0e17518230d00170d4332,,1640316,45,,evan-feature22,full_pf_a,,0
16,17716,46,,,,1,1,1.0,1.0,1.0,0.0,,0.0-43.0,,1.0,629.9000001,1.0,0.7086029209999999,1.0,0.75,0.0,0.274129113,0.0,0.262851608,False,,5db0e17518230d00170d4332,,1650768,46,,evan-feature22,full_pf_a,,0
17,17717,47,,,,1,1,1.0,1.0,0.0,-1.0,,0.0-44.0,,-1.0,440.3049999,1.0,0.669189651,1.0,0.727614338,1.0,0.298444036,0.0,0.296944518,False,,5db0e17518230d00170d4332,,1661037,47,,evan-feature22,full_pf_a,,0
18,17718,48,,,,2,2,0.0,0.0,1.0,0.0,,0.0-45.0,,0.0,1275.105,1.0,0.6819912929999999,0.0,0.7179434290000001,0.0,0.265003961,0.0,0.28157921199999997,False,,5db0e17518230d00170d4332,,1672113,48,,evan-feature22,full_pf_a,,1
19,17719,49,,,,1,1,0.0,1.0,1.0,0.0,,0.0-46.0,,0.0,971.8249999,0.0,0.665275002,1.0,0.723065271,0.0,0.260414971,0.0,0.30973870000000003,False,,5db0e17518230d00170d4332,,1682869,49,,evan-feature22,full_pf_a,,1
20,17720,50,,,,1,1,1.0,1.0,0.0,-1.0,,0.0-47.0,,-1.0,345.5750002,1.0,0.6660593260000001,1.0,0.728032907,1.0,0.30922817,1.0,0.338778608,False,,5db0e17518230d00170d4332,,1693001,50,,evan-feature22,full_pf_a,,0
21,17721,51,,,,1,1,1.0,1.0,0.0,-1.0,,0.0-48.0,,-1.0,413.3799998,1.0,0.702068785,1.0,0.6528750879999999,0.0,0.287329608,0.0,0.35789613200000003,False,,5db0e17518230d00170d4332,,1703206,51,,evan-feature22,full_pf_a,,0
22,17722,52,,,,1,1,1.0,0.0,0.0,-1.0,,0.0-49.0,,0.0,888.635,1.0,0.651939787,0.0,0.636725589,0.0,0.284834488,1.0,0.358563756,False,,5db0e17518230d00170d4332,,1713883,52,,evan-feature22,full_pf_a,,0
23,17723,53,,,,1,1,0.0,1.0,0.0,-1.0,,0.0-50.0,,-1.0,743.03,0.0,0.67573929,1.0,0.612550049,1.0,0.37130387600000003,0.0,0.383542402,False,,5db0e17518230d00170d4332,,1724408,53,,evan-feature22,full_pf_a,,0
24,17724,54,,,,1,1,1.0,0.0,0.0,-1.0,,0.0-51.0,,0.0,707.01,1.0,0.620753801,0.0,0.60513644,1.0,0.385529434,0.0,0.340361743,False,,5db0e17518230d00170d4332,,1734911,54,,evan-feature22,full_pf_a,,0
25,17725,55,,,,1,1,1.0,1.0,1.0,0.0,,0.0-52.0,,1.0,762.4550001,1.0,0.673564893,1.0,0.672437924,0.0,0.292955382,1.0,0.337633795,False,,5db0e17518230d00170d4332,,1745462,55,,evan-feature22,full_pf_a,,0
26,17726,56,,,,2,2,0.0,1.0,0.0,-1.0,,0.0-53.0,,-1.0,480.4400001,1.0,0.6749427,0.0,0.724197502,0.0,0.32391132100000003,1.0,0.350995264,False,,5db0e17518230d00170d4332,,1755722,56,,evan-feature22,full_pf_a,,1
27,17727,57,,,,2,2,1.0,0.0,0.0,-1.0,,0.0-54.0,,0.0,509.75999979999995,1.0,0.6940159379999999,1.0,0.75,1.0,0.31710554399999996,0.0,0.413450341,False,,5db0e17518230d00170d4332,,1766017,57,,evan-feature22,full_pf_a,,0
28,17728,58,,,,1,1,1.0,0.0,0.0,-1.0,,0.0-55.0,,0.0,365.24,1.0,0.6916018270000001,0.0,0.69001187,0.0,0.261817804,1.0,0.40038635,False,,5db0e17518230d00170d4332,,1776165,58,,evan-feature22,full_pf_a,,1
29,17729,59,,,,2,2,0.0,0.0,0.0,-1.0,,0.0-56.0,,0.0,470.42500020000006,0.0,0.641061544,1.0,0.71337992,0.0,0.277296461,0.0,0.47372791700000005,False,,5db0e17518230d00170d4332,,1786428,59,,evan-feature22,full_pf_a,,1
30,17730,60,,,,1,1,1.0,1.0,0.0,-1.0,,0.0-57.0,,-1.0,428.3500002,1.0,0.6082438520000001,1.0,0.708471106,0.0,0.28745137,1.0,0.564174476,False,,5db0e17518230d00170d4332,,1796687,60,,evan-feature22,full_pf_a,,1
31,17731,61,,,,2,2,0.0,1.0,1.0,0.0,,0.0-58.0,,0.0,422.1599998,1.0,0.6051112120000001,1.0,0.7118147229999999,0.0,0.272390611,1.0,0.5595149939999999,False,,5db0e17518230d00170d4332,,1806932,61,,evan-feature22,full_pf_a,,1
32,17732,62,,,,2,2,0.0,1.0,1.0,0.0,,0.0-59.0,,0.0,384.80000010000003,1.0,0.582420852,1.0,0.635867583,0.0,0.31089574,1.0,0.5227206520000001,False,,5db0e17518230d00170d4332,,1817156,62,,evan-feature22,full_pf_a,,0
33,17733,63,,,,2,2,0.0,1.0,1.0,0.0,,0.0-60.0,,0.0,596.9500002,1.0,0.623195575,1.0,0.655026044,0.0,0.25,1.0,0.560387538,False,,5db0e17518230d00170d4332,,1827557,63,,evan-feature22,full_pf_a,,0
34,17734,64,,,,2,2,1.0,1.0,0.0,-1.0,,0.0-61.0,,-1.0,1181.02,0.0,0.601889598,1.0,0.678198724,1.0,0.25,1.0,0.559922936,False,,5db0e17518230d00170d4332,,1838515,64,,evan-feature22,full_pf_a,,0
35,17735,65,,,,1,1,1.0,1.0,1.0,0.0,,0.0-62.0,,1.0,448.2,1.0,0.601259914,1.0,0.704681482,0.0,0.33908969299999997,1.0,0.505003715,False,,5db0e17518230d00170d4332,,1848789,65,,evan-feature22,full_pf_a,,1
36,17736,66,,,,1,1,1.0,1.0,1.0,0.0,,0.0-63.0,,1.0,889.1199999,1.0,0.59645454,1.0,0.710437172,1.0,0.327441879,0.0,0.391749613,False,,5db0e17518230d00170d4332,,1859487,66,,evan-feature22,full_pf_a,,0
37,17737,67,,,,2,2,0.0,1.0,0.0,-1.0,,0.0-64.0,,-1.0,444.26,1.0,0.529473,1.0,0.636758527,0.0,0.301338063,1.0,0.365661481,False,,5db0e17518230d00170d4332,,1869763,67,,evan-feature22,full_pf_a,,1
38,17738,68,,,,1,1,1.0,1.0,1.0,0.0,,0.0-65.0,,1.0,586.405,1.0,0.541657162,1.0,0.634541962,0.0,0.343535366,1.0,0.371763742,False,,5db0e17518230d00170d4332,,1880157,68,,evan-feature22,full_pf_a,,1
39,17739,69,,,,1,1,0.0,0.0,1.0,0.0,,0.0-66.0,,0.0,1215.725,0.0,0.5707533260000001,0.0,0.589121171,1.0,0.326428396,1.0,0.43961622899999997,False,,5db0e17518230d00170d4332,,1891172,69,,evan-feature22,full_pf_a,,0
40,17740,70,,,,2,2,0.0,0.0,0.0,-1.0,,0.0-67.0,,0.0,432.235,1.0,0.5707533260000001,1.0,0.589121171,0.0,0.326428396,0.0,0.43961622899999997,False,,5db0e17518230d00170d4332,,1901404,70,,evan-feature22,full_pf_a,,1
41,17741,71,,,,1,1,0.0,0.0,0.0,-1.0,,0.0-68.0,,0.0,636.7000001,0.0,0.506271295,0.0,0.641775594,1.0,0.37149690700000004,0.0,0.404330166,False,,5db0e17518230d00170d4332,,1911855,71,,evan-feature22,full_pf_a,,1
42,17742,72,,,,1,1,0.0,1.0,1.0,0.0,,0.0-69.0,,0.0,503.4400001,0.0,0.455642565,1.0,0.623605825,0.0,0.358753011,0.0,0.346174041,False,,5db0e17518230d00170d4332,,1922169,72,,evan-feature22,full_pf_a,,0
43,17743,73,,,,1,1,1.0,1.0,0.0,-1.0,,0.0-70.0,,-1.0,478.0949999,1.0,0.483677308,1.0,0.5904681070000001,1.0,0.402218411,0.0,0.35344697,False,,5db0e17518230d00170d4332,,1932447,73,,evan-feature22,full_pf_a,,0
44,17744,74,,,,1,1,0.0,1.0,1.0,0.0,,0.0-71.0,,0.0,531.2199998,0.0,0.394210977,1.0,0.558925494,1.0,0.540052017,0.0,0.35182128700000004,False,,5db0e17518230d00170d4332,,1942786,74,,evan-feature22,full_pf_a,,0
45,17745,75,,,,1,1,0.0,0.0,0.0,-1.0,,0.0-72.0,,0.0,400.445,0.0,0.382300414,0.0,0.577670603,1.0,0.607608448,0.0,0.378261578,False,,5db0e17518230d00170d4332,,1952989,75,,evan-feature22,full_pf_a,,0
46,17746,76,,,,1,1,0.0,0.0,1.0,0.0,,0.0-73.0,,0.0,458.3099999,0.0,0.357596762,0.0,0.5929076529999999,1.0,0.6579790010000001,1.0,0.401326777,False,,5db0e17518230d00170d4332,,1963235,76,,evan-feature22,full_pf_a,,0
47,17747,77,,,,1,1,0.0,1.0,0.0,-1.0,,0.0-74.0,,-1.0,585.3499998,0.0,0.362033495,1.0,0.582308608,0.0,0.649195052,0.0,0.355158505,False,,5db0e17518230d00170d4332,,1973628,77,,evan-feature22,full_pf_a,,0
48,17748,78,,,,1,1,1.0,1.0,0.0,-1.0,,0.0-75.0,,-1.0,2098.335,1.0,0.369620635,1.0,0.669100864,0.0,0.706059111,1.0,0.362516241,False,,5db0e17518230d00170d4332,,1985542,78,,evan-feature22,full_pf_a,,0
49,17749,79,,,,1,1,0.0,1.0,0.0,-1.0,,0.0-76.0,,-1.0,409.29000010000004,0.0,0.41477751399999996,1.0,0.7284416779999999,1.0,0.7182656940000001,1.0,0.36228040899999997,False,,5db0e17518230d00170d4332,,1995764,79,,evan-feature22,full_pf_a,,0
50,17750,80,,,,1,1,1.0,1.0,1.0,0.0,,0.0-77.0,,1.0,366.2149999,1.0,0.37675460299999997,1.0,0.703250285,1.0,0.75,1.0,0.461979164,False,,5db0e17518230d00170d4332,,2005919,80,,evan-feature22,full_pf_a,,0
51,17751,81,,,,1,1,1.0,0.0,1.0,0.0,,0.0-78.0,,1.0,366.60500010000004,1.0,0.398716075,0.0,0.6723864890000001,1.0,0.674153818,0.0,0.519029516,False,,5db0e17518230d00170d4332,,2016075,81,,evan-feature22,full_pf_a,,0
52,17752,82,,,,1,1,1.0,0.0,1.0,0.0,,0.0-79.0,,1.0,461.54500010000004,1.0,0.34677856700000004,0.0,0.69057175,1.0,0.6822438540000001,1.0,0.477292237,False,,5db0e17518230d00170d4332,,2026328,82,,evan-feature22,full_pf_a,,0
53,17753,83,,,,2,2,0.0,1.0,0.0,-1.0,,0.0-80.0,,-1.0,633.2950001,0.0,0.28580469199999997,1.0,0.68408818,0.0,0.684207565,1.0,0.49780448299999996,False,,5db0e17518230d00170d4332,,2036772,83,,evan-feature22,full_pf_a,,1
54,17755,85,,,,SLOW,SLOW,,,0.0,-1.0,,0.0-82.0,,-3.0,,1.0,0.25,1.0,0.7405808970000001,1.0,0.679614108,1.0,0.436436964,False,,5db0e17518230d00170d4332,,2045474,85,,evan-feature22,full_pf_a,,1
55,17756,86,,,,1,1,0.0,0.0,0.0,-1.0,,0.0-83.0,,0.0,715.815,0.0,0.29890393,0.0,0.730505706,1.0,0.7328203320000001,1.0,0.439256938,False,,5db0e17518230d00170d4332,,2055995,86,,evan-feature22,full_pf_a,,1
56,17757,87,,,,1,1,1.0,1.0,1.0,0.0,,0.0-84.0,,1.0,715.4300001,1.0,0.326762398,1.0,0.7148059609999999,0.0,0.75,1.0,0.44389608799999997,False,,5db0e17518230d00170d4332,,2066509,87,,evan-feature22,full_pf_a,,0
57,17758,88,,,,2,2,0.0,1.0,0.0,-1.0,,0.0-85.0,,-1.0,442.92000010000004,0.0,0.295168515,1.0,0.739760854,0.0,0.719947008,1.0,0.35277284600000003,False,,5db0e17518230d00170d4332,,2076759,88,,evan-feature22,full_pf_a,,1
58,17759,89,,,,2,2,1.0,0.0,0.0,-1.0,,0.0-86.0,,0.0,374.7449999,0.0,0.25,1.0,0.70781482,1.0,0.75,0.0,0.286095925,False,,5db0e17518230d00170d4332,,2086930,89,,evan-feature22,full_pf_a,,0
59,17760,90,,,,1,1,1.0,1.0,0.0,-1.0,,0.0-87.0,,-1.0,417.6950001,1.0,0.25638190899999996,1.0,0.704088163,1.0,0.75,0.0,0.26872601399999996,False,,5db0e17518230d00170d4332,,2097152,90,,evan-feature22,full_pf_a,,1
60,17761,91,,,,1,1,0.0,0.0,1.0,0.0,,0.0-88.0,,0.0,405.7,0.0,0.271581126,0.0,0.669760107,1.0,0.733896663,1.0,0.273244572,False,,5db0e17518230d00170d4332,,2107351,91,,evan-feature22,full_pf_a,,0
61,17762,92,,,,1,1,1.0,1.0,0.0,-1.0,,0.0-89.0,,-1.0,344.51,1.0,0.257144401,1.0,0.600575706,1.0,0.74488122,1.0,0.25,False,,5db0e17518230d00170d4332,,2117488,92,,evan-feature22,full_pf_a,,0
62,17763,93,,,,1,1,0.0,1.0,0.0,-1.0,,0.0-90.0,,-1.0,451.0899999,0.0,0.25,1.0,0.616870026,0.0,0.723610234,0.0,0.25,False,,5db0e17518230d00170d4332,,2127735,93,,evan-feature22,full_pf_a,,0
63,17764,94,,,,1,1,0.0,1.0,1.0,0.0,,0.0-91.0,,0.0,628.7999998,0.0,0.25,1.0,0.583540187,0.0,0.7041042559999999,1.0,0.285961995,False,,5db0e17518230d00170d4332,,2138173,94,,evan-feature22,full_pf_a,,0
64,17765,95,,,,1,1,1.0,0.0,1.0,0.0,,0.0-92.0,,1.0,531.0549999,1.0,0.27254536,0.0,0.53875765,0.0,0.693783448,1.0,0.284961652,False,,5db0e17518230d00170d4332,,2148494,95,,evan-feature22,full_pf_a,,0
65,17766,96,,,,1,1,0.0,0.0,1.0,0.0,,0.0-93.0,,0.0,383.59,0.0,0.25,0.0,0.548431252,1.0,0.734221895,0.0,0.279445214,False,,5db0e17518230d00170d4332,,2158693,96,,evan-feature22,full_pf_a,,0
66,17767,97,,,,1,1,0.0,1.0,0.0,-1.0,,0.0-94.0,,-1.0,408.7199999,0.0,0.258640684,1.0,0.545878066,1.0,0.725245965,0.0,0.31487537,False,,5db0e17518230d00170d4332,,2168892,97,,evan-feature22,full_pf_a,,0
67,17768,98,,,,1,1,0.0,0.0,0.0,-1.0,,0.0-95.0,,0.0,475.42500010000003,0.0,0.251103711,0.0,0.5776290629999999,1.0,0.696320133,1.0,0.317831047,False,,5db0e17518230d00170d4332,,2179169,98,,evan-feature22,full_pf_a,,0
68,17769,99,,,,1,1,0.0,1.0,0.0,-1.0,,0.0-96.0,,-1.0,476.9299999,0.0,0.276630292,1.0,0.617329858,1.0,0.73838088,1.0,0.261471582,False,,5db0e17518230d00170d4332,,2189435,99,,evan-feature22,full_pf_a,,0
69,17770,100,,,,1,1,0.0,1.0,0.0,-1.0,,0.0-97.0,,-1.0,661.2,0.0,0.297716424,1.0,0.618863717,1.0,0.7402358259999999,1.0,0.262600834,False,,5db0e17518230d00170d4332,,2199888,100,,evan-feature22,full_pf_a,,0
70,17771,101,,,,1,1,0.0,0.0,1.0,0.0,,0.0-98.0,,0.0,2331.09,0.0,0.290935512,0.0,0.695370945,1.0,0.706570507,1.0,0.280030553,False,,5db0e17518230d00170d4332,,2212008,101,,evan-feature22,full_pf_a,,0
71,17772,102,,,,1,1,0.0,1.0,0.0,-1.0,,0.0-99.0,,-1.0,571.3150001,0.0,0.25,1.0,0.6465277079999999,1.0,0.67766682,0.0,0.25,False,,5db0e17518230d00170d4332,,2222358,102,,evan-feature22,full_pf_a,,0
72,17773,103,,,,2,2,0.0,0.0,1.0,0.0,,0.0-100.0,,0.0,445.70499979999994,1.0,0.26463816,1.0,0.636100213,0.0,0.646048507,0.0,0.265607101,False,,5db0e17518230d00170d4332,,2232588,103,,evan-feature22,full_pf_a,,1
73,17774,104,,,,2,2,1.0,0.0,1.0,0.0,,0.0-101.0,,1.0,580.055,0.0,0.314340707,1.0,0.667795927,1.0,0.613630805,0.0,0.25,False,,5db0e17518230d00170d4332,,2242952,104,,evan-feature22,full_pf_a,,0
74,17775,105,,,,1,1,0.0,1.0,0.0,-1.0,,0.0-102.0,,-1.0,512.3899997999999,0.0,0.28685784,1.0,0.6622549529999999,0.0,0.652154117,0.0,0.25,False,,5db0e17518230d00170d4332,,2253245,105,,evan-feature22,full_pf_a,,1
75,17776,106,,,,2,2,0.0,0.0,0.0,-1.0,,0.0-103.0,,0.0,391.055,0.0,0.304106554,1.0,0.631289538,0.0,0.707041942,0.0,0.29314237,False,,5db0e17518230d00170d4332,,2263425,106,,evan-feature22,full_pf_a,,1
76,17777,107,,,,2,2,0.0,1.0,0.0,-1.0,,0.0-104.0,,-1.0,527.2649999,0.0,0.304806932,0.0,0.571167718,0.0,0.680472346,1.0,0.25,False,,5db0e17518230d00170d4332,,2273778,107,,evan-feature22,full_pf_a,,0
77,17778,108,,,,1,1,1.0,0.0,0.0,-1.0,,0.0-105.0,,0.0,431.815,1.0,0.37919861,0.0,0.5724849710000001,1.0,0.705638003,1.0,0.30179300600000003,False,,5db0e17518230d00170d4332,,2284010,108,,evan-feature22,full_pf_a,,1
78,17779,109,,,,1,1,0.0,1.0,0.0,-1.0,,0.0-106.0,,-1.0,1116.63,0.0,0.464277969,1.0,0.554034373,1.0,0.7372627340000001,1.0,0.264699741,False,,5db0e17518230d00170d4332,,2294932,109,,evan-feature22,full_pf_a,,0
79,17780,110,,,,2,2,1.0,0.0,0.0,-1.0,,0.0-107.0,,0.0,589.835,1.0,0.465104323,0.0,0.530793115,1.0,0.75,0.0,0.31683071,False,,5db0e17518230d00170d4332,,2305332,110,,evan-feature22,full_pf_a,,1
80,17781,111,,,,1,1,0.0,1.0,1.0,0.0,,0.0-108.0,,0.0,347.2199999,0.0,0.465104323,1.0,0.530793115,0.0,0.75,1.0,0.31683071,False,,5db0e17518230d00170d4332,,2315473,111,,evan-feature22,full_pf_a,,1
81,17782,112,,,,2,2,1.0,1.0,1.0,0.0,,0.0-109.0,,1.0,477.2399999,0.0,0.46833986,1.0,0.570249239,1.0,0.7244472590000001,1.0,0.364114163,False,,5db0e17518230d00170d4332,,2325774,112,,evan-feature22,full_pf_a,,1
82,17783,113,,,,2,2,0.0,0.0,1.0,0.0,,0.0-110.0,,0.0,382.7799999,1.0,0.445444024,1.0,0.649673355,0.0,0.6845441290000001,0.0,0.300660449,False,,5db0e17518230d00170d4332,,2335956,113,,evan-feature22,full_pf_a,,0
83,17784,114,,,,2,2,0.0,1.0,1.0,0.0,,0.0-111.0,,0.0,899.1500002,1.0,0.39909721299999995,0.0,0.6715179509999999,0.0,0.742310028,1.0,0.35496088299999995,False,,5db0e17518230d00170d4332,,2346660,114,,evan-feature22,full_pf_a,,0
84,17785,115,,,,2,2,1.0,0.0,0.0,-1.0,,0.0-112.0,,0.0,520.9850001,0.0,0.37956104799999996,1.0,0.694725302,1.0,0.7181651309999999,0.0,0.38726906299999997,False,,5db0e17518230d00170d4332,,2356959,115,,evan-feature22,full_pf_a,,0
85,17786,116,,,,1,1,1.0,1.0,0.0,-1.0,,0.0-113.0,,-1.0,491.64499989999996,1.0,0.404995034,1.0,0.724375412,0.0,0.6910946859999999,0.0,0.387187347,False,,5db0e17518230d00170d4332,,2367269,116,,evan-feature22,full_pf_a,,1
86,17787,117,,,,2,2,0.0,0.0,1.0,0.0,,0.0-114.0,,0.0,469.7499999,0.0,0.461740803,0.0,0.75,0.0,0.75,0.0,0.34872038200000005,False,,5db0e17518230d00170d4332,,2377538,117,,evan-feature22,full_pf_a,,1
87,17788,118,,,,2,2,0.0,0.0,1.0,0.0,,0.0-115.0,,0.0,550.8600001,0.0,0.43821380600000004,1.0,0.738833273,0.0,0.728286963,0.0,0.399538128,False,,5db0e17518230d00170d4332,,2387881,118,,evan-feature22,full_pf_a,,0
88,17789,119,,,,2,2,1.0,0.0,0.0,-1.0,,0.0-116.0,,0.0,375.98,0.0,0.41709882,1.0,0.736666736,1.0,0.75,0.0,0.389095584,False,,5db0e17518230d00170d4332,,2398051,119,,evan-feature22,full_pf_a,,0
89,17790,120,,,,1,1,1.0,1.0,0.0,-1.0,,0.0-117.0,,-1.0,445.54,1.0,0.39749009799999996,1.0,0.744320029,1.0,0.75,0.0,0.363848678,False,,5db0e17518230d00170d4332,,2408304,120,,evan-feature22,full_pf_a,,1
90,17791,121,,,,1,1,1.0,0.0,1.0,0.0,,0.0-118.0,,1.0,316.78,1.0,0.392653706,0.0,0.75,1.0,0.75,0.0,0.384386976,False,,5db0e17518230d00170d4332,,2418401,121,,evan-feature22,full_pf_a,,0
91,17792,122,,,,2,2,1.0,1.0,0.0,-1.0,,0.0-119.0,,-1.0,384.1449998,0.0,0.31190902600000003,1.0,0.75,1.0,0.732413819,1.0,0.413082932,False,,5db0e17518230d00170d4332,,2428593,122,,evan-feature22,full_pf_a,,1
92,17793,123,,,,2,2,1.0,1.0,1.0,0.0,,0.0-120.0,,1.0,507.7249999,0.0,0.366917648,1.0,0.740073855,1.0,0.75,1.0,0.352861979,False,,5db0e17518230d00170d4332,,2438887,123,,evan-feature22,full_pf_a,,0
93,17794,124,,,,2,2,1.0,0.0,1.0,0.0,,0.0-121.0,,1.0,504.775,0.0,0.3645172,0.0,0.721770713,1.0,0.75,0.0,0.404074511,False,,5db0e17518230d00170d4332,,2449176,124,,evan-feature22,full_pf_a,,0
94,17795,125,,,,1,1,0.0,1.0,1.0,0.0,,0.0-122.0,,0.0,428.475,0.0,0.35205600299999995,1.0,0.68983859,0.0,0.739735447,1.0,0.366895945,False,,5db0e17518230d00170d4332,,2459408,125,,evan-feature22,full_pf_a,,1
95,17796,126,,,,1,1,0.0,0.0,1.0,0.0,,0.0-123.0,,0.0,1685.37,0.0,0.40998722600000004,0.0,0.720859127,1.0,0.673854955,0.0,0.368528541,False,,5db0e17518230d00170d4332,,2470884,126,,evan-feature22,full_pf_a,,0
96,17797,127,,,,2,2,1.0,1.0,1.0,0.0,,0.0-124.0,,1.0,1100.44,1.0,0.353625316,0.0,0.75,1.0,0.695605473,1.0,0.38303674200000004,False,,5db0e17518230d00170d4332,,2481794,127,,evan-feature22,full_pf_a,,1
97,17798,128,,,,2,2,1.0,0.0,1.0,0.0,,0.0-125.0,,1.0,522.7099999,1.0,0.359216989,1.0,0.75,1.0,0.6987915090000001,0.0,0.35169046200000004,False,,5db0e17518230d00170d4332,,2492105,128,,evan-feature22,full_pf_a,,0
98,17799,129,,,,2,2,1.0,0.0,1.0,0.0,,0.0-126.0,,1.0,371.485,0.0,0.35834496899999996,1.0,0.75,1.0,0.707067742,0.0,0.416763636,False,,5db0e17518230d00170d4332,,2502251,129,,evan-feature22,full_pf_a,,0
99,17800,130,,,,1,1,0.0,0.0,0.0,-1.0,,0.0-127.0,,0.0,383.3849998,0.0,0.38741613799999997,0.0,0.7177369570000001,1.0,0.734902455,0.0,0.49438664299999996,False,,5db0e17518230d00170d4332,,2512430,130,,evan-feature22,full_pf_a,,1
100,17801,131,,,,2,2,1.0,1.0,1.0,0.0,,0.0-128.0,,1.0,497.25,1.0,0.405255252,1.0,0.7300466640000001,1.0,0.7027748070000001,1.0,0.504359668,False,,5db0e17518230d00170d4332,,2522736,131,,evan-feature22,full_pf_a,,1
101,17802,132,,,,1,1,1.0,1.0,1.0,0.0,,0.0-129.0,,1.0,737.4400001,1.0,0.40697073,1.0,0.7260142190000001,1.0,0.724461982,1.0,0.522779179,False,,5db0e17518230d00170d4332,,2533298,132,,evan-feature22,full_pf_a,,1
102,17803,133,,,,2,2,1.0,1.0,1.0,0.0,,0.0-130.0,,1.0,544.8899997999999,1.0,0.43906215299999996,1.0,0.7252802340000001,1.0,0.719079934,1.0,0.5712990579999999,False,,5db0e17518230d00170d4332,,2543665,133,,evan-feature22,full_pf_a,,1
103,17804,134,,,,2,2,0.0,0.0,0.0,-1.0,,0.0-131.0,,0.0,384.875,0.0,0.4076705,1.0,0.73280499,0.0,0.681313127,0.0,0.523891346,False,,5db0e17518230d00170d4332,,2553846,134,,evan-feature22,full_pf_a,,0
104,17805,135,,,,1,1,0.0,0.0,0.0,-1.0,,0.0-132.0,,0.0,626.0500001,0.0,0.399102911,0.0,0.730498344,1.0,0.661080239,1.0,0.46742603,False,,5db0e17518230d00170d4332,,2564286,135,,evan-feature22,full_pf_a,,1
105,17806,136,,,,1,1,1.0,1.0,0.0,-1.0,,0.0-133.0,,-1.0,376.20999989999996,1.0,0.356477282,1.0,0.712296395,1.0,0.641812684,0.0,0.44868414,False,,5db0e17518230d00170d4332,,2574462,136,,evan-feature22,full_pf_a,,0
106,17807,137,,,,2,2,0.0,1.0,1.0,0.0,,0.0-134.0,,0.0,776.5649999,1.0,0.462760722,0.0,0.692349322,0.0,0.700947931,1.0,0.394680266,False,,5db0e17518230d00170d4332,,2585025,137,,evan-feature22,full_pf_a,,1
107,17808,138,,,,2,2,1.0,0.0,1.0,0.0,,0.0-135.0,,1.0,998.315,0.0,0.422306413,0.0,0.718375916,1.0,0.706340917,0.0,0.367787185,False,,5db0e17518230d00170d4332,,2595809,138,,evan-feature22,full_pf_a,,0
108,17810,140,,,,2,2,0.0,1.0,1.0,0.0,,0.0-137.0,,0.0,1088.04,0.0,0.4582233,0.0,0.643834117,0.0,0.75,1.0,0.39615823299999997,False,,5db0e17518230d00170d4332,,2673389,140,,evan-feature22,full_pf_a,,0
109,17811,141,,,,2,2,0.0,0.0,1.0,0.0,,0.0-138.0,,0.0,383.9749999,1.0,0.43813437899999996,1.0,0.651283804,0.0,0.729674191,0.0,0.37711048,False,,5db0e17518230d00170d4332,,2683569,141,,evan-feature22,full_pf_a,,0
110,17812,142,,,,2,2,1.0,1.0,1.0,0.0,,0.0-139.0,,1.0,1544.515,0.0,0.471199094,1.0,0.6470010979999999,1.0,0.715008097,1.0,0.410656191,False,,5db0e17518230d00170d4332,,2694904,142,,evan-feature22,full_pf_a,,0
111,17813,143,,,,2,2,0.0,0.0,1.0,0.0,,0.0-140.0,,0.0,416.825,0.0,0.42486406,1.0,0.629771829,0.0,0.6550939960000001,0.0,0.459093873,False,,5db0e17518230d00170d4332,,2705105,143,,evan-feature22,full_pf_a,,0
112,17814,144,,,,2,2,0.0,0.0,1.0,0.0,,0.0-141.0,,0.0,429.1000001,0.0,0.4803197,0.0,0.645842715,0.0,0.6421749920000001,0.0,0.443092151,False,,5db0e17518230d00170d4332,,2715318,144,,evan-feature22,full_pf_a,,0
113,17815,145,,,,2,2,0.0,0.0,0.0,-1.0,,0.0-142.0,,0.0,354.92000010000004,1.0,0.521848997,1.0,0.735801074,0.0,0.6691348460000001,0.0,0.45259351600000003,False,,5db0e17518230d00170d4332,,2725458,145,,evan-feature22,full_pf_a,,0
114,17816,146,,,,2,2,1.0,1.0,1.0,0.0,,0.0-143.0,,1.0,801.8750001,0.0,0.49565621299999996,1.0,0.742400847,1.0,0.661512553,1.0,0.483110831,False,,5db0e17518230d00170d4332,,2736052,146,,evan-feature22,full_pf_a,,0
115,17817,147,,,,2,2,0.0,1.0,1.0,0.0,,0.0-144.0,,0.0,336.3900001,0.0,0.521564361,0.0,0.731078632,0.0,0.6774886809999999,1.0,0.483263956,False,,5db0e17518230d00170d4332,,2746179,147,,evan-feature22,full_pf_a,,0
116,17818,148,,,,2,2,0.0,0.0,1.0,0.0,,0.0-145.0,,0.0,453.26499989999996,0.0,0.558893102,0.0,0.719810023,0.0,0.67461031,0.0,0.499349834,False,,5db0e17518230d00170d4332,,2756439,148,,evan-feature22,full_pf_a,,0
117,17819,149,,,,2,2,0.0,1.0,1.0,0.0,,0.0-146.0,,0.0,427.3099999,1.0,0.611031046,1.0,0.75,0.0,0.688072995,1.0,0.5321422729999999,False,,5db0e17518230d00170d4332,,2766657,149,,evan-feature22,full_pf_a,,0
118,17820,150,,,,2,2,1.0,1.0,0.0,-1.0,,0.0-147.0,,-1.0,492.265,1.0,0.633223941,0.0,0.713567728,1.0,0.75,1.0,0.48185314700000004,False,,5db0e17518230d00170d4332,,2776953,150,,evan-feature22,full_pf_a,,0
119,17821,151,,,,2,2,1.0,0.0,1.0,0.0,,0.0-148.0,,1.0,495.75499979999995,0.0,0.664001694,0.0,0.705509768,1.0,0.75,0.0,0.500211065,False,,5db0e17518230d00170d4332,,2787254,151,,evan-feature22,full_pf_a,,0
120,17822,152,,,,2,2,1.0,0.0,1.0,0.0,,0.0-149.0,,1.0,480.9950001,0.0,0.664001694,1.0,0.705509768,1.0,0.75,0.0,0.500211065,False,,5db0e17518230d00170d4332,,2797558,152,,evan-feature22,full_pf_a,,0
121,17823,153,,,,2,2,1.0,0.0,1.0,0.0,,0.0-150.0,,1.0,384.565,0.0,0.696508041,1.0,0.71066027,1.0,0.717028709,0.0,0.49792991,False,,5db0e17518230d00170d4332,,2807769,153,,evan-feature22,full_pf_a,,0
122,17824,154,,,,1,1,1.0,0.0,0.0,-1.0,,0.0-151.0,,0.0,533.73,1.0,0.699883272,0.0,0.75,1.0,0.713543895,0.0,0.496962643,False,,5db0e17518230d00170d4332,,2818118,154,,evan-feature22,full_pf_a,,1
123,17825,155,,,,1,1,0.0,1.0,0.0,-1.0,,0.0-152.0,,-1.0,677.4499998,0.0,0.741163419,1.0,0.75,1.0,0.64691024,1.0,0.513858197,False,,5db0e17518230d00170d4332,,2828590,155,,evan-feature22,full_pf_a,,0
124,17826,156,,,,2,2,1.0,1.0,0.0,-1.0,,0.0-153.0,,-1.0,415.2249999,1.0,0.75,1.0,0.70816558,1.0,0.594499079,1.0,0.48502124,False,,5db0e17518230d00170d4332,,2838800,156,,evan-feature22,full_pf_a,,1
125,17827,157,,,,1,1,1.0,1.0,1.0,0.0,,0.0-154.0,,1.0,504.0599999,1.0,0.75,1.0,0.721848901,1.0,0.62197249,0.0,0.48263586399999997,False,,5db0e17518230d00170d4332,,2849112,157,,evan-feature22,full_pf_a,,1
126,17828,158,,,,2,2,0.0,0.0,1.0,0.0,,0.0-155.0,,0.0,363.135,1.0,0.75,1.0,0.74813071,0.0,0.584357161,0.0,0.411477782,False,,5db0e17518230d00170d4332,,2859300,158,,evan-feature22,full_pf_a,,1
127,17829,159,,,,2,2,0.0,0.0,1.0,0.0,,0.0-156.0,,0.0,415.0650001,1.0,0.75,1.0,0.75,0.0,0.52287236,0.0,0.488290656,False,,5db0e17518230d00170d4332,,2869516,159,,evan-feature22,full_pf_a,,0
128,17830,160,,,,2,2,0.0,1.0,1.0,0.0,,0.0-157.0,,0.0,385.3,1.0,0.75,0.0,0.75,0.0,0.544321581,1.0,0.53143059,False,,5db0e17518230d00170d4332,,2879720,160,,evan-feature22,full_pf_a,,0
129,17831,161,,,,2,2,0.0,1.0,1.0,0.0,,0.0-158.0,,0.0,382.615,0.0,0.726754564,1.0,0.75,0.0,0.5129306370000001,1.0,0.530592445,False,,5db0e17518230d00170d4332,,2889930,161,,evan-feature22,full_pf_a,,0
130,17832,162,,,,2,2,0.0,1.0,0.0,-1.0,,0.0-159.0,,-1.0,533.2849999,1.0,0.75,0.0,0.7392590729999999,0.0,0.479875835,1.0,0.547007051,False,,5db0e17518230d00170d4332,,2900270,162,,evan-feature22,full_pf_a,,0
131,17833,163,,,,2,2,1.0,1.0,0.0,-1.0,,0.0-160.0,,-1.0,683.2099999,1.0,0.75,1.0,0.7393376979999999,1.0,0.546045419,1.0,0.541267353,False,,5db0e17518230d00170d4332,,2910753,163,,evan-feature22,full_pf_a,,0
132,17834,164,,,,2,2,0.0,0.0,1.0,0.0,,0.0-161.0,,0.0,970.4149999,0.0,0.75,1.0,0.75,0.0,0.485725895,0.0,0.527625395,False,,5db0e17518230d00170d4332,,2921528,164,,evan-feature22,full_pf_a,,0
133,17835,165,,,,2,2,1.0,0.0,0.0,-1.0,,0.0-162.0,,0.0,416.465,1.0,0.75,1.0,0.725087974,1.0,0.488603595,0.0,0.504019206,False,,5db0e17518230d00170d4332,,2931735,165,,evan-feature22,full_pf_a,,0
134,17836,166,,,,2,2,0.0,0.0,1.0,0.0,,0.0-163.0,,0.0,411.4549998,1.0,0.745504295,1.0,0.75,0.0,0.452379914,0.0,0.50131194,False,,5db0e17518230d00170d4332,,2941935,166,,evan-feature22,full_pf_a,,0
135,17837,167,,,,2,2,0.0,0.0,0.0,-1.0,,0.0-164.0,,0.0,618.665,0.0,0.728513874,1.0,0.75,0.0,0.44125567200000004,0.0,0.531454591,False,,5db0e17518230d00170d4332,,2952350,167,,evan-feature22,full_pf_a,,0
136,17838,168,,,,2,2,0.0,1.0,1.0,0.0,,0.0-165.0,,0.0,396.95,0.0,0.73790804,1.0,0.75,0.0,0.413036656,1.0,0.524619035,False,,5db0e17518230d00170d4332,,2962517,168,,evan-feature22,full_pf_a,,0
137,17839,169,,,,2,2,0.0,1.0,1.0,0.0,,0.0-166.0,,0.0,365.245,1.0,0.7080961309999999,1.0,0.708666865,0.0,0.431915581,1.0,0.481819489,False,,5db0e17518230d00170d4332,,2972682,169,,evan-feature22,full_pf_a,,0
138,17840,170,,,,2,2,0.0,0.0,1.0,0.0,,0.0-167.0,,0.0,362.8450001,0.0,0.721378003,0.0,0.71605913,0.0,0.36642387,0.0,0.5036739929999999,False,,5db0e17518230d00170d4332,,2982833,170,,evan-feature22,full_pf_a,,0
139,17841,171,,,,2,2,0.0,0.0,0.0,-1.0,,0.0-168.0,,0.0,422.44499989999997,1.0,0.7340618959999999,1.0,0.699323252,0.0,0.35298046299999997,0.0,0.511241692,False,,5db0e17518230d00170d4332,,2993052,171,,evan-feature22,full_pf_a,,0
140,17842,172,,,,2,2,0.0,1.0,0.0,-1.0,,0.0-169.0,,-1.0,398.11,1.0,0.75,0.0,0.70412698,0.0,0.380734814,1.0,0.529580116,False,,5db0e17518230d00170d4332,,3003249,172,,evan-feature22,full_pf_a,,0
141,17843,173,,,,2,2,0.0,1.0,0.0,-1.0,,0.0-170.0,,-1.0,635.485,1.0,0.7436654909999999,1.0,0.711182751,0.0,0.41125331,1.0,0.49554405,False,,5db0e17518230d00170d4332,,3013665,173,,evan-feature22,full_pf_a,,0
142,17844,174,,,,2,2,0.0,1.0,1.0,0.0,,0.0-171.0,,0.0,611.245,1.0,0.731607915,1.0,0.651774583,0.0,0.35688023,1.0,0.45194491600000003,False,,5db0e17518230d00170d4332,,3024052,174,,evan-feature22,full_pf_a,,0
143,17845,175,,,,2,2,0.0,1.0,0.0,-1.0,,0.0-172.0,,-1.0,929.12,0.0,0.75,0.0,0.75,0.0,0.283145374,1.0,0.528608005,False,,5db0e17518230d00170d4332,,3034776,175,,evan-feature22,full_pf_a,,0
144,17846,176,,,,2,2,0.0,1.0,1.0,0.0,,0.0-173.0,,0.0,566.45,1.0,0.7491416890000001,1.0,0.7423785959999999,0.0,0.29135870399999997,1.0,0.498888318,False,,5db0e17518230d00170d4332,,3045125,176,,evan-feature22,full_pf_a,,0
145,17847,177,,,,1,1,1.0,1.0,0.0,-1.0,,0.0-174.0,,-1.0,294.825,1.0,0.708569387,1.0,0.717682277,0.0,0.294421699,1.0,0.493838163,False,,5db0e17518230d00170d4332,,3055237,177,,evan-feature22,full_pf_a,,1
146,17848,178,,,,1,1,1.0,1.0,1.0,0.0,,0.0-175.0,,1.0,303.295,1.0,0.75,1.0,0.7383382159999999,1.0,0.356098707,0.0,0.442533405,False,,5db0e17518230d00170d4332,,3065344,178,,evan-feature22,full_pf_a,,0
147,17849,179,,,,2,2,1.0,1.0,1.0,0.0,,0.0-176.0,,1.0,385.4799999,1.0,0.744527075,1.0,0.75,1.0,0.334127506,1.0,0.393165805,False,,5db0e17518230d00170d4332,,3075551,179,,evan-feature22,full_pf_a,,1
148,17850,180,,,,2,2,1.0,1.0,1.0,0.0,,0.0-177.0,,1.0,444.0349999,0.0,0.75,1.0,0.75,1.0,0.33571021799999995,1.0,0.350393962,False,,5db0e17518230d00170d4332,,3085811,180,,evan-feature22,full_pf_a,,0
149,17851,181,,,,2,2,0.0,0.0,0.0,-1.0,,0.0-178.0,,0.0,439.575,0.0,0.75,1.0,0.75,0.0,0.313628297,0.0,0.36349657399999996,False,,5db0e17518230d00170d4332,,3096051,181,,evan-feature22,full_pf_a,,0
150,17852,182,,,,1,1,1.0,1.0,1.0,0.0,,0.0-179.0,,1.0,464.805,1.0,0.75,1.0,0.734284182,0.0,0.262667667,0.0,0.380199119,False,,5db0e17518230d00170d4332,,3106309,182,,evan-feature22,full_pf_a,,1
151,17853,183,,,,1,1,1.0,0.0,1.0,0.0,,0.0-180.0,,1.0,413.56,1.0,0.75,0.0,0.75,0.0,0.25,1.0,0.394494013,False,,5db0e17518230d00170d4332,,3116532,183,,evan-feature22,full_pf_a,,0
152,17854,184,,,,1,1,1.0,1.0,1.0,0.0,,0.0-181.0,,1.0,520.79,1.0,0.722298145,1.0,0.7357822340000001,0.0,0.25,1.0,0.319142121,False,,5db0e17518230d00170d4332,,3126862,184,,evan-feature22,full_pf_a,,0
153,17855,185,,,,1,1,1.0,1.0,1.0,0.0,,0.0-182.0,,1.0,424.845,1.0,0.73149275,1.0,0.724276446,0.0,0.305856907,1.0,0.281315057,False,,5db0e17518230d00170d4332,,3137095,185,,evan-feature22,full_pf_a,,0
154,17856,186,,,,1,1,1.0,1.0,1.0,0.0,,0.0-183.0,,1.0,459.4999999,1.0,0.7458732690000001,1.0,0.7336382459999999,0.0,0.272571964,1.0,0.266021999,False,,5db0e17518230d00170d4332,,3147362,186,,evan-feature22,full_pf_a,,0
155,17857,187,,,,1,1,1.0,1.0,0.0,-1.0,,0.0-184.0,,-1.0,501.0250001,1.0,0.705579037,1.0,0.720778292,1.0,0.320238144,0.0,0.30971744,False,,5db0e17518230d00170d4332,,3157655,187,,evan-feature22,full_pf_a,,0
156,17858,188,,,,2,2,0.0,1.0,0.0,-1.0,,0.0-185.0,,-1.0,930.315,0.0,0.700425648,0.0,0.7198784009999999,0.0,0.272590393,1.0,0.304182931,False,,5db0e17518230d00170d4332,,3168389,188,,evan-feature22,full_pf_a,,1
157,17859,189,,,,2,2,0.0,0.0,0.0,-1.0,,0.0-186.0,,0.0,455.5600001,1.0,0.735590785,1.0,0.722714973,0.0,0.25,0.0,0.323421091,False,,5db0e17518230d00170d4332,,3178644,189,,evan-feature22,full_pf_a,,0
158,17860,190,,,,1,1,1.0,1.0,0.0,-1.0,,0.0-187.0,,-1.0,495.4049999,1.0,0.724807662,1.0,0.63146213,0.0,0.36836492600000004,1.0,0.34592153299999995,False,,5db0e17518230d00170d4332,,3188941,190,,evan-feature22,full_pf_a,,1
159,17861,191,,,,1,1,1.0,0.0,1.0,0.0,,0.0-188.0,,1.0,1104.705,1.0,0.7352796909999999,0.0,0.555111392,0.0,0.36003922,0.0,0.31433779999999995,False,,5db0e17518230d00170d4332,,3199834,191,,evan-feature22,full_pf_a,,0
160,17862,192,notice,,,,,,,,,,0.0-189.0,"{""Q0"":""It seemed random but streaky ""}",,21910.0,,,,,,,,,False,,5db0e17518230d00170d4332,,3221746,192,Q,survey-text,full_pf_a,,1
161,17863,193,track1,,[1],,,,,,,,0.0-190.0,"{""Q0"":""no""}",,5268.0,,,,,,,,,False,,5db0e17518230d00170d4332,,3227018,193,Q,evan-quiz,full_pf_a,,1
162,17864,194,track2,,[0],,,,,,,,0.0-191.0,"{""Q0"":""yes""}",,9823.0,,,,,,,,,False,,5db0e17518230d00170d4332,,3236843,194,Q,evan-quiz,full_pf_a,,1
163,17865,195,strat,,,,,,,,,,0.0-192.0,"{""Q0"":""It seemed streaky so I would choose the same alien until it stopped winning""}",,26739.0,,,,,,,,,False,,5db0e17518230d00170d4332,,3263585,195,Q,survey-text,full_pf_a,,1
