,index,Unnamed: 0,Q_name,button_pressed,choice_idxs,chosen_pos,chosen_state,chosen_state_f_1_outcome,chosen_state_f_2_outcome,f_1_reward,f_2_reward,incor_questions,internal_node_id,responses,reward_received,rt,s_1_f_1_outcome,s_1_f_1_prob,s_1_f_2_outcome,s_1_f_2_prob,s_2_f_1_outcome,s_2_f_1_prob,s_2_f_2_outcome,s_2_f_2_prob,safe_first,stimulus,subjectID,success,time_elapsed,trial_index,trial_num,trial_type,version,view_history,switching
0,794,25,,,,2,2,1.0,0.0,-1.0,0.0,,0.0-27.0,,-1.0,1034.38,1.0,0.6,0.0,0.6,1.0,0.4,0.0,0.4,False,,5eb561131434b1053a77d85d,,703286,25,,evan-feature22,full_pf_b,,0
1,795,26,,,,2,2,1.0,0.0,-1.0,0.0,,0.0-28.0,,-1.0,1333.32,0.0,0.608053294,1.0,0.63424552,1.0,0.397152172,0.0,0.347069101,False,,5eb561131434b1053a77d85d,,714436,26,,evan-feature22,full_pf_b,,0
2,796,27,,,,2,2,0.0,0.0,-1.0,0.0,,0.0-29.0,,0.0,1327.62,0.0,0.642237155,0.0,0.648566321,0.0,0.389407674,0.0,0.285525717,False,,5eb561131434b1053a77d85d,,725585,27,,evan-feature22,full_pf_b,,0
3,797,28,,,,1,1,1.0,1.0,-1.0,0.0,,0.0-30.0,,-1.0,1100.25,1.0,0.661086576,1.0,0.630492543,0.0,0.399058924,0.0,0.25,False,,5eb561131434b1053a77d85d,,736506,28,,evan-feature22,full_pf_b,,1
4,798,29,,,,1,1,1.0,0.0,0.0,1.0,,0.0-31.0,,0.0,588.0,1.0,0.631324137,0.0,0.6269842929999999,1.0,0.38734784299999997,1.0,0.25,False,,5eb561131434b1053a77d85d,,746911,29,,evan-feature22,full_pf_b,,0
5,799,30,,,,1,1,1.0,1.0,0.0,1.0,,0.0-32.0,,1.0,1403.01,1.0,0.6381991370000001,1.0,0.68987999,0.0,0.384107265,0.0,0.271332943,False,,5eb561131434b1053a77d85d,,758152,30,,evan-feature22,full_pf_b,,0
6,800,31,,,,1,1,0.0,1.0,-1.0,0.0,,0.0-33.0,,0.0,1408.88,0.0,0.66034901,1.0,0.742641349,0.0,0.360225629,0.0,0.25,False,,5eb561131434b1053a77d85d,,769368,31,,evan-feature22,full_pf_b,,0
7,801,32,,,,2,2,1.0,0.0,-1.0,0.0,,0.0-34.0,,-1.0,2650.085,1.0,0.638612418,1.0,0.75,1.0,0.367273939,0.0,0.25,False,,5eb561131434b1053a77d85d,,781828,32,,evan-feature22,full_pf_b,,1
8,802,33,,,,2,2,0.0,0.0,0.0,1.0,,0.0-35.0,,0.0,607.17,1.0,0.624340629,0.0,0.75,0.0,0.425829545,0.0,0.25,False,,5eb561131434b1053a77d85d,,792280,33,,evan-feature22,full_pf_b,,0
9,803,34,,,,1,1,0.0,1.0,0.0,1.0,,0.0-36.0,,1.0,1700.62,0.0,0.621999804,1.0,0.75,0.0,0.368609357,0.0,0.25,False,,5eb561131434b1053a77d85d,,803781,34,,evan-feature22,full_pf_b,,1
10,804,35,,,,1,1,1.0,1.0,-1.0,0.0,,0.0-37.0,,-1.0,1217.11,1.0,0.62666403,1.0,0.75,0.0,0.311151498,0.0,0.25,False,,5eb561131434b1053a77d85d,,814825,35,,evan-feature22,full_pf_b,,0
11,805,36,,,,2,2,1.0,1.0,0.0,1.0,,0.0-38.0,,1.0,853.63,1.0,0.6819650009999999,1.0,0.75,1.0,0.310763048,1.0,0.25,False,,5eb561131434b1053a77d85d,,825510,36,,evan-feature22,full_pf_b,,1
12,806,37,,,,1,1,1.0,0.0,-1.0,0.0,,0.0-39.0,,-1.0,834.13,1.0,0.740626951,0.0,0.75,1.0,0.25,0.0,0.25,False,,5eb561131434b1053a77d85d,,836158,37,,evan-feature22,full_pf_b,,1
13,807,38,,,,1,1,1.0,1.0,-1.0,0.0,,0.0-40.0,,-1.0,2073.125,1.0,0.739599242,1.0,0.742034978,0.0,0.25397114600000004,1.0,0.25,False,,5eb561131434b1053a77d85d,,848044,38,,evan-feature22,full_pf_b,,0
14,808,39,,,,2,2,1.0,0.0,-1.0,0.0,,0.0-41.0,,-1.0,886.64,1.0,0.732341315,1.0,0.72735643,1.0,0.25,0.0,0.25,False,,5eb561131434b1053a77d85d,,858766,39,,evan-feature22,full_pf_b,,1
15,809,40,,,,2,2,0.0,0.0,-1.0,0.0,,0.0-42.0,,0.0,849.135,0.0,0.7062287770000001,1.0,0.75,0.0,0.29002151,0.0,0.288256649,False,,5eb561131434b1053a77d85d,,869428,40,,evan-feature22,full_pf_b,,0
16,810,41,,,,2,2,0.0,0.0,-1.0,0.0,,0.0-43.0,,0.0,1088.07,1.0,0.7086029209999999,1.0,0.75,0.0,0.274129113,0.0,0.262851608,False,,5eb561131434b1053a77d85d,,880338,41,,evan-feature22,full_pf_b,,0
17,811,42,,,,1,1,1.0,1.0,-1.0,0.0,,0.0-44.0,,-1.0,1629.805,1.0,0.669189651,1.0,0.727614338,0.0,0.298444036,0.0,0.296944518,False,,5eb561131434b1053a77d85d,,891808,42,,evan-feature22,full_pf_b,,1
18,812,43,,,,1,1,0.0,0.0,-1.0,0.0,,0.0-45.0,,0.0,1841.495,0.0,0.6819912929999999,0.0,0.7179434290000001,1.0,0.265003961,1.0,0.28157921199999997,False,,5eb561131434b1053a77d85d,,903452,43,,evan-feature22,full_pf_b,,0
19,813,44,,,,1,1,0.0,1.0,0.0,1.0,,0.0-46.0,,1.0,1025.01,0.0,0.665275002,1.0,0.723065271,0.0,0.260414971,0.0,0.30973870000000003,False,,5eb561131434b1053a77d85d,,914305,44,,evan-feature22,full_pf_b,,0
20,814,45,,,,1,1,1.0,1.0,-1.0,0.0,,0.0-47.0,,-1.0,1311.95,1.0,0.6660593260000001,1.0,0.728032907,1.0,0.30922817,0.0,0.338778608,False,,5eb561131434b1053a77d85d,,925437,45,,evan-feature22,full_pf_b,,0
21,815,46,,,,2,2,0.0,0.0,-1.0,0.0,,0.0-48.0,,0.0,987.935,1.0,0.702068785,0.0,0.6528750879999999,0.0,0.287329608,0.0,0.35789613200000003,False,,5eb561131434b1053a77d85d,,936249,46,,evan-feature22,full_pf_b,,1
22,816,47,,,,2,2,0.0,0.0,-1.0,0.0,,0.0-49.0,,0.0,1516.425,1.0,0.651939787,1.0,0.636725589,0.0,0.284834488,0.0,0.358563756,False,,5eb561131434b1053a77d85d,,947592,47,,evan-feature22,full_pf_b,,0
23,817,48,,,,1,1,0.0,1.0,0.0,1.0,,0.0-50.0,,1.0,1958.59,0.0,0.67573929,1.0,0.612550049,1.0,0.37130387600000003,0.0,0.383542402,False,,5eb561131434b1053a77d85d,,959373,48,,evan-feature22,full_pf_b,,1
24,818,49,,,,1,1,0.0,1.0,0.0,1.0,,0.0-51.0,,1.0,1790.99,0.0,0.620753801,1.0,0.60513644,1.0,0.385529434,0.0,0.340361743,False,,5eb561131434b1053a77d85d,,970991,49,,evan-feature22,full_pf_b,,0
25,819,50,,,,2,2,1.0,0.0,0.0,1.0,,0.0-52.0,,0.0,1502.79,0.0,0.673564893,1.0,0.672437924,1.0,0.292955382,0.0,0.337633795,False,,5eb561131434b1053a77d85d,,982301,50,,evan-feature22,full_pf_b,,1
26,820,51,,,,2,2,0.0,0.0,-1.0,0.0,,0.0-53.0,,0.0,1046.185,0.0,0.6749427,0.0,0.724197502,0.0,0.32391132100000003,0.0,0.350995264,False,,5eb561131434b1053a77d85d,,993158,51,,evan-feature22,full_pf_b,,0
27,821,52,,,,2,2,0.0,0.0,-1.0,0.0,,0.0-54.0,,0.0,2189.465,1.0,0.6940159379999999,1.0,0.75,0.0,0.31710554399999996,0.0,0.413450341,False,,5eb561131434b1053a77d85d,,1005158,52,,evan-feature22,full_pf_b,,0
28,822,53,,,,1,1,1.0,0.0,-1.0,0.0,,0.0-55.0,,-1.0,1776.335,1.0,0.6916018270000001,0.0,0.69001187,0.0,0.261817804,0.0,0.40038635,False,,5eb561131434b1053a77d85d,,1016767,53,,evan-feature22,full_pf_b,,1
29,823,54,,,,1,1,0.0,1.0,-1.0,0.0,,0.0-56.0,,0.0,1619.505,0.0,0.641061544,1.0,0.71337992,0.0,0.277296461,0.0,0.47372791700000005,False,,5eb561131434b1053a77d85d,,1028205,54,,evan-feature22,full_pf_b,,0
30,824,55,,,,2,2,1.0,0.0,-1.0,0.0,,0.0-57.0,,-1.0,398.775,0.0,0.6082438520000001,0.0,0.708471106,1.0,0.28745137,0.0,0.564174476,False,,5eb561131434b1053a77d85d,,1038412,55,,evan-feature22,full_pf_b,,1
31,825,56,,,,2,2,0.0,1.0,-1.0,0.0,,0.0-58.0,,0.0,427.805,1.0,0.6051112120000001,1.0,0.7118147229999999,0.0,0.272390611,1.0,0.5595149939999999,False,,5eb561131434b1053a77d85d,,1048672,56,,evan-feature22,full_pf_b,,0
32,826,57,,,,2,2,0.0,1.0,-1.0,0.0,,0.0-59.0,,0.0,1633.685,1.0,0.582420852,1.0,0.635867583,0.0,0.31089574,1.0,0.5227206520000001,False,,5eb561131434b1053a77d85d,,1060122,57,,evan-feature22,full_pf_b,,0
33,827,58,,,,2,2,0.0,1.0,0.0,1.0,,0.0-60.0,,1.0,1606.035,1.0,0.623195575,1.0,0.655026044,0.0,0.25,1.0,0.560387538,False,,5eb561131434b1053a77d85d,,1071522,58,,evan-feature22,full_pf_b,,0
34,828,59,,,,2,2,0.0,1.0,-1.0,0.0,,0.0-61.0,,0.0,636.11,1.0,0.601889598,0.0,0.678198724,0.0,0.25,1.0,0.559922936,False,,5eb561131434b1053a77d85d,,1081953,59,,evan-feature22,full_pf_b,,0
35,829,60,,,,2,2,0.0,0.0,-1.0,0.0,,0.0-62.0,,0.0,862.98,1.0,0.601259914,0.0,0.704681482,0.0,0.33908969299999997,0.0,0.505003715,False,,5eb561131434b1053a77d85d,,1092636,60,,evan-feature22,full_pf_b,,0
36,830,61,,,,2,2,1.0,0.0,-1.0,0.0,,0.0-63.0,,-1.0,1012.995,1.0,0.59645454,1.0,0.710437172,1.0,0.327441879,0.0,0.391749613,False,,5eb561131434b1053a77d85d,,1103468,61,,evan-feature22,full_pf_b,,0
37,831,62,,,,1,1,1.0,1.0,-1.0,0.0,,0.0-64.0,,-1.0,1318.93,1.0,0.529473,1.0,0.636758527,0.0,0.301338063,0.0,0.365661481,False,,5eb561131434b1053a77d85d,,1114623,62,,evan-feature22,full_pf_b,,1
38,832,63,,,,2,2,1.0,0.0,0.0,1.0,,0.0-65.0,,0.0,829.03,0.0,0.541657162,1.0,0.634541962,1.0,0.343535366,0.0,0.371763742,False,,5eb561131434b1053a77d85d,,1125281,63,,evan-feature22,full_pf_b,,1
39,833,64,,,,2,2,1.0,1.0,-1.0,0.0,,0.0-66.0,,-1.0,3211.7,1.0,0.5707533260000001,1.0,0.589121171,1.0,0.326428396,1.0,0.43961622899999997,False,,5eb561131434b1053a77d85d,,1138314,64,,evan-feature22,full_pf_b,,0
40,834,65,,,,2,2,0.0,1.0,-1.0,0.0,,0.0-67.0,,0.0,1317.61,0.0,0.5707533260000001,1.0,0.589121171,0.0,0.326428396,1.0,0.43961622899999997,False,,5eb561131434b1053a77d85d,,1149461,65,,evan-feature22,full_pf_b,,0
41,835,66,,,,2,2,1.0,1.0,-1.0,0.0,,0.0-68.0,,-1.0,1636.895,1.0,0.506271295,1.0,0.641775594,1.0,0.37149690700000004,1.0,0.404330166,False,,5eb561131434b1053a77d85d,,1160928,66,,evan-feature22,full_pf_b,,0
42,836,67,,,,2,2,0.0,0.0,0.0,1.0,,0.0-69.0,,0.0,1588.81,1.0,0.455642565,1.0,0.623605825,0.0,0.358753011,0.0,0.346174041,False,,5eb561131434b1053a77d85d,,1172351,67,,evan-feature22,full_pf_b,,0
43,837,68,,,,1,1,1.0,0.0,0.0,1.0,,0.0-70.0,,0.0,693.53,1.0,0.483677308,0.0,0.5904681070000001,1.0,0.402218411,0.0,0.35344697,False,,5eb561131434b1053a77d85d,,1182862,68,,evan-feature22,full_pf_b,,1
44,838,69,,,,1,1,1.0,0.0,0.0,1.0,,0.0-71.0,,0.0,1031.775,1.0,0.394210977,0.0,0.558925494,1.0,0.540052017,0.0,0.35182128700000004,False,,5eb561131434b1053a77d85d,,1193707,69,,evan-feature22,full_pf_b,,0
45,839,70,,,,1,1,1.0,0.0,-1.0,0.0,,0.0-72.0,,-1.0,1054.14,1.0,0.382300414,0.0,0.577670603,1.0,0.607608448,0.0,0.378261578,False,,5eb561131434b1053a77d85d,,1204584,70,,evan-feature22,full_pf_b,,0
46,840,71,,,,2,2,1.0,0.0,-1.0,0.0,,0.0-73.0,,-1.0,2506.75,0.0,0.357596762,1.0,0.5929076529999999,1.0,0.6579790010000001,0.0,0.401326777,False,,5eb561131434b1053a77d85d,,1216919,71,,evan-feature22,full_pf_b,,1
47,841,72,,,,2,2,1.0,0.0,-1.0,0.0,,0.0-74.0,,-1.0,1929.75,0.0,0.362033495,0.0,0.582308608,1.0,0.649195052,0.0,0.355158505,False,,5eb561131434b1053a77d85d,,1228671,72,,evan-feature22,full_pf_b,,0
48,842,73,,,,1,1,0.0,0.0,-1.0,0.0,,0.0-75.0,,0.0,2380.8,0.0,0.369620635,0.0,0.669100864,1.0,0.706059111,1.0,0.362516241,False,,5eb561131434b1053a77d85d,,1240869,73,,evan-feature22,full_pf_b,,1
49,843,74,,,,1,1,1.0,0.0,-1.0,0.0,,0.0-76.0,,-1.0,955.445,1.0,0.41477751399999996,0.0,0.7284416779999999,1.0,0.7182656940000001,1.0,0.36228040899999997,False,,5eb561131434b1053a77d85d,,1251630,74,,evan-feature22,full_pf_b,,0
50,844,75,,,,2,2,1.0,1.0,0.0,1.0,,0.0-77.0,,1.0,886.96,1.0,0.37675460299999997,0.0,0.703250285,1.0,0.75,1.0,0.461979164,False,,5eb561131434b1053a77d85d,,1262337,75,,evan-feature22,full_pf_b,,1
51,845,76,,,,2,2,0.0,0.0,0.0,1.0,,0.0-78.0,,0.0,1088.47,0.0,0.398716075,1.0,0.6723864890000001,0.0,0.674153818,0.0,0.519029516,False,,5eb561131434b1053a77d85d,,1273230,76,,evan-feature22,full_pf_b,,0
52,846,77,,,,1,1,1.0,1.0,-1.0,0.0,,0.0-79.0,,-1.0,2047.48,1.0,0.34677856700000004,1.0,0.69057175,1.0,0.6822438540000001,0.0,0.477292237,False,,5eb561131434b1053a77d85d,,1285109,77,,evan-feature22,full_pf_b,,1
53,847,78,,,,1,1,0.0,0.0,0.0,1.0,,0.0-80.0,,0.0,2975.685,0.0,0.28580469199999997,0.0,0.68408818,0.0,0.684207565,0.0,0.49780448299999996,False,,5eb561131434b1053a77d85d,,1297880,78,,evan-feature22,full_pf_b,,0
54,849,80,,,,2,2,1.0,1.0,-1.0,0.0,,0.0-82.0,,-1.0,3001.065,1.0,0.25,0.0,0.7405808970000001,1.0,0.679614108,1.0,0.436436964,False,,5eb561131434b1053a77d85d,,1315426,80,,evan-feature22,full_pf_b,,1
55,850,81,,,,1,1,1.0,1.0,0.0,1.0,,0.0-83.0,,1.0,1596.27,1.0,0.29890393,1.0,0.730505706,1.0,0.7328203320000001,0.0,0.439256938,False,,5eb561131434b1053a77d85d,,1326839,81,,evan-feature22,full_pf_b,,1
56,851,82,,,,1,1,0.0,1.0,-1.0,0.0,,0.0-84.0,,0.0,694.805,0.0,0.326762398,1.0,0.7148059609999999,1.0,0.75,0.0,0.44389608799999997,False,,5eb561131434b1053a77d85d,,1337368,82,,evan-feature22,full_pf_b,,0
57,852,83,,,,1,1,0.0,1.0,-1.0,0.0,,0.0-85.0,,0.0,618.305,0.0,0.295168515,1.0,0.739760854,0.0,0.719947008,1.0,0.35277284600000003,False,,5eb561131434b1053a77d85d,,1347792,83,,evan-feature22,full_pf_b,,0
58,853,84,,,,1,1,1.0,0.0,-1.0,0.0,,0.0-86.0,,-1.0,484.055,1.0,0.25,0.0,0.70781482,1.0,0.75,0.0,0.286095925,False,,5eb561131434b1053a77d85d,,1358085,84,,evan-feature22,full_pf_b,,0
59,854,85,,,,2,2,0.0,0.0,0.0,1.0,,0.0-87.0,,0.0,410.83,1.0,0.25638190899999996,1.0,0.704088163,0.0,0.75,0.0,0.26872601399999996,False,,5eb561131434b1053a77d85d,,1368291,85,,evan-feature22,full_pf_b,,1
60,855,86,,,,2,2,1.0,0.0,0.0,1.0,,0.0-88.0,,0.0,673.05,0.0,0.271581126,1.0,0.669760107,1.0,0.733896663,0.0,0.273244572,False,,5eb561131434b1053a77d85d,,1378769,86,,evan-feature22,full_pf_b,,0
61,856,87,,,,2,2,1.0,0.0,0.0,1.0,,0.0-89.0,,0.0,892.4,1.0,0.257144401,1.0,0.600575706,1.0,0.74488122,0.0,0.25,False,,5eb561131434b1053a77d85d,,1389480,87,,evan-feature22,full_pf_b,,0
62,857,88,,,,2,2,1.0,1.0,-1.0,0.0,,0.0-90.0,,-1.0,440.67,1.0,0.25,1.0,0.616870026,1.0,0.723610234,1.0,0.25,False,,5eb561131434b1053a77d85d,,1399726,88,,evan-feature22,full_pf_b,,0
63,858,89,,,,2,2,1.0,0.0,0.0,1.0,,0.0-91.0,,0.0,964.55,1.0,0.25,1.0,0.583540187,1.0,0.7041042559999999,0.0,0.285961995,False,,5eb561131434b1053a77d85d,,1410498,89,,evan-feature22,full_pf_b,,0
64,859,90,,,,1,1,1.0,1.0,-1.0,0.0,,0.0-92.0,,-1.0,1543.545,1.0,0.27254536,1.0,0.53875765,0.0,0.693783448,0.0,0.284961652,False,,5eb561131434b1053a77d85d,,1421881,90,,evan-feature22,full_pf_b,,1
65,860,91,,,,1,1,1.0,1.0,0.0,1.0,,0.0-93.0,,1.0,1439.68,1.0,0.25,1.0,0.548431252,1.0,0.734221895,0.0,0.279445214,False,,5eb561131434b1053a77d85d,,1433139,91,,evan-feature22,full_pf_b,,0
66,861,92,,,,2,2,1.0,0.0,-1.0,0.0,,0.0-94.0,,-1.0,583.185,0.0,0.258640684,0.0,0.545878066,1.0,0.725245965,0.0,0.31487537,False,,5eb561131434b1053a77d85d,,1443529,92,,evan-feature22,full_pf_b,,1
67,862,93,,,,2,2,1.0,0.0,-1.0,0.0,,0.0-95.0,,-1.0,722.1,1.0,0.251103711,0.0,0.5776290629999999,1.0,0.696320133,0.0,0.317831047,False,,5eb561131434b1053a77d85d,,1454081,93,,evan-feature22,full_pf_b,,0
68,863,94,,,,2,2,1.0,1.0,-1.0,0.0,,0.0-96.0,,-1.0,811.65,1.0,0.276630292,0.0,0.617329858,1.0,0.73838088,1.0,0.261471582,False,,5eb561131434b1053a77d85d,,1464720,94,,evan-feature22,full_pf_b,,0
69,864,95,,,,2,2,1.0,0.0,0.0,1.0,,0.0-97.0,,0.0,839.775,1.0,0.297716424,1.0,0.618863717,1.0,0.7402358259999999,0.0,0.262600834,False,,5eb561131434b1053a77d85d,,1475390,95,,evan-feature22,full_pf_b,,0
70,865,96,,,,2,2,1.0,0.0,-1.0,0.0,,0.0-98.0,,-1.0,734.915,0.0,0.290935512,1.0,0.695370945,1.0,0.706570507,0.0,0.280030553,False,,5eb561131434b1053a77d85d,,1485929,96,,evan-feature22,full_pf_b,,0
71,866,97,,,,1,1,0.0,1.0,-1.0,0.0,,0.0-99.0,,0.0,752.67,0.0,0.25,1.0,0.6465277079999999,1.0,0.67766682,0.0,0.25,False,,5eb561131434b1053a77d85d,,1496492,97,,evan-feature22,full_pf_b,,1
72,867,98,,,,1,1,0.0,1.0,-1.0,0.0,,0.0-100.0,,0.0,452.02,0.0,0.26463816,1.0,0.636100213,0.0,0.646048507,0.0,0.265607101,False,,5eb561131434b1053a77d85d,,1506762,98,,evan-feature22,full_pf_b,,0
73,868,99,,,,2,2,1.0,0.0,-1.0,0.0,,0.0-101.0,,-1.0,557.045,0.0,0.314340707,0.0,0.667795927,1.0,0.613630805,0.0,0.25,False,,5eb561131434b1053a77d85d,,1517143,99,,evan-feature22,full_pf_b,,1
74,869,100,,,,1,1,0.0,0.0,-1.0,0.0,,0.0-102.0,,0.0,1170.86,0.0,0.28685784,0.0,0.6622549529999999,1.0,0.652154117,0.0,0.25,False,,5eb561131434b1053a77d85d,,1528128,100,,evan-feature22,full_pf_b,,1
75,870,101,,,,2,2,1.0,0.0,0.0,1.0,,0.0-103.0,,0.0,1158.17,0.0,0.304106554,0.0,0.631289538,1.0,0.707041942,0.0,0.29314237,False,,5eb561131434b1053a77d85d,,1539102,101,,evan-feature22,full_pf_b,,1
76,871,102,,,,2,2,0.0,0.0,0.0,1.0,,0.0-104.0,,0.0,1262.22,1.0,0.304806932,1.0,0.571167718,0.0,0.680472346,0.0,0.25,False,,5eb561131434b1053a77d85d,,1550180,102,,evan-feature22,full_pf_b,,0
77,872,103,,,,2,2,0.0,1.0,0.0,1.0,,0.0-105.0,,1.0,1265.19,1.0,0.37919861,0.0,0.5724849710000001,0.0,0.705638003,1.0,0.30179300600000003,False,,5eb561131434b1053a77d85d,,1561239,103,,evan-feature22,full_pf_b,,0
78,873,104,,,,2,2,1.0,0.0,0.0,1.0,,0.0-106.0,,0.0,674.6,0.0,0.464277969,0.0,0.554034373,1.0,0.7372627340000001,0.0,0.264699741,False,,5eb561131434b1053a77d85d,,1571734,104,,evan-feature22,full_pf_b,,0
79,874,105,,,,2,2,0.0,0.0,-1.0,0.0,,0.0-107.0,,0.0,1986.45,0.0,0.465104323,0.0,0.530793115,0.0,0.75,0.0,0.31683071,False,,5eb561131434b1053a77d85d,,1583532,105,,evan-feature22,full_pf_b,,0
80,875,106,,,,1,1,0.0,1.0,0.0,1.0,,0.0-108.0,,1.0,3329.765,0.0,0.465104323,1.0,0.530793115,1.0,0.75,0.0,0.31683071,False,,5eb561131434b1053a77d85d,,1596697,106,,evan-feature22,full_pf_b,,1
81,876,107,,,,1,1,0.0,0.0,0.0,1.0,,0.0-109.0,,0.0,889.22,0.0,0.46833986,0.0,0.570249239,1.0,0.7244472590000001,1.0,0.364114163,False,,5eb561131434b1053a77d85d,,1607404,107,,evan-feature22,full_pf_b,,0
82,877,108,,,,1,1,1.0,0.0,0.0,1.0,,0.0-110.0,,0.0,1033.79,1.0,0.445444024,0.0,0.649673355,1.0,0.6845441290000001,1.0,0.300660449,False,,5eb561131434b1053a77d85d,,1618252,108,,evan-feature22,full_pf_b,,0
83,878,109,,,,2,2,1.0,0.0,0.0,1.0,,0.0-111.0,,0.0,916.225,0.0,0.39909721299999995,1.0,0.6715179509999999,1.0,0.742310028,0.0,0.35496088299999995,False,,5eb561131434b1053a77d85d,,1629006,109,,evan-feature22,full_pf_b,,1
84,879,110,,,,2,2,0.0,0.0,0.0,1.0,,0.0-112.0,,0.0,1447.935,0.0,0.37956104799999996,1.0,0.694725302,0.0,0.7181651309999999,0.0,0.38726906299999997,False,,5eb561131434b1053a77d85d,,1640282,110,,evan-feature22,full_pf_b,,0
85,880,111,,,,2,2,0.0,1.0,0.0,1.0,,0.0-113.0,,1.0,1372.685,1.0,0.404995034,1.0,0.724375412,0.0,0.6910946859999999,1.0,0.387187347,False,,5eb561131434b1053a77d85d,,1651473,111,,evan-feature22,full_pf_b,,0
86,881,112,,,,2,2,1.0,0.0,0.0,1.0,,0.0-114.0,,0.0,498.885,0.0,0.461740803,1.0,0.75,1.0,0.75,0.0,0.34872038200000005,False,,5eb561131434b1053a77d85d,,1661812,112,,evan-feature22,full_pf_b,,0
87,882,113,,,,2,2,1.0,1.0,-1.0,0.0,,0.0-115.0,,-1.0,1949.805,1.0,0.43821380600000004,0.0,0.738833273,1.0,0.728286963,1.0,0.399538128,False,,5eb561131434b1053a77d85d,,1673564,113,,evan-feature22,full_pf_b,,0
88,883,114,,,,1,1,0.0,1.0,0.0,1.0,,0.0-116.0,,1.0,1007.96,0.0,0.41709882,1.0,0.736666736,1.0,0.75,0.0,0.389095584,False,,5eb561131434b1053a77d85d,,1684377,114,,evan-feature22,full_pf_b,,1
89,884,115,,,,1,1,0.0,1.0,0.0,1.0,,0.0-117.0,,1.0,990.36,0.0,0.39749009799999996,1.0,0.744320029,1.0,0.75,1.0,0.363848678,False,,5eb561131434b1053a77d85d,,1695195,115,,evan-feature22,full_pf_b,,0
90,885,116,,,,1,1,1.0,1.0,-1.0,0.0,,0.0-118.0,,-1.0,1024.505,1.0,0.392653706,1.0,0.75,0.0,0.75,0.0,0.384386976,False,,5eb561131434b1053a77d85d,,1706039,116,,evan-feature22,full_pf_b,,0
91,886,117,,,,1,1,0.0,1.0,-1.0,0.0,,0.0-119.0,,0.0,1184.1,0.0,0.31190902600000003,1.0,0.75,0.0,0.732413819,1.0,0.413082932,False,,5eb561131434b1053a77d85d,,1717061,117,,evan-feature22,full_pf_b,,0
92,887,118,,,,2,2,1.0,1.0,0.0,1.0,,0.0-120.0,,1.0,598.565,0.0,0.366917648,1.0,0.740073855,1.0,0.75,1.0,0.352861979,False,,5eb561131434b1053a77d85d,,1727486,118,,evan-feature22,full_pf_b,,1
93,888,119,,,,2,2,1.0,0.0,0.0,1.0,,0.0-121.0,,0.0,856.82,0.0,0.3645172,1.0,0.721770713,1.0,0.75,0.0,0.404074511,False,,5eb561131434b1053a77d85d,,1738157,119,,evan-feature22,full_pf_b,,0
94,889,120,,,,1,1,0.0,1.0,0.0,1.0,,0.0-122.0,,1.0,1474.065,0.0,0.35205600299999995,1.0,0.68983859,1.0,0.739735447,0.0,0.366895945,False,,5eb561131434b1053a77d85d,,1749445,120,,evan-feature22,full_pf_b,,1
95,890,121,,,,1,1,1.0,1.0,0.0,1.0,,0.0-123.0,,1.0,1822.28,1.0,0.40998722600000004,1.0,0.720859127,0.0,0.673854955,0.0,0.368528541,False,,5eb561131434b1053a77d85d,,1761109,121,,evan-feature22,full_pf_b,,0
96,891,122,,,,2,2,0.0,0.0,-1.0,0.0,,0.0-124.0,,0.0,2031.28,0.0,0.353625316,1.0,0.75,0.0,0.695605473,0.0,0.38303674200000004,False,,5eb561131434b1053a77d85d,,1772961,122,,evan-feature22,full_pf_b,,1
97,892,123,,,,2,2,1.0,0.0,0.0,1.0,,0.0-125.0,,0.0,2003.545,0.0,0.359216989,1.0,0.75,1.0,0.6987915090000001,0.0,0.35169046200000004,False,,5eb561131434b1053a77d85d,,1784778,123,,evan-feature22,full_pf_b,,0
98,893,124,,,,1,1,0.0,1.0,-1.0,0.0,,0.0-126.0,,0.0,1578.55,0.0,0.35834496899999996,1.0,0.75,1.0,0.707067742,0.0,0.416763636,False,,5eb561131434b1053a77d85d,,1796172,124,,evan-feature22,full_pf_b,,1
99,894,125,,,,1,1,0.0,1.0,-1.0,0.0,,0.0-127.0,,0.0,795.205,0.0,0.38741613799999997,1.0,0.7177369570000001,1.0,0.734902455,1.0,0.49438664299999996,False,,5eb561131434b1053a77d85d,,1806766,125,,evan-feature22,full_pf_b,,0
100,895,126,,,,2,2,1.0,0.0,0.0,1.0,,0.0-128.0,,0.0,1348.705,0.0,0.405255252,1.0,0.7300466640000001,1.0,0.7027748070000001,0.0,0.504359668,False,,5eb561131434b1053a77d85d,,1817946,126,,evan-feature22,full_pf_b,,1
101,896,127,,,,1,1,1.0,1.0,0.0,1.0,,0.0-129.0,,1.0,1189.465,1.0,0.40697073,1.0,0.7260142190000001,1.0,0.724461982,0.0,0.522779179,False,,5eb561131434b1053a77d85d,,1828963,127,,evan-feature22,full_pf_b,,1
102,897,128,,,,2,2,1.0,1.0,0.0,1.0,,0.0-130.0,,1.0,2163.52,0.0,0.43906215299999996,0.0,0.7252802340000001,1.0,0.719079934,1.0,0.5712990579999999,False,,5eb561131434b1053a77d85d,,1840958,128,,evan-feature22,full_pf_b,,1
103,898,129,,,,1,1,0.0,0.0,0.0,1.0,,0.0-131.0,,0.0,1358.83,0.0,0.4076705,0.0,0.73280499,0.0,0.681313127,1.0,0.523891346,False,,5eb561131434b1053a77d85d,,1852137,129,,evan-feature22,full_pf_b,,1
104,899,130,,,,1,1,1.0,1.0,0.0,1.0,,0.0-132.0,,1.0,1393.715,1.0,0.399102911,1.0,0.730498344,1.0,0.661080239,0.0,0.46742603,False,,5eb561131434b1053a77d85d,,1863326,130,,evan-feature22,full_pf_b,,0
105,900,131,,,,2,2,0.0,1.0,-1.0,0.0,,0.0-133.0,,0.0,1036.115,0.0,0.356477282,0.0,0.712296395,0.0,0.641812684,1.0,0.44868414,False,,5eb561131434b1053a77d85d,,1874178,131,,evan-feature22,full_pf_b,,1
106,901,132,,,,2,2,1.0,0.0,0.0,1.0,,0.0-134.0,,0.0,820.015,0.0,0.462760722,1.0,0.692349322,1.0,0.700947931,0.0,0.394680266,False,,5eb561131434b1053a77d85d,,1884834,132,,evan-feature22,full_pf_b,,0
107,902,133,,,,2,2,0.0,0.0,0.0,1.0,,0.0-135.0,,0.0,988.85,0.0,0.422306413,1.0,0.718375916,0.0,0.706340917,0.0,0.367787185,False,,5eb561131434b1053a77d85d,,1895644,133,,evan-feature22,full_pf_b,,0
108,904,135,,,,1,1,1.0,1.0,0.0,1.0,,0.0-137.0,,1.0,1750.25,1.0,0.4582233,1.0,0.643834117,0.0,0.75,0.0,0.39615823299999997,False,,5eb561131434b1053a77d85d,,1918204,135,,evan-feature22,full_pf_b,,1
109,905,136,,,,2,2,1.0,0.0,0.0,1.0,,0.0-138.0,,0.0,643.81,0.0,0.43813437899999996,0.0,0.651283804,1.0,0.729674191,0.0,0.37711048,False,,5eb561131434b1053a77d85d,,1928646,136,,evan-feature22,full_pf_b,,1
110,906,137,,,,2,2,1.0,1.0,0.0,1.0,,0.0-139.0,,1.0,1098.1,0.0,0.471199094,0.0,0.6470010979999999,1.0,0.715008097,1.0,0.410656191,False,,5eb561131434b1053a77d85d,,1939552,137,,evan-feature22,full_pf_b,,0
111,907,138,,,,1,1,0.0,0.0,-1.0,0.0,,0.0-140.0,,0.0,896.445,0.0,0.42486406,0.0,0.629771829,0.0,0.6550939960000001,0.0,0.459093873,False,,5eb561131434b1053a77d85d,,1950276,138,,evan-feature22,full_pf_b,,1
112,908,139,,,,1,1,1.0,1.0,-1.0,0.0,,0.0-141.0,,-1.0,1427.58,1.0,0.4803197,1.0,0.645842715,0.0,0.6421749920000001,0.0,0.443092151,False,,5eb561131434b1053a77d85d,,1961536,139,,evan-feature22,full_pf_b,,0
113,909,140,,,,2,2,1.0,1.0,-1.0,0.0,,0.0-142.0,,-1.0,1571.645,0.0,0.521848997,0.0,0.735801074,1.0,0.6691348460000001,1.0,0.45259351600000003,False,,5eb561131434b1053a77d85d,,1972931,140,,evan-feature22,full_pf_b,,1
114,910,141,,,,1,1,1.0,1.0,0.0,1.0,,0.0-143.0,,1.0,1519.34,1.0,0.49565621299999996,1.0,0.742400847,0.0,0.661512553,0.0,0.483110831,False,,5eb561131434b1053a77d85d,,1984287,141,,evan-feature22,full_pf_b,,1
115,911,142,,,,2,2,0.0,1.0,-1.0,0.0,,0.0-144.0,,0.0,1013.89,1.0,0.521564361,0.0,0.731078632,0.0,0.6774886809999999,1.0,0.483263956,False,,5eb561131434b1053a77d85d,,1995102,142,,evan-feature22,full_pf_b,,1
116,912,143,,,,2,2,1.0,1.0,-1.0,0.0,,0.0-145.0,,-1.0,2333.84,0.0,0.558893102,0.0,0.719810023,1.0,0.67461031,1.0,0.499349834,False,,5eb561131434b1053a77d85d,,2007246,143,,evan-feature22,full_pf_b,,0
117,913,144,,,,1,1,0.0,1.0,0.0,1.0,,0.0-146.0,,1.0,1257.655,0.0,0.611031046,1.0,0.75,0.0,0.688072995,1.0,0.5321422729999999,False,,5eb561131434b1053a77d85d,,2018320,144,,evan-feature22,full_pf_b,,1
118,914,145,,,,2,2,1.0,1.0,-1.0,0.0,,0.0-147.0,,-1.0,1605.11,1.0,0.633223941,0.0,0.713567728,1.0,0.75,1.0,0.48185314700000004,False,,5eb561131434b1053a77d85d,,2029747,145,,evan-feature22,full_pf_b,,1
119,915,146,,,,2,2,1.0,0.0,-1.0,0.0,,0.0-148.0,,-1.0,773.555,1.0,0.664001694,1.0,0.705509768,1.0,0.75,0.0,0.500211065,False,,5eb561131434b1053a77d85d,,2040334,146,,evan-feature22,full_pf_b,,0
120,916,147,,,,2,2,0.0,1.0,0.0,1.0,,0.0-149.0,,1.0,1406.8,1.0,0.664001694,1.0,0.705509768,0.0,0.75,1.0,0.500211065,False,,5eb561131434b1053a77d85d,,2051559,147,,evan-feature22,full_pf_b,,0
121,917,148,,,,1,1,0.0,0.0,0.0,1.0,,0.0-150.0,,0.0,1635.63,0.0,0.696508041,0.0,0.71066027,1.0,0.717028709,1.0,0.49792991,False,,5eb561131434b1053a77d85d,,2063036,148,,evan-feature22,full_pf_b,,1
122,918,149,,,,1,1,1.0,1.0,-1.0,0.0,,0.0-151.0,,-1.0,1715.265,1.0,0.699883272,1.0,0.75,0.0,0.713543895,1.0,0.496962643,False,,5eb561131434b1053a77d85d,,2074560,149,,evan-feature22,full_pf_b,,0
123,919,150,,,,1,1,1.0,1.0,0.0,1.0,,0.0-152.0,,1.0,965.555,1.0,0.741163419,1.0,0.75,1.0,0.64691024,0.0,0.513858197,False,,5eb561131434b1053a77d85d,,2085328,150,,evan-feature22,full_pf_b,,0
124,920,151,,,,2,2,1.0,0.0,-1.0,0.0,,0.0-153.0,,-1.0,3063.39,1.0,0.75,1.0,0.70816558,1.0,0.594499079,0.0,0.48502124,False,,5eb561131434b1053a77d85d,,2098230,151,,evan-feature22,full_pf_b,,1
125,921,152,,,,2,2,1.0,0.0,0.0,1.0,,0.0-154.0,,0.0,910.15,1.0,0.75,1.0,0.721848901,1.0,0.62197249,0.0,0.48263586399999997,False,,5eb561131434b1053a77d85d,,2108939,152,,evan-feature22,full_pf_b,,0
126,922,153,,,,2,2,0.0,1.0,-1.0,0.0,,0.0-155.0,,0.0,1058.47,1.0,0.75,0.0,0.74813071,0.0,0.584357161,1.0,0.411477782,False,,5eb561131434b1053a77d85d,,2119803,153,,evan-feature22,full_pf_b,,0
127,923,154,,,,2,2,1.0,1.0,0.0,1.0,,0.0-156.0,,1.0,889.57,1.0,0.75,1.0,0.75,1.0,0.52287236,1.0,0.488290656,False,,5eb561131434b1053a77d85d,,2130494,154,,evan-feature22,full_pf_b,,0
128,924,155,,,,1,1,0.0,0.0,0.0,1.0,,0.0-157.0,,0.0,1018.03,0.0,0.75,0.0,0.75,1.0,0.544321581,0.0,0.53143059,False,,5eb561131434b1053a77d85d,,2141330,155,,evan-feature22,full_pf_b,,1
129,925,156,,,,1,1,1.0,0.0,0.0,1.0,,0.0-158.0,,0.0,1774.86,1.0,0.726754564,0.0,0.75,0.0,0.5129306370000001,1.0,0.530592445,False,,5eb561131434b1053a77d85d,,2152926,156,,evan-feature22,full_pf_b,,0
130,926,157,,,,SLOW,SLOW,,,-1.0,0.0,,0.0-159.0,,-3.0,,1.0,0.75,1.0,0.7392590729999999,0.0,0.479875835,1.0,0.547007051,False,,5eb561131434b1053a77d85d,,2158754,157,,evan-feature22,full_pf_b,,1
131,927,158,,,,1,1,1.0,0.0,-1.0,0.0,,0.0-160.0,,-1.0,1242.435,1.0,0.75,0.0,0.7393376979999999,1.0,0.546045419,0.0,0.541267353,False,,5eb561131434b1053a77d85d,,2169832,158,,evan-feature22,full_pf_b,,1
132,928,159,,,,1,1,1.0,1.0,-1.0,0.0,,0.0-161.0,,-1.0,950.79,1.0,0.75,1.0,0.75,1.0,0.485725895,0.0,0.527625395,False,,5eb561131434b1053a77d85d,,2180599,159,,evan-feature22,full_pf_b,,0
133,929,160,,,,1,1,0.0,0.0,0.0,1.0,,0.0-162.0,,0.0,491.67,0.0,0.75,0.0,0.725087974,0.0,0.488603595,1.0,0.504019206,False,,5eb561131434b1053a77d85d,,2190913,160,,evan-feature22,full_pf_b,,0
134,930,161,,,,1,1,1.0,1.0,0.0,1.0,,0.0-163.0,,1.0,542.81,1.0,0.745504295,1.0,0.75,0.0,0.452379914,1.0,0.50131194,False,,5eb561131434b1053a77d85d,,2201275,161,,evan-feature22,full_pf_b,,0
135,931,162,,,,2,2,1.0,0.0,0.0,1.0,,0.0-164.0,,0.0,399.775,0.0,0.728513874,0.0,0.75,1.0,0.44125567200000004,0.0,0.531454591,False,,5eb561131434b1053a77d85d,,2211508,162,,evan-feature22,full_pf_b,,1
136,932,163,,,,2,2,1.0,1.0,-1.0,0.0,,0.0-165.0,,-1.0,673.685,0.0,0.73790804,0.0,0.75,1.0,0.413036656,1.0,0.524619035,False,,5eb561131434b1053a77d85d,,2222002,163,,evan-feature22,full_pf_b,,0
137,933,164,,,,2,2,0.0,0.0,0.0,1.0,,0.0-166.0,,0.0,1371.665,1.0,0.7080961309999999,0.0,0.708666865,0.0,0.431915581,0.0,0.481819489,False,,5eb561131434b1053a77d85d,,2233216,164,,evan-feature22,full_pf_b,,0
138,934,165,,,,2,2,0.0,1.0,0.0,1.0,,0.0-167.0,,1.0,913.1,1.0,0.721378003,1.0,0.71605913,0.0,0.36642387,1.0,0.5036739929999999,False,,5eb561131434b1053a77d85d,,2243953,165,,evan-feature22,full_pf_b,,0
139,935,166,,,,1,1,1.0,0.0,0.0,1.0,,0.0-168.0,,0.0,832.875,1.0,0.7340618959999999,0.0,0.699323252,0.0,0.35298046299999997,0.0,0.511241692,False,,5eb561131434b1053a77d85d,,2254609,166,,evan-feature22,full_pf_b,,1
140,936,167,,,,1,1,0.0,0.0,-1.0,0.0,,0.0-169.0,,0.0,802.35,0.0,0.75,0.0,0.70412698,0.0,0.380734814,1.0,0.529580116,False,,5eb561131434b1053a77d85d,,2265246,167,,evan-feature22,full_pf_b,,0
141,937,168,,,,1,1,1.0,1.0,0.0,1.0,,0.0-170.0,,1.0,1406.28,1.0,0.7436654909999999,1.0,0.711182751,0.0,0.41125331,0.0,0.49554405,False,,5eb561131434b1053a77d85d,,2276480,168,,evan-feature22,full_pf_b,,0
142,938,169,,,,2,2,1.0,0.0,0.0,1.0,,0.0-171.0,,0.0,1295.235,0.0,0.731607915,0.0,0.651774583,1.0,0.35688023,0.0,0.45194491600000003,False,,5eb561131434b1053a77d85d,,2287598,169,,evan-feature22,full_pf_b,,1
143,939,170,,,,2,2,0.0,1.0,-1.0,0.0,,0.0-172.0,,0.0,802.075,1.0,0.75,1.0,0.75,0.0,0.283145374,1.0,0.528608005,False,,5eb561131434b1053a77d85d,,2298230,170,,evan-feature22,full_pf_b,,0
144,940,171,,,,2,2,0.0,1.0,-1.0,0.0,,0.0-173.0,,0.0,1667.19,0.0,0.7491416890000001,1.0,0.7423785959999999,0.0,0.29135870399999997,1.0,0.498888318,False,,5eb561131434b1053a77d85d,,2309680,171,,evan-feature22,full_pf_b,,0
145,941,172,,,,2,2,0.0,0.0,-1.0,0.0,,0.0-174.0,,0.0,1248.545,0.0,0.708569387,0.0,0.717682277,0.0,0.294421699,0.0,0.493838163,False,,5eb561131434b1053a77d85d,,2320761,172,,evan-feature22,full_pf_b,,0
146,942,173,,,,2,2,1.0,0.0,0.0,1.0,,0.0-175.0,,0.0,1731.325,1.0,0.75,1.0,0.7383382159999999,1.0,0.356098707,0.0,0.442533405,False,,5eb561131434b1053a77d85d,,2332307,173,,evan-feature22,full_pf_b,,0
147,943,174,,,,2,2,0.0,1.0,0.0,1.0,,0.0-176.0,,1.0,1558.6,1.0,0.744527075,1.0,0.75,0.0,0.334127506,1.0,0.393165805,False,,5eb561131434b1053a77d85d,,2343687,174,,evan-feature22,full_pf_b,,0
148,944,175,,,,1,1,1.0,1.0,0.0,1.0,,0.0-177.0,,1.0,890.745,1.0,0.75,1.0,0.75,0.0,0.33571021799999995,0.0,0.350393962,False,,5eb561131434b1053a77d85d,,2354386,175,,evan-feature22,full_pf_b,,1
149,945,176,,,,2,2,0.0,1.0,0.0,1.0,,0.0-178.0,,1.0,1123.09,1.0,0.75,1.0,0.75,0.0,0.313628297,1.0,0.36349657399999996,False,,5eb561131434b1053a77d85d,,2365349,176,,evan-feature22,full_pf_b,,1
150,946,177,,,,1,1,1.0,0.0,-1.0,0.0,,0.0-179.0,,-1.0,942.805,1.0,0.75,0.0,0.734284182,0.0,0.262667667,0.0,0.380199119,False,,5eb561131434b1053a77d85d,,2376110,177,,evan-feature22,full_pf_b,,1
151,947,178,,,,1,1,1.0,1.0,0.0,1.0,,0.0-180.0,,1.0,1470.61,1.0,0.75,1.0,0.75,1.0,0.25,0.0,0.394494013,False,,5eb561131434b1053a77d85d,,2387408,178,,evan-feature22,full_pf_b,,0
152,948,179,,,,2,2,0.0,1.0,-1.0,0.0,,0.0-181.0,,0.0,1170.895,1.0,0.722298145,1.0,0.7357822340000001,0.0,0.25,1.0,0.319142121,False,,5eb561131434b1053a77d85d,,2398390,179,,evan-feature22,full_pf_b,,1
153,949,180,,,,2,2,1.0,0.0,-1.0,0.0,,0.0-182.0,,-1.0,1404.135,0.0,0.73149275,0.0,0.724276446,1.0,0.305856907,0.0,0.281315057,False,,5eb561131434b1053a77d85d,,2409629,180,,evan-feature22,full_pf_b,,0
154,950,181,,,,2,2,0.0,0.0,0.0,1.0,,0.0-183.0,,0.0,1206.48,1.0,0.7458732690000001,1.0,0.7336382459999999,0.0,0.272571964,0.0,0.266021999,False,,5eb561131434b1053a77d85d,,2420621,181,,evan-feature22,full_pf_b,,0
155,951,182,,,,2,2,1.0,1.0,0.0,1.0,,0.0-184.0,,1.0,581.85,0.0,0.705579037,1.0,0.720778292,1.0,0.320238144,1.0,0.30971744,False,,5eb561131434b1053a77d85d,,2431031,182,,evan-feature22,full_pf_b,,0
156,952,183,,,,1,1,1.0,1.0,0.0,1.0,,0.0-185.0,,1.0,1431.48,1.0,0.700425648,1.0,0.7198784009999999,0.0,0.272590393,1.0,0.304182931,False,,5eb561131434b1053a77d85d,,2442295,183,,evan-feature22,full_pf_b,,1
157,953,184,,,,2,2,0.0,0.0,0.0,1.0,,0.0-186.0,,0.0,1425.71,1.0,0.735590785,1.0,0.722714973,0.0,0.25,0.0,0.323421091,False,,5eb561131434b1053a77d85d,,2453542,184,,evan-feature22,full_pf_b,,1
158,954,185,,,,2,2,0.0,0.0,0.0,1.0,,0.0-187.0,,0.0,1225.77,1.0,0.724807662,1.0,0.63146213,0.0,0.36836492600000004,0.0,0.34592153299999995,False,,5eb561131434b1053a77d85d,,2464576,185,,evan-feature22,full_pf_b,,0
159,955,186,,,,2,2,0.0,0.0,0.0,1.0,,0.0-188.0,,0.0,1232.97,1.0,0.7352796909999999,1.0,0.555111392,0.0,0.36003922,0.0,0.31433779999999995,False,,5eb561131434b1053a77d85d,,2475641,186,,evan-feature22,full_pf_b,,0
160,956,187,notice,,,,,,,,,,0.0-189.0,"{""Q0"":""no""}",,19588.0,,,,,,,,,False,,5eb561131434b1053a77d85d,,2495232,187,Q,survey-text,full_pf_b,,1
161,957,188,track1,,[1],,,,,,,,0.0-190.0,"{""Q0"":""no""}",,5354.0,,,,,,,,,False,,5eb561131434b1053a77d85d,,2500590,188,Q,evan-quiz,full_pf_b,,1
162,958,189,track2,,[0],,,,,,,,0.0-191.0,"{""Q0"":""yes""}",,9654.0,,,,,,,,,False,,5eb561131434b1053a77d85d,,2510245,189,Q,evan-quiz,full_pf_b,,1
163,959,190,strat,,,,,,,,,,0.0-192.0,"{""Q0"":""No strategy just guessed""}",,24259.0,,,,,,,,,False,,5eb561131434b1053a77d85d,,2534508,190,Q,survey-text,full_pf_b,,1
