,index,Unnamed: 0,Q_name,button_pressed,choice_idxs,chosen_pos,chosen_state,chosen_state_f_1_outcome,chosen_state_f_2_outcome,f_1_reward,f_2_reward,incor_questions,internal_node_id,responses,reward_received,rt,s_1_f_1_outcome,s_1_f_1_prob,s_1_f_2_outcome,s_1_f_2_prob,s_2_f_1_outcome,s_2_f_1_prob,s_2_f_2_outcome,s_2_f_2_prob,safe_first,stimulus,subjectID,success,time_elapsed,trial_index,trial_num,trial_type,version,view_history,switching
0,8019,25,,,,1,1,1.0,0.0,0.0,1.0,,0.0-27.0,,0.0,2176.41,1.0,0.6,0.0,0.6,0.0,0.4,0.0,0.4,True,,5a37bc4150833c0001eea4f7,,1104435,25,,evan-feature22,full_rf_b,,0
1,8020,26,,,,SLOW,SLOW,,,0.0,1.0,,0.0-28.0,,-3.0,,1.0,0.608053294,1.0,0.63424552,0.0,0.397152172,0.0,0.347069101,True,,5a37bc4150833c0001eea4f7,,1110305,26,,evan-feature22,full_rf_b,,1
2,8021,27,,,,2,2,0.0,0.0,0.0,1.0,,0.0-29.0,,0.0,1128.065,1.0,0.642237155,1.0,0.648566321,0.0,0.389407674,0.0,0.285525717,True,,5a37bc4150833c0001eea4f7,,1121246,27,,evan-feature22,full_rf_b,,1
3,8022,28,,,,2,2,1.0,0.0,0.0,1.0,,0.0-30.0,,0.0,866.75,1.0,0.661086576,0.0,0.630492543,1.0,0.399058924,0.0,0.25,True,,5a37bc4150833c0001eea4f7,,1131909,28,,evan-feature22,full_rf_b,,0
4,8023,29,,,,1,1,0.0,1.0,0.0,1.0,,0.0-31.0,,1.0,1122.855,0.0,0.631324137,1.0,0.6269842929999999,0.0,0.38734784299999997,0.0,0.25,True,,5a37bc4150833c0001eea4f7,,1142853,29,,evan-feature22,full_rf_b,,1
5,8024,30,,,,2,2,0.0,0.0,0.0,1.0,,0.0-32.0,,0.0,1597.095,0.0,0.6381991370000001,0.0,0.68987999,0.0,0.384107265,0.0,0.271332943,True,,5a37bc4150833c0001eea4f7,,1154231,30,,evan-feature22,full_rf_b,,1
6,8025,31,,,,1,1,0.0,1.0,0.0,1.0,,0.0-33.0,,1.0,552.985,0.0,0.66034901,1.0,0.742641349,0.0,0.360225629,1.0,0.25,True,,5a37bc4150833c0001eea4f7,,1164573,31,,evan-feature22,full_rf_b,,1
7,8026,32,,,,2,2,0.0,1.0,-1.0,0.0,,0.0-34.0,,0.0,750.345,1.0,0.638612418,1.0,0.75,0.0,0.367273939,1.0,0.25,True,,5a37bc4150833c0001eea4f7,,1175123,32,,evan-feature22,full_rf_b,,1
8,8027,33,,,,SLOW,SLOW,,,0.0,1.0,,0.0-35.0,,-3.0,,0.0,0.624340629,1.0,0.75,1.0,0.425829545,0.0,0.25,True,,5a37bc4150833c0001eea4f7,,1180949,33,,evan-feature22,full_rf_b,,1
9,8028,34,,,,1,1,0.0,1.0,0.0,1.0,,0.0-36.0,,1.0,28.64,0.0,0.621999804,1.0,0.75,0.0,0.368609357,0.0,0.25,True,,5a37bc4150833c0001eea4f7,,1190804,34,,evan-feature22,full_rf_b,,1
10,8029,35,,,,2,2,0.0,0.0,-1.0,0.0,,0.0-37.0,,0.0,1180.465,1.0,0.62666403,1.0,0.75,0.0,0.311151498,0.0,0.25,True,,5a37bc4150833c0001eea4f7,,1201781,35,,evan-feature22,full_rf_b,,1
11,8030,36,,,,1,1,1.0,1.0,-1.0,0.0,,0.0-38.0,,-1.0,986.33,1.0,0.6819650009999999,1.0,0.75,0.0,0.310763048,0.0,0.25,True,,5a37bc4150833c0001eea4f7,,1212570,36,,evan-feature22,full_rf_b,,1
12,8031,37,,,,2,2,0.0,1.0,0.0,1.0,,0.0-39.0,,1.0,1109.77,1.0,0.740626951,0.0,0.75,0.0,0.25,1.0,0.25,True,,5a37bc4150833c0001eea4f7,,1223492,37,,evan-feature22,full_rf_b,,1
13,8032,38,,,,1,1,1.0,1.0,0.0,1.0,,0.0-40.0,,1.0,1272.255,1.0,0.739599242,1.0,0.742034978,0.0,0.25397114600000004,0.0,0.25,True,,5a37bc4150833c0001eea4f7,,1234555,38,,evan-feature22,full_rf_b,,1
14,8033,39,,,,2,2,0.0,0.0,0.0,1.0,,0.0-41.0,,0.0,969.845,1.0,0.732341315,1.0,0.72735643,0.0,0.25,0.0,0.25,True,,5a37bc4150833c0001eea4f7,,1245314,39,,evan-feature22,full_rf_b,,1
15,8034,40,,,,1,1,0.0,0.0,0.0,1.0,,0.0-42.0,,0.0,2083.445,0.0,0.7062287770000001,0.0,0.75,0.0,0.29002151,0.0,0.288256649,True,,5a37bc4150833c0001eea4f7,,1257186,40,,evan-feature22,full_rf_b,,1
16,8035,41,,,,1,1,0.0,1.0,-1.0,0.0,,0.0-43.0,,0.0,2045.635,0.0,0.7086029209999999,1.0,0.75,0.0,0.274129113,0.0,0.262851608,True,,5a37bc4150833c0001eea4f7,,1269034,41,,evan-feature22,full_rf_b,,0
17,8036,42,,,,2,2,0.0,1.0,0.0,1.0,,0.0-44.0,,1.0,596.925,0.0,0.669189651,0.0,0.727614338,0.0,0.298444036,1.0,0.296944518,True,,5a37bc4150833c0001eea4f7,,1279432,42,,evan-feature22,full_rf_b,,1
18,8037,43,,,,1,1,0.0,1.0,-1.0,0.0,,0.0-45.0,,0.0,1065.26,0.0,0.6819912929999999,1.0,0.7179434290000001,1.0,0.265003961,0.0,0.28157921199999997,True,,5a37bc4150833c0001eea4f7,,1290296,43,,evan-feature22,full_rf_b,,1
19,8038,44,,,,2,2,0.0,1.0,-1.0,0.0,,0.0-46.0,,0.0,644.8,1.0,0.665275002,1.0,0.723065271,0.0,0.260414971,1.0,0.30973870000000003,True,,5a37bc4150833c0001eea4f7,,1300733,44,,evan-feature22,full_rf_b,,1
20,8039,45,,,,1,1,1.0,1.0,0.0,1.0,,0.0-47.0,,1.0,163.915,1.0,0.6660593260000001,1.0,0.728032907,1.0,0.30922817,0.0,0.338778608,True,,5a37bc4150833c0001eea4f7,,1310702,45,,evan-feature22,full_rf_b,,1
21,8040,46,,,,2,2,0.0,0.0,0.0,1.0,,0.0-48.0,,0.0,604.89,1.0,0.702068785,1.0,0.6528750879999999,0.0,0.287329608,0.0,0.35789613200000003,True,,5a37bc4150833c0001eea4f7,,1321094,46,,evan-feature22,full_rf_b,,1
22,8041,47,,,,1,1,0.0,0.0,0.0,1.0,,0.0-49.0,,0.0,317.795,0.0,0.651939787,0.0,0.636725589,0.0,0.284834488,1.0,0.358563756,True,,5a37bc4150833c0001eea4f7,,1331213,47,,evan-feature22,full_rf_b,,1
23,8042,48,,,,2,2,0.0,0.0,0.0,1.0,,0.0-50.0,,0.0,1133.52,1.0,0.67573929,0.0,0.612550049,0.0,0.37130387600000003,0.0,0.383542402,True,,5a37bc4150833c0001eea4f7,,1342118,48,,evan-feature22,full_rf_b,,1
24,8043,49,,,,2,2,0.0,0.0,0.0,1.0,,0.0-51.0,,0.0,50.44,1.0,0.620753801,0.0,0.60513644,0.0,0.385529434,0.0,0.340361743,True,,5a37bc4150833c0001eea4f7,,1352030,49,,evan-feature22,full_rf_b,,0
25,8044,50,,,,2,2,1.0,0.0,-1.0,0.0,,0.0-52.0,,-1.0,1114.88,1.0,0.673564893,1.0,0.672437924,1.0,0.292955382,0.0,0.337633795,True,,5a37bc4150833c0001eea4f7,,1362960,50,,evan-feature22,full_rf_b,,0
26,8045,51,,,,2,2,0.0,0.0,0.0,1.0,,0.0-53.0,,0.0,1832.57,1.0,0.6749427,1.0,0.724197502,0.0,0.32391132100000003,0.0,0.350995264,True,,5a37bc4150833c0001eea4f7,,1374638,51,,evan-feature22,full_rf_b,,0
27,8046,52,,,,1,1,1.0,1.0,0.0,1.0,,0.0-54.0,,1.0,2076.5,1.0,0.6940159379999999,1.0,0.75,1.0,0.31710554399999996,1.0,0.413450341,True,,5a37bc4150833c0001eea4f7,,1386554,52,,evan-feature22,full_rf_b,,1
28,8047,53,,,,2,2,0.0,0.0,0.0,1.0,,0.0-55.0,,0.0,1102.165,1.0,0.6916018270000001,0.0,0.69001187,0.0,0.261817804,0.0,0.40038635,True,,5a37bc4150833c0001eea4f7,,1397445,53,,evan-feature22,full_rf_b,,1
29,8048,54,,,,1,1,1.0,1.0,0.0,1.0,,0.0-56.0,,1.0,745.415,1.0,0.641061544,1.0,0.71337992,1.0,0.277296461,1.0,0.47372791700000005,True,,5a37bc4150833c0001eea4f7,,1408002,54,,evan-feature22,full_rf_b,,1
30,8049,55,,,,2,2,0.0,1.0,0.0,1.0,,0.0-57.0,,1.0,613.775,1.0,0.6082438520000001,0.0,0.708471106,0.0,0.28745137,1.0,0.564174476,True,,5a37bc4150833c0001eea4f7,,1418446,55,,evan-feature22,full_rf_b,,1
31,8050,56,,,,2,2,0.0,1.0,-1.0,0.0,,0.0-58.0,,0.0,1189.2,1.0,0.6051112120000001,1.0,0.7118147229999999,0.0,0.272390611,1.0,0.5595149939999999,True,,5a37bc4150833c0001eea4f7,,1429430,56,,evan-feature22,full_rf_b,,0
32,8051,57,,,,1,1,1.0,1.0,-1.0,0.0,,0.0-59.0,,-1.0,833.37,1.0,0.582420852,1.0,0.635867583,0.0,0.31089574,1.0,0.5227206520000001,True,,5a37bc4150833c0001eea4f7,,1440102,57,,evan-feature22,full_rf_b,,1
33,8052,58,,,,2,2,0.0,0.0,-1.0,0.0,,0.0-60.0,,0.0,585.55,0.0,0.623195575,0.0,0.655026044,0.0,0.25,0.0,0.560387538,True,,5a37bc4150833c0001eea4f7,,1450493,58,,evan-feature22,full_rf_b,,1
34,8053,59,,,,1,1,1.0,1.0,0.0,1.0,,0.0-61.0,,1.0,1740.84,1.0,0.601889598,1.0,0.678198724,1.0,0.25,1.0,0.559922936,True,,5a37bc4150833c0001eea4f7,,1462054,59,,evan-feature22,full_rf_b,,1
35,8054,60,,,,2,2,0.0,0.0,-1.0,0.0,,0.0-62.0,,0.0,1395.255,1.0,0.601259914,0.0,0.704681482,0.0,0.33908969299999997,0.0,0.505003715,True,,5a37bc4150833c0001eea4f7,,1473257,60,,evan-feature22,full_rf_b,,1
36,8055,61,,,,1,1,1.0,1.0,-1.0,0.0,,0.0-63.0,,-1.0,489.395,1.0,0.59645454,1.0,0.710437172,1.0,0.327441879,0.0,0.391749613,True,,5a37bc4150833c0001eea4f7,,1483570,61,,evan-feature22,full_rf_b,,1
37,8056,62,,,,2,2,1.0,0.0,0.0,1.0,,0.0-64.0,,0.0,109.27,1.0,0.529473,1.0,0.636758527,1.0,0.301338063,0.0,0.365661481,True,,5a37bc4150833c0001eea4f7,,1493480,62,,evan-feature22,full_rf_b,,1
38,8057,63,,,,1,1,1.0,1.0,-1.0,0.0,,0.0-65.0,,-1.0,1476.36,1.0,0.541657162,1.0,0.634541962,0.0,0.343535366,0.0,0.371763742,True,,5a37bc4150833c0001eea4f7,,1504763,63,,evan-feature22,full_rf_b,,1
39,8058,64,,,,2,2,0.0,1.0,-1.0,0.0,,0.0-66.0,,0.0,638.98,1.0,0.5707533260000001,0.0,0.589121171,0.0,0.326428396,1.0,0.43961622899999997,True,,5a37bc4150833c0001eea4f7,,1515235,64,,evan-feature22,full_rf_b,,1
40,8059,65,,,,2,2,0.0,0.0,0.0,1.0,,0.0-67.0,,0.0,1819.09,0.0,0.5707533260000001,0.0,0.589121171,0.0,0.326428396,0.0,0.43961622899999997,True,,5a37bc4150833c0001eea4f7,,1526846,65,,evan-feature22,full_rf_b,,0
41,8060,66,,,,2,2,0.0,0.0,0.0,1.0,,0.0-68.0,,0.0,1748.125,1.0,0.506271295,1.0,0.641775594,0.0,0.37149690700000004,0.0,0.404330166,True,,5a37bc4150833c0001eea4f7,,1538413,66,,evan-feature22,full_rf_b,,0
42,8061,67,,,,SLOW,SLOW,,,-1.0,0.0,,0.0-69.0,,-3.0,,0.0,0.455642565,0.0,0.623605825,0.0,0.358753011,1.0,0.346174041,True,,5a37bc4150833c0001eea4f7,,1544243,67,,evan-feature22,full_rf_b,,1
43,8062,68,,,,2,2,1.0,0.0,0.0,1.0,,0.0-70.0,,0.0,2349.93,0.0,0.483677308,1.0,0.5904681070000001,1.0,0.402218411,0.0,0.35344697,True,,5a37bc4150833c0001eea4f7,,1556392,68,,evan-feature22,full_rf_b,,1
44,8063,69,,,,2,2,0.0,1.0,-1.0,0.0,,0.0-71.0,,0.0,2015.53,1.0,0.394210977,1.0,0.558925494,0.0,0.540052017,1.0,0.35182128700000004,True,,5a37bc4150833c0001eea4f7,,1568214,69,,evan-feature22,full_rf_b,,0
45,8064,70,,,,1,1,0.0,1.0,0.0,1.0,,0.0-72.0,,1.0,1432.205,0.0,0.382300414,1.0,0.577670603,1.0,0.607608448,0.0,0.378261578,True,,5a37bc4150833c0001eea4f7,,1579450,70,,evan-feature22,full_rf_b,,1
46,8065,71,,,,2,2,1.0,1.0,-1.0,0.0,,0.0-73.0,,-1.0,2612.435,0.0,0.357596762,1.0,0.5929076529999999,1.0,0.6579790010000001,1.0,0.401326777,True,,5a37bc4150833c0001eea4f7,,1591895,71,,evan-feature22,full_rf_b,,1
47,8066,72,,,,1,1,1.0,0.0,0.0,1.0,,0.0-74.0,,0.0,2213.225,1.0,0.362033495,0.0,0.582308608,1.0,0.649195052,0.0,0.355158505,True,,5a37bc4150833c0001eea4f7,,1603921,72,,evan-feature22,full_rf_b,,1
48,8067,73,,,,2,2,1.0,0.0,0.0,1.0,,0.0-75.0,,0.0,2582.145,0.0,0.369620635,1.0,0.669100864,1.0,0.706059111,0.0,0.362516241,True,,5a37bc4150833c0001eea4f7,,1616339,73,,evan-feature22,full_rf_b,,1
49,8068,74,,,,2,2,1.0,0.0,0.0,1.0,,0.0-76.0,,0.0,2667.25,1.0,0.41477751399999996,1.0,0.7284416779999999,1.0,0.7182656940000001,0.0,0.36228040899999997,True,,5a37bc4150833c0001eea4f7,,1628830,74,,evan-feature22,full_rf_b,,0
50,8069,75,,,,1,1,0.0,1.0,-1.0,0.0,,0.0-77.0,,0.0,2705.3,0.0,0.37675460299999997,1.0,0.703250285,0.0,0.75,1.0,0.461979164,True,,5a37bc4150833c0001eea4f7,,1641344,75,,evan-feature22,full_rf_b,,1
51,8070,76,,,,1,1,0.0,1.0,-1.0,0.0,,0.0-78.0,,0.0,2638.505,0.0,0.398716075,1.0,0.6723864890000001,1.0,0.674153818,1.0,0.519029516,True,,5a37bc4150833c0001eea4f7,,1653825,76,,evan-feature22,full_rf_b,,0
52,8071,77,,,,1,1,0.0,1.0,-1.0,0.0,,0.0-79.0,,0.0,1854.085,0.0,0.34677856700000004,1.0,0.69057175,1.0,0.6822438540000001,1.0,0.477292237,True,,5a37bc4150833c0001eea4f7,,1665506,77,,evan-feature22,full_rf_b,,0
53,8072,78,,,,1,1,0.0,0.0,0.0,1.0,,0.0-80.0,,0.0,1728.815,0.0,0.28580469199999997,0.0,0.68408818,1.0,0.684207565,1.0,0.49780448299999996,True,,5a37bc4150833c0001eea4f7,,1677038,78,,evan-feature22,full_rf_b,,0
54,8074,80,,,,1,1,0.0,1.0,0.0,1.0,,0.0-82.0,,1.0,1173.24,0.0,0.25,1.0,0.7405808970000001,0.0,0.679614108,1.0,0.436436964,True,,5a37bc4150833c0001eea4f7,,1758944,80,,evan-feature22,full_rf_b,,0
55,8075,81,,,,2,2,0.0,0.0,0.0,1.0,,0.0-83.0,,0.0,640.315,1.0,0.29890393,1.0,0.730505706,0.0,0.7328203320000001,0.0,0.439256938,True,,5a37bc4150833c0001eea4f7,,1769360,81,,evan-feature22,full_rf_b,,1
56,8076,82,,,,2,2,1.0,1.0,-1.0,0.0,,0.0-84.0,,-1.0,690.53,0.0,0.326762398,1.0,0.7148059609999999,1.0,0.75,1.0,0.44389608799999997,True,,5a37bc4150833c0001eea4f7,,1779899,82,,evan-feature22,full_rf_b,,0
57,8077,83,,,,1,1,1.0,0.0,0.0,1.0,,0.0-85.0,,0.0,118.975,1.0,0.295168515,0.0,0.739760854,1.0,0.719947008,1.0,0.35277284600000003,True,,5a37bc4150833c0001eea4f7,,1789814,83,,evan-feature22,full_rf_b,,1
58,8078,84,,,,1,1,0.0,1.0,0.0,1.0,,0.0-86.0,,1.0,99.545,0.0,0.25,1.0,0.70781482,0.0,0.75,0.0,0.286095925,True,,5a37bc4150833c0001eea4f7,,1799732,84,,evan-feature22,full_rf_b,,0
59,8079,85,,,,2,2,1.0,0.0,0.0,1.0,,0.0-87.0,,0.0,2129.565,0.0,0.25638190899999996,1.0,0.704088163,1.0,0.75,0.0,0.26872601399999996,True,,5a37bc4150833c0001eea4f7,,1811680,85,,evan-feature22,full_rf_b,,1
60,8080,86,,,,2,2,0.0,0.0,-1.0,0.0,,0.0-88.0,,0.0,1503.235,0.0,0.271581126,1.0,0.669760107,0.0,0.733896663,0.0,0.273244572,True,,5a37bc4150833c0001eea4f7,,1822982,86,,evan-feature22,full_rf_b,,0
61,8081,87,,,,2,2,1.0,0.0,0.0,1.0,,0.0-89.0,,0.0,1723.95,1.0,0.257144401,0.0,0.600575706,1.0,0.74488122,0.0,0.25,True,,5a37bc4150833c0001eea4f7,,1834524,87,,evan-feature22,full_rf_b,,0
62,8082,88,,,,1,1,0.0,1.0,0.0,1.0,,0.0-90.0,,1.0,2012.02,0.0,0.25,1.0,0.616870026,1.0,0.723610234,0.0,0.25,True,,5a37bc4150833c0001eea4f7,,1846328,88,,evan-feature22,full_rf_b,,1
63,8083,89,,,,1,1,0.0,1.0,-1.0,0.0,,0.0-91.0,,0.0,939.6,0.0,0.25,1.0,0.583540187,0.0,0.7041042559999999,0.0,0.285961995,True,,5a37bc4150833c0001eea4f7,,1857080,89,,evan-feature22,full_rf_b,,0
64,8084,90,,,,1,1,0.0,0.0,-1.0,0.0,,0.0-92.0,,0.0,2467.56,0.0,0.27254536,0.0,0.53875765,1.0,0.693783448,1.0,0.284961652,True,,5a37bc4150833c0001eea4f7,,1869372,90,,evan-feature22,full_rf_b,,0
65,8085,91,,,,2,2,1.0,1.0,-1.0,0.0,,0.0-93.0,,-1.0,2630.045,0.0,0.25,1.0,0.548431252,1.0,0.734221895,1.0,0.279445214,True,,5a37bc4150833c0001eea4f7,,1881801,91,,evan-feature22,full_rf_b,,1
66,8086,92,,,,1,1,0.0,1.0,0.0,1.0,,0.0-94.0,,1.0,1136.29,0.0,0.258640684,1.0,0.545878066,0.0,0.725245965,0.0,0.31487537,True,,5a37bc4150833c0001eea4f7,,1892739,92,,evan-feature22,full_rf_b,,1
67,8087,93,,,,2,2,1.0,0.0,0.0,1.0,,0.0-95.0,,0.0,271.745,0.0,0.251103711,0.0,0.5776290629999999,1.0,0.696320133,0.0,0.317831047,True,,5a37bc4150833c0001eea4f7,,1902836,93,,evan-feature22,full_rf_b,,1
68,8088,94,,,,2,2,1.0,0.0,0.0,1.0,,0.0-96.0,,0.0,187.8,1.0,0.276630292,1.0,0.617329858,1.0,0.73838088,0.0,0.261471582,True,,5a37bc4150833c0001eea4f7,,1912821,94,,evan-feature22,full_rf_b,,0
69,8089,95,,,,2,2,1.0,1.0,0.0,1.0,,0.0-97.0,,1.0,958.74,0.0,0.297716424,1.0,0.618863717,1.0,0.7402358259999999,1.0,0.262600834,True,,5a37bc4150833c0001eea4f7,,1923610,95,,evan-feature22,full_rf_b,,0
70,8090,96,,,,1,1,0.0,1.0,-1.0,0.0,,0.0-98.0,,0.0,919.995,0.0,0.290935512,1.0,0.695370945,1.0,0.706570507,0.0,0.280030553,True,,5a37bc4150833c0001eea4f7,,1934333,96,,evan-feature22,full_rf_b,,1
71,8091,97,,,,SLOW,SLOW,,,0.0,1.0,,0.0-99.0,,-3.0,,1.0,0.25,1.0,0.6465277079999999,0.0,0.67766682,0.0,0.25,True,,5a37bc4150833c0001eea4f7,,1940167,97,,evan-feature22,full_rf_b,,1
72,8092,98,,,,2,2,0.0,0.0,-1.0,0.0,,0.0-100.0,,0.0,469.63,0.0,0.26463816,1.0,0.636100213,0.0,0.646048507,0.0,0.265607101,True,,5a37bc4150833c0001eea4f7,,1950437,98,,evan-feature22,full_rf_b,,1
73,8093,99,,,,2,2,1.0,1.0,-1.0,0.0,,0.0-101.0,,-1.0,2011.015,1.0,0.314340707,0.0,0.667795927,1.0,0.613630805,1.0,0.25,True,,5a37bc4150833c0001eea4f7,,1962250,99,,evan-feature22,full_rf_b,,0
74,8094,100,,,,2,2,1.0,0.0,0.0,1.0,,0.0-102.0,,0.0,142.49,1.0,0.28685784,1.0,0.6622549529999999,1.0,0.652154117,0.0,0.25,True,,5a37bc4150833c0001eea4f7,,1972227,100,,evan-feature22,full_rf_b,,0
75,8095,101,,,,1,1,0.0,0.0,0.0,1.0,,0.0-103.0,,0.0,1415.315,0.0,0.304106554,0.0,0.631289538,1.0,0.707041942,0.0,0.29314237,True,,5a37bc4150833c0001eea4f7,,1983442,101,,evan-feature22,full_rf_b,,1
76,8096,102,,,,1,1,0.0,1.0,0.0,1.0,,0.0-104.0,,1.0,1984.09,0.0,0.304806932,1.0,0.571167718,1.0,0.680472346,0.0,0.25,True,,5a37bc4150833c0001eea4f7,,1995252,102,,evan-feature22,full_rf_b,,0
77,8097,103,,,,1,1,0.0,1.0,0.0,1.0,,0.0-105.0,,1.0,595.35,0.0,0.37919861,1.0,0.5724849710000001,1.0,0.705638003,1.0,0.30179300600000003,True,,5a37bc4150833c0001eea4f7,,2005661,103,,evan-feature22,full_rf_b,,0
78,8098,104,,,,1,1,0.0,1.0,0.0,1.0,,0.0-106.0,,1.0,1926.015,0.0,0.464277969,1.0,0.554034373,0.0,0.7372627340000001,1.0,0.264699741,True,,5a37bc4150833c0001eea4f7,,2017396,104,,evan-feature22,full_rf_b,,0
79,8099,105,,,,2,2,1.0,0.0,0.0,1.0,,0.0-107.0,,0.0,2445.14,1.0,0.465104323,1.0,0.530793115,1.0,0.75,0.0,0.31683071,True,,5a37bc4150833c0001eea4f7,,2029693,105,,evan-feature22,full_rf_b,,1
80,8100,106,,,,1,1,1.0,1.0,-1.0,0.0,,0.0-108.0,,-1.0,1535.155,1.0,0.465104323,1.0,0.530793115,1.0,0.75,1.0,0.31683071,True,,5a37bc4150833c0001eea4f7,,2041036,106,,evan-feature22,full_rf_b,,1
81,8101,107,,,,1,1,1.0,0.0,-1.0,0.0,,0.0-109.0,,-1.0,2605.135,1.0,0.46833986,0.0,0.570249239,1.0,0.7244472590000001,0.0,0.364114163,True,,5a37bc4150833c0001eea4f7,,2053446,107,,evan-feature22,full_rf_b,,0
82,8102,108,,,,1,1,0.0,1.0,-1.0,0.0,,0.0-110.0,,0.0,779.655,0.0,0.445444024,1.0,0.649673355,1.0,0.6845441290000001,0.0,0.300660449,True,,5a37bc4150833c0001eea4f7,,2064041,108,,evan-feature22,full_rf_b,,0
83,8103,109,,,,SLOW,SLOW,,,-1.0,0.0,,0.0-111.0,,-3.0,,0.0,0.39909721299999995,1.0,0.6715179509999999,1.0,0.742310028,1.0,0.35496088299999995,True,,5a37bc4150833c0001eea4f7,,2069879,109,,evan-feature22,full_rf_b,,1
84,8104,110,,,,1,1,1.0,1.0,0.0,1.0,,0.0-112.0,,1.0,1574.345,1.0,0.37956104799999996,1.0,0.694725302,1.0,0.7181651309999999,0.0,0.38726906299999997,True,,5a37bc4150833c0001eea4f7,,2081321,110,,evan-feature22,full_rf_b,,1
85,8105,111,,,,1,1,0.0,0.0,0.0,1.0,,0.0-113.0,,0.0,1696.87,0.0,0.404995034,0.0,0.724375412,0.0,0.6910946859999999,0.0,0.387187347,True,,5a37bc4150833c0001eea4f7,,2092834,111,,evan-feature22,full_rf_b,,0
86,8106,112,,,,1,1,0.0,1.0,-1.0,0.0,,0.0-114.0,,0.0,546.23,0.0,0.461740803,1.0,0.75,1.0,0.75,1.0,0.34872038200000005,True,,5a37bc4150833c0001eea4f7,,2103203,112,,evan-feature22,full_rf_b,,0
87,8107,113,,,,1,1,1.0,1.0,-1.0,0.0,,0.0-115.0,,-1.0,1396.055,1.0,0.43821380600000004,1.0,0.738833273,0.0,0.728286963,0.0,0.399538128,True,,5a37bc4150833c0001eea4f7,,2114400,113,,evan-feature22,full_rf_b,,0
88,8108,114,,,,1,1,0.0,1.0,0.0,1.0,,0.0-116.0,,1.0,2323.11,0.0,0.41709882,1.0,0.736666736,1.0,0.75,0.0,0.389095584,True,,5a37bc4150833c0001eea4f7,,2126521,114,,evan-feature22,full_rf_b,,0
89,8109,115,,,,1,1,0.0,1.0,0.0,1.0,,0.0-117.0,,1.0,713.995,0.0,0.39749009799999996,1.0,0.744320029,0.0,0.75,1.0,0.363848678,True,,5a37bc4150833c0001eea4f7,,2137031,115,,evan-feature22,full_rf_b,,0
90,8110,116,,,,SLOW,SLOW,,,-1.0,0.0,,0.0-118.0,,-3.0,,0.0,0.392653706,0.0,0.75,1.0,0.75,0.0,0.384386976,True,,5a37bc4150833c0001eea4f7,,2142894,116,,evan-feature22,full_rf_b,,1
91,8111,117,,,,1,1,1.0,1.0,0.0,1.0,,0.0-119.0,,1.0,1234.76,1.0,0.31190902600000003,1.0,0.75,1.0,0.732413819,0.0,0.413082932,True,,5a37bc4150833c0001eea4f7,,2153969,117,,evan-feature22,full_rf_b,,1
92,8112,118,,,,1,1,0.0,0.0,-1.0,0.0,,0.0-120.0,,0.0,1227.785,0.0,0.366917648,0.0,0.740073855,1.0,0.75,0.0,0.352861979,True,,5a37bc4150833c0001eea4f7,,2164995,118,,evan-feature22,full_rf_b,,0
93,8113,119,,,,2,2,1.0,0.0,-1.0,0.0,,0.0-121.0,,-1.0,551.07,0.0,0.3645172,0.0,0.721770713,1.0,0.75,0.0,0.404074511,True,,5a37bc4150833c0001eea4f7,,2175388,119,,evan-feature22,full_rf_b,,1
94,8114,120,,,,1,1,0.0,1.0,-1.0,0.0,,0.0-122.0,,0.0,549.225,0.0,0.35205600299999995,1.0,0.68983859,1.0,0.739735447,1.0,0.366895945,True,,5a37bc4150833c0001eea4f7,,2185753,120,,evan-feature22,full_rf_b,,1
95,8115,121,,,,1,1,0.0,1.0,-1.0,0.0,,0.0-123.0,,0.0,2305.13,0.0,0.40998722600000004,1.0,0.720859127,0.0,0.673854955,0.0,0.368528541,True,,5a37bc4150833c0001eea4f7,,2197860,121,,evan-feature22,full_rf_b,,0
96,8116,122,,,,1,1,1.0,1.0,-1.0,0.0,,0.0-124.0,,-1.0,545.835,1.0,0.353625316,1.0,0.75,1.0,0.695605473,0.0,0.38303674200000004,True,,5a37bc4150833c0001eea4f7,,2208236,122,,evan-feature22,full_rf_b,,0
97,8117,123,,,,2,2,1.0,0.0,-1.0,0.0,,0.0-125.0,,-1.0,434.175,1.0,0.359216989,1.0,0.75,1.0,0.6987915090000001,0.0,0.35169046200000004,True,,5a37bc4150833c0001eea4f7,,2218490,123,,evan-feature22,full_rf_b,,1
98,8118,124,,,,1,1,0.0,0.0,-1.0,0.0,,0.0-126.0,,0.0,690.675,0.0,0.35834496899999996,0.0,0.75,1.0,0.707067742,1.0,0.416763636,True,,5a37bc4150833c0001eea4f7,,2228974,124,,evan-feature22,full_rf_b,,1
99,8119,125,,,,2,2,1.0,0.0,0.0,1.0,,0.0-127.0,,0.0,1.8199999980000001,1.0,0.38741613799999997,0.0,0.7177369570000001,1.0,0.734902455,0.0,0.49438664299999996,True,,5a37bc4150833c0001eea4f7,,2238769,125,,evan-feature22,full_rf_b,,1
100,8120,126,,,,1,1,0.0,1.0,-1.0,0.0,,0.0-128.0,,0.0,428.635,0.0,0.405255252,1.0,0.7300466640000001,0.0,0.7027748070000001,0.0,0.504359668,True,,5a37bc4150833c0001eea4f7,,2248988,126,,evan-feature22,full_rf_b,,1
101,8121,127,,,,SLOW,SLOW,,,-1.0,0.0,,0.0-129.0,,-3.0,,1.0,0.40697073,0.0,0.7260142190000001,1.0,0.724461982,0.0,0.522779179,True,,5a37bc4150833c0001eea4f7,,2254816,127,,evan-feature22,full_rf_b,,1
102,8122,128,,,,2,2,1.0,1.0,-1.0,0.0,,0.0-130.0,,-1.0,482.04,1.0,0.43906215299999996,1.0,0.7252802340000001,1.0,0.719079934,1.0,0.5712990579999999,True,,5a37bc4150833c0001eea4f7,,2265165,128,,evan-feature22,full_rf_b,,1
103,8123,129,,,,1,1,0.0,1.0,0.0,1.0,,0.0-131.0,,1.0,466.105,0.0,0.4076705,1.0,0.73280499,1.0,0.681313127,1.0,0.523891346,True,,5a37bc4150833c0001eea4f7,,2275435,129,,evan-feature22,full_rf_b,,1
104,8124,130,,,,2,2,1.0,1.0,0.0,1.0,,0.0-132.0,,1.0,1440.395,0.0,0.399102911,0.0,0.730498344,1.0,0.661080239,1.0,0.46742603,True,,5a37bc4150833c0001eea4f7,,2286714,130,,evan-feature22,full_rf_b,,1
105,8125,131,,,,1,1,0.0,0.0,0.0,1.0,,0.0-133.0,,0.0,865.43,0.0,0.356477282,0.0,0.712296395,0.0,0.641812684,1.0,0.44868414,True,,5a37bc4150833c0001eea4f7,,2297412,131,,evan-feature22,full_rf_b,,1
106,8126,132,,,,1,1,0.0,0.0,-1.0,0.0,,0.0-134.0,,0.0,907.96,0.0,0.462760722,0.0,0.692349322,1.0,0.700947931,1.0,0.394680266,True,,5a37bc4150833c0001eea4f7,,2308106,132,,evan-feature22,full_rf_b,,0
107,8127,133,,,,1,1,1.0,1.0,-1.0,0.0,,0.0-135.0,,-1.0,843.87,1.0,0.422306413,1.0,0.718375916,1.0,0.706340917,1.0,0.367787185,True,,5a37bc4150833c0001eea4f7,,2318772,133,,evan-feature22,full_rf_b,,0
108,8129,135,,,,1,1,0.0,0.0,-1.0,0.0,,0.0-137.0,,0.0,1018.86,0.0,0.4582233,0.0,0.643834117,1.0,0.75,1.0,0.39615823299999997,True,,5a37bc4150833c0001eea4f7,,2348434,135,,evan-feature22,full_rf_b,,0
109,8130,136,,,,1,1,1.0,1.0,-1.0,0.0,,0.0-138.0,,-1.0,1553.415,1.0,0.43813437899999996,1.0,0.651283804,1.0,0.729674191,1.0,0.37711048,True,,5a37bc4150833c0001eea4f7,,2359811,136,,evan-feature22,full_rf_b,,0
110,8131,137,,,,2,2,1.0,0.0,-1.0,0.0,,0.0-139.0,,-1.0,3067.455,0.0,0.471199094,0.0,0.6470010979999999,1.0,0.715008097,0.0,0.410656191,True,,5a37bc4150833c0001eea4f7,,2372730,137,,evan-feature22,full_rf_b,,1
111,8132,138,,,,1,1,0.0,0.0,-1.0,0.0,,0.0-140.0,,0.0,2444.745,0.0,0.42486406,0.0,0.629771829,1.0,0.6550939960000001,1.0,0.459093873,True,,5a37bc4150833c0001eea4f7,,2385002,138,,evan-feature22,full_rf_b,,1
112,8133,139,,,,2,2,1.0,1.0,-1.0,0.0,,0.0-141.0,,-1.0,1850.46,0.0,0.4803197,1.0,0.645842715,1.0,0.6421749920000001,1.0,0.443092151,True,,5a37bc4150833c0001eea4f7,,2396660,139,,evan-feature22,full_rf_b,,1
113,8134,140,,,,2,2,0.0,1.0,0.0,1.0,,0.0-142.0,,1.0,1850.235,0.0,0.521848997,0.0,0.735801074,0.0,0.6691348460000001,1.0,0.45259351600000003,True,,5a37bc4150833c0001eea4f7,,2408320,140,,evan-feature22,full_rf_b,,0
114,8135,141,,,,2,2,1.0,1.0,-1.0,0.0,,0.0-143.0,,-1.0,1432.7,0.0,0.49565621299999996,1.0,0.742400847,1.0,0.661512553,1.0,0.483110831,True,,5a37bc4150833c0001eea4f7,,2419573,141,,evan-feature22,full_rf_b,,0
115,8136,142,,,,2,2,1.0,1.0,-1.0,0.0,,0.0-144.0,,-1.0,1467.5,0.0,0.521564361,1.0,0.731078632,1.0,0.6774886809999999,1.0,0.483263956,True,,5a37bc4150833c0001eea4f7,,2430843,142,,evan-feature22,full_rf_b,,0
116,8137,143,,,,1,1,0.0,1.0,-1.0,0.0,,0.0-145.0,,0.0,904.965,0.0,0.558893102,1.0,0.719810023,1.0,0.67461031,0.0,0.499349834,True,,5a37bc4150833c0001eea4f7,,2441547,143,,evan-feature22,full_rf_b,,1
117,8138,144,,,,2,2,0.0,0.0,-1.0,0.0,,0.0-146.0,,0.0,2163.54,0.0,0.611031046,0.0,0.75,0.0,0.688072995,0.0,0.5321422729999999,True,,5a37bc4150833c0001eea4f7,,2453542,144,,evan-feature22,full_rf_b,,1
118,8139,145,,,,1,1,0.0,1.0,0.0,1.0,,0.0-147.0,,1.0,3151.455,0.0,0.633223941,1.0,0.713567728,0.0,0.75,1.0,0.48185314700000004,True,,5a37bc4150833c0001eea4f7,,2466521,145,,evan-feature22,full_rf_b,,1
119,8140,146,,,,2,2,1.0,0.0,-1.0,0.0,,0.0-148.0,,-1.0,1398.77,1.0,0.664001694,1.0,0.705509768,1.0,0.75,0.0,0.500211065,True,,5a37bc4150833c0001eea4f7,,2477731,146,,evan-feature22,full_rf_b,,1
120,8141,147,,,,1,1,0.0,1.0,-1.0,0.0,,0.0-149.0,,0.0,371.675,0.0,0.664001694,1.0,0.705509768,1.0,0.75,0.0,0.500211065,True,,5a37bc4150833c0001eea4f7,,2487905,147,,evan-feature22,full_rf_b,,1
121,8142,148,,,,1,1,0.0,0.0,-1.0,0.0,,0.0-150.0,,0.0,38.26,0.0,0.696508041,0.0,0.71066027,0.0,0.717028709,1.0,0.49792991,True,,5a37bc4150833c0001eea4f7,,2497758,148,,evan-feature22,full_rf_b,,0
122,8143,149,,,,2,2,1.0,0.0,0.0,1.0,,0.0-151.0,,0.0,2601.025,1.0,0.699883272,1.0,0.75,1.0,0.713543895,0.0,0.496962643,True,,5a37bc4150833c0001eea4f7,,2510180,149,,evan-feature22,full_rf_b,,1
123,8144,150,,,,2,2,1.0,0.0,0.0,1.0,,0.0-152.0,,0.0,446.9,1.0,0.741163419,1.0,0.75,1.0,0.64691024,0.0,0.513858197,True,,5a37bc4150833c0001eea4f7,,2520432,150,,evan-feature22,full_rf_b,,0
124,8145,151,,,,2,2,1.0,1.0,0.0,1.0,,0.0-153.0,,1.0,789.845,0.0,0.75,1.0,0.70816558,1.0,0.594499079,1.0,0.48502124,True,,5a37bc4150833c0001eea4f7,,2531027,151,,evan-feature22,full_rf_b,,0
125,8146,152,,,,2,2,1.0,1.0,-1.0,0.0,,0.0-154.0,,-1.0,845.55,0.0,0.75,1.0,0.721848901,1.0,0.62197249,1.0,0.48263586399999997,True,,5a37bc4150833c0001eea4f7,,2541672,152,,evan-feature22,full_rf_b,,0
126,8147,153,,,,SLOW,SLOW,,,-1.0,0.0,,0.0-155.0,,-3.0,,0.0,0.75,0.0,0.74813071,0.0,0.584357161,0.0,0.411477782,True,,5a37bc4150833c0001eea4f7,,2547491,153,,evan-feature22,full_rf_b,,1
127,8148,154,,,,2,2,0.0,0.0,-1.0,0.0,,0.0-156.0,,0.0,1480.61,0.0,0.75,1.0,0.75,0.0,0.52287236,0.0,0.488290656,True,,5a37bc4150833c0001eea4f7,,2558762,154,,evan-feature22,full_rf_b,,1
128,8149,155,,,,2,2,1.0,1.0,-1.0,0.0,,0.0-157.0,,-1.0,1813.485,1.0,0.75,1.0,0.75,1.0,0.544321581,1.0,0.53143059,True,,5a37bc4150833c0001eea4f7,,2570389,155,,evan-feature22,full_rf_b,,0
129,8150,156,,,,2,2,1.0,0.0,-1.0,0.0,,0.0-158.0,,-1.0,1045.27,1.0,0.726754564,1.0,0.75,1.0,0.5129306370000001,0.0,0.530592445,True,,5a37bc4150833c0001eea4f7,,2581259,156,,evan-feature22,full_rf_b,,0
130,8151,157,,,,1,1,1.0,0.0,0.0,1.0,,0.0-159.0,,0.0,3047.18,1.0,0.75,0.0,0.7392590729999999,1.0,0.479875835,0.0,0.547007051,True,,5a37bc4150833c0001eea4f7,,2594137,157,,evan-feature22,full_rf_b,,1
131,8152,158,,,,2,2,0.0,0.0,0.0,1.0,,0.0-160.0,,0.0,603.48,0.0,0.75,0.0,0.7393376979999999,0.0,0.546045419,0.0,0.541267353,True,,5a37bc4150833c0001eea4f7,,2604587,158,,evan-feature22,full_rf_b,,1
132,8153,159,,,,1,1,1.0,1.0,-1.0,0.0,,0.0-161.0,,-1.0,109.335,1.0,0.75,1.0,0.75,0.0,0.485725895,0.0,0.527625395,True,,5a37bc4150833c0001eea4f7,,2614506,159,,evan-feature22,full_rf_b,,1
133,8154,160,,,,1,1,1.0,1.0,0.0,1.0,,0.0-162.0,,1.0,200.655,1.0,0.75,1.0,0.725087974,0.0,0.488603595,1.0,0.504019206,True,,5a37bc4150833c0001eea4f7,,2624571,160,,evan-feature22,full_rf_b,,0
134,8155,161,,,,1,1,1.0,0.0,-1.0,0.0,,0.0-163.0,,-1.0,328.975,1.0,0.745504295,0.0,0.75,1.0,0.452379914,1.0,0.50131194,True,,5a37bc4150833c0001eea4f7,,2634718,161,,evan-feature22,full_rf_b,,0
135,8156,162,,,,1,1,1.0,0.0,0.0,1.0,,0.0-164.0,,0.0,1427.49,1.0,0.728513874,0.0,0.75,0.0,0.44125567200000004,0.0,0.531454591,True,,5a37bc4150833c0001eea4f7,,2645963,162,,evan-feature22,full_rf_b,,0
136,8157,163,,,,2,2,1.0,1.0,-1.0,0.0,,0.0-165.0,,-1.0,105.715,1.0,0.73790804,1.0,0.75,1.0,0.413036656,1.0,0.524619035,True,,5a37bc4150833c0001eea4f7,,2655859,163,,evan-feature22,full_rf_b,,1
137,8158,164,,,,2,2,0.0,0.0,-1.0,0.0,,0.0-166.0,,0.0,852.815,1.0,0.7080961309999999,0.0,0.708666865,0.0,0.431915581,0.0,0.481819489,True,,5a37bc4150833c0001eea4f7,,2666537,164,,evan-feature22,full_rf_b,,0
138,8159,165,,,,1,1,1.0,0.0,-1.0,0.0,,0.0-167.0,,-1.0,270.96,1.0,0.721378003,0.0,0.71605913,0.0,0.36642387,1.0,0.5036739929999999,True,,5a37bc4150833c0001eea4f7,,2676659,165,,evan-feature22,full_rf_b,,1
139,8160,166,,,,1,1,0.0,1.0,0.0,1.0,,0.0-168.0,,1.0,801.275,0.0,0.7340618959999999,1.0,0.699323252,0.0,0.35298046299999997,0.0,0.511241692,True,,5a37bc4150833c0001eea4f7,,2687279,166,,evan-feature22,full_rf_b,,0
140,8161,167,,,,1,1,1.0,0.0,0.0,1.0,,0.0-169.0,,0.0,608.625,1.0,0.75,0.0,0.70412698,0.0,0.380734814,1.0,0.529580116,True,,5a37bc4150833c0001eea4f7,,2697711,167,,evan-feature22,full_rf_b,,0
141,8162,168,,,,1,1,1.0,1.0,0.0,1.0,,0.0-170.0,,1.0,278.85,1.0,0.7436654909999999,1.0,0.711182751,1.0,0.41125331,1.0,0.49554405,True,,5a37bc4150833c0001eea4f7,,2707789,168,,evan-feature22,full_rf_b,,0
142,8163,169,,,,1,1,1.0,1.0,-1.0,0.0,,0.0-171.0,,-1.0,3756.255,1.0,0.731607915,1.0,0.651774583,0.0,0.35688023,1.0,0.45194491600000003,True,,5a37bc4150833c0001eea4f7,,2721358,169,,evan-feature22,full_rf_b,,0
143,8164,170,,,,1,1,1.0,1.0,0.0,1.0,,0.0-172.0,,1.0,1478.715,1.0,0.75,1.0,0.75,0.0,0.283145374,0.0,0.528608005,True,,5a37bc4150833c0001eea4f7,,2732643,170,,evan-feature22,full_rf_b,,0
144,8165,171,,,,SLOW,SLOW,,,-1.0,0.0,,0.0-173.0,,-3.0,,0.0,0.7491416890000001,0.0,0.7423785959999999,1.0,0.29135870399999997,0.0,0.498888318,True,,5a37bc4150833c0001eea4f7,,2738461,171,,evan-feature22,full_rf_b,,1
145,8166,172,,,,1,1,0.0,1.0,0.0,1.0,,0.0-174.0,,1.0,1870.5,0.0,0.708569387,1.0,0.717682277,1.0,0.294421699,1.0,0.493838163,True,,5a37bc4150833c0001eea4f7,,2750146,172,,evan-feature22,full_rf_b,,1
146,8167,173,,,,2,2,0.0,1.0,-1.0,0.0,,0.0-175.0,,0.0,1015.825,1.0,0.75,1.0,0.7383382159999999,0.0,0.356098707,1.0,0.442533405,True,,5a37bc4150833c0001eea4f7,,2760964,173,,evan-feature22,full_rf_b,,1
147,8168,174,,,,2,2,0.0,0.0,-1.0,0.0,,0.0-176.0,,0.0,1639.0,1.0,0.744527075,1.0,0.75,0.0,0.334127506,0.0,0.393165805,True,,5a37bc4150833c0001eea4f7,,2772384,174,,evan-feature22,full_rf_b,,0
148,8169,175,,,,1,1,1.0,1.0,-1.0,0.0,,0.0-177.0,,-1.0,1707.01,1.0,0.75,1.0,0.75,0.0,0.33571021799999995,0.0,0.350393962,True,,5a37bc4150833c0001eea4f7,,2783918,175,,evan-feature22,full_rf_b,,1
149,8170,176,,,,2,2,0.0,0.0,0.0,1.0,,0.0-178.0,,0.0,952.575,1.0,0.75,1.0,0.75,0.0,0.313628297,0.0,0.36349657399999996,True,,5a37bc4150833c0001eea4f7,,2794698,176,,evan-feature22,full_rf_b,,1
150,8171,177,,,,1,1,1.0,1.0,-1.0,0.0,,0.0-179.0,,-1.0,865.94,1.0,0.75,1.0,0.734284182,0.0,0.262667667,1.0,0.380199119,True,,5a37bc4150833c0001eea4f7,,2805354,177,,evan-feature22,full_rf_b,,1
151,8172,178,,,,1,1,1.0,0.0,-1.0,0.0,,0.0-180.0,,-1.0,2163.84,1.0,0.75,0.0,0.75,1.0,0.25,1.0,0.394494013,True,,5a37bc4150833c0001eea4f7,,2817345,178,,evan-feature22,full_rf_b,,0
152,8173,179,,,,1,1,1.0,1.0,-1.0,0.0,,0.0-181.0,,-1.0,519.89,1.0,0.722298145,1.0,0.7357822340000001,1.0,0.25,1.0,0.319142121,True,,5a37bc4150833c0001eea4f7,,2827670,179,,evan-feature22,full_rf_b,,0
153,8174,180,,,,1,1,1.0,0.0,-1.0,0.0,,0.0-182.0,,-1.0,630.16,1.0,0.73149275,0.0,0.724276446,0.0,0.305856907,0.0,0.281315057,True,,5a37bc4150833c0001eea4f7,,2838121,180,,evan-feature22,full_rf_b,,0
154,8175,181,,,,2,2,0.0,0.0,-1.0,0.0,,0.0-183.0,,0.0,1167.315,0.0,0.7458732690000001,1.0,0.7336382459999999,0.0,0.272571964,0.0,0.266021999,True,,5a37bc4150833c0001eea4f7,,2849074,181,,evan-feature22,full_rf_b,,1
155,8176,182,,,,1,1,0.0,1.0,0.0,1.0,,0.0-184.0,,1.0,646.335,0.0,0.705579037,1.0,0.720778292,0.0,0.320238144,1.0,0.30971744,True,,5a37bc4150833c0001eea4f7,,2859566,182,,evan-feature22,full_rf_b,,1
156,8177,183,,,,2,2,0.0,0.0,0.0,1.0,,0.0-185.0,,0.0,1163.33,0.0,0.700425648,1.0,0.7198784009999999,0.0,0.272590393,0.0,0.304182931,True,,5a37bc4150833c0001eea4f7,,2870536,183,,evan-feature22,full_rf_b,,1
157,8178,184,,,,1,1,1.0,0.0,0.0,1.0,,0.0-186.0,,0.0,1052.945,1.0,0.735590785,0.0,0.722714973,1.0,0.25,0.0,0.323421091,True,,5a37bc4150833c0001eea4f7,,2881437,184,,evan-feature22,full_rf_b,,1
158,8179,185,,,,SLOW,SLOW,,,0.0,1.0,,0.0-187.0,,-3.0,,1.0,0.724807662,1.0,0.63146213,0.0,0.36836492600000004,0.0,0.34592153299999995,True,,5a37bc4150833c0001eea4f7,,2887256,185,,evan-feature22,full_rf_b,,1
159,8180,186,,,,1,1,1.0,0.0,-1.0,0.0,,0.0-188.0,,-1.0,1608.045,1.0,0.7352796909999999,0.0,0.555111392,0.0,0.36003922,0.0,0.31433779999999995,True,,5a37bc4150833c0001eea4f7,,2898676,186,,evan-feature22,full_rf_b,,1
160,8181,187,notice,,,,,,,,,,0.0-189.0,"{""Q0"":""not""}",,46542.0,,,,,,,,,True,,5a37bc4150833c0001eea4f7,,2945225,187,Q,survey-text,full_rf_b,,1
161,8182,188,track1,,[1],,,,,,,,0.0-190.0,"{""Q0"":""no""}",,6045.0,,,,,,,,,True,,5a37bc4150833c0001eea4f7,,2951286,188,Q,evan-quiz,full_rf_b,,1
162,8183,189,track2,,[0],,,,,,,,0.0-191.0,"{""Q0"":""yes""}",,18310.0,,,,,,,,,True,,5a37bc4150833c0001eea4f7,,2969611,189,Q,evan-quiz,full_rf_b,,1
163,8184,190,strat,,,,,,,,,,0.0-192.0,"{""Q0"":""memorizing""}",,44071.0,,,,,,,,,True,,5a37bc4150833c0001eea4f7,,3013693,190,Q,survey-text,full_rf_b,,1
