,index,Unnamed: 0,Q_name,button_pressed,choice_idxs,chosen_pos,chosen_state,chosen_state_f_1_outcome,chosen_state_f_2_outcome,f_1_reward,f_2_reward,incor_questions,internal_node_id,responses,reward_received,rt,s_1_f_1_outcome,s_1_f_1_prob,s_1_f_2_outcome,s_1_f_2_prob,s_2_f_1_outcome,s_2_f_1_prob,s_2_f_2_outcome,s_2_f_2_prob,safe_first,stimulus,subjectID,success,time_elapsed,trial_index,trial_num,trial_type,version,view_history,switching
0,1427,70,,,,1,1,0.0,1.0,0.0,1.0,,0.0-27.0,,1.0,1817.4,0.0,0.6,1.0,0.6,0.0,0.4,0.0,0.4,True,,597270a81fd7f5000151faf3,,1221879,70,,evan-feature22,full_rf_b,,0
1,1428,71,,,,1,1,1.0,1.0,0.0,1.0,,0.0-28.0,,1.0,923.01,1.0,0.608053294,1.0,0.63424552,1.0,0.397152172,1.0,0.347069101,True,,597270a81fd7f5000151faf3,,1232665,71,,evan-feature22,full_rf_b,,0
2,1429,72,,,,2,2,0.0,0.0,0.0,1.0,,0.0-29.0,,0.0,451.895,0.0,0.642237155,0.0,0.648566321,0.0,0.389407674,0.0,0.285525717,True,,597270a81fd7f5000151faf3,,1242945,72,,evan-feature22,full_rf_b,,1
3,1430,73,,,,2,2,0.0,0.0,0.0,1.0,,0.0-30.0,,0.0,557.02,1.0,0.661086576,0.0,0.630492543,0.0,0.399058924,0.0,0.25,True,,597270a81fd7f5000151faf3,,1253334,73,,evan-feature22,full_rf_b,,0
4,1431,74,,,,1,1,0.0,1.0,0.0,1.0,,0.0-31.0,,1.0,1126.405,0.0,0.631324137,1.0,0.6269842929999999,1.0,0.38734784299999997,1.0,0.25,True,,597270a81fd7f5000151faf3,,1264282,74,,evan-feature22,full_rf_b,,1
5,1432,75,,,,1,1,1.0,1.0,0.0,1.0,,0.0-32.0,,1.0,387.05,1.0,0.6381991370000001,1.0,0.68987999,0.0,0.384107265,1.0,0.271332943,True,,597270a81fd7f5000151faf3,,1274508,75,,evan-feature22,full_rf_b,,0
6,1433,76,,,,2,2,1.0,1.0,0.0,1.0,,0.0-33.0,,1.0,958.545,1.0,0.66034901,1.0,0.742641349,1.0,0.360225629,1.0,0.25,True,,597270a81fd7f5000151faf3,,1285301,76,,evan-feature22,full_rf_b,,1
7,1434,77,,,,1,1,1.0,1.0,-1.0,0.0,,0.0-34.0,,-1.0,186.075,1.0,0.638612418,1.0,0.75,0.0,0.367273939,0.0,0.25,True,,597270a81fd7f5000151faf3,,1295307,77,,evan-feature22,full_rf_b,,1
8,1435,78,,,,2,2,0.0,0.0,0.0,1.0,,0.0-35.0,,0.0,404.25,1.0,0.624340629,1.0,0.75,0.0,0.425829545,0.0,0.25,True,,597270a81fd7f5000151faf3,,1305553,78,,evan-feature22,full_rf_b,,1
9,1436,79,,,,2,2,0.0,0.0,0.0,1.0,,0.0-36.0,,0.0,709.6,1.0,0.621999804,1.0,0.75,0.0,0.368609357,0.0,0.25,True,,597270a81fd7f5000151faf3,,1316087,79,,evan-feature22,full_rf_b,,0
10,1437,80,,,,2,2,0.0,0.0,-1.0,0.0,,0.0-37.0,,0.0,309.245,0.0,0.62666403,1.0,0.75,0.0,0.311151498,0.0,0.25,True,,597270a81fd7f5000151faf3,,1326218,80,,evan-feature22,full_rf_b,,0
11,1438,81,,,,2,2,0.0,0.0,-1.0,0.0,,0.0-38.0,,0.0,1176.405,1.0,0.6819650009999999,1.0,0.75,0.0,0.310763048,0.0,0.25,True,,597270a81fd7f5000151faf3,,1337236,81,,evan-feature22,full_rf_b,,0
12,1439,82,,,,2,2,1.0,0.0,0.0,1.0,,0.0-39.0,,0.0,336.08,1.0,0.740626951,1.0,0.75,1.0,0.25,0.0,0.25,True,,597270a81fd7f5000151faf3,,1347395,82,,evan-feature22,full_rf_b,,0
13,1440,83,,,,1,1,0.0,1.0,0.0,1.0,,0.0-40.0,,1.0,330.37,0.0,0.739599242,1.0,0.742034978,0.0,0.25397114600000004,0.0,0.25,True,,597270a81fd7f5000151faf3,,1357554,83,,evan-feature22,full_rf_b,,1
14,1441,84,,,,1,1,0.0,0.0,0.0,1.0,,0.0-41.0,,0.0,364.52,0.0,0.732341315,0.0,0.72735643,1.0,0.25,0.0,0.25,True,,597270a81fd7f5000151faf3,,1367725,84,,evan-feature22,full_rf_b,,0
15,1442,85,,,,1,1,1.0,0.0,0.0,1.0,,0.0-42.0,,0.0,272.555,1.0,0.7062287770000001,0.0,0.75,0.0,0.29002151,0.0,0.288256649,True,,597270a81fd7f5000151faf3,,1377834,85,,evan-feature22,full_rf_b,,0
16,1443,86,,,,1,1,1.0,1.0,-1.0,0.0,,0.0-43.0,,-1.0,551.245,1.0,0.7086029209999999,1.0,0.75,1.0,0.274129113,1.0,0.262851608,True,,597270a81fd7f5000151faf3,,1388214,86,,evan-feature22,full_rf_b,,0
17,1444,87,,,,2,2,0.0,0.0,0.0,1.0,,0.0-44.0,,0.0,464.375,1.0,0.669189651,1.0,0.727614338,0.0,0.298444036,0.0,0.296944518,True,,597270a81fd7f5000151faf3,,1398508,87,,evan-feature22,full_rf_b,,1
18,1445,88,,,,1,1,1.0,1.0,-1.0,0.0,,0.0-45.0,,-1.0,411.04,1.0,0.6819912929999999,1.0,0.7179434290000001,0.0,0.265003961,1.0,0.28157921199999997,True,,597270a81fd7f5000151faf3,,1408760,88,,evan-feature22,full_rf_b,,1
19,1446,89,,,,2,2,0.0,0.0,-1.0,0.0,,0.0-46.0,,0.0,438.93,0.0,0.665275002,0.0,0.723065271,0.0,0.260414971,0.0,0.30973870000000003,True,,597270a81fd7f5000151faf3,,1419025,89,,evan-feature22,full_rf_b,,1
20,1447,90,,,,1,1,0.0,1.0,0.0,1.0,,0.0-47.0,,1.0,348.22,0.0,0.6660593260000001,1.0,0.728032907,0.0,0.30922817,0.0,0.338778608,True,,597270a81fd7f5000151faf3,,1429204,90,,evan-feature22,full_rf_b,,1
21,1448,91,,,,1,1,0.0,0.0,0.0,1.0,,0.0-48.0,,0.0,424.405,0.0,0.702068785,0.0,0.6528750879999999,0.0,0.287329608,1.0,0.35789613200000003,True,,597270a81fd7f5000151faf3,,1439446,91,,evan-feature22,full_rf_b,,0
22,1449,92,,,,1,1,0.0,0.0,0.0,1.0,,0.0-49.0,,0.0,28.13999998,0.0,0.651939787,0.0,0.636725589,1.0,0.284834488,0.0,0.358563756,True,,597270a81fd7f5000151faf3,,1449296,92,,evan-feature22,full_rf_b,,0
23,1450,93,,,,1,1,1.0,1.0,0.0,1.0,,0.0-50.0,,1.0,590.195,1.0,0.67573929,1.0,0.612550049,0.0,0.37130387600000003,1.0,0.383542402,True,,597270a81fd7f5000151faf3,,1459726,93,,evan-feature22,full_rf_b,,0
24,1451,94,,,,1,1,0.0,1.0,0.0,1.0,,0.0-51.0,,1.0,597.74,0.0,0.620753801,1.0,0.60513644,0.0,0.385529434,0.0,0.340361743,True,,597270a81fd7f5000151faf3,,1470163,94,,evan-feature22,full_rf_b,,0
25,1452,95,,,,1,1,1.0,1.0,-1.0,0.0,,0.0-52.0,,-1.0,343.09,1.0,0.673564893,1.0,0.672437924,0.0,0.292955382,1.0,0.337633795,True,,597270a81fd7f5000151faf3,,1480311,95,,evan-feature22,full_rf_b,,0
26,1453,96,,,,2,2,1.0,0.0,0.0,1.0,,0.0-53.0,,0.0,274.715,0.0,0.6749427,1.0,0.724197502,1.0,0.32391132100000003,0.0,0.350995264,True,,597270a81fd7f5000151faf3,,1490432,96,,evan-feature22,full_rf_b,,1
27,1454,97,,,,2,2,0.0,1.0,0.0,1.0,,0.0-54.0,,1.0,459.07,1.0,0.6940159379999999,0.0,0.75,0.0,0.31710554399999996,1.0,0.413450341,True,,597270a81fd7f5000151faf3,,1500735,97,,evan-feature22,full_rf_b,,0
28,1455,98,,,,2,2,0.0,1.0,0.0,1.0,,0.0-55.0,,1.0,284.06,1.0,0.6916018270000001,1.0,0.69001187,0.0,0.261817804,1.0,0.40038635,True,,597270a81fd7f5000151faf3,,1510855,98,,evan-feature22,full_rf_b,,0
29,1456,99,,,,2,2,0.0,1.0,0.0,1.0,,0.0-56.0,,1.0,322.89,1.0,0.641061544,0.0,0.71337992,0.0,0.277296461,1.0,0.47372791700000005,True,,597270a81fd7f5000151faf3,,1521001,99,,evan-feature22,full_rf_b,,0
30,1457,100,,,,2,2,1.0,0.0,0.0,1.0,,0.0-57.0,,0.0,511.79,1.0,0.6082438520000001,0.0,0.708471106,1.0,0.28745137,0.0,0.564174476,True,,597270a81fd7f5000151faf3,,1531347,100,,evan-feature22,full_rf_b,,0
31,1458,101,,,,1,1,1.0,1.0,-1.0,0.0,,0.0-58.0,,-1.0,375.31,1.0,0.6051112120000001,1.0,0.7118147229999999,0.0,0.272390611,1.0,0.5595149939999999,True,,597270a81fd7f5000151faf3,,1541550,101,,evan-feature22,full_rf_b,,1
32,1459,102,,,,1,1,0.0,0.0,-1.0,0.0,,0.0-59.0,,0.0,418.35,0.0,0.582420852,0.0,0.635867583,0.0,0.31089574,0.0,0.5227206520000001,True,,597270a81fd7f5000151faf3,,1551788,102,,evan-feature22,full_rf_b,,0
33,1460,103,,,,1,1,0.0,1.0,-1.0,0.0,,0.0-60.0,,0.0,620.69,0.0,0.623195575,1.0,0.655026044,0.0,0.25,1.0,0.560387538,True,,597270a81fd7f5000151faf3,,1562236,103,,evan-feature22,full_rf_b,,0
34,1461,104,,,,2,2,1.0,1.0,0.0,1.0,,0.0-61.0,,1.0,524.275,1.0,0.601889598,1.0,0.678198724,1.0,0.25,1.0,0.559922936,True,,597270a81fd7f5000151faf3,,1572606,104,,evan-feature22,full_rf_b,,1
35,1462,105,,,,2,2,1.0,1.0,-1.0,0.0,,0.0-62.0,,-1.0,508.315,0.0,0.601259914,1.0,0.704681482,1.0,0.33908969299999997,1.0,0.505003715,True,,597270a81fd7f5000151faf3,,1582945,105,,evan-feature22,full_rf_b,,0
36,1463,106,,,,1,1,1.0,1.0,-1.0,0.0,,0.0-63.0,,-1.0,448.025,1.0,0.59645454,1.0,0.710437172,1.0,0.327441879,0.0,0.391749613,True,,597270a81fd7f5000151faf3,,1593232,106,,evan-feature22,full_rf_b,,1
37,1464,107,,,,2,2,0.0,0.0,0.0,1.0,,0.0-64.0,,0.0,48.06,0.0,0.529473,1.0,0.636758527,0.0,0.301338063,0.0,0.365661481,True,,597270a81fd7f5000151faf3,,1603110,107,,evan-feature22,full_rf_b,,1
38,1465,108,,,,2,2,1.0,0.0,-1.0,0.0,,0.0-65.0,,-1.0,695.31,0.0,0.541657162,1.0,0.634541962,1.0,0.343535366,0.0,0.371763742,True,,597270a81fd7f5000151faf3,,1613630,108,,evan-feature22,full_rf_b,,0
39,1466,109,,,,1,1,1.0,0.0,-1.0,0.0,,0.0-66.0,,-1.0,544.215,1.0,0.5707533260000001,0.0,0.589121171,1.0,0.326428396,0.0,0.43961622899999997,True,,597270a81fd7f5000151faf3,,1624000,109,,evan-feature22,full_rf_b,,1
40,1467,110,,,,2,2,0.0,1.0,0.0,1.0,,0.0-67.0,,1.0,609.69,0.0,0.5707533260000001,1.0,0.589121171,0.0,0.326428396,1.0,0.43961622899999997,True,,597270a81fd7f5000151faf3,,1634440,110,,evan-feature22,full_rf_b,,1
41,1468,111,,,,SLOW,SLOW,,,0.0,1.0,,0.0-68.0,,-3.0,,1.0,0.506271295,1.0,0.641775594,0.0,0.37149690700000004,0.0,0.404330166,True,,597270a81fd7f5000151faf3,,1640267,111,,evan-feature22,full_rf_b,,1
42,1469,112,,,,2,2,1.0,0.0,-1.0,0.0,,0.0-69.0,,-1.0,2576.21,0.0,0.455642565,0.0,0.623605825,1.0,0.358753011,0.0,0.346174041,True,,597270a81fd7f5000151faf3,,1652647,112,,evan-feature22,full_rf_b,,1
43,1470,113,,,,2,2,0.0,0.0,0.0,1.0,,0.0-70.0,,0.0,1078.27,1.0,0.483677308,0.0,0.5904681070000001,0.0,0.402218411,0.0,0.35344697,True,,597270a81fd7f5000151faf3,,1663545,113,,evan-feature22,full_rf_b,,0
44,1471,114,,,,2,2,0.0,0.0,-1.0,0.0,,0.0-71.0,,0.0,755.03,0.0,0.394210977,1.0,0.558925494,0.0,0.540052017,0.0,0.35182128700000004,True,,597270a81fd7f5000151faf3,,1674101,114,,evan-feature22,full_rf_b,,0
45,1472,115,,,,SLOW,SLOW,,,0.0,1.0,,0.0-72.0,,-3.0,,0.0,0.382300414,1.0,0.577670603,0.0,0.607608448,1.0,0.378261578,True,,597270a81fd7f5000151faf3,,1679943,115,,evan-feature22,full_rf_b,,1
46,1473,116,,,,1,1,0.0,0.0,-1.0,0.0,,0.0-73.0,,0.0,3786.47,0.0,0.357596762,0.0,0.5929076529999999,1.0,0.6579790010000001,0.0,0.401326777,True,,597270a81fd7f5000151faf3,,1693553,116,,evan-feature22,full_rf_b,,1
47,1474,117,,,,1,1,0.0,0.0,0.0,1.0,,0.0-74.0,,0.0,504.22,0.0,0.362033495,0.0,0.582308608,1.0,0.649195052,0.0,0.355158505,True,,597270a81fd7f5000151faf3,,1703886,117,,evan-feature22,full_rf_b,,0
48,1475,118,,,,1,1,0.0,0.0,0.0,1.0,,0.0-75.0,,0.0,397.715,0.0,0.369620635,0.0,0.669100864,1.0,0.706059111,0.0,0.362516241,True,,597270a81fd7f5000151faf3,,1714097,118,,evan-feature22,full_rf_b,,0
49,1476,119,,,,1,1,0.0,1.0,0.0,1.0,,0.0-76.0,,1.0,621.01,0.0,0.41477751399999996,1.0,0.7284416779999999,1.0,0.7182656940000001,1.0,0.36228040899999997,True,,597270a81fd7f5000151faf3,,1724522,119,,evan-feature22,full_rf_b,,0
50,1477,120,,,,1,1,0.0,1.0,-1.0,0.0,,0.0-77.0,,0.0,315.62,0.0,0.37675460299999997,1.0,0.703250285,0.0,0.75,0.0,0.461979164,True,,597270a81fd7f5000151faf3,,1734633,120,,evan-feature22,full_rf_b,,0
51,1478,121,,,,1,1,0.0,1.0,-1.0,0.0,,0.0-78.0,,0.0,447.51,0.0,0.398716075,1.0,0.6723864890000001,0.0,0.674153818,0.0,0.519029516,True,,597270a81fd7f5000151faf3,,1744921,121,,evan-feature22,full_rf_b,,0
52,1479,122,,,,1,1,0.0,1.0,-1.0,0.0,,0.0-79.0,,0.0,440.145,0.0,0.34677856700000004,1.0,0.69057175,0.0,0.6822438540000001,0.0,0.477292237,True,,597270a81fd7f5000151faf3,,1755178,122,,evan-feature22,full_rf_b,,0
53,1480,123,,,,1,1,1.0,1.0,0.0,1.0,,0.0-80.0,,1.0,1072.14,1.0,0.28580469199999997,1.0,0.68408818,1.0,0.684207565,0.0,0.49780448299999996,True,,597270a81fd7f5000151faf3,,1766100,123,,evan-feature22,full_rf_b,,0
54,1482,125,,,,1,1,0.0,1.0,0.0,1.0,,0.0-82.0,,1.0,707.865,0.0,0.25,1.0,0.7405808970000001,1.0,0.679614108,1.0,0.436436964,True,,597270a81fd7f5000151faf3,,1781965,125,,evan-feature22,full_rf_b,,0
55,1483,126,,,,1,1,1.0,1.0,0.0,1.0,,0.0-83.0,,1.0,179.11,1.0,0.29890393,1.0,0.730505706,0.0,0.7328203320000001,1.0,0.439256938,True,,597270a81fd7f5000151faf3,,1791966,126,,evan-feature22,full_rf_b,,0
56,1484,127,,,,1,1,1.0,1.0,-1.0,0.0,,0.0-84.0,,-1.0,1782.31,1.0,0.326762398,1.0,0.7148059609999999,1.0,0.75,0.0,0.44389608799999997,True,,597270a81fd7f5000151faf3,,1803558,127,,evan-feature22,full_rf_b,,0
57,1485,128,,,,1,1,0.0,1.0,0.0,1.0,,0.0-85.0,,1.0,310.98,0.0,0.295168515,1.0,0.739760854,1.0,0.719947008,0.0,0.35277284600000003,True,,597270a81fd7f5000151faf3,,1813714,128,,evan-feature22,full_rf_b,,0
58,1486,129,,,,SLOW,SLOW,,,0.0,1.0,,0.0-86.0,,-3.0,,1.0,0.25,1.0,0.70781482,1.0,0.75,1.0,0.286095925,True,,597270a81fd7f5000151faf3,,1819548,129,,evan-feature22,full_rf_b,,1
59,1487,130,,,,2,2,0.0,0.0,0.0,1.0,,0.0-87.0,,0.0,226.975,1.0,0.25638190899999996,0.0,0.704088163,0.0,0.75,0.0,0.26872601399999996,True,,597270a81fd7f5000151faf3,,1829585,130,,evan-feature22,full_rf_b,,1
60,1488,131,,,,2,2,1.0,0.0,-1.0,0.0,,0.0-88.0,,-1.0,1509.195,1.0,0.271581126,0.0,0.669760107,1.0,0.733896663,0.0,0.273244572,True,,597270a81fd7f5000151faf3,,1840925,131,,evan-feature22,full_rf_b,,0
61,1489,132,,,,2,2,1.0,0.0,0.0,1.0,,0.0-89.0,,0.0,85.555,0.0,0.257144401,1.0,0.600575706,1.0,0.74488122,0.0,0.25,True,,597270a81fd7f5000151faf3,,1850824,132,,evan-feature22,full_rf_b,,0
62,1490,133,,,,2,2,1.0,0.0,0.0,1.0,,0.0-90.0,,0.0,241.04,1.0,0.25,1.0,0.616870026,1.0,0.723610234,0.0,0.25,True,,597270a81fd7f5000151faf3,,1860877,133,,evan-feature22,full_rf_b,,0
63,1491,134,,,,2,2,1.0,0.0,-1.0,0.0,,0.0-91.0,,-1.0,190.65,0.0,0.25,0.0,0.583540187,1.0,0.7041042559999999,0.0,0.285961995,True,,597270a81fd7f5000151faf3,,1870910,134,,evan-feature22,full_rf_b,,0
64,1492,135,,,,2,2,0.0,0.0,-1.0,0.0,,0.0-92.0,,0.0,399.11,0.0,0.27254536,1.0,0.53875765,0.0,0.693783448,0.0,0.284961652,True,,597270a81fd7f5000151faf3,,1881120,135,,evan-feature22,full_rf_b,,0
65,1493,136,,,,2,2,1.0,0.0,-1.0,0.0,,0.0-93.0,,-1.0,1185.5,0.0,0.25,1.0,0.548431252,1.0,0.734221895,0.0,0.279445214,True,,597270a81fd7f5000151faf3,,1892149,136,,evan-feature22,full_rf_b,,0
66,1494,137,,,,2,2,0.0,0.0,0.0,1.0,,0.0-94.0,,0.0,1641.315,0.0,0.258640684,1.0,0.545878066,0.0,0.725245965,0.0,0.31487537,True,,597270a81fd7f5000151faf3,,1903624,137,,evan-feature22,full_rf_b,,0
67,1495,138,,,,2,2,1.0,1.0,0.0,1.0,,0.0-95.0,,1.0,465.505,0.0,0.251103711,1.0,0.5776290629999999,1.0,0.696320133,1.0,0.317831047,True,,597270a81fd7f5000151faf3,,1913909,138,,evan-feature22,full_rf_b,,0
68,1496,139,,,,2,2,1.0,0.0,0.0,1.0,,0.0-96.0,,0.0,23.915,0.0,0.276630292,0.0,0.617329858,1.0,0.73838088,0.0,0.261471582,True,,597270a81fd7f5000151faf3,,1923776,139,,evan-feature22,full_rf_b,,0
69,1497,140,,,,2,2,0.0,0.0,0.0,1.0,,0.0-97.0,,0.0,280.35,0.0,0.297716424,1.0,0.618863717,0.0,0.7402358259999999,0.0,0.262600834,True,,597270a81fd7f5000151faf3,,1933863,140,,evan-feature22,full_rf_b,,0
70,1498,141,,,,2,2,1.0,0.0,-1.0,0.0,,0.0-98.0,,-1.0,175.405,0.0,0.290935512,1.0,0.695370945,1.0,0.706570507,0.0,0.280030553,True,,597270a81fd7f5000151faf3,,1943866,141,,evan-feature22,full_rf_b,,0
71,1499,142,,,,SLOW,SLOW,,,0.0,1.0,,0.0-99.0,,-3.0,,0.0,0.25,1.0,0.6465277079999999,1.0,0.67766682,0.0,0.25,True,,597270a81fd7f5000151faf3,,1949700,142,,evan-feature22,full_rf_b,,1
72,1500,143,,,,2,2,0.0,0.0,-1.0,0.0,,0.0-100.0,,0.0,103.25,0.0,0.26463816,0.0,0.636100213,0.0,0.646048507,0.0,0.265607101,True,,597270a81fd7f5000151faf3,,1959630,143,,evan-feature22,full_rf_b,,1
73,1501,144,,,,1,1,0.0,1.0,-1.0,0.0,,0.0-101.0,,0.0,331.63,0.0,0.314340707,1.0,0.667795927,0.0,0.613630805,0.0,0.25,True,,597270a81fd7f5000151faf3,,1969778,144,,evan-feature22,full_rf_b,,1
74,1502,145,,,,1,1,0.0,1.0,0.0,1.0,,0.0-102.0,,1.0,6.540000002,0.0,0.28685784,1.0,0.6622549529999999,0.0,0.652154117,0.0,0.25,True,,597270a81fd7f5000151faf3,,1979617,145,,evan-feature22,full_rf_b,,0
75,1503,146,,,,1,1,0.0,1.0,0.0,1.0,,0.0-103.0,,1.0,219.46,0.0,0.304106554,1.0,0.631289538,1.0,0.707041942,1.0,0.29314237,True,,597270a81fd7f5000151faf3,,1989666,146,,evan-feature22,full_rf_b,,0
76,1504,147,,,,1,1,0.0,0.0,0.0,1.0,,0.0-104.0,,0.0,91.25500001,0.0,0.304806932,0.0,0.571167718,1.0,0.680472346,0.0,0.25,True,,597270a81fd7f5000151faf3,,1999562,147,,evan-feature22,full_rf_b,,0
77,1505,148,,,,1,1,0.0,1.0,0.0,1.0,,0.0-105.0,,1.0,751.26,0.0,0.37919861,1.0,0.5724849710000001,0.0,0.705638003,0.0,0.30179300600000003,True,,597270a81fd7f5000151faf3,,2010146,148,,evan-feature22,full_rf_b,,0
78,1506,149,,,,1,1,0.0,0.0,0.0,1.0,,0.0-106.0,,0.0,17.1,0.0,0.464277969,0.0,0.554034373,1.0,0.7372627340000001,0.0,0.264699741,True,,597270a81fd7f5000151faf3,,2019977,149,,evan-feature22,full_rf_b,,0
79,1507,150,,,,1,1,0.0,0.0,0.0,1.0,,0.0-107.0,,0.0,317.59,0.0,0.465104323,0.0,0.530793115,1.0,0.75,0.0,0.31683071,True,,597270a81fd7f5000151faf3,,2030128,150,,evan-feature22,full_rf_b,,0
80,1508,151,,,,1,1,1.0,0.0,-1.0,0.0,,0.0-108.0,,-1.0,153.92,1.0,0.465104323,0.0,0.530793115,0.0,0.75,0.0,0.31683071,True,,597270a81fd7f5000151faf3,,2040083,151,,evan-feature22,full_rf_b,,0
81,1509,152,,,,1,1,0.0,0.0,-1.0,0.0,,0.0-109.0,,0.0,28.84999997,0.0,0.46833986,0.0,0.570249239,1.0,0.7244472590000001,1.0,0.364114163,True,,597270a81fd7f5000151faf3,,2049939,152,,evan-feature22,full_rf_b,,0
82,1510,153,,,,1,1,1.0,0.0,-1.0,0.0,,0.0-110.0,,-1.0,368.575,1.0,0.445444024,0.0,0.649673355,1.0,0.6845441290000001,0.0,0.300660449,True,,597270a81fd7f5000151faf3,,2060120,153,,evan-feature22,full_rf_b,,0
83,1511,154,,,,1,1,1.0,1.0,-1.0,0.0,,0.0-111.0,,-1.0,434.65,1.0,0.39909721299999995,1.0,0.6715179509999999,1.0,0.742310028,0.0,0.35496088299999995,True,,597270a81fd7f5000151faf3,,2070394,154,,evan-feature22,full_rf_b,,0
84,1512,155,,,,1,1,1.0,0.0,0.0,1.0,,0.0-112.0,,0.0,538.81,1.0,0.37956104799999996,0.0,0.694725302,1.0,0.7181651309999999,0.0,0.38726906299999997,True,,597270a81fd7f5000151faf3,,2080767,155,,evan-feature22,full_rf_b,,0
85,1513,156,,,,1,1,1.0,1.0,0.0,1.0,,0.0-113.0,,1.0,23.01,1.0,0.404995034,1.0,0.724375412,1.0,0.6910946859999999,1.0,0.387187347,True,,597270a81fd7f5000151faf3,,2090608,156,,evan-feature22,full_rf_b,,0
86,1514,157,,,,1,1,0.0,1.0,-1.0,0.0,,0.0-114.0,,0.0,217.58,0.0,0.461740803,1.0,0.75,0.0,0.75,1.0,0.34872038200000005,True,,597270a81fd7f5000151faf3,,2100683,157,,evan-feature22,full_rf_b,,0
87,1515,158,,,,1,1,1.0,0.0,-1.0,0.0,,0.0-115.0,,-1.0,19.0,1.0,0.43821380600000004,0.0,0.738833273,1.0,0.728286963,0.0,0.399538128,True,,597270a81fd7f5000151faf3,,2110501,158,,evan-feature22,full_rf_b,,0
88,1516,159,,,,1,1,0.0,1.0,0.0,1.0,,0.0-116.0,,1.0,13.68999999,0.0,0.41709882,1.0,0.736666736,1.0,0.75,0.0,0.389095584,True,,597270a81fd7f5000151faf3,,2120343,159,,evan-feature22,full_rf_b,,0
89,1517,160,,,,1,1,0.0,1.0,0.0,1.0,,0.0-117.0,,1.0,176.235,0.0,0.39749009799999996,1.0,0.744320029,0.0,0.75,0.0,0.363848678,True,,597270a81fd7f5000151faf3,,2130336,160,,evan-feature22,full_rf_b,,0
90,1518,161,,,,1,1,0.0,1.0,-1.0,0.0,,0.0-118.0,,0.0,45.27499998,0.0,0.392653706,1.0,0.75,1.0,0.75,1.0,0.384386976,True,,597270a81fd7f5000151faf3,,2140204,161,,evan-feature22,full_rf_b,,0
91,1519,162,,,,1,1,0.0,1.0,0.0,1.0,,0.0-119.0,,1.0,459.185,0.0,0.31190902600000003,1.0,0.75,1.0,0.732413819,1.0,0.413082932,True,,597270a81fd7f5000151faf3,,2150495,162,,evan-feature22,full_rf_b,,0
92,1520,163,,,,1,1,0.0,0.0,-1.0,0.0,,0.0-120.0,,0.0,614.3,0.0,0.366917648,0.0,0.740073855,0.0,0.75,0.0,0.352861979,True,,597270a81fd7f5000151faf3,,2160942,163,,evan-feature22,full_rf_b,,0
93,1521,164,,,,1,1,1.0,0.0,-1.0,0.0,,0.0-121.0,,-1.0,2113.98,1.0,0.3645172,0.0,0.721770713,1.0,0.75,1.0,0.404074511,True,,597270a81fd7f5000151faf3,,2172881,164,,evan-feature22,full_rf_b,,0
94,1522,165,,,,1,1,0.0,0.0,-1.0,0.0,,0.0-122.0,,0.0,210.48,0.0,0.35205600299999995,0.0,0.68983859,1.0,0.739735447,0.0,0.366895945,True,,597270a81fd7f5000151faf3,,2182930,165,,evan-feature22,full_rf_b,,0
95,1523,166,,,,1,1,0.0,1.0,-1.0,0.0,,0.0-123.0,,0.0,700.43,0.0,0.40998722600000004,1.0,0.720859127,1.0,0.673854955,1.0,0.368528541,True,,597270a81fd7f5000151faf3,,2193441,166,,evan-feature22,full_rf_b,,0
96,1524,167,,,,1,1,0.0,0.0,-1.0,0.0,,0.0-124.0,,0.0,308.695,0.0,0.353625316,0.0,0.75,0.0,0.695605473,0.0,0.38303674200000004,True,,597270a81fd7f5000151faf3,,2203570,167,,evan-feature22,full_rf_b,,0
97,1525,168,,,,1,1,0.0,0.0,-1.0,0.0,,0.0-125.0,,0.0,1160.645,0.0,0.359216989,0.0,0.75,0.0,0.6987915090000001,1.0,0.35169046200000004,True,,597270a81fd7f5000151faf3,,2214556,168,,evan-feature22,full_rf_b,,0
98,1526,169,,,,1,1,0.0,1.0,-1.0,0.0,,0.0-126.0,,0.0,263.81,0.0,0.35834496899999996,1.0,0.75,1.0,0.707067742,0.0,0.416763636,True,,597270a81fd7f5000151faf3,,2224649,169,,evan-feature22,full_rf_b,,0
99,1527,170,,,,1,1,1.0,1.0,0.0,1.0,,0.0-127.0,,1.0,500.885,1.0,0.38741613799999997,1.0,0.7177369570000001,0.0,0.734902455,0.0,0.49438664299999996,True,,597270a81fd7f5000151faf3,,2234976,170,,evan-feature22,full_rf_b,,0
100,1528,171,,,,1,1,0.0,1.0,-1.0,0.0,,0.0-128.0,,0.0,444.015,0.0,0.405255252,1.0,0.7300466640000001,1.0,0.7027748070000001,0.0,0.504359668,True,,597270a81fd7f5000151faf3,,2245230,171,,evan-feature22,full_rf_b,,0
101,1529,172,,,,1,1,1.0,1.0,-1.0,0.0,,0.0-129.0,,-1.0,1769.09,1.0,0.40697073,1.0,0.7260142190000001,1.0,0.724461982,0.0,0.522779179,True,,597270a81fd7f5000151faf3,,2256851,172,,evan-feature22,full_rf_b,,0
102,1530,173,,,,1,1,0.0,1.0,-1.0,0.0,,0.0-130.0,,0.0,511.195,0.0,0.43906215299999996,1.0,0.7252802340000001,1.0,0.719079934,0.0,0.5712990579999999,True,,597270a81fd7f5000151faf3,,2267206,173,,evan-feature22,full_rf_b,,0
103,1531,174,,,,1,1,0.0,1.0,0.0,1.0,,0.0-131.0,,1.0,280.565,0.0,0.4076705,1.0,0.73280499,1.0,0.681313127,0.0,0.523891346,True,,597270a81fd7f5000151faf3,,2277293,174,,evan-feature22,full_rf_b,,0
104,1532,175,,,,SLOW,SLOW,,,0.0,1.0,,0.0-132.0,,-3.0,,0.0,0.399102911,1.0,0.730498344,1.0,0.661080239,1.0,0.46742603,True,,597270a81fd7f5000151faf3,,2283120,175,,evan-feature22,full_rf_b,,1
105,1533,176,,,,1,1,0.0,1.0,0.0,1.0,,0.0-133.0,,1.0,3359.355,0.0,0.356477282,1.0,0.712296395,0.0,0.641812684,0.0,0.44868414,True,,597270a81fd7f5000151faf3,,2296311,176,,evan-feature22,full_rf_b,,1
106,1534,177,,,,1,1,0.0,1.0,-1.0,0.0,,0.0-134.0,,0.0,337.23,0.0,0.462760722,1.0,0.692349322,1.0,0.700947931,0.0,0.394680266,True,,597270a81fd7f5000151faf3,,2306454,177,,evan-feature22,full_rf_b,,0
107,1535,178,,,,1,1,0.0,0.0,-1.0,0.0,,0.0-135.0,,0.0,105.315,0.0,0.422306413,0.0,0.718375916,1.0,0.706340917,0.0,0.367787185,True,,597270a81fd7f5000151faf3,,2316392,178,,evan-feature22,full_rf_b,,0
108,1537,180,,,,1,1,1.0,0.0,-1.0,0.0,,0.0-137.0,,-1.0,671.83,1.0,0.4582233,0.0,0.643834117,0.0,0.75,0.0,0.39615823299999997,True,,597270a81fd7f5000151faf3,,2328087,180,,evan-feature22,full_rf_b,,0
109,1538,181,,,,1,1,0.0,0.0,-1.0,0.0,,0.0-138.0,,0.0,413.535,0.0,0.43813437899999996,0.0,0.651283804,1.0,0.729674191,0.0,0.37711048,True,,597270a81fd7f5000151faf3,,2338329,181,,evan-feature22,full_rf_b,,0
110,1539,182,,,,1,1,0.0,0.0,-1.0,0.0,,0.0-139.0,,0.0,175.83,0.0,0.471199094,0.0,0.6470010979999999,1.0,0.715008097,1.0,0.410656191,True,,597270a81fd7f5000151faf3,,2348350,182,,evan-feature22,full_rf_b,,0
111,1540,183,,,,1,1,0.0,1.0,-1.0,0.0,,0.0-140.0,,0.0,324.945,0.0,0.42486406,1.0,0.629771829,0.0,0.6550939960000001,0.0,0.459093873,True,,597270a81fd7f5000151faf3,,2358504,183,,evan-feature22,full_rf_b,,0
112,1541,184,,,,1,1,1.0,1.0,-1.0,0.0,,0.0-141.0,,-1.0,2483.37,1.0,0.4803197,1.0,0.645842715,1.0,0.6421749920000001,1.0,0.443092151,True,,597270a81fd7f5000151faf3,,2370820,184,,evan-feature22,full_rf_b,,0
113,1542,185,,,,1,1,0.0,1.0,0.0,1.0,,0.0-142.0,,1.0,64.06999999,0.0,0.521848997,1.0,0.735801074,0.0,0.6691348460000001,0.0,0.45259351600000003,True,,597270a81fd7f5000151faf3,,2380727,185,,evan-feature22,full_rf_b,,0
114,1543,186,,,,SLOW,SLOW,,,-1.0,0.0,,0.0-143.0,,-3.0,,1.0,0.49565621299999996,1.0,0.742400847,1.0,0.661512553,1.0,0.483110831,True,,597270a81fd7f5000151faf3,,2386568,186,,evan-feature22,full_rf_b,,1
115,1544,187,,,,1,1,1.0,1.0,-1.0,0.0,,0.0-144.0,,-1.0,779.625,1.0,0.521564361,1.0,0.731078632,1.0,0.6774886809999999,1.0,0.483263956,True,,597270a81fd7f5000151faf3,,2397169,187,,evan-feature22,full_rf_b,,1
116,1545,188,,,,SLOW,SLOW,,,-1.0,0.0,,0.0-145.0,,-3.0,,0.0,0.558893102,1.0,0.719810023,1.0,0.67461031,1.0,0.499349834,True,,597270a81fd7f5000151faf3,,2403002,188,,evan-feature22,full_rf_b,,1
117,1546,189,,,,1,1,0.0,1.0,-1.0,0.0,,0.0-146.0,,0.0,442.255,0.0,0.611031046,1.0,0.75,1.0,0.688072995,0.0,0.5321422729999999,True,,597270a81fd7f5000151faf3,,2413283,189,,evan-feature22,full_rf_b,,1
118,1547,190,,,,1,1,1.0,1.0,0.0,1.0,,0.0-147.0,,1.0,527.49,1.0,0.633223941,1.0,0.713567728,0.0,0.75,1.0,0.48185314700000004,True,,597270a81fd7f5000151faf3,,2423634,190,,evan-feature22,full_rf_b,,0
119,1548,191,,,,SLOW,SLOW,,,-1.0,0.0,,0.0-148.0,,-3.0,,1.0,0.664001694,1.0,0.705509768,0.0,0.75,0.0,0.500211065,True,,597270a81fd7f5000151faf3,,2429467,191,,evan-feature22,full_rf_b,,1
120,1549,192,,,,1,1,1.0,1.0,-1.0,0.0,,0.0-149.0,,-1.0,1699.235,1.0,0.664001694,1.0,0.705509768,0.0,0.75,1.0,0.500211065,True,,597270a81fd7f5000151faf3,,2441001,192,,evan-feature22,full_rf_b,,1
121,1550,193,,,,1,1,0.0,1.0,-1.0,0.0,,0.0-150.0,,0.0,1397.69,0.0,0.696508041,1.0,0.71066027,1.0,0.717028709,0.0,0.49792991,True,,597270a81fd7f5000151faf3,,2452224,193,,evan-feature22,full_rf_b,,0
122,1551,194,,,,SLOW,SLOW,,,0.0,1.0,,0.0-151.0,,-3.0,,0.0,0.699883272,1.0,0.75,1.0,0.713543895,1.0,0.496962643,True,,597270a81fd7f5000151faf3,,2458051,194,,evan-feature22,full_rf_b,,1
123,1552,195,,,,SLOW,SLOW,,,0.0,1.0,,0.0-152.0,,-3.0,,1.0,0.741163419,1.0,0.75,0.0,0.64691024,1.0,0.513858197,True,,597270a81fd7f5000151faf3,,2463875,195,,evan-feature22,full_rf_b,,0
124,1553,196,,,,1,1,1.0,1.0,0.0,1.0,,0.0-153.0,,1.0,2754.95,1.0,0.75,1.0,0.70816558,1.0,0.594499079,0.0,0.48502124,True,,597270a81fd7f5000151faf3,,2476461,196,,evan-feature22,full_rf_b,,1
125,1554,197,,,,1,1,1.0,0.0,-1.0,0.0,,0.0-154.0,,-1.0,913.49,1.0,0.75,0.0,0.721848901,1.0,0.62197249,1.0,0.48263586399999997,True,,597270a81fd7f5000151faf3,,2487204,197,,evan-feature22,full_rf_b,,0
126,1555,198,,,,SLOW,SLOW,,,-1.0,0.0,,0.0-155.0,,-3.0,,1.0,0.75,1.0,0.74813071,0.0,0.584357161,0.0,0.411477782,True,,597270a81fd7f5000151faf3,,2493053,198,,evan-feature22,full_rf_b,,1
127,1556,199,,,,1,1,1.0,1.0,-1.0,0.0,,0.0-156.0,,-1.0,1323.05,1.0,0.75,1.0,0.75,1.0,0.52287236,1.0,0.488290656,True,,597270a81fd7f5000151faf3,,2504196,199,,evan-feature22,full_rf_b,,1
128,1557,200,,,,1,1,1.0,0.0,-1.0,0.0,,0.0-157.0,,-1.0,295.23,1.0,0.75,0.0,0.75,0.0,0.544321581,0.0,0.53143059,True,,597270a81fd7f5000151faf3,,2514318,200,,evan-feature22,full_rf_b,,0
129,1558,201,,,,1,1,1.0,1.0,-1.0,0.0,,0.0-158.0,,-1.0,1051.06,1.0,0.726754564,1.0,0.75,0.0,0.5129306370000001,0.0,0.530592445,True,,597270a81fd7f5000151faf3,,2525184,201,,evan-feature22,full_rf_b,,0
130,1559,202,,,,1,1,0.0,1.0,0.0,1.0,,0.0-159.0,,1.0,3750.66,0.0,0.75,1.0,0.7392590729999999,0.0,0.479875835,0.0,0.547007051,True,,597270a81fd7f5000151faf3,,2538762,202,,evan-feature22,full_rf_b,,0
131,1560,203,,,,1,1,1.0,1.0,0.0,1.0,,0.0-160.0,,1.0,771.915,1.0,0.75,1.0,0.7393376979999999,0.0,0.546045419,1.0,0.541267353,True,,597270a81fd7f5000151faf3,,2549358,203,,evan-feature22,full_rf_b,,0
132,1561,204,,,,1,1,1.0,0.0,-1.0,0.0,,0.0-161.0,,-1.0,498.58,1.0,0.75,0.0,0.75,0.0,0.485725895,0.0,0.527625395,True,,597270a81fd7f5000151faf3,,2559678,204,,evan-feature22,full_rf_b,,0
133,1562,205,,,,1,1,1.0,1.0,0.0,1.0,,0.0-162.0,,1.0,8.405000001,1.0,0.75,1.0,0.725087974,0.0,0.488603595,0.0,0.504019206,True,,597270a81fd7f5000151faf3,,2569516,205,,evan-feature22,full_rf_b,,0
134,1563,206,,,,1,1,1.0,0.0,-1.0,0.0,,0.0-163.0,,-1.0,1118.815,1.0,0.745504295,0.0,0.75,1.0,0.452379914,1.0,0.50131194,True,,597270a81fd7f5000151faf3,,2580446,206,,evan-feature22,full_rf_b,,0
135,1564,207,,,,1,1,1.0,0.0,0.0,1.0,,0.0-164.0,,0.0,791.28,1.0,0.728513874,0.0,0.75,1.0,0.44125567200000004,0.0,0.531454591,True,,597270a81fd7f5000151faf3,,2591087,207,,evan-feature22,full_rf_b,,0
136,1565,208,,,,1,1,1.0,1.0,-1.0,0.0,,0.0-165.0,,-1.0,1347.29,1.0,0.73790804,1.0,0.75,0.0,0.413036656,1.0,0.524619035,True,,597270a81fd7f5000151faf3,,2602241,208,,evan-feature22,full_rf_b,,0
137,1566,209,,,,1,1,1.0,1.0,-1.0,0.0,,0.0-166.0,,-1.0,103.325,1.0,0.7080961309999999,1.0,0.708666865,0.0,0.431915581,1.0,0.481819489,True,,597270a81fd7f5000151faf3,,2612177,209,,evan-feature22,full_rf_b,,0
138,1567,210,,,,1,1,1.0,1.0,-1.0,0.0,,0.0-167.0,,-1.0,704.825,1.0,0.721378003,1.0,0.71605913,0.0,0.36642387,0.0,0.5036739929999999,True,,597270a81fd7f5000151faf3,,2622711,210,,evan-feature22,full_rf_b,,0
139,1568,211,,,,1,1,1.0,1.0,0.0,1.0,,0.0-168.0,,1.0,821.2,1.0,0.7340618959999999,1.0,0.699323252,0.0,0.35298046299999997,0.0,0.511241692,True,,597270a81fd7f5000151faf3,,2633353,211,,evan-feature22,full_rf_b,,0
140,1569,212,,,,1,1,1.0,1.0,0.0,1.0,,0.0-169.0,,1.0,543.98,1.0,0.75,1.0,0.70412698,0.0,0.380734814,1.0,0.529580116,True,,597270a81fd7f5000151faf3,,2643708,212,,evan-feature22,full_rf_b,,0
141,1570,213,,,,1,1,1.0,1.0,0.0,1.0,,0.0-170.0,,1.0,553.815,1.0,0.7436654909999999,1.0,0.711182751,1.0,0.41125331,1.0,0.49554405,True,,597270a81fd7f5000151faf3,,2654087,213,,evan-feature22,full_rf_b,,0
142,1571,214,,,,1,1,1.0,0.0,-1.0,0.0,,0.0-171.0,,-1.0,1455.045,1.0,0.731607915,0.0,0.651774583,0.0,0.35688023,0.0,0.45194491600000003,True,,597270a81fd7f5000151faf3,,2665365,214,,evan-feature22,full_rf_b,,0
143,1572,215,,,,1,1,1.0,1.0,0.0,1.0,,0.0-172.0,,1.0,159.86,1.0,0.75,1.0,0.75,0.0,0.283145374,1.0,0.528608005,True,,597270a81fd7f5000151faf3,,2675346,215,,evan-feature22,full_rf_b,,0
144,1573,216,,,,1,1,1.0,1.0,-1.0,0.0,,0.0-173.0,,-1.0,453.43,1.0,0.7491416890000001,1.0,0.7423785959999999,0.0,0.29135870399999997,1.0,0.498888318,True,,597270a81fd7f5000151faf3,,2685626,216,,evan-feature22,full_rf_b,,0
145,1574,217,,,,1,1,0.0,1.0,0.0,1.0,,0.0-174.0,,1.0,1161.285,0.0,0.708569387,1.0,0.717682277,0.0,0.294421699,0.0,0.493838163,True,,597270a81fd7f5000151faf3,,2696601,217,,evan-feature22,full_rf_b,,0
146,1575,218,,,,1,1,1.0,1.0,-1.0,0.0,,0.0-175.0,,-1.0,265.085,1.0,0.75,1.0,0.7383382159999999,0.0,0.356098707,1.0,0.442533405,True,,597270a81fd7f5000151faf3,,2706695,218,,evan-feature22,full_rf_b,,0
147,1576,219,,,,1,1,1.0,0.0,-1.0,0.0,,0.0-176.0,,-1.0,290.265,1.0,0.744527075,0.0,0.75,0.0,0.334127506,0.0,0.393165805,True,,597270a81fd7f5000151faf3,,2716819,219,,evan-feature22,full_rf_b,,0
148,1577,220,,,,1,1,1.0,1.0,-1.0,0.0,,0.0-177.0,,-1.0,452.415,1.0,0.75,1.0,0.75,0.0,0.33571021799999995,0.0,0.350393962,True,,597270a81fd7f5000151faf3,,2727084,220,,evan-feature22,full_rf_b,,0
149,1578,221,,,,1,1,1.0,0.0,0.0,1.0,,0.0-178.0,,0.0,394.41,1.0,0.75,0.0,0.75,0.0,0.313628297,0.0,0.36349657399999996,True,,597270a81fd7f5000151faf3,,2737299,221,,evan-feature22,full_rf_b,,0
150,1579,222,,,,1,1,1.0,0.0,-1.0,0.0,,0.0-179.0,,-1.0,439.3,1.0,0.75,0.0,0.734284182,0.0,0.262667667,0.0,0.380199119,True,,597270a81fd7f5000151faf3,,2747562,222,,evan-feature22,full_rf_b,,0
151,1580,223,,,,1,1,0.0,1.0,-1.0,0.0,,0.0-180.0,,0.0,84.64499999,0.0,0.75,1.0,0.75,0.0,0.25,0.0,0.394494013,True,,597270a81fd7f5000151faf3,,2757484,223,,evan-feature22,full_rf_b,,0
152,1581,224,,,,1,1,0.0,1.0,-1.0,0.0,,0.0-181.0,,0.0,250.38,0.0,0.722298145,1.0,0.7357822340000001,0.0,0.25,0.0,0.319142121,True,,597270a81fd7f5000151faf3,,2767573,224,,evan-feature22,full_rf_b,,0
153,1582,225,,,,1,1,1.0,1.0,-1.0,0.0,,0.0-182.0,,-1.0,127.515,1.0,0.73149275,1.0,0.724276446,0.0,0.305856907,0.0,0.281315057,True,,597270a81fd7f5000151faf3,,2777536,225,,evan-feature22,full_rf_b,,0
154,1583,226,,,,1,1,1.0,0.0,-1.0,0.0,,0.0-183.0,,-1.0,330.175,1.0,0.7458732690000001,0.0,0.7336382459999999,0.0,0.272571964,0.0,0.266021999,True,,597270a81fd7f5000151faf3,,2787698,226,,evan-feature22,full_rf_b,,0
155,1584,227,,,,1,1,1.0,0.0,0.0,1.0,,0.0-184.0,,0.0,356.42,1.0,0.705579037,0.0,0.720778292,0.0,0.320238144,0.0,0.30971744,True,,597270a81fd7f5000151faf3,,2797860,227,,evan-feature22,full_rf_b,,0
156,1585,228,,,,1,1,0.0,1.0,0.0,1.0,,0.0-185.0,,1.0,366.98,0.0,0.700425648,1.0,0.7198784009999999,0.0,0.272590393,1.0,0.304182931,True,,597270a81fd7f5000151faf3,,2808067,228,,evan-feature22,full_rf_b,,0
157,1586,229,,,,1,1,1.0,0.0,0.0,1.0,,0.0-186.0,,0.0,832.135,1.0,0.735590785,0.0,0.722714973,1.0,0.25,1.0,0.323421091,True,,597270a81fd7f5000151faf3,,2818708,229,,evan-feature22,full_rf_b,,0
158,1587,230,,,,1,1,1.0,0.0,0.0,1.0,,0.0-187.0,,0.0,9.784999973,1.0,0.724807662,0.0,0.63146213,0.0,0.36836492600000004,0.0,0.34592153299999995,True,,597270a81fd7f5000151faf3,,2828532,230,,evan-feature22,full_rf_b,,0
159,1588,231,,,,1,1,0.0,0.0,-1.0,0.0,,0.0-188.0,,0.0,138.805,0.0,0.7352796909999999,0.0,0.555111392,0.0,0.36003922,0.0,0.31433779999999995,True,,597270a81fd7f5000151faf3,,2838497,231,,evan-feature22,full_rf_b,,0
160,1589,232,notice,,,,,,,,,,0.0-189.0,"{""Q0"":""no ""}",,9487.0,,,,,,,,,True,,597270a81fd7f5000151faf3,,2847988,232,Q,survey-text,full_rf_b,,1
161,1590,233,track1,,[1],,,,,,,,0.0-190.0,"{""Q0"":""no""}",,6503.0,,,,,,,,,True,,597270a81fd7f5000151faf3,,2854505,233,Q,evan-quiz,full_rf_b,,1
162,1591,234,track2,,[0],,,,,,,,0.0-191.0,"{""Q0"":""yes""}",,9469.0,,,,,,,,,True,,597270a81fd7f5000151faf3,,2863984,234,Q,evan-quiz,full_rf_b,,1
163,1592,235,strat,,,,,,,,,,0.0-192.0,"{""Q0"":""I just used a random aproach""}",,10932.0,,,,,,,,,True,,597270a81fd7f5000151faf3,,2874926,235,Q,survey-text,full_rf_b,,1
