,index,Unnamed: 0,Q_name,button_pressed,choice_idxs,chosen_pos,chosen_state,chosen_state_f_1_outcome,chosen_state_f_2_outcome,f_1_reward,f_2_reward,incor_questions,internal_node_id,responses,reward_received,rt,s_1_f_1_outcome,s_1_f_1_prob,s_1_f_2_outcome,s_1_f_2_prob,s_2_f_1_outcome,s_2_f_1_prob,s_2_f_2_outcome,s_2_f_2_prob,safe_first,stimulus,subjectID,success,time_elapsed,trial_index,trial_num,trial_type,version,view_history,switching
0,19988,25,,,,SLOW,SLOW,,,0.0,-1.0,,0.0-27.0,,-3.0,,0.0,0.6,1.0,0.6,0.0,0.4,1.0,0.4,False,,5a3e76517aebf700011527a4,,863225,25,,evan-feature22,full_pf_a,,0
1,19989,26,,,,2,2,1.0,1.0,0.0,-1.0,,0.0-28.0,,-1.0,2145.545,1.0,0.608053294,0.0,0.63424552,1.0,0.397152172,1.0,0.347069101,False,,5a3e76517aebf700011527a4,,875139,26,,evan-feature22,full_pf_a,,1
2,19990,27,,,,1,1,0.0,0.0,0.0,-1.0,,0.0-29.0,,0.0,492.8900001,0.0,0.642237155,0.0,0.648566321,0.0,0.389407674,0.0,0.285525717,False,,5a3e76517aebf700011527a4,,885409,27,,evan-feature22,full_pf_a,,1
3,19991,28,,,,2,2,1.0,0.0,0.0,-1.0,,0.0-30.0,,0.0,331.1350001,1.0,0.661086576,1.0,0.630492543,1.0,0.399058924,0.0,0.25,False,,5a3e76517aebf700011527a4,,895530,28,,evan-feature22,full_pf_a,,1
4,19992,29,,,,2,2,0.0,0.0,0.0,-1.0,,0.0-31.0,,0.0,351.115,1.0,0.631324137,0.0,0.6269842929999999,0.0,0.38734784299999997,0.0,0.25,False,,5a3e76517aebf700011527a4,,905647,29,,evan-feature22,full_pf_a,,0
5,19993,30,,,,1,1,1.0,0.0,0.0,-1.0,,0.0-32.0,,0.0,3419.915,1.0,0.6381991370000001,0.0,0.68987999,1.0,0.384107265,0.0,0.271332943,False,,5a3e76517aebf700011527a4,,918833,30,,evan-feature22,full_pf_a,,1
6,19994,31,,,,1,1,1.0,1.0,0.0,-1.0,,0.0-33.0,,-1.0,980.8100001,1.0,0.66034901,1.0,0.742641349,0.0,0.360225629,0.0,0.25,False,,5a3e76517aebf700011527a4,,929583,31,,evan-feature22,full_pf_a,,0
7,19995,32,,,,2,2,1.0,1.0,1.0,0.0,,0.0-34.0,,1.0,3036.735,1.0,0.638612418,1.0,0.75,1.0,0.367273939,1.0,0.25,False,,5a3e76517aebf700011527a4,,942383,32,,evan-feature22,full_pf_a,,1
8,19996,33,,,,SLOW,SLOW,,,0.0,-1.0,,0.0-35.0,,-3.0,,0.0,0.624340629,0.0,0.75,0.0,0.425829545,0.0,0.25,False,,5a3e76517aebf700011527a4,,948191,33,,evan-feature22,full_pf_a,,1
9,19997,34,,,,1,1,0.0,1.0,0.0,-1.0,,0.0-36.0,,-1.0,3667.94,0.0,0.621999804,1.0,0.75,1.0,0.368609357,0.0,0.25,False,,5a3e76517aebf700011527a4,,961636,34,,evan-feature22,full_pf_a,,1
10,19998,35,,,,2,2,0.0,0.0,1.0,0.0,,0.0-37.0,,0.0,392.6900001,0.0,0.62666403,0.0,0.75,0.0,0.311151498,0.0,0.25,False,,5a3e76517aebf700011527a4,,971802,35,,evan-feature22,full_pf_a,,1
11,19999,36,,,,1,1,1.0,1.0,1.0,0.0,,0.0-38.0,,1.0,626.625,1.0,0.6819650009999999,1.0,0.75,0.0,0.310763048,1.0,0.25,False,,5a3e76517aebf700011527a4,,982216,36,,evan-feature22,full_pf_a,,1
12,20000,37,,,,2,2,0.0,1.0,0.0,-1.0,,0.0-39.0,,-1.0,1211.36,1.0,0.740626951,0.0,0.75,0.0,0.25,1.0,0.25,False,,5a3e76517aebf700011527a4,,993206,37,,evan-feature22,full_pf_a,,1
13,20001,38,,,,1,1,0.0,1.0,0.0,-1.0,,0.0-40.0,,-1.0,1144.215,0.0,0.739599242,1.0,0.742034978,0.0,0.25397114600000004,0.0,0.25,False,,5a3e76517aebf700011527a4,,1004136,38,,evan-feature22,full_pf_a,,1
14,20002,39,,,,1,1,1.0,1.0,0.0,-1.0,,0.0-41.0,,-1.0,306.5249999,1.0,0.732341315,1.0,0.72735643,0.0,0.25,0.0,0.25,False,,5a3e76517aebf700011527a4,,1014208,39,,evan-feature22,full_pf_a,,0
15,20003,40,,,,1,1,0.0,1.0,0.0,-1.0,,0.0-42.0,,-1.0,1357.53,0.0,0.7062287770000001,1.0,0.75,0.0,0.29002151,0.0,0.288256649,False,,5a3e76517aebf700011527a4,,1025336,40,,evan-feature22,full_pf_a,,0
16,20004,41,,,,2,2,1.0,0.0,1.0,0.0,,0.0-43.0,,1.0,97.92500013,1.0,0.7086029209999999,1.0,0.75,1.0,0.274129113,0.0,0.262851608,False,,5a3e76517aebf700011527a4,,1035210,41,,evan-feature22,full_pf_a,,1
17,20005,42,,,,1,1,1.0,1.0,0.0,-1.0,,0.0-44.0,,-1.0,352.96,1.0,0.669189651,1.0,0.727614338,0.0,0.298444036,1.0,0.296944518,False,,5a3e76517aebf700011527a4,,1045366,42,,evan-feature22,full_pf_a,,1
18,20006,43,,,,2,2,1.0,0.0,1.0,0.0,,0.0-45.0,,1.0,1332.355,0.0,0.6819912929999999,0.0,0.7179434290000001,1.0,0.265003961,0.0,0.28157921199999997,False,,5a3e76517aebf700011527a4,,1056486,43,,evan-feature22,full_pf_a,,1
19,20007,44,,,,1,1,0.0,1.0,1.0,0.0,,0.0-46.0,,0.0,1712.98,0.0,0.665275002,1.0,0.723065271,0.0,0.260414971,1.0,0.30973870000000003,False,,5a3e76517aebf700011527a4,,1067976,44,,evan-feature22,full_pf_a,,1
20,20008,45,,,,2,2,0.0,1.0,0.0,-1.0,,0.0-47.0,,-1.0,363.98000010000004,1.0,0.6660593260000001,1.0,0.728032907,0.0,0.30922817,1.0,0.338778608,False,,5a3e76517aebf700011527a4,,1078124,45,,evan-feature22,full_pf_a,,1
21,20009,46,,,,2,2,0.0,0.0,0.0,-1.0,,0.0-48.0,,0.0,244.1749999,1.0,0.702068785,1.0,0.6528750879999999,0.0,0.287329608,0.0,0.35789613200000003,False,,5a3e76517aebf700011527a4,,1088177,46,,evan-feature22,full_pf_a,,0
22,20010,47,,,,1,1,1.0,1.0,0.0,-1.0,,0.0-49.0,,-1.0,854.0699999,1.0,0.651939787,1.0,0.636725589,1.0,0.284834488,0.0,0.358563756,False,,5a3e76517aebf700011527a4,,1098819,47,,evan-feature22,full_pf_a,,1
23,20011,48,,,,2,2,1.0,0.0,0.0,-1.0,,0.0-50.0,,0.0,6.229999941,1.0,0.67573929,1.0,0.612550049,1.0,0.37130387600000003,0.0,0.383542402,False,,5a3e76517aebf700011527a4,,1108599,48,,evan-feature22,full_pf_a,,1
24,20012,49,,,,2,2,0.0,1.0,0.0,-1.0,,0.0-51.0,,-1.0,102.185,0.0,0.620753801,1.0,0.60513644,0.0,0.385529434,1.0,0.340361743,False,,5a3e76517aebf700011527a4,,1118466,49,,evan-feature22,full_pf_a,,0
25,20013,50,,,,2,2,0.0,1.0,1.0,0.0,,0.0-52.0,,0.0,2041.58,1.0,0.673564893,0.0,0.672437924,0.0,0.292955382,1.0,0.337633795,False,,5a3e76517aebf700011527a4,,1130272,50,,evan-feature22,full_pf_a,,0
26,20014,51,,,,2,2,1.0,0.0,0.0,-1.0,,0.0-53.0,,0.0,717.315,1.0,0.6749427,0.0,0.724197502,1.0,0.32391132100000003,0.0,0.350995264,False,,5a3e76517aebf700011527a4,,1140756,51,,evan-feature22,full_pf_a,,0
27,20015,52,,,,2,2,1.0,1.0,0.0,-1.0,,0.0-54.0,,-1.0,464.22,1.0,0.6940159379999999,1.0,0.75,1.0,0.31710554399999996,1.0,0.413450341,False,,5a3e76517aebf700011527a4,,1150995,52,,evan-feature22,full_pf_a,,0
28,20016,53,,,,2,2,0.0,1.0,0.0,-1.0,,0.0-55.0,,-1.0,762.935,1.0,0.6916018270000001,1.0,0.69001187,0.0,0.261817804,1.0,0.40038635,False,,5a3e76517aebf700011527a4,,1161522,53,,evan-feature22,full_pf_a,,0
29,20017,54,,,,1,1,1.0,1.0,0.0,-1.0,,0.0-56.0,,-1.0,597.4399999,1.0,0.641061544,1.0,0.71337992,0.0,0.277296461,0.0,0.47372791700000005,False,,5a3e76517aebf700011527a4,,1171881,54,,evan-feature22,full_pf_a,,1
30,20018,55,,,,2,2,0.0,0.0,0.0,-1.0,,0.0-57.0,,0.0,207.01500009999998,1.0,0.6082438520000001,1.0,0.708471106,0.0,0.28745137,0.0,0.564174476,False,,5a3e76517aebf700011527a4,,1181869,55,,evan-feature22,full_pf_a,,1
31,20019,56,,,,1,1,1.0,1.0,1.0,0.0,,0.0-58.0,,1.0,839.3050001,1.0,0.6051112120000001,1.0,0.7118147229999999,1.0,0.272390611,1.0,0.5595149939999999,False,,5a3e76517aebf700011527a4,,1192496,56,,evan-feature22,full_pf_a,,1
32,20020,57,,,,1,1,1.0,1.0,1.0,0.0,,0.0-59.0,,1.0,286.1049999,1.0,0.582420852,1.0,0.635867583,0.0,0.31089574,1.0,0.5227206520000001,False,,5a3e76517aebf700011527a4,,1202567,57,,evan-feature22,full_pf_a,,0
33,20021,58,,,,1,1,1.0,0.0,1.0,0.0,,0.0-60.0,,1.0,420.23,1.0,0.623195575,0.0,0.655026044,0.0,0.25,1.0,0.560387538,False,,5a3e76517aebf700011527a4,,1212792,58,,evan-feature22,full_pf_a,,0
34,20022,59,,,,1,1,1.0,1.0,0.0,-1.0,,0.0-61.0,,-1.0,838.9649999,1.0,0.601889598,1.0,0.678198724,0.0,0.25,0.0,0.559922936,False,,5a3e76517aebf700011527a4,,1223409,59,,evan-feature22,full_pf_a,,0
35,20023,60,,,,1,1,1.0,1.0,1.0,0.0,,0.0-62.0,,1.0,427.9199999,1.0,0.601259914,1.0,0.704681482,0.0,0.33908969299999997,0.0,0.505003715,False,,5a3e76517aebf700011527a4,,1233602,60,,evan-feature22,full_pf_a,,0
36,20024,61,,,,2,2,0.0,1.0,1.0,0.0,,0.0-63.0,,0.0,1176.96,1.0,0.59645454,1.0,0.710437172,0.0,0.327441879,1.0,0.391749613,False,,5a3e76517aebf700011527a4,,1244547,61,,evan-feature22,full_pf_a,,1
37,20025,62,,,,1,1,0.0,0.0,0.0,-1.0,,0.0-64.0,,0.0,17.95500005,0.0,0.529473,0.0,0.636758527,0.0,0.301338063,0.0,0.365661481,False,,5a3e76517aebf700011527a4,,1254334,62,,evan-feature22,full_pf_a,,1
38,20026,63,,,,1,1,0.0,0.0,1.0,0.0,,0.0-65.0,,0.0,340.995,0.0,0.541657162,0.0,0.634541962,1.0,0.343535366,0.0,0.371763742,False,,5a3e76517aebf700011527a4,,1264468,63,,evan-feature22,full_pf_a,,0
39,20027,64,,,,2,2,1.0,0.0,1.0,0.0,,0.0-66.0,,1.0,503.0200002,1.0,0.5707533260000001,1.0,0.589121171,1.0,0.326428396,0.0,0.43961622899999997,False,,5a3e76517aebf700011527a4,,1274741,64,,evan-feature22,full_pf_a,,1
40,20028,65,,,,1,1,1.0,0.0,0.0,-1.0,,0.0-67.0,,0.0,1039.56,1.0,0.5707533260000001,0.0,0.589121171,1.0,0.326428396,0.0,0.43961622899999997,False,,5a3e76517aebf700011527a4,,1285545,65,,evan-feature22,full_pf_a,,1
41,20029,66,,,,1,1,1.0,0.0,0.0,-1.0,,0.0-68.0,,0.0,672.885,1.0,0.506271295,0.0,0.641775594,0.0,0.37149690700000004,0.0,0.404330166,False,,5a3e76517aebf700011527a4,,1295999,66,,evan-feature22,full_pf_a,,0
42,20030,67,,,,1,1,0.0,1.0,1.0,0.0,,0.0-69.0,,0.0,561.155,0.0,0.455642565,1.0,0.623605825,1.0,0.358753011,0.0,0.346174041,False,,5a3e76517aebf700011527a4,,1306328,67,,evan-feature22,full_pf_a,,0
43,20031,68,,,,1,1,0.0,1.0,0.0,-1.0,,0.0-70.0,,-1.0,3618.28,0.0,0.483677308,1.0,0.5904681070000001,1.0,0.402218411,1.0,0.35344697,False,,5a3e76517aebf700011527a4,,1319730,68,,evan-feature22,full_pf_a,,0
44,20032,69,,,,1,1,0.0,1.0,1.0,0.0,,0.0-71.0,,0.0,223.56500010000002,0.0,0.394210977,1.0,0.558925494,0.0,0.540052017,1.0,0.35182128700000004,False,,5a3e76517aebf700011527a4,,1329726,69,,evan-feature22,full_pf_a,,0
45,20033,70,,,,1,1,1.0,1.0,0.0,-1.0,,0.0-72.0,,-1.0,2833.21,1.0,0.382300414,1.0,0.577670603,0.0,0.607608448,0.0,0.378261578,False,,5a3e76517aebf700011527a4,,1342333,70,,evan-feature22,full_pf_a,,0
46,20034,71,,,,1,1,1.0,1.0,1.0,0.0,,0.0-73.0,,1.0,745.96,1.0,0.357596762,1.0,0.5929076529999999,1.0,0.6579790010000001,1.0,0.401326777,False,,5a3e76517aebf700011527a4,,1352847,71,,evan-feature22,full_pf_a,,0
47,20035,72,,,,1,1,0.0,1.0,0.0,-1.0,,0.0-74.0,,-1.0,2002.15,0.0,0.362033495,1.0,0.582308608,1.0,0.649195052,1.0,0.355158505,False,,5a3e76517aebf700011527a4,,1364617,72,,evan-feature22,full_pf_a,,0
48,20036,73,,,,2,2,1.0,0.0,0.0,-1.0,,0.0-75.0,,0.0,1220.83,1.0,0.369620635,1.0,0.669100864,1.0,0.706059111,0.0,0.362516241,False,,5a3e76517aebf700011527a4,,1375615,73,,evan-feature22,full_pf_a,,1
49,20037,74,,,,1,1,1.0,1.0,0.0,-1.0,,0.0-76.0,,-1.0,1006.06,1.0,0.41477751399999996,1.0,0.7284416779999999,0.0,0.7182656940000001,0.0,0.36228040899999997,False,,5a3e76517aebf700011527a4,,1386417,74,,evan-feature22,full_pf_a,,1
50,20038,75,,,,2,2,0.0,1.0,1.0,0.0,,0.0-77.0,,0.0,401.26,1.0,0.37675460299999997,1.0,0.703250285,0.0,0.75,1.0,0.461979164,False,,5a3e76517aebf700011527a4,,1396581,75,,evan-feature22,full_pf_a,,1
51,20039,76,,,,2,2,1.0,1.0,1.0,0.0,,0.0-78.0,,1.0,648.885,0.0,0.398716075,1.0,0.6723864890000001,1.0,0.674153818,1.0,0.519029516,False,,5a3e76517aebf700011527a4,,1407008,76,,evan-feature22,full_pf_a,,0
52,20040,77,,,,1,1,0.0,0.0,1.0,0.0,,0.0-79.0,,0.0,1484.125,0.0,0.34677856700000004,0.0,0.69057175,1.0,0.6822438540000001,1.0,0.477292237,False,,5a3e76517aebf700011527a4,,1418275,77,,evan-feature22,full_pf_a,,1
53,20041,78,,,,1,1,1.0,0.0,0.0,-1.0,,0.0-80.0,,0.0,84.87000014,1.0,0.28580469199999997,0.0,0.68408818,1.0,0.684207565,0.0,0.49780448299999996,False,,5a3e76517aebf700011527a4,,1428131,78,,evan-feature22,full_pf_a,,0
54,20043,80,,,,SLOW,SLOW,,,0.0,-1.0,,0.0-82.0,,-3.0,,0.0,0.25,1.0,0.7405808970000001,1.0,0.679614108,0.0,0.436436964,False,,5a3e76517aebf700011527a4,,1437268,80,,evan-feature22,full_pf_a,,1
55,20044,81,,,,2,2,1.0,0.0,0.0,-1.0,,0.0-83.0,,0.0,539.1549999,0.0,0.29890393,1.0,0.730505706,1.0,0.7328203320000001,0.0,0.439256938,False,,5a3e76517aebf700011527a4,,1447569,81,,evan-feature22,full_pf_a,,1
56,20045,82,,,,1,1,1.0,0.0,1.0,0.0,,0.0-84.0,,1.0,492.6500001,1.0,0.326762398,0.0,0.7148059609999999,0.0,0.75,1.0,0.44389608799999997,False,,5a3e76517aebf700011527a4,,1457828,82,,evan-feature22,full_pf_a,,1
57,20046,83,,,,1,1,0.0,1.0,0.0,-1.0,,0.0-85.0,,-1.0,1814.195,0.0,0.295168515,1.0,0.739760854,0.0,0.719947008,0.0,0.35277284600000003,False,,5a3e76517aebf700011527a4,,1469407,83,,evan-feature22,full_pf_a,,0
58,20047,84,,,,1,1,0.0,1.0,0.0,-1.0,,0.0-86.0,,-1.0,1617.995,0.0,0.25,1.0,0.70781482,0.0,0.75,0.0,0.286095925,False,,5a3e76517aebf700011527a4,,1480814,84,,evan-feature22,full_pf_a,,0
59,20048,85,,,,2,2,1.0,0.0,0.0,-1.0,,0.0-87.0,,0.0,248.2350001,1.0,0.25638190899999996,0.0,0.704088163,1.0,0.75,0.0,0.26872601399999996,False,,5a3e76517aebf700011527a4,,1490847,85,,evan-feature22,full_pf_a,,1
60,20049,86,,,,2,2,1.0,0.0,1.0,0.0,,0.0-88.0,,1.0,131.48,0.0,0.271581126,1.0,0.669760107,1.0,0.733896663,0.0,0.273244572,False,,5a3e76517aebf700011527a4,,1500767,86,,evan-feature22,full_pf_a,,0
61,20050,87,,,,2,2,0.0,0.0,0.0,-1.0,,0.0-89.0,,0.0,826.9249999,0.0,0.257144401,0.0,0.600575706,0.0,0.74488122,0.0,0.25,False,,5a3e76517aebf700011527a4,,1511395,87,,evan-feature22,full_pf_a,,0
62,20051,88,,,,2,2,1.0,1.0,0.0,-1.0,,0.0-90.0,,-1.0,552.75,0.0,0.25,1.0,0.616870026,1.0,0.723610234,1.0,0.25,False,,5a3e76517aebf700011527a4,,1521714,88,,evan-feature22,full_pf_a,,0
63,20052,89,,,,2,2,1.0,0.0,1.0,0.0,,0.0-91.0,,1.0,1633.805,0.0,0.25,0.0,0.583540187,1.0,0.7041042559999999,0.0,0.285961995,False,,5a3e76517aebf700011527a4,,1533117,89,,evan-feature22,full_pf_a,,0
64,20053,90,,,,2,2,1.0,0.0,1.0,0.0,,0.0-92.0,,1.0,364.64,0.0,0.27254536,0.0,0.53875765,1.0,0.693783448,0.0,0.284961652,False,,5a3e76517aebf700011527a4,,1543268,90,,evan-feature22,full_pf_a,,0
65,20054,91,,,,2,2,1.0,0.0,1.0,0.0,,0.0-93.0,,1.0,941.4249999,0.0,0.25,0.0,0.548431252,1.0,0.734221895,0.0,0.279445214,False,,5a3e76517aebf700011527a4,,1553981,91,,evan-feature22,full_pf_a,,0
66,20055,92,,,,2,2,0.0,1.0,0.0,-1.0,,0.0-94.0,,-1.0,757.0150001000001,1.0,0.258640684,0.0,0.545878066,0.0,0.725245965,1.0,0.31487537,False,,5a3e76517aebf700011527a4,,1564504,92,,evan-feature22,full_pf_a,,0
67,20056,93,,,,2,2,0.0,0.0,0.0,-1.0,,0.0-95.0,,0.0,1664.615,0.0,0.251103711,1.0,0.5776290629999999,0.0,0.696320133,0.0,0.317831047,False,,5a3e76517aebf700011527a4,,1575931,93,,evan-feature22,full_pf_a,,0
68,20057,94,,,,1,1,0.0,1.0,0.0,-1.0,,0.0-96.0,,-1.0,1245.06,0.0,0.276630292,1.0,0.617329858,1.0,0.73838088,1.0,0.261471582,False,,5a3e76517aebf700011527a4,,1586939,94,,evan-feature22,full_pf_a,,1
69,20058,95,,,,1,1,0.0,0.0,0.0,-1.0,,0.0-97.0,,0.0,247.1699999,0.0,0.297716424,0.0,0.618863717,1.0,0.7402358259999999,0.0,0.262600834,False,,5a3e76517aebf700011527a4,,1596969,95,,evan-feature22,full_pf_a,,0
70,20059,96,,,,2,2,0.0,0.0,1.0,0.0,,0.0-98.0,,0.0,907.8449998,0.0,0.290935512,1.0,0.695370945,0.0,0.706570507,0.0,0.280030553,False,,5a3e76517aebf700011527a4,,1607654,96,,evan-feature22,full_pf_a,,1
71,20060,97,,,,1,1,1.0,0.0,0.0,-1.0,,0.0-99.0,,0.0,173.835,1.0,0.25,0.0,0.6465277079999999,1.0,0.67766682,0.0,0.25,False,,5a3e76517aebf700011527a4,,1617613,97,,evan-feature22,full_pf_a,,1
72,20061,98,,,,2,2,1.0,0.0,1.0,0.0,,0.0-100.0,,1.0,544.9650001,0.0,0.26463816,1.0,0.636100213,1.0,0.646048507,0.0,0.265607101,False,,5a3e76517aebf700011527a4,,1627924,98,,evan-feature22,full_pf_a,,1
73,20062,99,,,,2,2,1.0,1.0,1.0,0.0,,0.0-101.0,,1.0,341.975,0.0,0.314340707,1.0,0.667795927,1.0,0.613630805,1.0,0.25,False,,5a3e76517aebf700011527a4,,1638056,99,,evan-feature22,full_pf_a,,0
74,20063,100,,,,1,1,0.0,0.0,0.0,-1.0,,0.0-102.0,,0.0,819.3549998,0.0,0.28685784,0.0,0.6622549529999999,0.0,0.652154117,0.0,0.25,False,,5a3e76517aebf700011527a4,,1648636,100,,evan-feature22,full_pf_a,,1
75,20064,101,,,,1,1,0.0,1.0,0.0,-1.0,,0.0-103.0,,-1.0,1807.925,0.0,0.304106554,1.0,0.631289538,1.0,0.707041942,0.0,0.29314237,False,,5a3e76517aebf700011527a4,,1660220,101,,evan-feature22,full_pf_a,,0
76,20065,102,,,,1,1,0.0,0.0,0.0,-1.0,,0.0-104.0,,0.0,173.23500009999998,0.0,0.304806932,0.0,0.571167718,1.0,0.680472346,1.0,0.25,False,,5a3e76517aebf700011527a4,,1670157,102,,evan-feature22,full_pf_a,,0
77,20066,103,,,,2,2,1.0,0.0,0.0,-1.0,,0.0-105.0,,0.0,723.2900001,0.0,0.37919861,0.0,0.5724849710000001,1.0,0.705638003,0.0,0.30179300600000003,False,,5a3e76517aebf700011527a4,,1680640,103,,evan-feature22,full_pf_a,,1
78,20067,104,,,,1,1,1.0,1.0,0.0,-1.0,,0.0-106.0,,-1.0,197.985,1.0,0.464277969,1.0,0.554034373,1.0,0.7372627340000001,0.0,0.264699741,False,,5a3e76517aebf700011527a4,,1690601,104,,evan-feature22,full_pf_a,,1
79,20068,105,,,,2,2,0.0,1.0,0.0,-1.0,,0.0-107.0,,-1.0,683.7800001,0.0,0.465104323,1.0,0.530793115,0.0,0.75,1.0,0.31683071,False,,5a3e76517aebf700011527a4,,1701079,105,,evan-feature22,full_pf_a,,1
80,20069,106,,,,2,2,1.0,0.0,1.0,0.0,,0.0-108.0,,1.0,316.80000010000003,0.0,0.465104323,1.0,0.530793115,1.0,0.75,0.0,0.31683071,False,,5a3e76517aebf700011527a4,,1711185,106,,evan-feature22,full_pf_a,,0
81,20070,107,,,,2,2,0.0,1.0,1.0,0.0,,0.0-109.0,,0.0,472.80000010000003,0.0,0.46833986,1.0,0.570249239,0.0,0.7244472590000001,1.0,0.364114163,False,,5a3e76517aebf700011527a4,,1721424,107,,evan-feature22,full_pf_a,,0
82,20071,108,,,,2,2,1.0,0.0,1.0,0.0,,0.0-110.0,,1.0,149.70999980000002,1.0,0.445444024,0.0,0.649673355,1.0,0.6845441290000001,0.0,0.300660449,False,,5a3e76517aebf700011527a4,,1731340,108,,evan-feature22,full_pf_a,,0
83,20072,109,,,,2,2,0.0,1.0,1.0,0.0,,0.0-111.0,,0.0,229.88,0.0,0.39909721299999995,1.0,0.6715179509999999,0.0,0.742310028,1.0,0.35496088299999995,False,,5a3e76517aebf700011527a4,,1741370,109,,evan-feature22,full_pf_a,,0
84,20073,110,,,,SLOW,SLOW,,,0.0,-1.0,,0.0-112.0,,-3.0,,0.0,0.37956104799999996,1.0,0.694725302,1.0,0.7181651309999999,1.0,0.38726906299999997,False,,5a3e76517aebf700011527a4,,1747187,110,,evan-feature22,full_pf_a,,1
85,20074,111,,,,1,1,1.0,1.0,0.0,-1.0,,0.0-113.0,,-1.0,780.33,1.0,0.404995034,1.0,0.724375412,1.0,0.6910946859999999,0.0,0.387187347,False,,5a3e76517aebf700011527a4,,1757879,111,,evan-feature22,full_pf_a,,1
86,20075,112,,,,2,2,1.0,0.0,1.0,0.0,,0.0-114.0,,1.0,1145.835,0.0,0.461740803,1.0,0.75,1.0,0.75,0.0,0.34872038200000005,False,,5a3e76517aebf700011527a4,,1768803,112,,evan-feature22,full_pf_a,,1
87,20076,113,,,,2,2,1.0,1.0,1.0,0.0,,0.0-115.0,,1.0,119.705,0.0,0.43821380600000004,0.0,0.738833273,1.0,0.728286963,1.0,0.399538128,False,,5a3e76517aebf700011527a4,,1778714,113,,evan-feature22,full_pf_a,,0
88,20077,114,,,,2,2,1.0,0.0,0.0,-1.0,,0.0-116.0,,0.0,182.7799999,1.0,0.41709882,1.0,0.736666736,1.0,0.75,0.0,0.389095584,False,,5a3e76517aebf700011527a4,,1788681,114,,evan-feature22,full_pf_a,,0
89,20078,115,,,,2,2,0.0,0.0,0.0,-1.0,,0.0-117.0,,0.0,191.715,1.0,0.39749009799999996,1.0,0.744320029,0.0,0.75,0.0,0.363848678,False,,5a3e76517aebf700011527a4,,1798636,115,,evan-feature22,full_pf_a,,0
90,20079,116,,,,2,2,0.0,0.0,1.0,0.0,,0.0-118.0,,0.0,188.1599999,1.0,0.392653706,1.0,0.75,0.0,0.75,0.0,0.384386976,False,,5a3e76517aebf700011527a4,,1808603,116,,evan-feature22,full_pf_a,,0
91,20080,117,,,,2,2,1.0,0.0,0.0,-1.0,,0.0-119.0,,0.0,3268.365,1.0,0.31190902600000003,1.0,0.75,1.0,0.732413819,0.0,0.413082932,False,,5a3e76517aebf700011527a4,,1821664,117,,evan-feature22,full_pf_a,,0
92,20081,118,,,,2,2,1.0,0.0,1.0,0.0,,0.0-120.0,,1.0,406.86,0.0,0.366917648,1.0,0.740073855,1.0,0.75,0.0,0.352861979,False,,5a3e76517aebf700011527a4,,1831844,118,,evan-feature22,full_pf_a,,0
93,20082,119,,,,2,2,1.0,1.0,1.0,0.0,,0.0-121.0,,1.0,350.845,1.0,0.3645172,0.0,0.721770713,1.0,0.75,1.0,0.404074511,False,,5a3e76517aebf700011527a4,,1841974,119,,evan-feature22,full_pf_a,,0
94,20083,120,,,,2,2,1.0,0.0,1.0,0.0,,0.0-122.0,,1.0,642.7549999,0.0,0.35205600299999995,1.0,0.68983859,1.0,0.739735447,0.0,0.366895945,False,,5a3e76517aebf700011527a4,,1852392,120,,evan-feature22,full_pf_a,,0
95,20084,121,,,,2,2,0.0,0.0,1.0,0.0,,0.0-123.0,,0.0,438.27,0.0,0.40998722600000004,1.0,0.720859127,0.0,0.673854955,0.0,0.368528541,False,,5a3e76517aebf700011527a4,,1862610,121,,evan-feature22,full_pf_a,,0
96,20085,122,,,,2,2,1.0,0.0,1.0,0.0,,0.0-124.0,,1.0,274.17500010000003,0.0,0.353625316,0.0,0.75,1.0,0.695605473,0.0,0.38303674200000004,False,,5a3e76517aebf700011527a4,,1872660,122,,evan-feature22,full_pf_a,,0
97,20086,123,,,,2,2,1.0,0.0,1.0,0.0,,0.0-125.0,,1.0,375.1750002,0.0,0.359216989,1.0,0.75,1.0,0.6987915090000001,0.0,0.35169046200000004,False,,5a3e76517aebf700011527a4,,1882816,123,,evan-feature22,full_pf_a,,0
98,20087,124,,,,1,1,1.0,0.0,1.0,0.0,,0.0-126.0,,1.0,230.62499989999998,1.0,0.35834496899999996,0.0,0.75,1.0,0.707067742,1.0,0.416763636,False,,5a3e76517aebf700011527a4,,1892810,124,,evan-feature22,full_pf_a,,1
99,20088,125,,,,2,2,1.0,1.0,0.0,-1.0,,0.0-127.0,,-1.0,163.5500002,1.0,0.38741613799999997,1.0,0.7177369570000001,1.0,0.734902455,1.0,0.49438664299999996,False,,5a3e76517aebf700011527a4,,1902735,125,,evan-feature22,full_pf_a,,1
100,20089,126,,,,1,1,1.0,1.0,1.0,0.0,,0.0-128.0,,1.0,563.1249999,1.0,0.405255252,1.0,0.7300466640000001,0.0,0.7027748070000001,0.0,0.504359668,False,,5a3e76517aebf700011527a4,,1913074,126,,evan-feature22,full_pf_a,,1
101,20090,127,,,,1,1,0.0,1.0,1.0,0.0,,0.0-129.0,,0.0,570.115,0.0,0.40697073,1.0,0.7260142190000001,1.0,0.724461982,0.0,0.522779179,False,,5a3e76517aebf700011527a4,,1923416,127,,evan-feature22,full_pf_a,,0
102,20091,128,,,,1,1,1.0,1.0,1.0,0.0,,0.0-130.0,,1.0,396.6599999,1.0,0.43906215299999996,1.0,0.7252802340000001,0.0,0.719079934,1.0,0.5712990579999999,False,,5a3e76517aebf700011527a4,,1933594,128,,evan-feature22,full_pf_a,,0
103,20092,129,,,,2,2,0.0,0.0,0.0,-1.0,,0.0-131.0,,0.0,129.9300001,0.0,0.4076705,1.0,0.73280499,0.0,0.681313127,0.0,0.523891346,False,,5a3e76517aebf700011527a4,,1943511,129,,evan-feature22,full_pf_a,,1
104,20093,130,,,,2,2,1.0,1.0,0.0,-1.0,,0.0-132.0,,-1.0,499.0049999,0.0,0.399102911,1.0,0.730498344,1.0,0.661080239,1.0,0.46742603,False,,5a3e76517aebf700011527a4,,1953785,130,,evan-feature22,full_pf_a,,0
105,20094,131,,,,2,2,1.0,0.0,0.0,-1.0,,0.0-133.0,,0.0,76.20000001,0.0,0.356477282,0.0,0.712296395,1.0,0.641812684,0.0,0.44868414,False,,5a3e76517aebf700011527a4,,1963627,131,,evan-feature22,full_pf_a,,0
106,20095,132,,,,1,1,1.0,0.0,1.0,0.0,,0.0-134.0,,1.0,370.8800001,1.0,0.462760722,0.0,0.692349322,0.0,0.700947931,0.0,0.394680266,False,,5a3e76517aebf700011527a4,,1973762,132,,evan-feature22,full_pf_a,,1
107,20096,133,,,,2,2,0.0,1.0,1.0,0.0,,0.0-135.0,,0.0,118.335,0.0,0.422306413,1.0,0.718375916,0.0,0.706340917,1.0,0.367787185,False,,5a3e76517aebf700011527a4,,1983672,133,,evan-feature22,full_pf_a,,1
108,20098,135,,,,1,1,0.0,1.0,1.0,0.0,,0.0-137.0,,0.0,922.67,0.0,0.4582233,1.0,0.643834117,1.0,0.75,0.0,0.39615823299999997,False,,5a3e76517aebf700011527a4,,1997521,135,,evan-feature22,full_pf_a,,1
109,20099,136,,,,2,2,1.0,0.0,1.0,0.0,,0.0-138.0,,1.0,40.05499999,0.0,0.43813437899999996,1.0,0.651283804,1.0,0.729674191,0.0,0.37711048,False,,5a3e76517aebf700011527a4,,2007325,136,,evan-feature22,full_pf_a,,1
110,20100,137,,,,2,2,1.0,1.0,1.0,0.0,,0.0-139.0,,1.0,240.1700001,0.0,0.471199094,0.0,0.6470010979999999,1.0,0.715008097,1.0,0.410656191,False,,5a3e76517aebf700011527a4,,2017333,137,,evan-feature22,full_pf_a,,0
111,20101,138,,,,2,2,1.0,0.0,1.0,0.0,,0.0-140.0,,1.0,228.66500010000001,1.0,0.42486406,1.0,0.629771829,1.0,0.6550939960000001,0.0,0.459093873,False,,5a3e76517aebf700011527a4,,2027355,138,,evan-feature22,full_pf_a,,0
112,20102,139,,,,2,2,1.0,0.0,1.0,0.0,,0.0-141.0,,1.0,464.535,0.0,0.4803197,1.0,0.645842715,1.0,0.6421749920000001,0.0,0.443092151,False,,5a3e76517aebf700011527a4,,2037582,139,,evan-feature22,full_pf_a,,0
113,20103,140,,,,1,1,0.0,1.0,0.0,-1.0,,0.0-142.0,,-1.0,172.45,0.0,0.521848997,1.0,0.735801074,1.0,0.6691348460000001,1.0,0.45259351600000003,False,,5a3e76517aebf700011527a4,,2047520,140,,evan-feature22,full_pf_a,,1
114,20104,141,,,,1,1,1.0,1.0,1.0,0.0,,0.0-143.0,,1.0,482.4999999,1.0,0.49565621299999996,1.0,0.742400847,0.0,0.661512553,1.0,0.483110831,False,,5a3e76517aebf700011527a4,,2057769,141,,evan-feature22,full_pf_a,,0
115,20105,142,,,,2,2,1.0,1.0,1.0,0.0,,0.0-144.0,,1.0,479.365,1.0,0.521564361,1.0,0.731078632,1.0,0.6774886809999999,1.0,0.483263956,False,,5a3e76517aebf700011527a4,,2068024,142,,evan-feature22,full_pf_a,,1
116,20106,143,,,,1,1,1.0,1.0,1.0,0.0,,0.0-145.0,,1.0,22.13499998,1.0,0.558893102,1.0,0.719810023,0.0,0.67461031,0.0,0.499349834,False,,5a3e76517aebf700011527a4,,2077821,143,,evan-feature22,full_pf_a,,1
117,20107,144,,,,2,2,0.0,1.0,1.0,0.0,,0.0-146.0,,0.0,382.6850001,0.0,0.611031046,0.0,0.75,0.0,0.688072995,1.0,0.5321422729999999,False,,5a3e76517aebf700011527a4,,2087982,144,,evan-feature22,full_pf_a,,1
118,20108,145,,,,2,2,1.0,1.0,0.0,-1.0,,0.0-147.0,,-1.0,355.39500019999997,1.0,0.633223941,1.0,0.713567728,1.0,0.75,1.0,0.48185314700000004,False,,5a3e76517aebf700011527a4,,2098111,145,,evan-feature22,full_pf_a,,0
119,20109,146,,,,1,1,1.0,1.0,1.0,0.0,,0.0-148.0,,1.0,1463.675,1.0,0.664001694,1.0,0.705509768,1.0,0.75,0.0,0.500211065,False,,5a3e76517aebf700011527a4,,2109361,146,,evan-feature22,full_pf_a,,1
120,20110,147,,,,1,1,1.0,1.0,1.0,0.0,,0.0-149.0,,1.0,1.810000045,1.0,0.664001694,1.0,0.705509768,1.0,0.75,0.0,0.500211065,False,,5a3e76517aebf700011527a4,,2119124,147,,evan-feature22,full_pf_a,,0
121,20111,148,,,,2,2,0.0,0.0,1.0,0.0,,0.0-150.0,,0.0,153.35999990000002,0.0,0.696508041,1.0,0.71066027,0.0,0.717028709,0.0,0.49792991,False,,5a3e76517aebf700011527a4,,2129038,148,,evan-feature22,full_pf_a,,1
122,20112,149,,,,2,2,1.0,0.0,0.0,-1.0,,0.0-151.0,,0.0,101.39,1.0,0.699883272,1.0,0.75,1.0,0.713543895,0.0,0.496962643,False,,5a3e76517aebf700011527a4,,2138916,149,,evan-feature22,full_pf_a,,0
123,20113,150,,,,2,2,0.0,1.0,0.0,-1.0,,0.0-152.0,,-1.0,52.99500003,1.0,0.741163419,0.0,0.75,0.0,0.64691024,1.0,0.513858197,False,,5a3e76517aebf700011527a4,,2148748,150,,evan-feature22,full_pf_a,,0
124,20114,151,,,,1,1,1.0,0.0,0.0,-1.0,,0.0-153.0,,0.0,633.44,1.0,0.75,0.0,0.70816558,1.0,0.594499079,1.0,0.48502124,False,,5a3e76517aebf700011527a4,,2159154,151,,evan-feature22,full_pf_a,,1
125,20115,152,,,,1,1,1.0,1.0,1.0,0.0,,0.0-154.0,,1.0,232.8249998,1.0,0.75,1.0,0.721848901,1.0,0.62197249,0.0,0.48263586399999997,False,,5a3e76517aebf700011527a4,,2169154,152,,evan-feature22,full_pf_a,,0
126,20116,153,,,,2,2,1.0,1.0,1.0,0.0,,0.0-155.0,,1.0,508.64499989999996,1.0,0.75,1.0,0.74813071,1.0,0.584357161,1.0,0.411477782,False,,5a3e76517aebf700011527a4,,2179446,153,,evan-feature22,full_pf_a,,1
127,20117,154,,,,1,1,0.0,1.0,1.0,0.0,,0.0-156.0,,0.0,534.5699999,0.0,0.75,1.0,0.75,0.0,0.52287236,1.0,0.488290656,False,,5a3e76517aebf700011527a4,,2189760,154,,evan-feature22,full_pf_a,,1
128,20118,155,,,,1,1,0.0,1.0,1.0,0.0,,0.0-157.0,,0.0,82.345,0.0,0.75,1.0,0.75,0.0,0.544321581,1.0,0.53143059,False,,5a3e76517aebf700011527a4,,2199606,155,,evan-feature22,full_pf_a,,0
129,20119,156,,,,2,2,0.0,0.0,1.0,0.0,,0.0-158.0,,0.0,118.9350002,1.0,0.726754564,1.0,0.75,0.0,0.5129306370000001,0.0,0.530592445,False,,5a3e76517aebf700011527a4,,2209518,156,,evan-feature22,full_pf_a,,1
130,20120,157,,,,2,2,0.0,1.0,0.0,-1.0,,0.0-159.0,,-1.0,236.7,0.0,0.75,1.0,0.7392590729999999,0.0,0.479875835,1.0,0.547007051,False,,5a3e76517aebf700011527a4,,2219515,157,,evan-feature22,full_pf_a,,0
131,20121,158,,,,2,2,1.0,0.0,0.0,-1.0,,0.0-160.0,,0.0,192.1250001,1.0,0.75,1.0,0.7393376979999999,1.0,0.546045419,0.0,0.541267353,False,,5a3e76517aebf700011527a4,,2229487,158,,evan-feature22,full_pf_a,,0
132,20122,159,,,,1,1,1.0,1.0,1.0,0.0,,0.0-161.0,,1.0,640.5200001000001,1.0,0.75,1.0,0.75,0.0,0.485725895,1.0,0.527625395,False,,5a3e76517aebf700011527a4,,2239899,159,,evan-feature22,full_pf_a,,1
133,20123,160,,,,1,1,0.0,0.0,0.0,-1.0,,0.0-162.0,,0.0,622.7399998,0.0,0.75,0.0,0.725087974,0.0,0.488603595,0.0,0.504019206,False,,5a3e76517aebf700011527a4,,2250293,160,,evan-feature22,full_pf_a,,0
134,20124,161,,,,1,1,1.0,1.0,1.0,0.0,,0.0-163.0,,1.0,295.375,1.0,0.745504295,1.0,0.75,1.0,0.452379914,0.0,0.50131194,False,,5a3e76517aebf700011527a4,,2260357,161,,evan-feature22,full_pf_a,,0
135,20125,162,,,,2,2,0.0,1.0,0.0,-1.0,,0.0-164.0,,-1.0,468.94999989999997,0.0,0.728513874,1.0,0.75,0.0,0.44125567200000004,1.0,0.531454591,False,,5a3e76517aebf700011527a4,,2270605,162,,evan-feature22,full_pf_a,,1
136,20126,163,,,,2,2,0.0,1.0,1.0,0.0,,0.0-165.0,,0.0,66.98500016,1.0,0.73790804,1.0,0.75,0.0,0.413036656,1.0,0.524619035,False,,5a3e76517aebf700011527a4,,2280441,163,,evan-feature22,full_pf_a,,0
137,20127,164,,,,1,1,1.0,1.0,1.0,0.0,,0.0-166.0,,1.0,699.9949999,1.0,0.7080961309999999,1.0,0.708666865,0.0,0.431915581,1.0,0.481819489,False,,5a3e76517aebf700011527a4,,2290905,164,,evan-feature22,full_pf_a,,1
138,20128,165,,,,2,2,0.0,1.0,1.0,0.0,,0.0-167.0,,0.0,80.39999986,0.0,0.721378003,1.0,0.71605913,0.0,0.36642387,1.0,0.5036739929999999,False,,5a3e76517aebf700011527a4,,2300786,165,,evan-feature22,full_pf_a,,1
139,20129,166,,,,1,1,1.0,1.0,0.0,-1.0,,0.0-168.0,,-1.0,791.06,1.0,0.7340618959999999,1.0,0.699323252,0.0,0.35298046299999997,0.0,0.511241692,False,,5a3e76517aebf700011527a4,,2311369,166,,evan-feature22,full_pf_a,,1
140,20130,167,,,,2,2,1.0,0.0,0.0,-1.0,,0.0-169.0,,0.0,49.89999998,0.0,0.75,1.0,0.70412698,1.0,0.380734814,0.0,0.529580116,False,,5a3e76517aebf700011527a4,,2321184,167,,evan-feature22,full_pf_a,,1
141,20131,168,,,,2,2,1.0,0.0,0.0,-1.0,,0.0-170.0,,0.0,127.415,1.0,0.7436654909999999,1.0,0.711182751,1.0,0.41125331,0.0,0.49554405,False,,5a3e76517aebf700011527a4,,2331080,168,,evan-feature22,full_pf_a,,0
142,20132,169,,,,1,1,1.0,1.0,1.0,0.0,,0.0-171.0,,1.0,521.7850001,1.0,0.731607915,1.0,0.651774583,1.0,0.35688023,1.0,0.45194491600000003,False,,5a3e76517aebf700011527a4,,2341377,169,,evan-feature22,full_pf_a,,1
143,20133,170,,,,1,1,1.0,1.0,0.0,-1.0,,0.0-172.0,,-1.0,126.955,1.0,0.75,1.0,0.75,0.0,0.283145374,0.0,0.528608005,False,,5a3e76517aebf700011527a4,,2351290,170,,evan-feature22,full_pf_a,,0
144,20134,171,,,,1,1,1.0,1.0,1.0,0.0,,0.0-173.0,,1.0,116.4650002,1.0,0.7491416890000001,1.0,0.7423785959999999,1.0,0.29135870399999997,0.0,0.498888318,False,,5a3e76517aebf700011527a4,,2361186,171,,evan-feature22,full_pf_a,,0
145,20135,172,,,,2,2,0.0,0.0,0.0,-1.0,,0.0-174.0,,0.0,127.97,1.0,0.708569387,1.0,0.717682277,0.0,0.294421699,0.0,0.493838163,False,,5a3e76517aebf700011527a4,,2371094,172,,evan-feature22,full_pf_a,,1
146,20136,173,,,,2,2,0.0,0.0,1.0,0.0,,0.0-175.0,,0.0,230.41499989999997,1.0,0.75,1.0,0.7383382159999999,0.0,0.356098707,0.0,0.442533405,False,,5a3e76517aebf700011527a4,,2381087,173,,evan-feature22,full_pf_a,,0
147,20137,174,,,,2,2,0.0,1.0,1.0,0.0,,0.0-176.0,,0.0,330.04000010000004,1.0,0.744527075,1.0,0.75,0.0,0.334127506,1.0,0.393165805,False,,5a3e76517aebf700011527a4,,2391185,174,,evan-feature22,full_pf_a,,0
148,20138,175,,,,1,1,1.0,1.0,1.0,0.0,,0.0-177.0,,1.0,332.16,1.0,0.75,1.0,0.75,1.0,0.33571021799999995,0.0,0.350393962,False,,5a3e76517aebf700011527a4,,2401308,175,,evan-feature22,full_pf_a,,1
149,20139,176,,,,1,1,1.0,1.0,0.0,-1.0,,0.0-178.0,,-1.0,267.4199999,1.0,0.75,1.0,0.75,0.0,0.313628297,1.0,0.36349657399999996,False,,5a3e76517aebf700011527a4,,2411348,176,,evan-feature22,full_pf_a,,0
150,20140,177,,,,1,1,1.0,1.0,1.0,0.0,,0.0-179.0,,1.0,98.10000006,1.0,0.75,1.0,0.734284182,0.0,0.262667667,0.0,0.380199119,False,,5a3e76517aebf700011527a4,,2421213,177,,evan-feature22,full_pf_a,,0
151,20141,178,,,,2,2,0.0,0.0,1.0,0.0,,0.0-180.0,,0.0,131.1899999,1.0,0.75,1.0,0.75,0.0,0.25,0.0,0.394494013,False,,5a3e76517aebf700011527a4,,2431120,178,,evan-feature22,full_pf_a,,1
152,20142,179,,,,2,2,1.0,0.0,1.0,0.0,,0.0-181.0,,1.0,61.4949998,1.0,0.722298145,1.0,0.7357822340000001,1.0,0.25,0.0,0.319142121,False,,5a3e76517aebf700011527a4,,2440968,179,,evan-feature22,full_pf_a,,0
153,20143,180,,,,1,1,1.0,0.0,1.0,0.0,,0.0-182.0,,1.0,68.9950001,1.0,0.73149275,0.0,0.724276446,1.0,0.305856907,1.0,0.281315057,False,,5a3e76517aebf700011527a4,,2450809,180,,evan-feature22,full_pf_a,,1
154,20144,181,,,,1,1,1.0,1.0,1.0,0.0,,0.0-183.0,,1.0,5.95999998,1.0,0.7458732690000001,1.0,0.7336382459999999,0.0,0.272571964,0.0,0.266021999,False,,5a3e76517aebf700011527a4,,2460589,181,,evan-feature22,full_pf_a,,0
155,20145,182,,,,1,1,1.0,0.0,0.0,-1.0,,0.0-184.0,,0.0,308.65,1.0,0.705579037,0.0,0.720778292,1.0,0.320238144,0.0,0.30971744,False,,5a3e76517aebf700011527a4,,2470677,182,,evan-feature22,full_pf_a,,0
156,20146,183,,,,1,1,1.0,1.0,0.0,-1.0,,0.0-185.0,,-1.0,255.7949999,1.0,0.700425648,1.0,0.7198784009999999,0.0,0.272590393,0.0,0.304182931,False,,5a3e76517aebf700011527a4,,2480697,183,,evan-feature22,full_pf_a,,0
157,20147,184,,,,2,2,0.0,0.0,0.0,-1.0,,0.0-186.0,,0.0,133.2750001,1.0,0.735590785,1.0,0.722714973,0.0,0.25,0.0,0.323421091,False,,5a3e76517aebf700011527a4,,2490595,184,,evan-feature22,full_pf_a,,1
158,20148,185,,,,1,1,1.0,1.0,0.0,-1.0,,0.0-187.0,,-1.0,1016.56,1.0,0.724807662,1.0,0.63146213,1.0,0.36836492600000004,1.0,0.34592153299999995,False,,5a3e76517aebf700011527a4,,2501383,185,,evan-feature22,full_pf_a,,1
159,20149,186,,,,1,1,1.0,0.0,1.0,0.0,,0.0-188.0,,1.0,49.98500017,1.0,0.7352796909999999,0.0,0.555111392,0.0,0.36003922,1.0,0.31433779999999995,False,,5a3e76517aebf700011527a4,,2511202,186,,evan-feature22,full_pf_a,,0
160,20150,187,notice,,,,,,,,,,0.0-189.0,"{""Q0"":""no""}",,3861.0,,,,,,,,,False,,5a3e76517aebf700011527a4,,2515064,187,Q,survey-text,full_pf_a,,1
161,20151,188,track1,,[1],,,,,,,,0.0-190.0,"{""Q0"":""no""}",,3002.0,,,,,,,,,False,,5a3e76517aebf700011527a4,,2518071,188,Q,evan-quiz,full_pf_a,,1
162,20152,189,track2,,[1],,,,,,,,0.0-191.0,"{""Q0"":""no""}",,11199.0,,,,,,,,,False,,5a3e76517aebf700011527a4,,2529275,189,Q,evan-quiz,full_pf_a,,1
163,20153,190,strat,,,,,,,,,,0.0-192.0,"{""Q0"":""i tried to work out the pattern""}",,17558.0,,,,,,,,,False,,5a3e76517aebf700011527a4,,2546835,190,Q,survey-text,full_pf_a,,1
