,index,Unnamed: 0,Q_name,button_pressed,choice_idxs,chosen_pos,chosen_state,chosen_state_f_1_outcome,chosen_state_f_2_outcome,f_1_reward,f_2_reward,incor_questions,internal_node_id,responses,reward_received,rt,s_1_f_1_outcome,s_1_f_1_prob,s_1_f_2_outcome,s_1_f_2_prob,s_2_f_1_outcome,s_2_f_1_prob,s_2_f_2_outcome,s_2_f_2_prob,safe_first,stimulus,subjectID,success,time_elapsed,trial_index,trial_num,trial_type,version,view_history,switching
0,31478,30,,,,1,1,1.0,0.0,0.0,-1.0,,0.0-27.0,,0.0,3328.0,1.0,0.6,0.0,0.6,1.0,0.4,1.0,0.4,False,,5f51093faa1c4e2d3b82b0a9,,821204,30,,evan-feature22,full_pf_a,,0
1,31479,31,,,,2,2,1.0,0.0,0.0,-1.0,,0.0-28.0,,0.0,2038.0,1.0,0.608053294,0.0,0.63424552,1.0,0.397152172,0.0,0.347069101,False,,5f51093faa1c4e2d3b82b0a9,,833004,31,,evan-feature22,full_pf_a,,1
2,31480,32,,,,2,2,1.0,0.0,0.0,-1.0,,0.0-29.0,,0.0,3049.0,1.0,0.642237155,1.0,0.648566321,1.0,0.389407674,0.0,0.285525717,False,,5f51093faa1c4e2d3b82b0a9,,845816,32,,evan-feature22,full_pf_a,,0
3,31481,33,,,,1,1,1.0,1.0,0.0,-1.0,,0.0-30.0,,-1.0,623.0,1.0,0.661086576,1.0,0.630492543,1.0,0.399058924,1.0,0.25,False,,5f51093faa1c4e2d3b82b0a9,,856203,33,,evan-feature22,full_pf_a,,1
4,31482,34,,,,2,2,0.0,0.0,0.0,-1.0,,0.0-31.0,,0.0,2598.0,1.0,0.631324137,1.0,0.6269842929999999,0.0,0.38734784299999997,0.0,0.25,False,,5f51093faa1c4e2d3b82b0a9,,868565,34,,evan-feature22,full_pf_a,,1
5,31483,35,,,,1,1,1.0,1.0,0.0,-1.0,,0.0-32.0,,-1.0,358.0,1.0,0.6381991370000001,1.0,0.68987999,1.0,0.384107265,0.0,0.271332943,False,,5f51093faa1c4e2d3b82b0a9,,878687,35,,evan-feature22,full_pf_a,,1
6,31484,36,,,,2,2,0.0,0.0,0.0,-1.0,,0.0-33.0,,0.0,2153.0,1.0,0.66034901,1.0,0.742641349,0.0,0.360225629,0.0,0.25,False,,5f51093faa1c4e2d3b82b0a9,,890604,36,,evan-feature22,full_pf_a,,1
7,31485,37,,,,2,2,0.0,0.0,1.0,0.0,,0.0-34.0,,0.0,424.0,0.0,0.638612418,0.0,0.75,0.0,0.367273939,0.0,0.25,False,,5f51093faa1c4e2d3b82b0a9,,900792,37,,evan-feature22,full_pf_a,,0
8,31486,38,,,,1,1,1.0,1.0,0.0,-1.0,,0.0-35.0,,-1.0,1709.0,1.0,0.624340629,1.0,0.75,0.0,0.425829545,0.0,0.25,False,,5f51093faa1c4e2d3b82b0a9,,912262,38,,evan-feature22,full_pf_a,,1
9,31487,39,,,,2,2,1.0,0.0,0.0,-1.0,,0.0-36.0,,0.0,1679.0,0.0,0.621999804,1.0,0.75,1.0,0.368609357,0.0,0.25,False,,5f51093faa1c4e2d3b82b0a9,,923703,39,,evan-feature22,full_pf_a,,1
10,31488,40,,,,2,2,0.0,0.0,1.0,0.0,,0.0-37.0,,0.0,962.0,0.0,0.62666403,1.0,0.75,0.0,0.311151498,0.0,0.25,False,,5f51093faa1c4e2d3b82b0a9,,934426,40,,evan-feature22,full_pf_a,,0
11,31489,41,,,,2,2,0.0,0.0,1.0,0.0,,0.0-38.0,,0.0,1455.0,0.0,0.6819650009999999,1.0,0.75,0.0,0.310763048,0.0,0.25,False,,5f51093faa1c4e2d3b82b0a9,,945644,41,,evan-feature22,full_pf_a,,0
12,31490,42,,,,2,2,0.0,0.0,0.0,-1.0,,0.0-39.0,,0.0,691.0,1.0,0.740626951,1.0,0.75,0.0,0.25,0.0,0.25,False,,5f51093faa1c4e2d3b82b0a9,,956099,42,,evan-feature22,full_pf_a,,0
13,31491,43,,,,2,2,1.0,0.0,0.0,-1.0,,0.0-40.0,,0.0,1234.0,1.0,0.739599242,1.0,0.742034978,1.0,0.25397114600000004,0.0,0.25,False,,5f51093faa1c4e2d3b82b0a9,,967093,43,,evan-feature22,full_pf_a,,0
14,31492,44,,,,2,2,0.0,0.0,0.0,-1.0,,0.0-41.0,,0.0,1528.0,1.0,0.732341315,0.0,0.72735643,0.0,0.25,0.0,0.25,False,,5f51093faa1c4e2d3b82b0a9,,978383,44,,evan-feature22,full_pf_a,,0
15,31493,45,,,,1,1,1.0,1.0,0.0,-1.0,,0.0-42.0,,-1.0,512.0,1.0,0.7062287770000001,1.0,0.75,1.0,0.29002151,0.0,0.288256649,False,,5f51093faa1c4e2d3b82b0a9,,988655,45,,evan-feature22,full_pf_a,,1
16,31494,46,,,,1,1,1.0,1.0,1.0,0.0,,0.0-43.0,,1.0,561.0,1.0,0.7086029209999999,1.0,0.75,1.0,0.274129113,0.0,0.262851608,False,,5f51093faa1c4e2d3b82b0a9,,998978,46,,evan-feature22,full_pf_a,,0
17,31495,47,,,,1,1,1.0,0.0,0.0,-1.0,,0.0-44.0,,0.0,1280.0,1.0,0.669189651,0.0,0.727614338,0.0,0.298444036,0.0,0.296944518,False,,5f51093faa1c4e2d3b82b0a9,,1010019,47,,evan-feature22,full_pf_a,,0
18,31496,48,,,,1,1,1.0,0.0,1.0,0.0,,0.0-45.0,,1.0,1053.0,1.0,0.6819912929999999,0.0,0.7179434290000001,1.0,0.265003961,0.0,0.28157921199999997,False,,5f51093faa1c4e2d3b82b0a9,,1020834,48,,evan-feature22,full_pf_a,,0
19,31497,49,,,,1,1,0.0,0.0,1.0,0.0,,0.0-46.0,,0.0,1555.0,0.0,0.665275002,0.0,0.723065271,0.0,0.260414971,0.0,0.30973870000000003,False,,5f51093faa1c4e2d3b82b0a9,,1032152,49,,evan-feature22,full_pf_a,,0
20,31498,50,,,,1,1,1.0,0.0,0.0,-1.0,,0.0-47.0,,0.0,766.0,1.0,0.6660593260000001,0.0,0.728032907,0.0,0.30922817,0.0,0.338778608,False,,5f51093faa1c4e2d3b82b0a9,,1042679,50,,evan-feature22,full_pf_a,,0
21,31499,51,,,,1,1,0.0,0.0,0.0,-1.0,,0.0-48.0,,0.0,1012.0,0.0,0.702068785,0.0,0.6528750879999999,1.0,0.287329608,0.0,0.35789613200000003,False,,5f51093faa1c4e2d3b82b0a9,,1053452,51,,evan-feature22,full_pf_a,,0
22,31500,52,,,,2,2,0.0,1.0,0.0,-1.0,,0.0-49.0,,-1.0,641.0,1.0,0.651939787,1.0,0.636725589,0.0,0.284834488,1.0,0.358563756,False,,5f51093faa1c4e2d3b82b0a9,,1063856,52,,evan-feature22,full_pf_a,,1
23,31501,53,,,,2,2,1.0,1.0,0.0,-1.0,,0.0-50.0,,-1.0,2094.0,1.0,0.67573929,1.0,0.612550049,1.0,0.37130387600000003,1.0,0.383542402,False,,5f51093faa1c4e2d3b82b0a9,,1075713,53,,evan-feature22,full_pf_a,,0
24,31502,54,,,,1,1,1.0,0.0,0.0,-1.0,,0.0-51.0,,0.0,974.0,1.0,0.620753801,0.0,0.60513644,0.0,0.385529434,0.0,0.340361743,False,,5f51093faa1c4e2d3b82b0a9,,1086447,54,,evan-feature22,full_pf_a,,1
25,31503,55,,,,1,1,0.0,0.0,1.0,0.0,,0.0-52.0,,0.0,1106.0,0.0,0.673564893,0.0,0.672437924,0.0,0.292955382,0.0,0.337633795,False,,5f51093faa1c4e2d3b82b0a9,,1097317,55,,evan-feature22,full_pf_a,,0
26,31504,56,,,,1,1,1.0,1.0,0.0,-1.0,,0.0-53.0,,-1.0,2004.0,1.0,0.6749427,1.0,0.724197502,0.0,0.32391132100000003,1.0,0.350995264,False,,5f51093faa1c4e2d3b82b0a9,,1109084,56,,evan-feature22,full_pf_a,,0
27,31505,57,,,,2,2,1.0,1.0,0.0,-1.0,,0.0-54.0,,-1.0,689.0,1.0,0.6940159379999999,1.0,0.75,1.0,0.31710554399999996,1.0,0.413450341,False,,5f51093faa1c4e2d3b82b0a9,,1119535,57,,evan-feature22,full_pf_a,,1
28,31506,58,,,,1,1,1.0,1.0,0.0,-1.0,,0.0-55.0,,-1.0,2645.0,1.0,0.6916018270000001,1.0,0.69001187,1.0,0.261817804,1.0,0.40038635,False,,5f51093faa1c4e2d3b82b0a9,,1131943,58,,evan-feature22,full_pf_a,,1
29,31507,59,,,,2,2,0.0,0.0,0.0,-1.0,,0.0-56.0,,0.0,498.0,1.0,0.641061544,1.0,0.71337992,0.0,0.277296461,0.0,0.47372791700000005,False,,5f51093faa1c4e2d3b82b0a9,,1142205,59,,evan-feature22,full_pf_a,,1
30,31508,60,,,,2,2,1.0,1.0,0.0,-1.0,,0.0-57.0,,-1.0,653.0,1.0,0.6082438520000001,1.0,0.708471106,1.0,0.28745137,1.0,0.564174476,False,,5f51093faa1c4e2d3b82b0a9,,1152620,60,,evan-feature22,full_pf_a,,0
31,31509,61,,,,1,1,0.0,1.0,1.0,0.0,,0.0-58.0,,0.0,1376.0,0.0,0.6051112120000001,1.0,0.7118147229999999,0.0,0.272390611,0.0,0.5595149939999999,False,,5f51093faa1c4e2d3b82b0a9,,1163756,61,,evan-feature22,full_pf_a,,1
32,31510,62,,,,1,1,1.0,1.0,1.0,0.0,,0.0-59.0,,1.0,1198.0,1.0,0.582420852,1.0,0.635867583,1.0,0.31089574,0.0,0.5227206520000001,False,,5f51093faa1c4e2d3b82b0a9,,1174714,62,,evan-feature22,full_pf_a,,0
33,31511,63,,,,1,1,1.0,1.0,1.0,0.0,,0.0-60.0,,1.0,417.0,1.0,0.623195575,1.0,0.655026044,0.0,0.25,1.0,0.560387538,False,,5f51093faa1c4e2d3b82b0a9,,1184892,63,,evan-feature22,full_pf_a,,0
34,31512,64,,,,1,1,1.0,1.0,0.0,-1.0,,0.0-61.0,,-1.0,833.0,1.0,0.601889598,1.0,0.678198724,0.0,0.25,1.0,0.559922936,False,,5f51093faa1c4e2d3b82b0a9,,1195486,64,,evan-feature22,full_pf_a,,0
35,31513,65,,,,2,2,1.0,1.0,1.0,0.0,,0.0-62.0,,1.0,2369.0,1.0,0.601259914,0.0,0.704681482,1.0,0.33908969299999997,1.0,0.505003715,False,,5f51093faa1c4e2d3b82b0a9,,1207615,65,,evan-feature22,full_pf_a,,1
36,31514,66,,,,1,1,1.0,1.0,1.0,0.0,,0.0-63.0,,1.0,2466.0,1.0,0.59645454,1.0,0.710437172,1.0,0.327441879,0.0,0.391749613,False,,5f51093faa1c4e2d3b82b0a9,,1219839,66,,evan-feature22,full_pf_a,,1
37,31515,67,,,,1,1,0.0,0.0,0.0,-1.0,,0.0-64.0,,0.0,1961.0,0.0,0.529473,0.0,0.636758527,0.0,0.301338063,0.0,0.365661481,False,,5f51093faa1c4e2d3b82b0a9,,1231559,67,,evan-feature22,full_pf_a,,0
38,31516,68,,,,1,1,1.0,1.0,1.0,0.0,,0.0-65.0,,1.0,1214.0,1.0,0.541657162,1.0,0.634541962,0.0,0.343535366,1.0,0.371763742,False,,5f51093faa1c4e2d3b82b0a9,,1242531,68,,evan-feature22,full_pf_a,,0
39,31517,69,,,,1,1,0.0,0.0,1.0,0.0,,0.0-66.0,,0.0,1595.0,0.0,0.5707533260000001,0.0,0.589121171,0.0,0.326428396,0.0,0.43961622899999997,False,,5f51093faa1c4e2d3b82b0a9,,1253885,69,,evan-feature22,full_pf_a,,0
40,31518,70,,,,2,2,1.0,1.0,0.0,-1.0,,0.0-67.0,,-1.0,2629.0,1.0,0.5707533260000001,0.0,0.589121171,1.0,0.326428396,1.0,0.43961622899999997,False,,5f51093faa1c4e2d3b82b0a9,,1266273,70,,evan-feature22,full_pf_a,,1
41,31519,71,,,,1,1,1.0,1.0,0.0,-1.0,,0.0-68.0,,-1.0,2018.0,1.0,0.506271295,1.0,0.641775594,0.0,0.37149690700000004,0.0,0.404330166,False,,5f51093faa1c4e2d3b82b0a9,,1278054,71,,evan-feature22,full_pf_a,,1
42,31520,72,,,,1,1,0.0,1.0,1.0,0.0,,0.0-69.0,,0.0,2505.0,0.0,0.455642565,1.0,0.623605825,0.0,0.358753011,0.0,0.346174041,False,,5f51093faa1c4e2d3b82b0a9,,1290321,72,,evan-feature22,full_pf_a,,0
43,31521,73,,,,1,1,1.0,0.0,0.0,-1.0,,0.0-70.0,,0.0,3135.0,1.0,0.483677308,0.0,0.5904681070000001,0.0,0.402218411,0.0,0.35344697,False,,5f51093faa1c4e2d3b82b0a9,,1303217,73,,evan-feature22,full_pf_a,,0
44,31522,74,,,,2,2,0.0,0.0,1.0,0.0,,0.0-71.0,,0.0,1288.0,0.0,0.394210977,1.0,0.558925494,0.0,0.540052017,0.0,0.35182128700000004,False,,5f51093faa1c4e2d3b82b0a9,,1314265,74,,evan-feature22,full_pf_a,,1
45,31523,75,,,,1,1,0.0,1.0,0.0,-1.0,,0.0-72.0,,-1.0,1956.0,0.0,0.382300414,1.0,0.577670603,1.0,0.607608448,0.0,0.378261578,False,,5f51093faa1c4e2d3b82b0a9,,1325981,75,,evan-feature22,full_pf_a,,1
46,31524,76,,,,1,1,0.0,0.0,1.0,0.0,,0.0-73.0,,0.0,668.0,0.0,0.357596762,0.0,0.5929076529999999,1.0,0.6579790010000001,0.0,0.401326777,False,,5f51093faa1c4e2d3b82b0a9,,1336408,76,,evan-feature22,full_pf_a,,0
47,31525,77,,,,2,2,0.0,0.0,0.0,-1.0,,0.0-74.0,,0.0,1704.0,1.0,0.362033495,1.0,0.582308608,0.0,0.649195052,0.0,0.355158505,False,,5f51093faa1c4e2d3b82b0a9,,1347871,77,,evan-feature22,full_pf_a,,1
48,31526,78,,,,2,2,1.0,0.0,0.0,-1.0,,0.0-75.0,,0.0,751.0,0.0,0.369620635,1.0,0.669100864,1.0,0.706059111,0.0,0.362516241,False,,5f51093faa1c4e2d3b82b0a9,,1358382,78,,evan-feature22,full_pf_a,,0
49,31527,79,,,,2,2,0.0,0.0,0.0,-1.0,,0.0-76.0,,0.0,1474.0,1.0,0.41477751399999996,1.0,0.7284416779999999,0.0,0.7182656940000001,0.0,0.36228040899999997,False,,5f51093faa1c4e2d3b82b0a9,,1369614,79,,evan-feature22,full_pf_a,,0
50,31528,80,,,,2,2,1.0,0.0,1.0,0.0,,0.0-77.0,,1.0,1751.0,0.0,0.37675460299999997,0.0,0.703250285,1.0,0.75,0.0,0.461979164,False,,5f51093faa1c4e2d3b82b0a9,,1381126,80,,evan-feature22,full_pf_a,,0
51,31529,81,,,,2,2,0.0,0.0,1.0,0.0,,0.0-78.0,,0.0,2186.0,1.0,0.398716075,1.0,0.6723864890000001,0.0,0.674153818,0.0,0.519029516,False,,5f51093faa1c4e2d3b82b0a9,,1393079,81,,evan-feature22,full_pf_a,,0
52,31530,82,,,,2,2,1.0,0.0,1.0,0.0,,0.0-79.0,,1.0,2877.0,0.0,0.34677856700000004,1.0,0.69057175,1.0,0.6822438540000001,0.0,0.477292237,False,,5f51093faa1c4e2d3b82b0a9,,1405717,82,,evan-feature22,full_pf_a,,0
53,31531,83,,,,1,1,0.0,0.0,0.0,-1.0,,0.0-80.0,,0.0,1968.0,0.0,0.28580469199999997,0.0,0.68408818,1.0,0.684207565,0.0,0.49780448299999996,False,,5f51093faa1c4e2d3b82b0a9,,1417445,83,,evan-feature22,full_pf_a,,1
54,31533,85,,,,2,2,1.0,0.0,0.0,-1.0,,0.0-82.0,,0.0,1866.0,0.0,0.25,0.0,0.7405808970000001,1.0,0.679614108,0.0,0.436436964,False,,5f51093faa1c4e2d3b82b0a9,,1434467,85,,evan-feature22,full_pf_a,,1
55,31534,86,,,,2,2,0.0,1.0,0.0,-1.0,,0.0-83.0,,-1.0,2523.0,1.0,0.29890393,1.0,0.730505706,0.0,0.7328203320000001,1.0,0.439256938,False,,5f51093faa1c4e2d3b82b0a9,,1446752,86,,evan-feature22,full_pf_a,,0
56,31535,87,,,,2,2,0.0,1.0,1.0,0.0,,0.0-84.0,,0.0,2857.0,0.0,0.326762398,1.0,0.7148059609999999,0.0,0.75,1.0,0.44389608799999997,False,,5f51093faa1c4e2d3b82b0a9,,1459375,87,,evan-feature22,full_pf_a,,0
57,31536,88,,,,2,2,1.0,0.0,0.0,-1.0,,0.0-85.0,,0.0,3300.0,1.0,0.295168515,1.0,0.739760854,1.0,0.719947008,0.0,0.35277284600000003,False,,5f51093faa1c4e2d3b82b0a9,,1472438,88,,evan-feature22,full_pf_a,,0
58,31537,89,,,,1,1,0.0,0.0,0.0,-1.0,,0.0-86.0,,0.0,1839.0,0.0,0.25,0.0,0.70781482,1.0,0.75,1.0,0.286095925,False,,5f51093faa1c4e2d3b82b0a9,,1484040,89,,evan-feature22,full_pf_a,,1
59,31538,90,,,,2,2,1.0,0.0,0.0,-1.0,,0.0-87.0,,0.0,2126.0,0.0,0.25638190899999996,1.0,0.704088163,1.0,0.75,0.0,0.26872601399999996,False,,5f51093faa1c4e2d3b82b0a9,,1495928,90,,evan-feature22,full_pf_a,,1
60,31539,91,,,,2,2,1.0,0.0,1.0,0.0,,0.0-88.0,,1.0,2437.0,0.0,0.271581126,1.0,0.669760107,1.0,0.733896663,0.0,0.273244572,False,,5f51093faa1c4e2d3b82b0a9,,1508128,91,,evan-feature22,full_pf_a,,0
61,31540,92,,,,SLOW,SLOW,,,0.0,-1.0,,0.0-89.0,,-3.0,,0.0,0.257144401,1.0,0.600575706,1.0,0.74488122,0.0,0.25,False,,5f51093faa1c4e2d3b82b0a9,,1513981,92,,evan-feature22,full_pf_a,,1
62,31541,93,,,,SLOW,SLOW,,,0.0,-1.0,,0.0-90.0,,-3.0,,1.0,0.25,0.0,0.616870026,1.0,0.723610234,0.0,0.25,False,,5f51093faa1c4e2d3b82b0a9,,1532980,93,,evan-feature22,full_pf_a,,0
63,31542,94,,,,SLOW,SLOW,,,1.0,0.0,,0.0-91.0,,-3.0,,1.0,0.25,1.0,0.583540187,0.0,0.7041042559999999,0.0,0.285961995,False,,5f51093faa1c4e2d3b82b0a9,,1545650,94,,evan-feature22,full_pf_a,,0
64,31543,95,,,,SLOW,SLOW,,,1.0,0.0,,0.0-92.0,,-3.0,,0.0,0.27254536,1.0,0.53875765,0.0,0.693783448,0.0,0.284961652,False,,5f51093faa1c4e2d3b82b0a9,,1552873,95,,evan-feature22,full_pf_a,,0
65,31544,96,,,,2,2,1.0,0.0,1.0,0.0,,0.0-93.0,,1.0,1988.0,0.0,0.25,0.0,0.548431252,1.0,0.734221895,0.0,0.279445214,False,,5f51093faa1c4e2d3b82b0a9,,1564622,96,,evan-feature22,full_pf_a,,1
66,31545,97,,,,2,2,1.0,0.0,0.0,-1.0,,0.0-94.0,,0.0,2871.0,1.0,0.258640684,0.0,0.545878066,1.0,0.725245965,0.0,0.31487537,False,,5f51093faa1c4e2d3b82b0a9,,1577255,97,,evan-feature22,full_pf_a,,0
67,31546,98,,,,2,2,1.0,0.0,0.0,-1.0,,0.0-95.0,,0.0,2023.0,0.0,0.251103711,0.0,0.5776290629999999,1.0,0.696320133,0.0,0.317831047,False,,5f51093faa1c4e2d3b82b0a9,,1589038,98,,evan-feature22,full_pf_a,,0
68,31547,99,,,,2,2,1.0,1.0,0.0,-1.0,,0.0-96.0,,-1.0,1940.0,1.0,0.276630292,1.0,0.617329858,1.0,0.73838088,1.0,0.261471582,False,,5f51093faa1c4e2d3b82b0a9,,1600740,99,,evan-feature22,full_pf_a,,0
69,31548,100,,,,SLOW,SLOW,,,0.0,-1.0,,0.0-97.0,,-3.0,,0.0,0.297716424,1.0,0.618863717,1.0,0.7402358259999999,0.0,0.262600834,False,,5f51093faa1c4e2d3b82b0a9,,1606547,100,,evan-feature22,full_pf_a,,1
70,31549,101,,,,2,2,0.0,0.0,1.0,0.0,,0.0-98.0,,0.0,2201.0,1.0,0.290935512,1.0,0.695370945,0.0,0.706570507,0.0,0.280030553,False,,5f51093faa1c4e2d3b82b0a9,,1618510,101,,evan-feature22,full_pf_a,,1
71,31550,102,,,,2,2,0.0,0.0,0.0,-1.0,,0.0-99.0,,0.0,2268.0,0.0,0.25,0.0,0.6465277079999999,0.0,0.67766682,0.0,0.25,False,,5f51093faa1c4e2d3b82b0a9,,1630543,102,,evan-feature22,full_pf_a,,0
72,31551,103,,,,2,2,1.0,0.0,1.0,0.0,,0.0-100.0,,1.0,2147.0,1.0,0.26463816,1.0,0.636100213,1.0,0.646048507,0.0,0.265607101,False,,5f51093faa1c4e2d3b82b0a9,,1642454,103,,evan-feature22,full_pf_a,,0
73,31552,104,,,,2,2,1.0,0.0,1.0,0.0,,0.0-101.0,,1.0,1490.0,0.0,0.314340707,0.0,0.667795927,1.0,0.613630805,0.0,0.25,False,,5f51093faa1c4e2d3b82b0a9,,1653709,104,,evan-feature22,full_pf_a,,0
74,31553,105,,,,1,1,0.0,1.0,0.0,-1.0,,0.0-102.0,,-1.0,3002.0,0.0,0.28685784,1.0,0.6622549529999999,1.0,0.652154117,0.0,0.25,False,,5f51093faa1c4e2d3b82b0a9,,1666474,105,,evan-feature22,full_pf_a,,1
75,31554,106,,,,2,2,1.0,0.0,0.0,-1.0,,0.0-103.0,,0.0,2163.0,0.0,0.304106554,1.0,0.631289538,1.0,0.707041942,0.0,0.29314237,False,,5f51093faa1c4e2d3b82b0a9,,1678402,106,,evan-feature22,full_pf_a,,1
76,31555,107,,,,2,2,1.0,0.0,0.0,-1.0,,0.0-104.0,,0.0,466.0,0.0,0.304806932,0.0,0.571167718,1.0,0.680472346,0.0,0.25,False,,5f51093faa1c4e2d3b82b0a9,,1688632,107,,evan-feature22,full_pf_a,,0
77,31556,108,,,,2,2,0.0,0.0,0.0,-1.0,,0.0-105.0,,0.0,1649.0,0.0,0.37919861,0.0,0.5724849710000001,0.0,0.705638003,0.0,0.30179300600000003,False,,5f51093faa1c4e2d3b82b0a9,,1700044,108,,evan-feature22,full_pf_a,,0
78,31557,109,,,,2,2,1.0,0.0,0.0,-1.0,,0.0-106.0,,0.0,986.0,1.0,0.464277969,1.0,0.554034373,1.0,0.7372627340000001,0.0,0.264699741,False,,5f51093faa1c4e2d3b82b0a9,,1710794,109,,evan-feature22,full_pf_a,,0
79,31558,110,,,,2,2,1.0,0.0,0.0,-1.0,,0.0-107.0,,0.0,1475.0,0.0,0.465104323,1.0,0.530793115,1.0,0.75,0.0,0.31683071,False,,5f51093faa1c4e2d3b82b0a9,,1722032,110,,evan-feature22,full_pf_a,,0
80,31559,111,,,,2,2,0.0,0.0,1.0,0.0,,0.0-108.0,,0.0,2084.0,1.0,0.465104323,1.0,0.530793115,0.0,0.75,0.0,0.31683071,False,,5f51093faa1c4e2d3b82b0a9,,1733881,111,,evan-feature22,full_pf_a,,0
81,31560,112,,,,1,1,1.0,0.0,1.0,0.0,,0.0-109.0,,1.0,3332.0,1.0,0.46833986,0.0,0.570249239,1.0,0.7244472590000001,0.0,0.364114163,False,,5f51093faa1c4e2d3b82b0a9,,1746977,112,,evan-feature22,full_pf_a,,1
82,31561,113,,,,1,1,1.0,0.0,1.0,0.0,,0.0-110.0,,1.0,2602.0,1.0,0.445444024,0.0,0.649673355,0.0,0.6845441290000001,0.0,0.300660449,False,,5f51093faa1c4e2d3b82b0a9,,1759343,113,,evan-feature22,full_pf_a,,0
83,31562,114,,,,1,1,1.0,1.0,1.0,0.0,,0.0-111.0,,1.0,1567.0,1.0,0.39909721299999995,1.0,0.6715179509999999,0.0,0.742310028,1.0,0.35496088299999995,False,,5f51093faa1c4e2d3b82b0a9,,1770679,114,,evan-feature22,full_pf_a,,0
84,31563,115,,,,1,1,0.0,0.0,0.0,-1.0,,0.0-112.0,,0.0,2202.0,0.0,0.37956104799999996,0.0,0.694725302,1.0,0.7181651309999999,1.0,0.38726906299999997,False,,5f51093faa1c4e2d3b82b0a9,,1782645,115,,evan-feature22,full_pf_a,,0
85,31564,116,,,,2,2,1.0,0.0,0.0,-1.0,,0.0-113.0,,0.0,1573.0,0.0,0.404995034,1.0,0.724375412,1.0,0.6910946859999999,0.0,0.387187347,False,,5f51093faa1c4e2d3b82b0a9,,1793981,116,,evan-feature22,full_pf_a,,1
86,31565,117,,,,2,2,1.0,1.0,1.0,0.0,,0.0-114.0,,1.0,2242.0,1.0,0.461740803,1.0,0.75,1.0,0.75,1.0,0.34872038200000005,False,,5f51093faa1c4e2d3b82b0a9,,1805987,117,,evan-feature22,full_pf_a,,0
87,31566,118,,,,1,1,0.0,1.0,1.0,0.0,,0.0-115.0,,0.0,2051.0,0.0,0.43821380600000004,1.0,0.738833273,0.0,0.728286963,0.0,0.399538128,False,,5f51093faa1c4e2d3b82b0a9,,1817801,118,,evan-feature22,full_pf_a,,1
88,31567,119,,,,2,2,0.0,0.0,0.0,-1.0,,0.0-116.0,,0.0,1406.0,0.0,0.41709882,1.0,0.736666736,0.0,0.75,0.0,0.389095584,False,,5f51093faa1c4e2d3b82b0a9,,1828971,119,,evan-feature22,full_pf_a,,1
89,31568,120,,,,2,2,0.0,0.0,0.0,-1.0,,0.0-117.0,,0.0,1888.0,1.0,0.39749009799999996,1.0,0.744320029,0.0,0.75,0.0,0.363848678,False,,5f51093faa1c4e2d3b82b0a9,,1840623,120,,evan-feature22,full_pf_a,,0
90,31569,121,,,,1,1,1.0,1.0,1.0,0.0,,0.0-118.0,,1.0,2118.0,1.0,0.392653706,1.0,0.75,1.0,0.75,1.0,0.384386976,False,,5f51093faa1c4e2d3b82b0a9,,1852506,121,,evan-feature22,full_pf_a,,1
91,31570,122,,,,2,2,1.0,0.0,0.0,-1.0,,0.0-119.0,,0.0,1076.0,1.0,0.31190902600000003,1.0,0.75,1.0,0.732413819,0.0,0.413082932,False,,5f51093faa1c4e2d3b82b0a9,,1863352,122,,evan-feature22,full_pf_a,,1
92,31571,123,,,,1,1,0.0,1.0,1.0,0.0,,0.0-120.0,,0.0,1119.0,0.0,0.366917648,1.0,0.740073855,1.0,0.75,0.0,0.352861979,False,,5f51093faa1c4e2d3b82b0a9,,1874235,123,,evan-feature22,full_pf_a,,1
93,31572,124,,,,1,1,1.0,1.0,1.0,0.0,,0.0-121.0,,1.0,1361.0,1.0,0.3645172,1.0,0.721770713,1.0,0.75,1.0,0.404074511,False,,5f51093faa1c4e2d3b82b0a9,,1885361,124,,evan-feature22,full_pf_a,,0
94,31573,125,,,,2,2,1.0,1.0,1.0,0.0,,0.0-122.0,,1.0,609.0,0.0,0.35205600299999995,1.0,0.68983859,1.0,0.739735447,1.0,0.366895945,False,,5f51093faa1c4e2d3b82b0a9,,1895733,125,,evan-feature22,full_pf_a,,1
95,31574,126,,,,1,1,0.0,1.0,1.0,0.0,,0.0-123.0,,0.0,1177.0,0.0,0.40998722600000004,1.0,0.720859127,1.0,0.673854955,1.0,0.368528541,False,,5f51093faa1c4e2d3b82b0a9,,1906675,126,,evan-feature22,full_pf_a,,1
96,31575,127,,,,2,2,1.0,0.0,1.0,0.0,,0.0-124.0,,1.0,510.0,1.0,0.353625316,0.0,0.75,1.0,0.695605473,0.0,0.38303674200000004,False,,5f51093faa1c4e2d3b82b0a9,,1916949,127,,evan-feature22,full_pf_a,,1
97,31576,128,,,,1,1,0.0,1.0,1.0,0.0,,0.0-125.0,,0.0,1633.0,0.0,0.359216989,1.0,0.75,0.0,0.6987915090000001,1.0,0.35169046200000004,False,,5f51093faa1c4e2d3b82b0a9,,1928347,128,,evan-feature22,full_pf_a,,1
98,31577,129,,,,2,2,1.0,0.0,1.0,0.0,,0.0-126.0,,1.0,812.0,0.0,0.35834496899999996,0.0,0.75,1.0,0.707067742,0.0,0.416763636,False,,5f51093faa1c4e2d3b82b0a9,,1938923,129,,evan-feature22,full_pf_a,,1
99,31578,130,,,,1,1,0.0,1.0,0.0,-1.0,,0.0-127.0,,-1.0,808.0,0.0,0.38741613799999997,1.0,0.7177369570000001,1.0,0.734902455,0.0,0.49438664299999996,False,,5f51093faa1c4e2d3b82b0a9,,1949493,130,,evan-feature22,full_pf_a,,1
100,31579,131,,,,2,2,1.0,0.0,1.0,0.0,,0.0-128.0,,1.0,810.0,0.0,0.405255252,1.0,0.7300466640000001,1.0,0.7027748070000001,0.0,0.504359668,False,,5f51093faa1c4e2d3b82b0a9,,1960070,131,,evan-feature22,full_pf_a,,1
101,31580,132,,,,1,1,0.0,1.0,1.0,0.0,,0.0-129.0,,0.0,647.0,0.0,0.40697073,1.0,0.7260142190000001,1.0,0.724461982,1.0,0.522779179,False,,5f51093faa1c4e2d3b82b0a9,,1970484,132,,evan-feature22,full_pf_a,,1
102,31581,133,,,,2,2,1.0,1.0,1.0,0.0,,0.0-130.0,,1.0,786.0,0.0,0.43906215299999996,1.0,0.7252802340000001,1.0,0.719079934,1.0,0.5712990579999999,False,,5f51093faa1c4e2d3b82b0a9,,1981034,133,,evan-feature22,full_pf_a,,1
103,31582,134,,,,1,1,0.0,0.0,0.0,-1.0,,0.0-131.0,,0.0,675.0,0.0,0.4076705,0.0,0.73280499,0.0,0.681313127,0.0,0.523891346,False,,5f51093faa1c4e2d3b82b0a9,,1991471,134,,evan-feature22,full_pf_a,,1
104,31583,135,,,,2,2,0.0,0.0,0.0,-1.0,,0.0-132.0,,0.0,1336.0,1.0,0.399102911,1.0,0.730498344,0.0,0.661080239,0.0,0.46742603,False,,5f51093faa1c4e2d3b82b0a9,,2002570,135,,evan-feature22,full_pf_a,,1
105,31584,136,,,,1,1,0.0,1.0,0.0,-1.0,,0.0-133.0,,-1.0,1088.0,0.0,0.356477282,1.0,0.712296395,1.0,0.641812684,1.0,0.44868414,False,,5f51093faa1c4e2d3b82b0a9,,2013422,136,,evan-feature22,full_pf_a,,1
106,31585,137,,,,2,2,1.0,1.0,1.0,0.0,,0.0-134.0,,1.0,1338.0,1.0,0.462760722,1.0,0.692349322,1.0,0.700947931,1.0,0.394680266,False,,5f51093faa1c4e2d3b82b0a9,,2024524,137,,evan-feature22,full_pf_a,,1
107,31586,138,,,,2,2,0.0,0.0,1.0,0.0,,0.0-135.0,,0.0,677.0,0.0,0.422306413,1.0,0.718375916,0.0,0.706340917,0.0,0.367787185,False,,5f51093faa1c4e2d3b82b0a9,,2034964,138,,evan-feature22,full_pf_a,,0
108,31588,140,,,,1,1,1.0,1.0,1.0,0.0,,0.0-137.0,,1.0,1471.0,1.0,0.4582233,1.0,0.643834117,1.0,0.75,0.0,0.39615823299999997,False,,5f51093faa1c4e2d3b82b0a9,,2048506,140,,evan-feature22,full_pf_a,,1
109,31589,141,,,,2,2,1.0,0.0,1.0,0.0,,0.0-138.0,,1.0,595.0,0.0,0.43813437899999996,1.0,0.651283804,1.0,0.729674191,0.0,0.37711048,False,,5f51093faa1c4e2d3b82b0a9,,2058863,141,,evan-feature22,full_pf_a,,1
110,31590,142,,,,1,1,1.0,0.0,1.0,0.0,,0.0-139.0,,1.0,709.0,1.0,0.471199094,0.0,0.6470010979999999,1.0,0.715008097,0.0,0.410656191,False,,5f51093faa1c4e2d3b82b0a9,,2069337,142,,evan-feature22,full_pf_a,,1
111,31591,143,,,,2,2,1.0,1.0,1.0,0.0,,0.0-140.0,,1.0,869.0,1.0,0.42486406,1.0,0.629771829,1.0,0.6550939960000001,1.0,0.459093873,False,,5f51093faa1c4e2d3b82b0a9,,2079970,143,,evan-feature22,full_pf_a,,1
112,31592,144,,,,1,1,1.0,1.0,1.0,0.0,,0.0-141.0,,1.0,718.0,1.0,0.4803197,1.0,0.645842715,0.0,0.6421749920000001,0.0,0.443092151,False,,5f51093faa1c4e2d3b82b0a9,,2090451,144,,evan-feature22,full_pf_a,,1
113,31593,145,,,,2,2,1.0,0.0,0.0,-1.0,,0.0-142.0,,0.0,1247.0,0.0,0.521848997,1.0,0.735801074,1.0,0.6691348460000001,0.0,0.45259351600000003,False,,5f51093faa1c4e2d3b82b0a9,,2101462,145,,evan-feature22,full_pf_a,,1
114,31594,146,,,,1,1,1.0,1.0,1.0,0.0,,0.0-143.0,,1.0,1064.0,1.0,0.49565621299999996,1.0,0.742400847,1.0,0.661512553,1.0,0.483110831,False,,5f51093faa1c4e2d3b82b0a9,,2112290,146,,evan-feature22,full_pf_a,,1
115,31595,147,,,,2,2,0.0,1.0,1.0,0.0,,0.0-144.0,,0.0,533.0,1.0,0.521564361,1.0,0.731078632,0.0,0.6774886809999999,1.0,0.483263956,False,,5f51093faa1c4e2d3b82b0a9,,2122586,147,,evan-feature22,full_pf_a,,1
116,31596,148,,,,1,1,1.0,1.0,1.0,0.0,,0.0-145.0,,1.0,839.0,1.0,0.558893102,1.0,0.719810023,0.0,0.67461031,1.0,0.499349834,False,,5f51093faa1c4e2d3b82b0a9,,2133187,148,,evan-feature22,full_pf_a,,1
117,31597,149,,,,2,2,1.0,0.0,1.0,0.0,,0.0-146.0,,1.0,1119.0,1.0,0.611031046,0.0,0.75,1.0,0.688072995,0.0,0.5321422729999999,False,,5f51093faa1c4e2d3b82b0a9,,2144070,149,,evan-feature22,full_pf_a,,1
118,31598,150,,,,1,1,1.0,0.0,0.0,-1.0,,0.0-147.0,,0.0,1014.0,1.0,0.633223941,0.0,0.713567728,1.0,0.75,0.0,0.48185314700000004,False,,5f51093faa1c4e2d3b82b0a9,,2154848,150,,evan-feature22,full_pf_a,,1
119,31599,151,,,,2,2,0.0,1.0,1.0,0.0,,0.0-148.0,,0.0,990.0,1.0,0.664001694,0.0,0.705509768,0.0,0.75,1.0,0.500211065,False,,5f51093faa1c4e2d3b82b0a9,,2165601,151,,evan-feature22,full_pf_a,,1
120,31600,152,,,,1,1,1.0,1.0,1.0,0.0,,0.0-149.0,,1.0,596.0,1.0,0.664001694,1.0,0.705509768,1.0,0.75,0.0,0.500211065,False,,5f51093faa1c4e2d3b82b0a9,,2175962,152,,evan-feature22,full_pf_a,,1
121,31601,153,,,,2,2,0.0,0.0,1.0,0.0,,0.0-150.0,,0.0,722.0,0.0,0.696508041,1.0,0.71066027,0.0,0.717028709,0.0,0.49792991,False,,5f51093faa1c4e2d3b82b0a9,,2186451,153,,evan-feature22,full_pf_a,,1
122,31602,154,,,,1,1,0.0,1.0,0.0,-1.0,,0.0-151.0,,-1.0,678.0,0.0,0.699883272,1.0,0.75,1.0,0.713543895,1.0,0.496962643,False,,5f51093faa1c4e2d3b82b0a9,,2196893,154,,evan-feature22,full_pf_a,,1
123,31603,155,,,,2,2,1.0,1.0,0.0,-1.0,,0.0-152.0,,-1.0,1282.0,1.0,0.741163419,1.0,0.75,1.0,0.64691024,1.0,0.513858197,False,,5f51093faa1c4e2d3b82b0a9,,2207939,155,,evan-feature22,full_pf_a,,1
124,31604,156,,,,1,1,0.0,1.0,0.0,-1.0,,0.0-153.0,,-1.0,599.0,0.0,0.75,1.0,0.70816558,1.0,0.594499079,0.0,0.48502124,False,,5f51093faa1c4e2d3b82b0a9,,2218302,156,,evan-feature22,full_pf_a,,1
125,31605,157,,,,1,1,1.0,1.0,1.0,0.0,,0.0-154.0,,1.0,413.0,1.0,0.75,1.0,0.721848901,0.0,0.62197249,1.0,0.48263586399999997,False,,5f51093faa1c4e2d3b82b0a9,,2228479,157,,evan-feature22,full_pf_a,,0
126,31606,158,,,,2,2,0.0,1.0,1.0,0.0,,0.0-155.0,,0.0,758.0,1.0,0.75,0.0,0.74813071,0.0,0.584357161,1.0,0.411477782,False,,5f51093faa1c4e2d3b82b0a9,,2239002,158,,evan-feature22,full_pf_a,,1
127,31607,159,,,,1,1,1.0,1.0,1.0,0.0,,0.0-156.0,,1.0,550.0,1.0,0.75,1.0,0.75,0.0,0.52287236,0.0,0.488290656,False,,5f51093faa1c4e2d3b82b0a9,,2249316,159,,evan-feature22,full_pf_a,,1
128,31608,160,,,,2,2,0.0,1.0,1.0,0.0,,0.0-157.0,,0.0,537.0,0.0,0.75,1.0,0.75,0.0,0.544321581,1.0,0.53143059,False,,5f51093faa1c4e2d3b82b0a9,,2259617,160,,evan-feature22,full_pf_a,,1
129,31609,161,,,,1,1,1.0,1.0,1.0,0.0,,0.0-158.0,,1.0,593.0,1.0,0.726754564,1.0,0.75,1.0,0.5129306370000001,0.0,0.530592445,False,,5f51093faa1c4e2d3b82b0a9,,2269974,161,,evan-feature22,full_pf_a,,1
130,31610,162,,,,2,2,0.0,1.0,0.0,-1.0,,0.0-159.0,,-1.0,902.0,1.0,0.75,1.0,0.7392590729999999,0.0,0.479875835,1.0,0.547007051,False,,5f51093faa1c4e2d3b82b0a9,,2280640,162,,evan-feature22,full_pf_a,,1
131,31611,163,,,,1,1,1.0,1.0,0.0,-1.0,,0.0-160.0,,-1.0,497.0,1.0,0.75,1.0,0.7393376979999999,0.0,0.546045419,0.0,0.541267353,False,,5f51093faa1c4e2d3b82b0a9,,2290902,163,,evan-feature22,full_pf_a,,1
132,31612,164,,,,1,1,0.0,1.0,1.0,0.0,,0.0-161.0,,0.0,441.0,0.0,0.75,1.0,0.75,1.0,0.485725895,1.0,0.527625395,False,,5f51093faa1c4e2d3b82b0a9,,2301106,164,,evan-feature22,full_pf_a,,0
133,31613,165,,,,2,2,1.0,1.0,0.0,-1.0,,0.0-162.0,,-1.0,685.0,1.0,0.75,1.0,0.725087974,1.0,0.488603595,1.0,0.504019206,False,,5f51093faa1c4e2d3b82b0a9,,2311552,165,,evan-feature22,full_pf_a,,1
134,31614,166,,,,2,2,0.0,1.0,1.0,0.0,,0.0-163.0,,0.0,543.0,1.0,0.745504295,1.0,0.75,0.0,0.452379914,1.0,0.50131194,False,,5f51093faa1c4e2d3b82b0a9,,2321858,166,,evan-feature22,full_pf_a,,0
135,31615,167,,,,1,1,1.0,1.0,0.0,-1.0,,0.0-164.0,,-1.0,352.0,1.0,0.728513874,1.0,0.75,0.0,0.44125567200000004,0.0,0.531454591,False,,5f51093faa1c4e2d3b82b0a9,,2331971,167,,evan-feature22,full_pf_a,,1
136,31616,168,,,,2,2,0.0,0.0,1.0,0.0,,0.0-165.0,,0.0,1231.0,0.0,0.73790804,1.0,0.75,0.0,0.413036656,0.0,0.524619035,False,,5f51093faa1c4e2d3b82b0a9,,2342965,168,,evan-feature22,full_pf_a,,1
137,31617,169,,,,1,1,0.0,1.0,1.0,0.0,,0.0-166.0,,0.0,516.0,0.0,0.7080961309999999,1.0,0.708666865,0.0,0.431915581,0.0,0.481819489,False,,5f51093faa1c4e2d3b82b0a9,,2353244,169,,evan-feature22,full_pf_a,,1
138,31618,170,,,,2,2,0.0,1.0,1.0,0.0,,0.0-167.0,,0.0,467.0,1.0,0.721378003,0.0,0.71605913,0.0,0.36642387,1.0,0.5036739929999999,False,,5f51093faa1c4e2d3b82b0a9,,2363474,170,,evan-feature22,full_pf_a,,1
139,31619,171,,,,2,2,0.0,1.0,0.0,-1.0,,0.0-168.0,,-1.0,663.0,0.0,0.7340618959999999,1.0,0.699323252,0.0,0.35298046299999997,1.0,0.511241692,False,,5f51093faa1c4e2d3b82b0a9,,2373900,171,,evan-feature22,full_pf_a,,0
140,31620,172,,,,2,2,0.0,0.0,0.0,-1.0,,0.0-169.0,,0.0,307.0,1.0,0.75,1.0,0.70412698,0.0,0.380734814,0.0,0.529580116,False,,5f51093faa1c4e2d3b82b0a9,,2383968,172,,evan-feature22,full_pf_a,,0
141,31621,173,,,,2,2,0.0,0.0,0.0,-1.0,,0.0-170.0,,0.0,637.0,1.0,0.7436654909999999,1.0,0.711182751,0.0,0.41125331,0.0,0.49554405,False,,5f51093faa1c4e2d3b82b0a9,,2394368,173,,evan-feature22,full_pf_a,,0
142,31622,174,,,,1,1,0.0,0.0,1.0,0.0,,0.0-171.0,,0.0,762.0,0.0,0.731607915,0.0,0.651774583,0.0,0.35688023,1.0,0.45194491600000003,False,,5f51093faa1c4e2d3b82b0a9,,2404891,174,,evan-feature22,full_pf_a,,1
143,31623,175,,,,2,2,0.0,1.0,0.0,-1.0,,0.0-172.0,,-1.0,564.0,1.0,0.75,1.0,0.75,0.0,0.283145374,1.0,0.528608005,False,,5f51093faa1c4e2d3b82b0a9,,2415221,175,,evan-feature22,full_pf_a,,1
144,31624,176,,,,2,2,0.0,0.0,1.0,0.0,,0.0-173.0,,0.0,448.0,0.0,0.7491416890000001,0.0,0.7423785959999999,0.0,0.29135870399999997,0.0,0.498888318,False,,5f51093faa1c4e2d3b82b0a9,,2425432,176,,evan-feature22,full_pf_a,,0
145,31625,177,,,,2,2,0.0,0.0,0.0,-1.0,,0.0-174.0,,0.0,2484.0,0.0,0.708569387,1.0,0.717682277,0.0,0.294421699,0.0,0.493838163,False,,5f51093faa1c4e2d3b82b0a9,,2437679,177,,evan-feature22,full_pf_a,,0
146,31626,178,,,,1,1,1.0,1.0,1.0,0.0,,0.0-175.0,,1.0,652.0,1.0,0.75,1.0,0.7383382159999999,1.0,0.356098707,1.0,0.442533405,False,,5f51093faa1c4e2d3b82b0a9,,2448097,178,,evan-feature22,full_pf_a,,1
147,31627,179,,,,2,2,0.0,0.0,1.0,0.0,,0.0-176.0,,0.0,782.0,1.0,0.744527075,1.0,0.75,0.0,0.334127506,0.0,0.393165805,False,,5f51093faa1c4e2d3b82b0a9,,2458643,179,,evan-feature22,full_pf_a,,1
148,31628,180,,,,1,1,1.0,0.0,1.0,0.0,,0.0-177.0,,1.0,581.0,1.0,0.75,0.0,0.75,1.0,0.33571021799999995,0.0,0.350393962,False,,5f51093faa1c4e2d3b82b0a9,,2468988,180,,evan-feature22,full_pf_a,,1
149,31629,181,,,,1,1,1.0,1.0,0.0,-1.0,,0.0-178.0,,-1.0,854.0,1.0,0.75,1.0,0.75,0.0,0.313628297,0.0,0.36349657399999996,False,,5f51093faa1c4e2d3b82b0a9,,2479607,181,,evan-feature22,full_pf_a,,0
150,31630,182,,,,2,2,1.0,1.0,1.0,0.0,,0.0-179.0,,1.0,504.0,1.0,0.75,1.0,0.734284182,1.0,0.262667667,1.0,0.380199119,False,,5f51093faa1c4e2d3b82b0a9,,2489875,182,,evan-feature22,full_pf_a,,1
151,31631,183,,,,2,2,1.0,0.0,1.0,0.0,,0.0-180.0,,1.0,768.0,1.0,0.75,0.0,0.75,1.0,0.25,0.0,0.394494013,False,,5f51093faa1c4e2d3b82b0a9,,2500414,183,,evan-feature22,full_pf_a,,0
152,31632,184,,,,1,1,1.0,1.0,1.0,0.0,,0.0-181.0,,1.0,396.0,1.0,0.722298145,1.0,0.7357822340000001,0.0,0.25,1.0,0.319142121,False,,5f51093faa1c4e2d3b82b0a9,,2510573,184,,evan-feature22,full_pf_a,,1
153,31633,185,,,,2,2,1.0,0.0,1.0,0.0,,0.0-182.0,,1.0,682.0,1.0,0.73149275,0.0,0.724276446,1.0,0.305856907,0.0,0.281315057,False,,5f51093faa1c4e2d3b82b0a9,,2521017,185,,evan-feature22,full_pf_a,,1
154,31634,186,,,,1,1,1.0,0.0,1.0,0.0,,0.0-183.0,,1.0,520.0,1.0,0.7458732690000001,0.0,0.7336382459999999,0.0,0.272571964,0.0,0.266021999,False,,5f51093faa1c4e2d3b82b0a9,,2531302,186,,evan-feature22,full_pf_a,,1
155,31635,187,,,,2,2,1.0,1.0,0.0,-1.0,,0.0-184.0,,-1.0,546.0,1.0,0.705579037,1.0,0.720778292,1.0,0.320238144,1.0,0.30971744,False,,5f51093faa1c4e2d3b82b0a9,,2541611,187,,evan-feature22,full_pf_a,,1
156,31636,188,,,,1,1,0.0,1.0,0.0,-1.0,,0.0-185.0,,-1.0,502.0,0.0,0.700425648,1.0,0.7198784009999999,0.0,0.272590393,0.0,0.304182931,False,,5f51093faa1c4e2d3b82b0a9,,2551876,188,,evan-feature22,full_pf_a,,1
157,31637,189,,,,2,2,0.0,1.0,0.0,-1.0,,0.0-186.0,,-1.0,1187.0,0.0,0.735590785,0.0,0.722714973,0.0,0.25,1.0,0.323421091,False,,5f51093faa1c4e2d3b82b0a9,,2562831,189,,evan-feature22,full_pf_a,,1
158,31638,190,,,,1,1,1.0,0.0,0.0,-1.0,,0.0-187.0,,0.0,526.0,1.0,0.724807662,0.0,0.63146213,0.0,0.36836492600000004,1.0,0.34592153299999995,False,,5f51093faa1c4e2d3b82b0a9,,2573120,190,,evan-feature22,full_pf_a,,1
159,31639,191,,,,2,2,0.0,0.0,1.0,0.0,,0.0-188.0,,0.0,589.0,1.0,0.7352796909999999,0.0,0.555111392,0.0,0.36003922,0.0,0.31433779999999995,False,,5f51093faa1c4e2d3b82b0a9,,2583472,191,,evan-feature22,full_pf_a,,1
160,31640,192,notice,,,,,,,,,,0.0-189.0,"{""Q0"":""no""}",,8353.0,,,,,,,,,False,,5f51093faa1c4e2d3b82b0a9,,2591826,192,Q,survey-text,full_pf_a,,1
161,31641,193,track1,,[1],,,,,,,,0.0-190.0,"{""Q0"":""no""}",,5861.0,,,,,,,,,False,,5f51093faa1c4e2d3b82b0a9,,2597691,193,Q,evan-quiz,full_pf_a,,1
162,31642,194,track2,,[2],,,,,,,,0.0-191.0,"{""Q0"":""N/A""}",,5828.0,,,,,,,,,False,,5f51093faa1c4e2d3b82b0a9,,2603523,194,Q,evan-quiz,full_pf_a,,1
163,31643,195,strat,,,,,,,,,,0.0-192.0,"{""Q0"":""Almost random""}",,19752.0,,,,,,,,,False,,5f51093faa1c4e2d3b82b0a9,,2623280,195,Q,survey-text,full_pf_a,,1
