,index,Unnamed: 0,Q_name,button_pressed,choice_idxs,chosen_pos,chosen_state,chosen_state_f_1_outcome,chosen_state_f_2_outcome,f_1_reward,f_2_reward,incor_questions,internal_node_id,responses,reward_received,rt,s_1_f_1_outcome,s_1_f_1_prob,s_1_f_2_outcome,s_1_f_2_prob,s_2_f_1_outcome,s_2_f_1_prob,s_2_f_2_outcome,s_2_f_2_prob,safe_first,stimulus,subjectID,success,time_elapsed,trial_index,trial_num,trial_type,version,view_history,switching
0,40336,30,,,,2,2,1.0,1.0,-1.0,0.0,,0.0-27.0,,-1.0,1591.07,1.0,0.6,1.0,0.6,1.0,0.4,1.0,0.4,False,,597f786b2c08900001963acc,,420621,30,,evan-feature22,full_pf_b,,0
1,40337,31,,,,2,2,0.0,0.0,-1.0,0.0,,0.0-28.0,,0.0,351.0700001,1.0,0.608053294,0.0,0.63424552,0.0,0.397152172,0.0,0.347069101,False,,597f786b2c08900001963acc,,430748,31,,evan-feature22,full_pf_b,,0
2,40338,32,,,,1,1,1.0,0.0,-1.0,0.0,,0.0-29.0,,-1.0,594.875,1.0,0.642237155,0.0,0.648566321,1.0,0.389407674,0.0,0.285525717,False,,597f786b2c08900001963acc,,441128,32,,evan-feature22,full_pf_b,,1
3,40339,33,,,,2,2,0.0,1.0,-1.0,0.0,,0.0-30.0,,0.0,382.3050002,1.0,0.661086576,1.0,0.630492543,0.0,0.399058924,1.0,0.25,False,,597f786b2c08900001963acc,,451292,33,,evan-feature22,full_pf_b,,1
4,40340,34,,,,1,1,1.0,1.0,0.0,1.0,,0.0-31.0,,1.0,596.78,1.0,0.631324137,1.0,0.6269842929999999,1.0,0.38734784299999997,0.0,0.25,False,,597f786b2c08900001963acc,,461678,34,,evan-feature22,full_pf_b,,1
5,40341,35,,,,1,1,1.0,1.0,0.0,1.0,,0.0-32.0,,1.0,881.875,1.0,0.6381991370000001,1.0,0.68987999,1.0,0.384107265,1.0,0.271332943,False,,597f786b2c08900001963acc,,472354,35,,evan-feature22,full_pf_b,,0
6,40342,36,,,,1,1,1.0,1.0,-1.0,0.0,,0.0-33.0,,-1.0,535.255,1.0,0.66034901,1.0,0.742641349,0.0,0.360225629,1.0,0.25,False,,597f786b2c08900001963acc,,482676,36,,evan-feature22,full_pf_b,,0
7,40343,37,,,,1,1,0.0,0.0,-1.0,0.0,,0.0-34.0,,0.0,317.9349999,0.0,0.638612418,0.0,0.75,1.0,0.367273939,1.0,0.25,False,,597f786b2c08900001963acc,,492764,37,,evan-feature22,full_pf_b,,0
8,40344,38,,,,1,1,1.0,0.0,0.0,1.0,,0.0-35.0,,0.0,330.695,1.0,0.624340629,0.0,0.75,0.0,0.425829545,0.0,0.25,False,,597f786b2c08900001963acc,,502872,38,,evan-feature22,full_pf_b,,0
9,40345,39,,,,2,2,1.0,0.0,0.0,1.0,,0.0-36.0,,0.0,455.8300001,1.0,0.621999804,0.0,0.75,1.0,0.368609357,0.0,0.25,False,,597f786b2c08900001963acc,,513113,39,,evan-feature22,full_pf_b,,1
10,40346,40,,,,2,2,0.0,1.0,-1.0,0.0,,0.0-37.0,,0.0,521.2749999,1.0,0.62666403,0.0,0.75,0.0,0.311151498,1.0,0.25,False,,597f786b2c08900001963acc,,523424,40,,evan-feature22,full_pf_b,,0
11,40347,41,,,,2,2,0.0,0.0,0.0,1.0,,0.0-38.0,,0.0,503.38499989999997,1.0,0.6819650009999999,1.0,0.75,0.0,0.310763048,0.0,0.25,False,,597f786b2c08900001963acc,,533706,41,,evan-feature22,full_pf_b,,0
12,40348,42,,,,1,1,1.0,0.0,-1.0,0.0,,0.0-39.0,,-1.0,1193.335,1.0,0.740626951,0.0,0.75,0.0,0.25,0.0,0.25,False,,597f786b2c08900001963acc,,544687,42,,evan-feature22,full_pf_b,,1
13,40349,43,,,,2,2,0.0,0.0,-1.0,0.0,,0.0-40.0,,0.0,388.8099999,0.0,0.739599242,1.0,0.742034978,0.0,0.25397114600000004,0.0,0.25,False,,597f786b2c08900001963acc,,554855,43,,evan-feature22,full_pf_b,,1
14,40350,44,,,,2,2,0.0,0.0,-1.0,0.0,,0.0-41.0,,0.0,512.72,1.0,0.732341315,0.0,0.72735643,0.0,0.25,0.0,0.25,False,,597f786b2c08900001963acc,,565144,44,,evan-feature22,full_pf_b,,0
15,40351,45,,,,1,1,1.0,1.0,-1.0,0.0,,0.0-42.0,,-1.0,380.6950001,1.0,0.7062287770000001,1.0,0.75,1.0,0.29002151,1.0,0.288256649,False,,597f786b2c08900001963acc,,575302,45,,evan-feature22,full_pf_b,,1
16,40352,46,,,,2,2,0.0,1.0,-1.0,0.0,,0.0-43.0,,0.0,705.45,1.0,0.7086029209999999,1.0,0.75,0.0,0.274129113,1.0,0.262851608,False,,597f786b2c08900001963acc,,585784,46,,evan-feature22,full_pf_b,,1
17,40353,47,,,,2,2,1.0,1.0,-1.0,0.0,,0.0-44.0,,-1.0,519.1299999,1.0,0.669189651,0.0,0.727614338,1.0,0.298444036,1.0,0.296944518,False,,597f786b2c08900001963acc,,596080,47,,evan-feature22,full_pf_b,,0
18,40354,48,,,,2,2,0.0,1.0,-1.0,0.0,,0.0-45.0,,0.0,228.12999989999997,1.0,0.6819912929999999,1.0,0.7179434290000001,0.0,0.265003961,1.0,0.28157921199999997,False,,597f786b2c08900001963acc,,606091,48,,evan-feature22,full_pf_b,,0
19,40355,49,,,,2,2,0.0,1.0,0.0,1.0,,0.0-46.0,,1.0,609.37,1.0,0.665275002,0.0,0.723065271,0.0,0.260414971,1.0,0.30973870000000003,False,,597f786b2c08900001963acc,,616484,49,,evan-feature22,full_pf_b,,0
20,40356,50,,,,1,1,0.0,0.0,-1.0,0.0,,0.0-47.0,,0.0,1336.275,0.0,0.6660593260000001,0.0,0.728032907,0.0,0.30922817,0.0,0.338778608,False,,597f786b2c08900001963acc,,627599,50,,evan-feature22,full_pf_b,,1
21,40357,51,,,,2,2,1.0,0.0,-1.0,0.0,,0.0-48.0,,-1.0,381.05,0.0,0.702068785,1.0,0.6528750879999999,1.0,0.287329608,0.0,0.35789613200000003,False,,597f786b2c08900001963acc,,637759,51,,evan-feature22,full_pf_b,,1
22,40358,52,,,,1,1,1.0,1.0,-1.0,0.0,,0.0-49.0,,-1.0,784.7800001,1.0,0.651939787,1.0,0.636725589,1.0,0.284834488,0.0,0.358563756,False,,597f786b2c08900001963acc,,648320,52,,evan-feature22,full_pf_b,,1
23,40359,53,,,,2,2,0.0,1.0,0.0,1.0,,0.0-50.0,,1.0,507.555,0.0,0.67573929,1.0,0.612550049,0.0,0.37130387600000003,1.0,0.383542402,False,,597f786b2c08900001963acc,,658608,53,,evan-feature22,full_pf_b,,1
24,40360,54,,,,2,2,0.0,0.0,0.0,1.0,,0.0-51.0,,0.0,675.5000001,0.0,0.620753801,0.0,0.60513644,0.0,0.385529434,0.0,0.340361743,False,,597f786b2c08900001963acc,,669059,54,,evan-feature22,full_pf_b,,0
25,40361,55,,,,2,2,0.0,0.0,0.0,1.0,,0.0-52.0,,0.0,396.775,1.0,0.673564893,1.0,0.672437924,0.0,0.292955382,0.0,0.337633795,False,,597f786b2c08900001963acc,,679236,55,,evan-feature22,full_pf_b,,0
26,40362,56,,,,1,1,0.0,1.0,-1.0,0.0,,0.0-53.0,,0.0,277.065,0.0,0.6749427,1.0,0.724197502,1.0,0.32391132100000003,1.0,0.350995264,False,,597f786b2c08900001963acc,,689303,56,,evan-feature22,full_pf_b,,1
27,40363,57,,,,2,2,0.0,1.0,-1.0,0.0,,0.0-54.0,,0.0,557.0100001000001,0.0,0.6940159379999999,0.0,0.75,0.0,0.31710554399999996,1.0,0.413450341,False,,597f786b2c08900001963acc,,699641,57,,evan-feature22,full_pf_b,,1
28,40364,58,,,,2,2,0.0,1.0,-1.0,0.0,,0.0-55.0,,0.0,570.0300001,0.0,0.6916018270000001,0.0,0.69001187,0.0,0.261817804,1.0,0.40038635,False,,597f786b2c08900001963acc,,709999,58,,evan-feature22,full_pf_b,,0
29,40365,59,,,,1,1,0.0,0.0,-1.0,0.0,,0.0-56.0,,0.0,417.3900001,0.0,0.641061544,0.0,0.71337992,0.0,0.277296461,0.0,0.47372791700000005,False,,597f786b2c08900001963acc,,720194,59,,evan-feature22,full_pf_b,,1
30,40366,60,,,,2,2,0.0,0.0,-1.0,0.0,,0.0-57.0,,0.0,1251.11,1.0,0.6082438520000001,1.0,0.708471106,0.0,0.28745137,0.0,0.564174476,False,,597f786b2c08900001963acc,,731229,60,,evan-feature22,full_pf_b,,1
31,40367,61,,,,1,1,1.0,0.0,-1.0,0.0,,0.0-58.0,,-1.0,548.555,1.0,0.6051112120000001,0.0,0.7118147229999999,0.0,0.272390611,1.0,0.5595149939999999,False,,597f786b2c08900001963acc,,741559,61,,evan-feature22,full_pf_b,,1
32,40368,62,,,,2,2,1.0,0.0,-1.0,0.0,,0.0-59.0,,-1.0,118.055,1.0,0.582420852,0.0,0.635867583,1.0,0.31089574,0.0,0.5227206520000001,False,,597f786b2c08900001963acc,,751467,62,,evan-feature22,full_pf_b,,1
33,40369,63,,,,2,2,0.0,1.0,0.0,1.0,,0.0-60.0,,1.0,301.895,1.0,0.623195575,1.0,0.655026044,0.0,0.25,1.0,0.560387538,False,,597f786b2c08900001963acc,,761550,63,,evan-feature22,full_pf_b,,0
34,40370,64,,,,2,2,0.0,1.0,-1.0,0.0,,0.0-61.0,,0.0,763.8649998999999,1.0,0.601889598,0.0,0.678198724,0.0,0.25,1.0,0.559922936,False,,597f786b2c08900001963acc,,772088,64,,evan-feature22,full_pf_b,,0
35,40371,65,,,,2,2,0.0,0.0,-1.0,0.0,,0.0-62.0,,0.0,413.595,0.0,0.601259914,1.0,0.704681482,0.0,0.33908969299999997,0.0,0.505003715,False,,597f786b2c08900001963acc,,782278,65,,evan-feature22,full_pf_b,,0
36,40372,66,,,,1,1,0.0,0.0,-1.0,0.0,,0.0-63.0,,0.0,290.64,0.0,0.59645454,0.0,0.710437172,0.0,0.327441879,1.0,0.391749613,False,,597f786b2c08900001963acc,,792346,66,,evan-feature22,full_pf_b,,1
37,40373,67,,,,2,2,0.0,0.0,-1.0,0.0,,0.0-64.0,,0.0,327.5349999,1.0,0.529473,0.0,0.636758527,0.0,0.301338063,0.0,0.365661481,False,,597f786b2c08900001963acc,,802447,67,,evan-feature22,full_pf_b,,1
38,40374,68,,,,1,1,0.0,1.0,0.0,1.0,,0.0-65.0,,1.0,308.34,0.0,0.541657162,1.0,0.634541962,0.0,0.343535366,1.0,0.371763742,False,,597f786b2c08900001963acc,,812540,68,,evan-feature22,full_pf_b,,1
39,40375,69,,,,2,2,0.0,0.0,-1.0,0.0,,0.0-66.0,,0.0,903.4,1.0,0.5707533260000001,0.0,0.589121171,0.0,0.326428396,0.0,0.43961622899999997,False,,597f786b2c08900001963acc,,823234,69,,evan-feature22,full_pf_b,,1
40,40376,70,,,,1,1,0.0,1.0,-1.0,0.0,,0.0-67.0,,0.0,303.725,0.0,0.5707533260000001,1.0,0.589121171,0.0,0.326428396,1.0,0.43961622899999997,False,,597f786b2c08900001963acc,,833324,70,,evan-feature22,full_pf_b,,1
41,40377,71,,,,2,2,0.0,1.0,-1.0,0.0,,0.0-68.0,,0.0,345.1949998,1.0,0.506271295,0.0,0.641775594,0.0,0.37149690700000004,1.0,0.404330166,False,,597f786b2c08900001963acc,,843453,71,,evan-feature22,full_pf_b,,1
42,40378,72,,,,1,1,1.0,1.0,0.0,1.0,,0.0-69.0,,1.0,458.9149999,1.0,0.455642565,1.0,0.623605825,1.0,0.358753011,0.0,0.346174041,False,,597f786b2c08900001963acc,,853697,72,,evan-feature22,full_pf_b,,1
43,40379,73,,,,2,2,0.0,0.0,0.0,1.0,,0.0-70.0,,0.0,417.1249999,0.0,0.483677308,1.0,0.5904681070000001,0.0,0.402218411,0.0,0.35344697,False,,597f786b2c08900001963acc,,863895,73,,evan-feature22,full_pf_b,,1
44,40380,74,,,,1,1,1.0,1.0,0.0,1.0,,0.0-71.0,,1.0,311.035,1.0,0.394210977,1.0,0.558925494,0.0,0.540052017,1.0,0.35182128700000004,False,,597f786b2c08900001963acc,,873997,74,,evan-feature22,full_pf_b,,1
45,40381,75,,,,2,2,0.0,1.0,-1.0,0.0,,0.0-72.0,,0.0,439.9649999,1.0,0.382300414,0.0,0.577670603,0.0,0.607608448,1.0,0.378261578,False,,597f786b2c08900001963acc,,884229,75,,evan-feature22,full_pf_b,,1
46,40382,76,,,,1,1,1.0,1.0,-1.0,0.0,,0.0-73.0,,-1.0,1665.63,1.0,0.357596762,1.0,0.5929076529999999,1.0,0.6579790010000001,0.0,0.401326777,False,,597f786b2c08900001963acc,,895682,76,,evan-feature22,full_pf_b,,1
47,40383,77,,,,2,2,0.0,1.0,-1.0,0.0,,0.0-74.0,,0.0,748.3099999,1.0,0.362033495,1.0,0.582308608,0.0,0.649195052,1.0,0.355158505,False,,597f786b2c08900001963acc,,906217,77,,evan-feature22,full_pf_b,,1
48,40384,78,,,,2,2,1.0,1.0,-1.0,0.0,,0.0-75.0,,-1.0,385.5349999,1.0,0.369620635,1.0,0.669100864,1.0,0.706059111,1.0,0.362516241,False,,597f786b2c08900001963acc,,916398,78,,evan-feature22,full_pf_b,,0
49,40385,79,,,,2,2,1.0,0.0,-1.0,0.0,,0.0-76.0,,-1.0,595.0449997999999,0.0,0.41477751399999996,0.0,0.7284416779999999,1.0,0.7182656940000001,0.0,0.36228040899999997,False,,597f786b2c08900001963acc,,926777,79,,evan-feature22,full_pf_b,,0
50,40386,80,,,,2,2,0.0,1.0,0.0,1.0,,0.0-77.0,,1.0,492.0949999,1.0,0.37675460299999997,1.0,0.703250285,0.0,0.75,1.0,0.461979164,False,,597f786b2c08900001963acc,,937052,80,,evan-feature22,full_pf_b,,0
51,40387,81,,,,2,2,0.0,0.0,0.0,1.0,,0.0-78.0,,0.0,335.81999989999997,1.0,0.398716075,0.0,0.6723864890000001,0.0,0.674153818,0.0,0.519029516,False,,597f786b2c08900001963acc,,947168,81,,evan-feature22,full_pf_b,,0
52,40388,82,,,,2,2,1.0,0.0,-1.0,0.0,,0.0-79.0,,-1.0,343.165,0.0,0.34677856700000004,1.0,0.69057175,1.0,0.6822438540000001,0.0,0.477292237,False,,597f786b2c08900001963acc,,957303,82,,evan-feature22,full_pf_b,,0
53,40389,83,,,,2,2,1.0,1.0,0.0,1.0,,0.0-80.0,,1.0,401.4649999,1.0,0.28580469199999997,0.0,0.68408818,1.0,0.684207565,1.0,0.49780448299999996,False,,597f786b2c08900001963acc,,967495,83,,evan-feature22,full_pf_b,,0
54,40391,85,,,,2,2,1.0,0.0,-1.0,0.0,,0.0-82.0,,-1.0,578.895,1.0,0.25,1.0,0.7405808970000001,1.0,0.679614108,0.0,0.436436964,False,,597f786b2c08900001963acc,,980072,85,,evan-feature22,full_pf_b,,0
55,40392,86,,,,2,2,1.0,0.0,0.0,1.0,,0.0-83.0,,0.0,384.91499980000003,0.0,0.29890393,0.0,0.730505706,1.0,0.7328203320000001,0.0,0.439256938,False,,597f786b2c08900001963acc,,990240,86,,evan-feature22,full_pf_b,,0
56,40393,87,,,,2,2,1.0,0.0,-1.0,0.0,,0.0-84.0,,-1.0,295.9650001,0.0,0.326762398,1.0,0.7148059609999999,1.0,0.75,0.0,0.44389608799999997,False,,597f786b2c08900001963acc,,1000319,87,,evan-feature22,full_pf_b,,0
57,40394,88,,,,2,2,1.0,0.0,-1.0,0.0,,0.0-85.0,,-1.0,401.0000001,0.0,0.295168515,0.0,0.739760854,1.0,0.719947008,0.0,0.35277284600000003,False,,597f786b2c08900001963acc,,1010500,88,,evan-feature22,full_pf_b,,0
58,40395,89,,,,2,2,1.0,1.0,-1.0,0.0,,0.0-86.0,,-1.0,1266.25,0.0,0.25,1.0,0.70781482,1.0,0.75,1.0,0.286095925,False,,597f786b2c08900001963acc,,1021541,89,,evan-feature22,full_pf_b,,0
59,40396,90,,,,2,2,0.0,0.0,0.0,1.0,,0.0-87.0,,0.0,684.6449999,0.0,0.25638190899999996,0.0,0.704088163,0.0,0.75,0.0,0.26872601399999996,False,,597f786b2c08900001963acc,,1032001,90,,evan-feature22,full_pf_b,,0
60,40397,91,,,,2,2,1.0,0.0,0.0,1.0,,0.0-88.0,,0.0,478.17499979999997,0.0,0.271581126,1.0,0.669760107,1.0,0.733896663,0.0,0.273244572,False,,597f786b2c08900001963acc,,1042255,91,,evan-feature22,full_pf_b,,0
61,40398,92,,,,2,2,1.0,0.0,0.0,1.0,,0.0-89.0,,0.0,377.82999989999996,0.0,0.257144401,0.0,0.600575706,1.0,0.74488122,0.0,0.25,False,,597f786b2c08900001963acc,,1052414,92,,evan-feature22,full_pf_b,,0
62,40399,93,,,,2,2,1.0,0.0,-1.0,0.0,,0.0-90.0,,-1.0,411.36500010000003,0.0,0.25,0.0,0.616870026,1.0,0.723610234,0.0,0.25,False,,597f786b2c08900001963acc,,1062607,93,,evan-feature22,full_pf_b,,0
63,40400,94,,,,2,2,1.0,1.0,0.0,1.0,,0.0-91.0,,1.0,428.05,1.0,0.25,1.0,0.583540187,1.0,0.7041042559999999,1.0,0.285961995,False,,597f786b2c08900001963acc,,1072813,94,,evan-feature22,full_pf_b,,0
64,40401,95,,,,2,2,1.0,0.0,-1.0,0.0,,0.0-92.0,,-1.0,584.335,0.0,0.27254536,0.0,0.53875765,1.0,0.693783448,0.0,0.284961652,False,,597f786b2c08900001963acc,,1083176,95,,evan-feature22,full_pf_b,,0
65,40402,96,,,,2,2,0.0,0.0,0.0,1.0,,0.0-93.0,,0.0,369.735,1.0,0.25,1.0,0.548431252,0.0,0.734221895,0.0,0.279445214,False,,597f786b2c08900001963acc,,1093322,96,,evan-feature22,full_pf_b,,0
66,40403,97,,,,2,2,1.0,1.0,-1.0,0.0,,0.0-94.0,,-1.0,392.92500010000003,1.0,0.258640684,1.0,0.545878066,1.0,0.725245965,1.0,0.31487537,False,,597f786b2c08900001963acc,,1103498,97,,evan-feature22,full_pf_b,,0
67,40404,98,,,,2,2,1.0,0.0,-1.0,0.0,,0.0-95.0,,-1.0,579.0700002,0.0,0.251103711,1.0,0.5776290629999999,1.0,0.696320133,0.0,0.317831047,False,,597f786b2c08900001963acc,,1113871,98,,evan-feature22,full_pf_b,,0
68,40405,99,,,,2,2,1.0,1.0,-1.0,0.0,,0.0-96.0,,-1.0,2139.23,1.0,0.276630292,1.0,0.617329858,1.0,0.73838088,1.0,0.261471582,False,,597f786b2c08900001963acc,,1125794,99,,evan-feature22,full_pf_b,,0
69,40406,100,,,,2,2,1.0,0.0,0.0,1.0,,0.0-97.0,,0.0,332.37,0.0,0.297716424,1.0,0.618863717,1.0,0.7402358259999999,0.0,0.262600834,False,,597f786b2c08900001963acc,,1135907,100,,evan-feature22,full_pf_b,,0
70,40407,101,,,,2,2,1.0,0.0,-1.0,0.0,,0.0-98.0,,-1.0,342.04,1.0,0.290935512,1.0,0.695370945,1.0,0.706570507,0.0,0.280030553,False,,597f786b2c08900001963acc,,1146027,101,,evan-feature22,full_pf_b,,0
71,40408,102,,,,2,2,0.0,0.0,-1.0,0.0,,0.0-99.0,,0.0,446.7,1.0,0.25,1.0,0.6465277079999999,0.0,0.67766682,0.0,0.25,False,,597f786b2c08900001963acc,,1156258,102,,evan-feature22,full_pf_b,,0
72,40409,103,,,,2,2,0.0,0.0,-1.0,0.0,,0.0-100.0,,0.0,339.1200001,0.0,0.26463816,1.0,0.636100213,0.0,0.646048507,0.0,0.265607101,False,,597f786b2c08900001963acc,,1166373,103,,evan-feature22,full_pf_b,,0
73,40410,104,,,,2,2,0.0,0.0,-1.0,0.0,,0.0-101.0,,0.0,426.62,0.0,0.314340707,1.0,0.667795927,0.0,0.613630805,0.0,0.25,False,,597f786b2c08900001963acc,,1176570,104,,evan-feature22,full_pf_b,,0
74,40411,105,,,,2,2,0.0,1.0,-1.0,0.0,,0.0-102.0,,0.0,591.4,1.0,0.28685784,1.0,0.6622549529999999,0.0,0.652154117,1.0,0.25,False,,597f786b2c08900001963acc,,1186942,105,,evan-feature22,full_pf_b,,0
75,40412,106,,,,2,2,0.0,0.0,0.0,1.0,,0.0-103.0,,0.0,401.85,0.0,0.304106554,0.0,0.631289538,0.0,0.707041942,0.0,0.29314237,False,,597f786b2c08900001963acc,,1197120,106,,evan-feature22,full_pf_b,,0
76,40413,107,,,,2,2,1.0,0.0,0.0,1.0,,0.0-104.0,,0.0,708.0349999,0.0,0.304806932,1.0,0.571167718,1.0,0.680472346,0.0,0.25,False,,597f786b2c08900001963acc,,1207608,107,,evan-feature22,full_pf_b,,0
77,40414,108,,,,2,2,1.0,0.0,0.0,1.0,,0.0-105.0,,0.0,328.7750001,1.0,0.37919861,0.0,0.5724849710000001,1.0,0.705638003,0.0,0.30179300600000003,False,,597f786b2c08900001963acc,,1217726,108,,evan-feature22,full_pf_b,,0
78,40415,109,,,,2,2,1.0,0.0,0.0,1.0,,0.0-106.0,,0.0,297.4700001,0.0,0.464277969,1.0,0.554034373,1.0,0.7372627340000001,0.0,0.264699741,False,,597f786b2c08900001963acc,,1227809,109,,evan-feature22,full_pf_b,,0
79,40416,110,,,,2,2,0.0,0.0,-1.0,0.0,,0.0-107.0,,0.0,338.8,0.0,0.465104323,0.0,0.530793115,0.0,0.75,0.0,0.31683071,False,,597f786b2c08900001963acc,,1237918,110,,evan-feature22,full_pf_b,,0
80,40417,111,,,,2,2,1.0,0.0,0.0,1.0,,0.0-108.0,,0.0,378.94,1.0,0.465104323,1.0,0.530793115,1.0,0.75,0.0,0.31683071,False,,597f786b2c08900001963acc,,1248079,111,,evan-feature22,full_pf_b,,0
81,40418,112,,,,2,2,1.0,0.0,0.0,1.0,,0.0-109.0,,0.0,310.54,1.0,0.46833986,0.0,0.570249239,1.0,0.7244472590000001,0.0,0.364114163,False,,597f786b2c08900001963acc,,1258182,112,,evan-feature22,full_pf_b,,0
82,40419,113,,,,2,2,1.0,1.0,0.0,1.0,,0.0-110.0,,1.0,282.1550001,0.0,0.445444024,1.0,0.649673355,1.0,0.6845441290000001,1.0,0.300660449,False,,597f786b2c08900001963acc,,1268240,113,,evan-feature22,full_pf_b,,0
83,40420,114,,,,2,2,1.0,1.0,0.0,1.0,,0.0-111.0,,1.0,462.61,1.0,0.39909721299999995,0.0,0.6715179509999999,1.0,0.742310028,1.0,0.35496088299999995,False,,597f786b2c08900001963acc,,1278489,114,,evan-feature22,full_pf_b,,0
84,40421,115,,,,2,2,1.0,0.0,0.0,1.0,,0.0-112.0,,0.0,417.30500010000003,1.0,0.37956104799999996,1.0,0.694725302,1.0,0.7181651309999999,0.0,0.38726906299999997,False,,597f786b2c08900001963acc,,1288697,115,,evan-feature22,full_pf_b,,0
85,40422,116,,,,2,2,1.0,0.0,0.0,1.0,,0.0-113.0,,0.0,312.0649999,1.0,0.404995034,1.0,0.724375412,1.0,0.6910946859999999,0.0,0.387187347,False,,597f786b2c08900001963acc,,1298788,116,,evan-feature22,full_pf_b,,0
86,40423,117,,,,2,2,1.0,0.0,0.0,1.0,,0.0-114.0,,0.0,348.6599999,1.0,0.461740803,1.0,0.75,1.0,0.75,0.0,0.34872038200000005,False,,597f786b2c08900001963acc,,1308937,117,,evan-feature22,full_pf_b,,0
87,40424,118,,,,2,2,0.0,1.0,-1.0,0.0,,0.0-115.0,,0.0,330.91,1.0,0.43821380600000004,1.0,0.738833273,0.0,0.728286963,1.0,0.399538128,False,,597f786b2c08900001963acc,,1319055,118,,evan-feature22,full_pf_b,,0
88,40425,119,,,,2,2,1.0,0.0,0.0,1.0,,0.0-116.0,,0.0,1116.46,1.0,0.41709882,1.0,0.736666736,1.0,0.75,0.0,0.389095584,False,,597f786b2c08900001963acc,,1329955,119,,evan-feature22,full_pf_b,,0
89,40426,120,,,,2,2,0.0,1.0,0.0,1.0,,0.0-117.0,,1.0,1033.73,0.0,0.39749009799999996,1.0,0.744320029,0.0,0.75,1.0,0.363848678,False,,597f786b2c08900001963acc,,1340776,120,,evan-feature22,full_pf_b,,0
90,40427,121,,,,2,2,1.0,1.0,-1.0,0.0,,0.0-118.0,,-1.0,361.8300001,1.0,0.392653706,1.0,0.75,1.0,0.75,1.0,0.384386976,False,,597f786b2c08900001963acc,,1350927,121,,evan-feature22,full_pf_b,,0
91,40428,122,,,,2,2,0.0,0.0,-1.0,0.0,,0.0-119.0,,0.0,378.205,0.0,0.31190902600000003,1.0,0.75,0.0,0.732413819,0.0,0.413082932,False,,597f786b2c08900001963acc,,1361086,122,,evan-feature22,full_pf_b,,0
92,40429,123,,,,2,2,0.0,0.0,0.0,1.0,,0.0-120.0,,0.0,306.23,1.0,0.366917648,1.0,0.740073855,0.0,0.75,0.0,0.352861979,False,,597f786b2c08900001963acc,,1371171,123,,evan-feature22,full_pf_b,,0
93,40430,124,,,,2,2,1.0,1.0,0.0,1.0,,0.0-121.0,,1.0,374.7349998,1.0,0.3645172,0.0,0.721770713,1.0,0.75,1.0,0.404074511,False,,597f786b2c08900001963acc,,1381327,124,,evan-feature22,full_pf_b,,0
94,40431,125,,,,2,2,1.0,0.0,0.0,1.0,,0.0-122.0,,0.0,392.2299999,0.0,0.35205600299999995,1.0,0.68983859,1.0,0.739735447,0.0,0.366895945,False,,597f786b2c08900001963acc,,1391504,125,,evan-feature22,full_pf_b,,0
95,40432,126,,,,2,2,1.0,0.0,0.0,1.0,,0.0-123.0,,0.0,276.545,0.0,0.40998722600000004,1.0,0.720859127,1.0,0.673854955,0.0,0.368528541,False,,597f786b2c08900001963acc,,1401570,126,,evan-feature22,full_pf_b,,0
96,40433,127,,,,2,2,1.0,0.0,-1.0,0.0,,0.0-124.0,,-1.0,360.935,1.0,0.353625316,0.0,0.75,1.0,0.695605473,0.0,0.38303674200000004,False,,597f786b2c08900001963acc,,1411705,127,,evan-feature22,full_pf_b,,0
97,40434,128,,,,2,2,1.0,0.0,0.0,1.0,,0.0-125.0,,0.0,332.7949999,0.0,0.359216989,1.0,0.75,1.0,0.6987915090000001,0.0,0.35169046200000004,False,,597f786b2c08900001963acc,,1421818,128,,evan-feature22,full_pf_b,,0
98,40435,129,,,,2,2,0.0,1.0,-1.0,0.0,,0.0-126.0,,0.0,495.2700001,0.0,0.35834496899999996,1.0,0.75,0.0,0.707067742,1.0,0.416763636,False,,597f786b2c08900001963acc,,1432092,129,,evan-feature22,full_pf_b,,0
99,40436,130,,,,2,2,1.0,1.0,-1.0,0.0,,0.0-127.0,,-1.0,330.07499989999997,1.0,0.38741613799999997,1.0,0.7177369570000001,1.0,0.734902455,1.0,0.49438664299999996,False,,597f786b2c08900001963acc,,1442204,130,,evan-feature22,full_pf_b,,0
100,40437,131,,,,2,2,1.0,1.0,0.0,1.0,,0.0-128.0,,1.0,370.5200001,1.0,0.405255252,0.0,0.7300466640000001,1.0,0.7027748070000001,1.0,0.504359668,False,,597f786b2c08900001963acc,,1452356,131,,evan-feature22,full_pf_b,,0
101,40438,132,,,,2,2,1.0,1.0,0.0,1.0,,0.0-129.0,,1.0,538.5749999,0.0,0.40697073,1.0,0.7260142190000001,1.0,0.724461982,1.0,0.522779179,False,,597f786b2c08900001963acc,,1462681,132,,evan-feature22,full_pf_b,,0
102,40439,133,,,,2,2,1.0,1.0,0.0,1.0,,0.0-130.0,,1.0,329.6350001,0.0,0.43906215299999996,1.0,0.7252802340000001,1.0,0.719079934,1.0,0.5712990579999999,False,,597f786b2c08900001963acc,,1472792,133,,evan-feature22,full_pf_b,,0
103,40440,134,,,,2,2,1.0,0.0,0.0,1.0,,0.0-131.0,,0.0,296.85,0.0,0.4076705,0.0,0.73280499,1.0,0.681313127,0.0,0.523891346,False,,597f786b2c08900001963acc,,1482869,134,,evan-feature22,full_pf_b,,0
104,40441,135,,,,2,2,0.0,0.0,0.0,1.0,,0.0-132.0,,0.0,321.7450001,0.0,0.399102911,1.0,0.730498344,0.0,0.661080239,0.0,0.46742603,False,,597f786b2c08900001963acc,,1492970,135,,evan-feature22,full_pf_b,,0
105,40442,136,,,,2,2,1.0,0.0,-1.0,0.0,,0.0-133.0,,-1.0,460.60500010000004,0.0,0.356477282,1.0,0.712296395,1.0,0.641812684,0.0,0.44868414,False,,597f786b2c08900001963acc,,1503215,136,,evan-feature22,full_pf_b,,0
106,40443,137,,,,2,2,1.0,0.0,0.0,1.0,,0.0-134.0,,0.0,309.88499989999997,1.0,0.462760722,1.0,0.692349322,1.0,0.700947931,0.0,0.394680266,False,,597f786b2c08900001963acc,,1513308,137,,evan-feature22,full_pf_b,,0
107,40444,138,,,,2,2,1.0,0.0,0.0,1.0,,0.0-135.0,,0.0,304.67,1.0,0.422306413,0.0,0.718375916,1.0,0.706340917,0.0,0.367787185,False,,597f786b2c08900001963acc,,1523403,138,,evan-feature22,full_pf_b,,0
108,40446,140,,,,2,2,1.0,0.0,0.0,1.0,,0.0-137.0,,0.0,1339.65,1.0,0.4582233,1.0,0.643834117,1.0,0.75,0.0,0.39615823299999997,False,,597f786b2c08900001963acc,,1537094,140,,evan-feature22,full_pf_b,,0
109,40447,141,,,,2,2,0.0,1.0,0.0,1.0,,0.0-138.0,,1.0,434.92000010000004,1.0,0.43813437899999996,0.0,0.651283804,0.0,0.729674191,1.0,0.37711048,False,,597f786b2c08900001963acc,,1547312,141,,evan-feature22,full_pf_b,,0
110,40448,142,,,,2,2,1.0,1.0,0.0,1.0,,0.0-139.0,,1.0,306.38,1.0,0.471199094,1.0,0.6470010979999999,1.0,0.715008097,1.0,0.410656191,False,,597f786b2c08900001963acc,,1557406,142,,evan-feature22,full_pf_b,,0
111,40449,143,,,,2,2,0.0,0.0,-1.0,0.0,,0.0-140.0,,0.0,343.0900001,0.0,0.42486406,1.0,0.629771829,0.0,0.6550939960000001,0.0,0.459093873,False,,597f786b2c08900001963acc,,1567534,143,,evan-feature22,full_pf_b,,0
112,40450,144,,,,2,2,1.0,0.0,-1.0,0.0,,0.0-141.0,,-1.0,405.1649999,0.0,0.4803197,1.0,0.645842715,1.0,0.6421749920000001,0.0,0.443092151,False,,597f786b2c08900001963acc,,1577725,144,,evan-feature22,full_pf_b,,0
113,40451,145,,,,2,2,1.0,0.0,-1.0,0.0,,0.0-142.0,,-1.0,509.45499979999994,1.0,0.521848997,1.0,0.735801074,1.0,0.6691348460000001,0.0,0.45259351600000003,False,,597f786b2c08900001963acc,,1588018,145,,evan-feature22,full_pf_b,,0
114,40452,146,,,,2,2,1.0,0.0,0.0,1.0,,0.0-143.0,,0.0,406.28,0.0,0.49565621299999996,0.0,0.742400847,1.0,0.661512553,0.0,0.483110831,False,,597f786b2c08900001963acc,,1598214,146,,evan-feature22,full_pf_b,,0
115,40453,147,,,,2,2,0.0,0.0,-1.0,0.0,,0.0-144.0,,0.0,383.0300001,1.0,0.521564361,0.0,0.731078632,0.0,0.6774886809999999,0.0,0.483263956,False,,597f786b2c08900001963acc,,1608374,147,,evan-feature22,full_pf_b,,0
116,40454,148,,,,2,2,1.0,0.0,-1.0,0.0,,0.0-145.0,,-1.0,407.345,0.0,0.558893102,1.0,0.719810023,1.0,0.67461031,0.0,0.499349834,False,,597f786b2c08900001963acc,,1618567,148,,evan-feature22,full_pf_b,,0
117,40455,149,,,,2,2,0.0,0.0,0.0,1.0,,0.0-146.0,,0.0,330.94,1.0,0.611031046,1.0,0.75,0.0,0.688072995,0.0,0.5321422729999999,False,,597f786b2c08900001963acc,,1628684,149,,evan-feature22,full_pf_b,,0
118,40456,150,,,,2,2,1.0,1.0,-1.0,0.0,,0.0-147.0,,-1.0,375.425,0.0,0.633223941,1.0,0.713567728,1.0,0.75,1.0,0.48185314700000004,False,,597f786b2c08900001963acc,,1638844,150,,evan-feature22,full_pf_b,,0
119,40457,151,,,,2,2,1.0,0.0,-1.0,0.0,,0.0-148.0,,-1.0,304.24,0.0,0.664001694,1.0,0.705509768,1.0,0.75,0.0,0.500211065,False,,597f786b2c08900001963acc,,1648929,151,,evan-feature22,full_pf_b,,0
120,40458,152,,,,2,2,1.0,1.0,0.0,1.0,,0.0-149.0,,1.0,338.8099999,1.0,0.664001694,0.0,0.705509768,1.0,0.75,1.0,0.500211065,False,,597f786b2c08900001963acc,,1659056,152,,evan-feature22,full_pf_b,,0
121,40459,153,,,,2,2,1.0,1.0,0.0,1.0,,0.0-150.0,,1.0,548.1999998,0.0,0.696508041,0.0,0.71066027,1.0,0.717028709,1.0,0.49792991,False,,597f786b2c08900001963acc,,1669390,153,,evan-feature22,full_pf_b,,0
122,40460,154,,,,2,2,1.0,0.0,-1.0,0.0,,0.0-151.0,,-1.0,382.01999989999996,1.0,0.699883272,0.0,0.75,1.0,0.713543895,0.0,0.496962643,False,,597f786b2c08900001963acc,,1679552,154,,evan-feature22,full_pf_b,,0
123,40461,155,,,,2,2,0.0,0.0,0.0,1.0,,0.0-152.0,,0.0,361.7049998,0.0,0.741163419,0.0,0.75,0.0,0.64691024,0.0,0.513858197,False,,597f786b2c08900001963acc,,1689694,155,,evan-feature22,full_pf_b,,0
124,40462,156,,,,2,2,1.0,0.0,-1.0,0.0,,0.0-153.0,,-1.0,416.4400001,1.0,0.75,1.0,0.70816558,1.0,0.594499079,0.0,0.48502124,False,,597f786b2c08900001963acc,,1699898,156,,evan-feature22,full_pf_b,,0
125,40463,157,,,,2,2,1.0,1.0,0.0,1.0,,0.0-154.0,,1.0,331.34,1.0,0.75,1.0,0.721848901,1.0,0.62197249,1.0,0.48263586399999997,False,,597f786b2c08900001963acc,,1710023,157,,evan-feature22,full_pf_b,,0
126,40464,158,,,,2,2,0.0,0.0,-1.0,0.0,,0.0-155.0,,0.0,296.6450001,0.0,0.75,1.0,0.74813071,0.0,0.584357161,0.0,0.411477782,False,,597f786b2c08900001963acc,,1720097,158,,evan-feature22,full_pf_b,,0
127,40465,159,,,,2,2,0.0,0.0,0.0,1.0,,0.0-156.0,,0.0,394.0549998,0.0,0.75,1.0,0.75,0.0,0.52287236,0.0,0.488290656,False,,597f786b2c08900001963acc,,1730262,159,,evan-feature22,full_pf_b,,0
128,40466,160,,,,2,2,1.0,1.0,0.0,1.0,,0.0-157.0,,1.0,277.305,1.0,0.75,1.0,0.75,1.0,0.544321581,1.0,0.53143059,False,,597f786b2c08900001963acc,,1740320,160,,evan-feature22,full_pf_b,,0
129,40467,161,,,,2,2,1.0,0.0,0.0,1.0,,0.0-158.0,,0.0,564.0949998,1.0,0.726754564,1.0,0.75,1.0,0.5129306370000001,0.0,0.530592445,False,,597f786b2c08900001963acc,,1750674,161,,evan-feature22,full_pf_b,,0
130,40468,162,,,,2,2,0.0,1.0,-1.0,0.0,,0.0-159.0,,0.0,359.8,1.0,0.75,0.0,0.7392590729999999,0.0,0.479875835,1.0,0.547007051,False,,597f786b2c08900001963acc,,1760817,162,,evan-feature22,full_pf_b,,0
131,40469,163,,,,2,2,1.0,1.0,-1.0,0.0,,0.0-160.0,,-1.0,329.94499989999997,1.0,0.75,0.0,0.7393376979999999,1.0,0.546045419,1.0,0.541267353,False,,597f786b2c08900001963acc,,1770942,163,,evan-feature22,full_pf_b,,0
132,40470,164,,,,2,2,1.0,1.0,-1.0,0.0,,0.0-161.0,,-1.0,364.7449999,1.0,0.75,0.0,0.75,1.0,0.485725895,1.0,0.527625395,False,,597f786b2c08900001963acc,,1781095,164,,evan-feature22,full_pf_b,,0
133,40471,165,,,,2,2,1.0,0.0,0.0,1.0,,0.0-162.0,,0.0,304.5300001,0.0,0.75,1.0,0.725087974,1.0,0.488603595,0.0,0.504019206,False,,597f786b2c08900001963acc,,1791192,165,,evan-feature22,full_pf_b,,0
134,40472,166,,,,2,2,1.0,1.0,0.0,1.0,,0.0-163.0,,1.0,379.9749999,1.0,0.745504295,0.0,0.75,1.0,0.452379914,1.0,0.50131194,False,,597f786b2c08900001963acc,,1801357,166,,evan-feature22,full_pf_b,,0
135,40473,167,,,,2,2,0.0,1.0,0.0,1.0,,0.0-164.0,,1.0,307.185,1.0,0.728513874,1.0,0.75,0.0,0.44125567200000004,1.0,0.531454591,False,,597f786b2c08900001963acc,,1811447,167,,evan-feature22,full_pf_b,,0
136,40474,168,,,,2,2,1.0,1.0,-1.0,0.0,,0.0-165.0,,-1.0,493.1450002,1.0,0.73790804,1.0,0.75,1.0,0.413036656,1.0,0.524619035,False,,597f786b2c08900001963acc,,1821729,168,,evan-feature22,full_pf_b,,0
137,40475,169,,,,2,2,0.0,0.0,0.0,1.0,,0.0-166.0,,0.0,446.705,0.0,0.7080961309999999,1.0,0.708666865,0.0,0.431915581,0.0,0.481819489,False,,597f786b2c08900001963acc,,1831955,169,,evan-feature22,full_pf_b,,0
138,40476,170,,,,2,2,0.0,1.0,0.0,1.0,,0.0-167.0,,1.0,376.1849999,0.0,0.721378003,1.0,0.71605913,0.0,0.36642387,1.0,0.5036739929999999,False,,597f786b2c08900001963acc,,1842116,170,,evan-feature22,full_pf_b,,0
139,40477,171,,,,2,2,0.0,0.0,0.0,1.0,,0.0-168.0,,0.0,450.6250001,1.0,0.7340618959999999,1.0,0.699323252,0.0,0.35298046299999997,0.0,0.511241692,False,,597f786b2c08900001963acc,,1852348,171,,evan-feature22,full_pf_b,,0
140,40478,172,,,,2,2,1.0,0.0,-1.0,0.0,,0.0-169.0,,-1.0,493.6849999,1.0,0.75,1.0,0.70412698,1.0,0.380734814,0.0,0.529580116,False,,597f786b2c08900001963acc,,1862628,172,,evan-feature22,full_pf_b,,0
141,40479,173,,,,2,2,0.0,1.0,0.0,1.0,,0.0-170.0,,1.0,360.8199998,1.0,0.7436654909999999,0.0,0.711182751,0.0,0.41125331,1.0,0.49554405,False,,597f786b2c08900001963acc,,1872778,173,,evan-feature22,full_pf_b,,0
142,40480,174,,,,2,2,1.0,0.0,0.0,1.0,,0.0-171.0,,0.0,311.9949999,0.0,0.731607915,0.0,0.651774583,1.0,0.35688023,0.0,0.45194491600000003,False,,597f786b2c08900001963acc,,1882874,174,,evan-feature22,full_pf_b,,0
143,40481,175,,,,2,2,0.0,1.0,-1.0,0.0,,0.0-172.0,,0.0,564.2199998,1.0,0.75,1.0,0.75,0.0,0.283145374,1.0,0.528608005,False,,597f786b2c08900001963acc,,1893224,175,,evan-feature22,full_pf_b,,0
144,40482,176,,,,2,2,0.0,1.0,-1.0,0.0,,0.0-173.0,,0.0,382.86,1.0,0.7491416890000001,0.0,0.7423785959999999,0.0,0.29135870399999997,1.0,0.498888318,False,,597f786b2c08900001963acc,,1903395,176,,evan-feature22,full_pf_b,,0
145,40483,177,,,,2,2,0.0,0.0,-1.0,0.0,,0.0-174.0,,0.0,1079.68,1.0,0.708569387,1.0,0.717682277,0.0,0.294421699,0.0,0.493838163,False,,597f786b2c08900001963acc,,1914252,177,,evan-feature22,full_pf_b,,0
146,40484,178,,,,2,2,0.0,0.0,0.0,1.0,,0.0-175.0,,0.0,319.29,1.0,0.75,1.0,0.7383382159999999,0.0,0.356098707,0.0,0.442533405,False,,597f786b2c08900001963acc,,1924353,178,,evan-feature22,full_pf_b,,0
147,40485,179,,,,2,2,1.0,1.0,0.0,1.0,,0.0-176.0,,1.0,464.48000010000004,1.0,0.744527075,1.0,0.75,1.0,0.334127506,1.0,0.393165805,False,,597f786b2c08900001963acc,,1934599,179,,evan-feature22,full_pf_b,,0
148,40486,180,,,,2,2,0.0,1.0,0.0,1.0,,0.0-177.0,,1.0,397.935,1.0,0.75,1.0,0.75,0.0,0.33571021799999995,1.0,0.350393962,False,,597f786b2c08900001963acc,,1944784,180,,evan-feature22,full_pf_b,,0
149,40487,181,,,,2,2,1.0,1.0,0.0,1.0,,0.0-178.0,,1.0,570.265,1.0,0.75,0.0,0.75,1.0,0.313628297,1.0,0.36349657399999996,False,,597f786b2c08900001963acc,,1955137,181,,evan-feature22,full_pf_b,,0
150,40488,182,,,,2,2,0.0,1.0,-1.0,0.0,,0.0-179.0,,0.0,379.8749999,1.0,0.75,1.0,0.734284182,0.0,0.262667667,1.0,0.380199119,False,,597f786b2c08900001963acc,,1965302,182,,evan-feature22,full_pf_b,,0
151,40489,183,,,,2,2,0.0,0.0,0.0,1.0,,0.0-180.0,,0.0,385.6599999,1.0,0.75,0.0,0.75,0.0,0.25,0.0,0.394494013,False,,597f786b2c08900001963acc,,1975475,183,,evan-feature22,full_pf_b,,0
152,40490,184,,,,2,2,0.0,0.0,-1.0,0.0,,0.0-181.0,,0.0,383.345,1.0,0.722298145,0.0,0.7357822340000001,0.0,0.25,0.0,0.319142121,False,,597f786b2c08900001963acc,,1985642,184,,evan-feature22,full_pf_b,,0
153,40491,185,,,,2,2,0.0,0.0,-1.0,0.0,,0.0-182.0,,0.0,517.6949999,1.0,0.73149275,0.0,0.724276446,0.0,0.305856907,0.0,0.281315057,False,,597f786b2c08900001963acc,,1995941,185,,evan-feature22,full_pf_b,,0
154,40492,186,,,,2,2,1.0,0.0,0.0,1.0,,0.0-183.0,,0.0,385.74000010000003,1.0,0.7458732690000001,1.0,0.7336382459999999,1.0,0.272571964,0.0,0.266021999,False,,597f786b2c08900001963acc,,2006112,186,,evan-feature22,full_pf_b,,0
155,40493,187,,,,2,2,0.0,1.0,0.0,1.0,,0.0-184.0,,1.0,352.32999989999996,1.0,0.705579037,1.0,0.720778292,0.0,0.320238144,1.0,0.30971744,False,,597f786b2c08900001963acc,,2016254,187,,evan-feature22,full_pf_b,,0
156,40494,188,,,,2,2,0.0,0.0,0.0,1.0,,0.0-185.0,,0.0,380.3699999,1.0,0.700425648,0.0,0.7198784009999999,0.0,0.272590393,0.0,0.304182931,False,,597f786b2c08900001963acc,,2026417,188,,evan-feature22,full_pf_b,,0
157,40495,189,,,,2,2,1.0,0.0,0.0,1.0,,0.0-186.0,,0.0,335.495,1.0,0.735590785,1.0,0.722714973,1.0,0.25,0.0,0.323421091,False,,597f786b2c08900001963acc,,2036541,189,,evan-feature22,full_pf_b,,0
158,40496,190,,,,2,2,0.0,0.0,0.0,1.0,,0.0-187.0,,0.0,339.1400001,1.0,0.724807662,1.0,0.63146213,0.0,0.36836492600000004,0.0,0.34592153299999995,False,,597f786b2c08900001963acc,,2046658,190,,evan-feature22,full_pf_b,,0
159,40497,191,,,,2,2,0.0,0.0,0.0,1.0,,0.0-188.0,,0.0,408.7649998,0.0,0.7352796909999999,0.0,0.555111392,0.0,0.36003922,0.0,0.31433779999999995,False,,597f786b2c08900001963acc,,2056849,191,,evan-feature22,full_pf_b,,0
160,40498,192,notice,,,,,,,,,,0.0-189.0,"{""Q0"":""No, they all seemed totally random to me and i could not discern any pattern at all.""}",,27025.0,,,,,,,,,False,,597f786b2c08900001963acc,,2083878,192,Q,survey-text,full_pf_b,,1
161,40499,193,track1,,[1],,,,,,,,0.0-190.0,"{""Q0"":""no""}",,2840.0,,,,,,,,,False,,597f786b2c08900001963acc,,2086735,193,Q,evan-quiz,full_pf_b,,1
162,40500,194,track2,,[1],,,,,,,,0.0-191.0,"{""Q0"":""no""}",,6057.0,,,,,,,,,False,,597f786b2c08900001963acc,,2092802,194,Q,evan-quiz,full_pf_b,,1
163,40501,195,strat,,,,,,,,,,0.0-192.0,"{""Q0"":""There was no order or pattern so it as impossible to use any strategy; I just stuck with the right hand door, as it seemed most reliable in giving a positive result.""}",,48390.0,,,,,,,,,False,,597f786b2c08900001963acc,,2141202,195,Q,survey-text,full_pf_b,,1
