,index,Unnamed: 0,Q_name,button_pressed,choice_idxs,chosen_pos,chosen_state,chosen_state_f_1_outcome,chosen_state_f_2_outcome,f_1_reward,f_2_reward,incor_questions,internal_node_id,responses,reward_received,rt,s_1_f_1_outcome,s_1_f_1_prob,s_1_f_2_outcome,s_1_f_2_prob,s_2_f_1_outcome,s_2_f_1_prob,s_2_f_2_outcome,s_2_f_2_prob,safe_first,stimulus,subjectID,success,time_elapsed,trial_index,trial_num,trial_type,version,view_history,switching
0,19009,25,,,,1,1,1.0,1.0,-1.0,0.0,,0.0-27.0,,-1.0,1679.61,1.0,0.6,1.0,0.6,0.0,0.4,1.0,0.4,False,,5ec92a7a5ed12a0367a0f95a,,467616,25,,evan-feature22,full_pf_b,,0
1,19010,26,,,,2,2,0.0,0.0,-1.0,0.0,,0.0-28.0,,0.0,580.785,0.0,0.608053294,1.0,0.63424552,0.0,0.397152172,0.0,0.347069101,False,,5ec92a7a5ed12a0367a0f95a,,477974,26,,evan-feature22,full_pf_b,,1
2,19011,27,,,,2,2,1.0,1.0,-1.0,0.0,,0.0-29.0,,-1.0,1402.065,1.0,0.642237155,1.0,0.648566321,1.0,0.389407674,1.0,0.285525717,False,,5ec92a7a5ed12a0367a0f95a,,489156,27,,evan-feature22,full_pf_b,,0
3,19012,28,,,,2,2,1.0,0.0,-1.0,0.0,,0.0-30.0,,-1.0,284.315,0.0,0.661086576,1.0,0.630492543,1.0,0.399058924,0.0,0.25,False,,5ec92a7a5ed12a0367a0f95a,,499217,28,,evan-feature22,full_pf_b,,0
4,19013,29,,,,2,2,0.0,0.0,0.0,1.0,,0.0-31.0,,0.0,951.065,0.0,0.631324137,0.0,0.6269842929999999,0.0,0.38734784299999997,0.0,0.25,False,,5ec92a7a5ed12a0367a0f95a,,509946,29,,evan-feature22,full_pf_b,,0
5,19014,30,,,,2,2,0.0,1.0,0.0,1.0,,0.0-32.0,,1.0,530.91,0.0,0.6381991370000001,1.0,0.68987999,0.0,0.384107265,1.0,0.271332943,False,,5ec92a7a5ed12a0367a0f95a,,520253,30,,evan-feature22,full_pf_b,,0
6,19015,31,,,,2,2,0.0,0.0,-1.0,0.0,,0.0-33.0,,0.0,540.435,0.0,0.66034901,1.0,0.742641349,0.0,0.360225629,0.0,0.25,False,,5ec92a7a5ed12a0367a0f95a,,530567,31,,evan-feature22,full_pf_b,,0
7,19016,32,,,,1,1,1.0,1.0,-1.0,0.0,,0.0-34.0,,-1.0,424.135,1.0,0.638612418,1.0,0.75,1.0,0.367273939,0.0,0.25,False,,5ec92a7a5ed12a0367a0f95a,,540775,32,,evan-feature22,full_pf_b,,1
8,19017,33,,,,1,1,0.0,1.0,0.0,1.0,,0.0-35.0,,1.0,34.39999999,0.0,0.624340629,1.0,0.75,1.0,0.425829545,0.0,0.25,False,,5ec92a7a5ed12a0367a0f95a,,550584,33,,evan-feature22,full_pf_b,,0
9,19018,34,,,,2,2,0.0,0.0,0.0,1.0,,0.0-36.0,,0.0,199.75,1.0,0.621999804,1.0,0.75,0.0,0.368609357,0.0,0.25,False,,5ec92a7a5ed12a0367a0f95a,,560568,34,,evan-feature22,full_pf_b,,1
10,19019,35,,,,2,2,1.0,0.0,-1.0,0.0,,0.0-37.0,,-1.0,2147.675,1.0,0.62666403,1.0,0.75,1.0,0.311151498,0.0,0.25,False,,5ec92a7a5ed12a0367a0f95a,,572498,35,,evan-feature22,full_pf_b,,0
11,19020,36,,,,2,2,0.0,0.0,0.0,1.0,,0.0-38.0,,0.0,313.465,1.0,0.6819650009999999,0.0,0.75,0.0,0.310763048,0.0,0.25,False,,5ec92a7a5ed12a0367a0f95a,,582593,36,,evan-feature22,full_pf_b,,0
12,19021,37,,,,2,2,0.0,0.0,-1.0,0.0,,0.0-39.0,,0.0,1891.67,1.0,0.740626951,1.0,0.75,0.0,0.25,0.0,0.25,False,,5ec92a7a5ed12a0367a0f95a,,594261,37,,evan-feature22,full_pf_b,,0
13,19022,38,,,,2,2,0.0,0.0,-1.0,0.0,,0.0-40.0,,0.0,438.105,1.0,0.739599242,1.0,0.742034978,0.0,0.25397114600000004,0.0,0.25,False,,5ec92a7a5ed12a0367a0f95a,,604481,38,,evan-feature22,full_pf_b,,0
14,19023,39,,,,1,1,1.0,1.0,-1.0,0.0,,0.0-41.0,,-1.0,537.93,1.0,0.732341315,1.0,0.72735643,0.0,0.25,1.0,0.25,False,,5ec92a7a5ed12a0367a0f95a,,614791,39,,evan-feature22,full_pf_b,,1
15,19024,40,,,,1,1,1.0,1.0,-1.0,0.0,,0.0-42.0,,-1.0,1125.95,1.0,0.7062287770000001,1.0,0.75,1.0,0.29002151,0.0,0.288256649,False,,5ec92a7a5ed12a0367a0f95a,,625689,40,,evan-feature22,full_pf_b,,0
16,19025,41,,,,2,2,0.0,0.0,-1.0,0.0,,0.0-43.0,,0.0,2317.465,1.0,0.7086029209999999,0.0,0.75,0.0,0.274129113,0.0,0.262851608,False,,5ec92a7a5ed12a0367a0f95a,,637780,41,,evan-feature22,full_pf_b,,1
17,19026,42,,,,1,1,0.0,1.0,-1.0,0.0,,0.0-44.0,,0.0,810.025,0.0,0.669189651,1.0,0.727614338,0.0,0.298444036,0.0,0.296944518,False,,5ec92a7a5ed12a0367a0f95a,,648372,42,,evan-feature22,full_pf_b,,1
18,19027,43,,,,2,2,0.0,0.0,-1.0,0.0,,0.0-45.0,,0.0,930.24,1.0,0.6819912929999999,1.0,0.7179434290000001,0.0,0.265003961,0.0,0.28157921199999997,False,,5ec92a7a5ed12a0367a0f95a,,659065,43,,evan-feature22,full_pf_b,,1
19,19028,44,,,,1,1,0.0,1.0,0.0,1.0,,0.0-46.0,,1.0,2399.46,0.0,0.665275002,1.0,0.723065271,0.0,0.260414971,1.0,0.30973870000000003,False,,5ec92a7a5ed12a0367a0f95a,,671214,44,,evan-feature22,full_pf_b,,1
20,19029,45,,,,2,2,0.0,0.0,-1.0,0.0,,0.0-47.0,,0.0,1847.025,0.0,0.6660593260000001,1.0,0.728032907,0.0,0.30922817,0.0,0.338778608,False,,5ec92a7a5ed12a0367a0f95a,,682836,45,,evan-feature22,full_pf_b,,1
21,19030,46,,,,2,2,0.0,0.0,-1.0,0.0,,0.0-48.0,,0.0,1768.745,1.0,0.702068785,1.0,0.6528750879999999,0.0,0.287329608,0.0,0.35789613200000003,False,,5ec92a7a5ed12a0367a0f95a,,694391,46,,evan-feature22,full_pf_b,,0
22,19031,47,,,,2,2,1.0,0.0,-1.0,0.0,,0.0-49.0,,-1.0,765.43,1.0,0.651939787,1.0,0.636725589,1.0,0.284834488,0.0,0.358563756,False,,5ec92a7a5ed12a0367a0f95a,,704941,47,,evan-feature22,full_pf_b,,0
23,19032,48,,,,1,1,1.0,0.0,0.0,1.0,,0.0-50.0,,0.0,498.41,1.0,0.67573929,0.0,0.612550049,0.0,0.37130387600000003,0.0,0.383542402,False,,5ec92a7a5ed12a0367a0f95a,,715219,48,,evan-feature22,full_pf_b,,1
24,19033,49,,,,1,1,1.0,0.0,0.0,1.0,,0.0-51.0,,0.0,141.57,1.0,0.620753801,0.0,0.60513644,0.0,0.385529434,0.0,0.340361743,False,,5ec92a7a5ed12a0367a0f95a,,725136,49,,evan-feature22,full_pf_b,,0
25,19034,50,,,,1,1,1.0,0.0,0.0,1.0,,0.0-52.0,,0.0,1570.19,1.0,0.673564893,0.0,0.672437924,1.0,0.292955382,0.0,0.337633795,False,,5ec92a7a5ed12a0367a0f95a,,736491,50,,evan-feature22,full_pf_b,,0
26,19035,51,,,,2,2,0.0,1.0,-1.0,0.0,,0.0-53.0,,0.0,1346.74,1.0,0.6749427,0.0,0.724197502,0.0,0.32391132100000003,1.0,0.350995264,False,,5ec92a7a5ed12a0367a0f95a,,747622,51,,evan-feature22,full_pf_b,,1
27,19036,52,,,,2,2,1.0,0.0,-1.0,0.0,,0.0-54.0,,-1.0,1490.025,1.0,0.6940159379999999,1.0,0.75,1.0,0.31710554399999996,0.0,0.413450341,False,,5ec92a7a5ed12a0367a0f95a,,758895,52,,evan-feature22,full_pf_b,,0
28,19037,53,,,,1,1,1.0,1.0,-1.0,0.0,,0.0-55.0,,-1.0,348.91,1.0,0.6916018270000001,1.0,0.69001187,0.0,0.261817804,0.0,0.40038635,False,,5ec92a7a5ed12a0367a0f95a,,769030,53,,evan-feature22,full_pf_b,,1
29,19038,54,,,,1,1,1.0,1.0,-1.0,0.0,,0.0-56.0,,-1.0,312.79,1.0,0.641061544,1.0,0.71337992,1.0,0.277296461,0.0,0.47372791700000005,False,,5ec92a7a5ed12a0367a0f95a,,779124,54,,evan-feature22,full_pf_b,,0
30,19039,55,,,,2,2,1.0,1.0,-1.0,0.0,,0.0-57.0,,-1.0,332.57,1.0,0.6082438520000001,1.0,0.708471106,1.0,0.28745137,1.0,0.564174476,False,,5ec92a7a5ed12a0367a0f95a,,789241,55,,evan-feature22,full_pf_b,,1
31,19040,56,,,,2,2,1.0,1.0,-1.0,0.0,,0.0-58.0,,-1.0,388.035,1.0,0.6051112120000001,1.0,0.7118147229999999,1.0,0.272390611,1.0,0.5595149939999999,False,,5ec92a7a5ed12a0367a0f95a,,799421,56,,evan-feature22,full_pf_b,,0
32,19041,57,,,,1,1,1.0,1.0,-1.0,0.0,,0.0-59.0,,-1.0,931.98,1.0,0.582420852,1.0,0.635867583,0.0,0.31089574,1.0,0.5227206520000001,False,,5ec92a7a5ed12a0367a0f95a,,810127,57,,evan-feature22,full_pf_b,,1
33,19042,58,,,,2,2,0.0,0.0,0.0,1.0,,0.0-60.0,,0.0,1515.355,1.0,0.623195575,0.0,0.655026044,0.0,0.25,0.0,0.560387538,False,,5ec92a7a5ed12a0367a0f95a,,821424,58,,evan-feature22,full_pf_b,,1
34,19043,59,,,,2,2,1.0,0.0,-1.0,0.0,,0.0-61.0,,-1.0,1558.45,0.0,0.601889598,0.0,0.678198724,1.0,0.25,0.0,0.559922936,False,,5ec92a7a5ed12a0367a0f95a,,832756,59,,evan-feature22,full_pf_b,,0
35,19044,60,,,,1,1,1.0,0.0,-1.0,0.0,,0.0-62.0,,-1.0,1200.43,1.0,0.601259914,0.0,0.704681482,0.0,0.33908969299999997,1.0,0.505003715,False,,5ec92a7a5ed12a0367a0f95a,,843735,60,,evan-feature22,full_pf_b,,1
36,19045,61,,,,1,1,1.0,1.0,-1.0,0.0,,0.0-63.0,,-1.0,478.82,1.0,0.59645454,1.0,0.710437172,0.0,0.327441879,1.0,0.391749613,False,,5ec92a7a5ed12a0367a0f95a,,853986,61,,evan-feature22,full_pf_b,,0
37,19046,62,,,,2,2,1.0,0.0,-1.0,0.0,,0.0-64.0,,-1.0,1950.615,1.0,0.529473,0.0,0.636758527,1.0,0.301338063,0.0,0.365661481,False,,5ec92a7a5ed12a0367a0f95a,,865716,62,,evan-feature22,full_pf_b,,1
38,19047,63,,,,2,2,1.0,1.0,0.0,1.0,,0.0-65.0,,1.0,444.375,0.0,0.541657162,1.0,0.634541962,1.0,0.343535366,1.0,0.371763742,False,,5ec92a7a5ed12a0367a0f95a,,875946,63,,evan-feature22,full_pf_b,,0
39,19048,64,,,,2,2,0.0,1.0,-1.0,0.0,,0.0-66.0,,0.0,819.425,1.0,0.5707533260000001,1.0,0.589121171,0.0,0.326428396,1.0,0.43961622899999997,False,,5ec92a7a5ed12a0367a0f95a,,886546,64,,evan-feature22,full_pf_b,,0
40,19049,65,,,,1,1,0.0,0.0,-1.0,0.0,,0.0-67.0,,0.0,1557.69,0.0,0.5707533260000001,0.0,0.589121171,0.0,0.326428396,1.0,0.43961622899999997,False,,5ec92a7a5ed12a0367a0f95a,,897876,65,,evan-feature22,full_pf_b,,1
41,19050,66,,,,1,1,1.0,1.0,-1.0,0.0,,0.0-68.0,,-1.0,1374.045,1.0,0.506271295,1.0,0.641775594,0.0,0.37149690700000004,1.0,0.404330166,False,,5ec92a7a5ed12a0367a0f95a,,909041,66,,evan-feature22,full_pf_b,,0
42,19051,67,,,,1,1,1.0,1.0,0.0,1.0,,0.0-69.0,,1.0,1221.56,1.0,0.455642565,1.0,0.623605825,0.0,0.358753011,1.0,0.346174041,False,,5ec92a7a5ed12a0367a0f95a,,920047,67,,evan-feature22,full_pf_b,,0
43,19052,68,,,,2,2,0.0,1.0,0.0,1.0,,0.0-70.0,,1.0,834.46,0.0,0.483677308,1.0,0.5904681070000001,0.0,0.402218411,1.0,0.35344697,False,,5ec92a7a5ed12a0367a0f95a,,930652,68,,evan-feature22,full_pf_b,,1
44,19053,69,,,,1,1,0.0,1.0,0.0,1.0,,0.0-71.0,,1.0,976.395,0.0,0.394210977,1.0,0.558925494,1.0,0.540052017,1.0,0.35182128700000004,False,,5ec92a7a5ed12a0367a0f95a,,941398,69,,evan-feature22,full_pf_b,,1
45,19054,70,,,,2,2,1.0,1.0,-1.0,0.0,,0.0-72.0,,-1.0,1603.34,1.0,0.382300414,1.0,0.577670603,1.0,0.607608448,1.0,0.378261578,False,,5ec92a7a5ed12a0367a0f95a,,952776,70,,evan-feature22,full_pf_b,,1
46,19055,71,,,,2,2,1.0,1.0,-1.0,0.0,,0.0-73.0,,-1.0,1716.195,1.0,0.357596762,1.0,0.5929076529999999,1.0,0.6579790010000001,1.0,0.401326777,False,,5ec92a7a5ed12a0367a0f95a,,964259,71,,evan-feature22,full_pf_b,,0
47,19056,72,,,,2,2,0.0,0.0,-1.0,0.0,,0.0-74.0,,0.0,1001.875,0.0,0.362033495,1.0,0.582308608,0.0,0.649195052,0.0,0.355158505,False,,5ec92a7a5ed12a0367a0f95a,,975032,72,,evan-feature22,full_pf_b,,0
48,19057,73,,,,1,1,1.0,1.0,-1.0,0.0,,0.0-75.0,,-1.0,1381.29,1.0,0.369620635,1.0,0.669100864,1.0,0.706059111,0.0,0.362516241,False,,5ec92a7a5ed12a0367a0f95a,,986196,73,,evan-feature22,full_pf_b,,1
49,19058,74,,,,1,1,1.0,1.0,-1.0,0.0,,0.0-76.0,,-1.0,974.745,1.0,0.41477751399999996,1.0,0.7284416779999999,1.0,0.7182656940000001,0.0,0.36228040899999997,False,,5ec92a7a5ed12a0367a0f95a,,996944,74,,evan-feature22,full_pf_b,,0
50,19059,75,,,,1,1,0.0,0.0,0.0,1.0,,0.0-77.0,,0.0,1109.205,0.0,0.37675460299999997,0.0,0.703250285,1.0,0.75,1.0,0.461979164,False,,5ec92a7a5ed12a0367a0f95a,,1007828,75,,evan-feature22,full_pf_b,,0
51,19060,76,,,,1,1,1.0,1.0,0.0,1.0,,0.0-78.0,,1.0,555.105,1.0,0.398716075,1.0,0.6723864890000001,1.0,0.674153818,0.0,0.519029516,False,,5ec92a7a5ed12a0367a0f95a,,1018160,76,,evan-feature22,full_pf_b,,0
52,19061,77,,,,2,2,1.0,0.0,-1.0,0.0,,0.0-79.0,,-1.0,432.96,0.0,0.34677856700000004,1.0,0.69057175,1.0,0.6822438540000001,0.0,0.477292237,False,,5ec92a7a5ed12a0367a0f95a,,1028365,77,,evan-feature22,full_pf_b,,1
53,19062,78,,,,SLOW,SLOW,,,0.0,1.0,,0.0-80.0,,-3.0,,0.0,0.28580469199999997,1.0,0.68408818,1.0,0.684207565,0.0,0.49780448299999996,False,,5ec92a7a5ed12a0367a0f95a,,1034172,78,,evan-feature22,full_pf_b,,1
54,19064,80,,,,2,2,0.0,0.0,-1.0,0.0,,0.0-82.0,,0.0,812.08,0.0,0.25,1.0,0.7405808970000001,0.0,0.679614108,0.0,0.436436964,False,,5ec92a7a5ed12a0367a0f95a,,1047427,80,,evan-feature22,full_pf_b,,1
55,19065,81,,,,1,1,1.0,1.0,0.0,1.0,,0.0-83.0,,1.0,572.82,1.0,0.29890393,1.0,0.730505706,1.0,0.7328203320000001,1.0,0.439256938,False,,5ec92a7a5ed12a0367a0f95a,,1057781,81,,evan-feature22,full_pf_b,,1
56,19066,82,,,,2,2,0.0,1.0,-1.0,0.0,,0.0-84.0,,0.0,266.445,0.0,0.326762398,0.0,0.7148059609999999,0.0,0.75,1.0,0.44389608799999997,False,,5ec92a7a5ed12a0367a0f95a,,1067831,82,,evan-feature22,full_pf_b,,1
57,19067,83,,,,2,2,1.0,0.0,-1.0,0.0,,0.0-85.0,,-1.0,706.785,0.0,0.295168515,1.0,0.739760854,1.0,0.719947008,0.0,0.35277284600000003,False,,5ec92a7a5ed12a0367a0f95a,,1078319,83,,evan-feature22,full_pf_b,,0
58,19068,84,,,,2,2,1.0,0.0,-1.0,0.0,,0.0-86.0,,-1.0,529.365,0.0,0.25,1.0,0.70781482,1.0,0.75,0.0,0.286095925,False,,5ec92a7a5ed12a0367a0f95a,,1088632,84,,evan-feature22,full_pf_b,,0
59,19069,85,,,,2,2,1.0,0.0,0.0,1.0,,0.0-87.0,,0.0,432.365,1.0,0.25638190899999996,0.0,0.704088163,1.0,0.75,0.0,0.26872601399999996,False,,5ec92a7a5ed12a0367a0f95a,,1098839,85,,evan-feature22,full_pf_b,,0
60,19070,86,,,,1,1,0.0,1.0,0.0,1.0,,0.0-88.0,,1.0,1137.2,0.0,0.271581126,1.0,0.669760107,1.0,0.733896663,0.0,0.273244572,False,,5ec92a7a5ed12a0367a0f95a,,1109761,86,,evan-feature22,full_pf_b,,1
61,19071,87,,,,1,1,1.0,0.0,0.0,1.0,,0.0-89.0,,0.0,1273.935,1.0,0.257144401,0.0,0.600575706,0.0,0.74488122,0.0,0.25,False,,5ec92a7a5ed12a0367a0f95a,,1120807,87,,evan-feature22,full_pf_b,,0
62,19072,88,,,,2,2,1.0,0.0,-1.0,0.0,,0.0-90.0,,-1.0,1540.14,1.0,0.25,1.0,0.616870026,1.0,0.723610234,0.0,0.25,False,,5ec92a7a5ed12a0367a0f95a,,1132111,88,,evan-feature22,full_pf_b,,1
63,19073,89,,,,2,2,1.0,0.0,0.0,1.0,,0.0-91.0,,0.0,1415.395,0.0,0.25,0.0,0.583540187,1.0,0.7041042559999999,0.0,0.285961995,False,,5ec92a7a5ed12a0367a0f95a,,1143297,89,,evan-feature22,full_pf_b,,0
64,19074,90,,,,1,1,0.0,1.0,-1.0,0.0,,0.0-92.0,,0.0,372.755,0.0,0.27254536,1.0,0.53875765,1.0,0.693783448,0.0,0.284961652,False,,5ec92a7a5ed12a0367a0f95a,,1153445,90,,evan-feature22,full_pf_b,,1
65,19075,91,,,,2,2,1.0,0.0,0.0,1.0,,0.0-93.0,,0.0,1103.58,0.0,0.25,0.0,0.548431252,1.0,0.734221895,0.0,0.279445214,False,,5ec92a7a5ed12a0367a0f95a,,1164320,91,,evan-feature22,full_pf_b,,1
66,19076,92,,,,2,2,1.0,1.0,-1.0,0.0,,0.0-94.0,,-1.0,1431.89,0.0,0.258640684,1.0,0.545878066,1.0,0.725245965,1.0,0.31487537,False,,5ec92a7a5ed12a0367a0f95a,,1175527,92,,evan-feature22,full_pf_b,,0
67,19077,93,,,,1,1,0.0,0.0,-1.0,0.0,,0.0-95.0,,0.0,1352.125,0.0,0.251103711,0.0,0.5776290629999999,1.0,0.696320133,0.0,0.317831047,False,,5ec92a7a5ed12a0367a0f95a,,1186654,93,,evan-feature22,full_pf_b,,1
68,19078,94,,,,2,2,1.0,1.0,-1.0,0.0,,0.0-96.0,,-1.0,1127.345,1.0,0.276630292,0.0,0.617329858,1.0,0.73838088,1.0,0.261471582,False,,5ec92a7a5ed12a0367a0f95a,,1197554,94,,evan-feature22,full_pf_b,,1
69,19079,95,,,,2,2,1.0,0.0,0.0,1.0,,0.0-97.0,,0.0,1469.515,0.0,0.297716424,1.0,0.618863717,1.0,0.7402358259999999,0.0,0.262600834,False,,5ec92a7a5ed12a0367a0f95a,,1208795,95,,evan-feature22,full_pf_b,,0
70,19080,96,,,,1,1,1.0,1.0,-1.0,0.0,,0.0-98.0,,-1.0,643.305,1.0,0.290935512,1.0,0.695370945,1.0,0.706570507,0.0,0.280030553,False,,5ec92a7a5ed12a0367a0f95a,,1219207,96,,evan-feature22,full_pf_b,,1
71,19081,97,,,,1,1,0.0,0.0,-1.0,0.0,,0.0-99.0,,0.0,1234.76,0.0,0.25,0.0,0.6465277079999999,1.0,0.67766682,0.0,0.25,False,,5ec92a7a5ed12a0367a0f95a,,1230211,97,,evan-feature22,full_pf_b,,0
72,19082,98,,,,2,2,1.0,0.0,-1.0,0.0,,0.0-100.0,,-1.0,605.705,1.0,0.26463816,1.0,0.636100213,1.0,0.646048507,0.0,0.265607101,False,,5ec92a7a5ed12a0367a0f95a,,1240586,98,,evan-feature22,full_pf_b,,1
73,19083,99,,,,1,1,1.0,0.0,-1.0,0.0,,0.0-101.0,,-1.0,1266.59,1.0,0.314340707,0.0,0.667795927,0.0,0.613630805,0.0,0.25,False,,5ec92a7a5ed12a0367a0f95a,,1251621,99,,evan-feature22,full_pf_b,,1
74,19084,100,,,,2,2,1.0,0.0,-1.0,0.0,,0.0-102.0,,-1.0,1467.41,0.0,0.28685784,1.0,0.6622549529999999,1.0,0.652154117,0.0,0.25,False,,5ec92a7a5ed12a0367a0f95a,,1262865,100,,evan-feature22,full_pf_b,,1
75,19085,101,,,,2,2,1.0,0.0,0.0,1.0,,0.0-103.0,,0.0,975.91,1.0,0.304106554,0.0,0.631289538,1.0,0.707041942,0.0,0.29314237,False,,5ec92a7a5ed12a0367a0f95a,,1273617,101,,evan-feature22,full_pf_b,,0
76,19086,102,,,,1,1,0.0,0.0,0.0,1.0,,0.0-104.0,,0.0,501.975,0.0,0.304806932,0.0,0.571167718,1.0,0.680472346,0.0,0.25,False,,5ec92a7a5ed12a0367a0f95a,,1283883,102,,evan-feature22,full_pf_b,,1
77,19087,103,,,,1,1,0.0,1.0,0.0,1.0,,0.0-105.0,,1.0,432.53,0.0,0.37919861,1.0,0.5724849710000001,1.0,0.705638003,1.0,0.30179300600000003,False,,5ec92a7a5ed12a0367a0f95a,,1294084,103,,evan-feature22,full_pf_b,,0
78,19088,104,,,,1,1,0.0,1.0,0.0,1.0,,0.0-106.0,,1.0,1597.51,0.0,0.464277969,1.0,0.554034373,1.0,0.7372627340000001,0.0,0.264699741,False,,5ec92a7a5ed12a0367a0f95a,,1305450,104,,evan-feature22,full_pf_b,,0
79,19089,105,,,,2,2,1.0,0.0,-1.0,0.0,,0.0-107.0,,-1.0,1291.925,1.0,0.465104323,1.0,0.530793115,1.0,0.75,0.0,0.31683071,False,,5ec92a7a5ed12a0367a0f95a,,1316518,105,,evan-feature22,full_pf_b,,1
80,19090,106,,,,2,2,1.0,1.0,0.0,1.0,,0.0-108.0,,1.0,1002.95,0.0,0.465104323,0.0,0.530793115,1.0,0.75,1.0,0.31683071,False,,5ec92a7a5ed12a0367a0f95a,,1327298,106,,evan-feature22,full_pf_b,,0
81,19091,107,,,,1,1,1.0,0.0,0.0,1.0,,0.0-109.0,,0.0,735.59,1.0,0.46833986,0.0,0.570249239,0.0,0.7244472590000001,1.0,0.364114163,False,,5ec92a7a5ed12a0367a0f95a,,1337809,107,,evan-feature22,full_pf_b,,1
82,19092,108,,,,1,1,0.0,1.0,0.0,1.0,,0.0-110.0,,1.0,604.07,0.0,0.445444024,1.0,0.649673355,1.0,0.6845441290000001,0.0,0.300660449,False,,5ec92a7a5ed12a0367a0f95a,,1348188,108,,evan-feature22,full_pf_b,,0
83,19093,109,,,,2,2,1.0,0.0,0.0,1.0,,0.0-111.0,,0.0,797.485,0.0,0.39909721299999995,0.0,0.6715179509999999,1.0,0.742310028,0.0,0.35496088299999995,False,,5ec92a7a5ed12a0367a0f95a,,1358769,109,,evan-feature22,full_pf_b,,1
84,19094,110,,,,1,1,0.0,1.0,0.0,1.0,,0.0-112.0,,1.0,1422.085,0.0,0.37956104799999996,1.0,0.694725302,1.0,0.7181651309999999,0.0,0.38726906299999997,False,,5ec92a7a5ed12a0367a0f95a,,1369970,110,,evan-feature22,full_pf_b,,1
85,19095,111,,,,1,1,1.0,1.0,0.0,1.0,,0.0-113.0,,1.0,844.06,1.0,0.404995034,1.0,0.724375412,1.0,0.6910946859999999,1.0,0.387187347,False,,5ec92a7a5ed12a0367a0f95a,,1380589,111,,evan-feature22,full_pf_b,,0
86,19096,112,,,,2,2,1.0,1.0,0.0,1.0,,0.0-114.0,,1.0,459.975,0.0,0.461740803,0.0,0.75,1.0,0.75,1.0,0.34872038200000005,False,,5ec92a7a5ed12a0367a0f95a,,1390824,112,,evan-feature22,full_pf_b,,1
87,19097,113,,,,1,1,0.0,1.0,-1.0,0.0,,0.0-115.0,,0.0,984.325,0.0,0.43821380600000004,1.0,0.738833273,0.0,0.728286963,0.0,0.399538128,False,,5ec92a7a5ed12a0367a0f95a,,1401574,113,,evan-feature22,full_pf_b,,1
88,19098,114,,,,1,1,1.0,1.0,0.0,1.0,,0.0-116.0,,1.0,770.225,1.0,0.41709882,1.0,0.736666736,1.0,0.75,0.0,0.389095584,False,,5ec92a7a5ed12a0367a0f95a,,1412115,114,,evan-feature22,full_pf_b,,0
89,19099,115,,,,2,2,1.0,0.0,0.0,1.0,,0.0-117.0,,0.0,786.02,0.0,0.39749009799999996,1.0,0.744320029,1.0,0.75,0.0,0.363848678,False,,5ec92a7a5ed12a0367a0f95a,,1422671,115,,evan-feature22,full_pf_b,,1
90,19100,116,,,,2,2,1.0,0.0,-1.0,0.0,,0.0-118.0,,-1.0,1284.395,0.0,0.392653706,1.0,0.75,1.0,0.75,0.0,0.384386976,False,,5ec92a7a5ed12a0367a0f95a,,1433728,116,,evan-feature22,full_pf_b,,0
91,19101,117,,,,2,2,0.0,1.0,-1.0,0.0,,0.0-119.0,,0.0,1288.65,0.0,0.31190902600000003,1.0,0.75,0.0,0.732413819,1.0,0.413082932,False,,5ec92a7a5ed12a0367a0f95a,,1444795,117,,evan-feature22,full_pf_b,,0
92,19102,118,,,,1,1,0.0,1.0,0.0,1.0,,0.0-120.0,,1.0,977.35,0.0,0.366917648,1.0,0.740073855,1.0,0.75,0.0,0.352861979,False,,5ec92a7a5ed12a0367a0f95a,,1455545,118,,evan-feature22,full_pf_b,,1
93,19103,119,,,,2,2,0.0,0.0,0.0,1.0,,0.0-121.0,,0.0,546.54,0.0,0.3645172,1.0,0.721770713,0.0,0.75,0.0,0.404074511,False,,5ec92a7a5ed12a0367a0f95a,,1465863,119,,evan-feature22,full_pf_b,,1
94,19104,120,,,,1,1,0.0,1.0,0.0,1.0,,0.0-122.0,,1.0,797.81,0.0,0.35205600299999995,1.0,0.68983859,1.0,0.739735447,1.0,0.366895945,False,,5ec92a7a5ed12a0367a0f95a,,1476433,120,,evan-feature22,full_pf_b,,1
95,19105,121,,,,1,1,1.0,1.0,0.0,1.0,,0.0-123.0,,1.0,1453.635,1.0,0.40998722600000004,1.0,0.720859127,0.0,0.673854955,0.0,0.368528541,False,,5ec92a7a5ed12a0367a0f95a,,1487662,121,,evan-feature22,full_pf_b,,0
96,19106,122,,,,2,2,1.0,1.0,-1.0,0.0,,0.0-124.0,,-1.0,312.205,0.0,0.353625316,1.0,0.75,1.0,0.695605473,1.0,0.38303674200000004,False,,5ec92a7a5ed12a0367a0f95a,,1497748,122,,evan-feature22,full_pf_b,,1
97,19107,123,,,,2,2,0.0,0.0,0.0,1.0,,0.0-125.0,,0.0,1086.66,0.0,0.359216989,1.0,0.75,0.0,0.6987915090000001,0.0,0.35169046200000004,False,,5ec92a7a5ed12a0367a0f95a,,1508607,123,,evan-feature22,full_pf_b,,0
98,19108,124,,,,2,2,1.0,1.0,-1.0,0.0,,0.0-126.0,,-1.0,1011.05,1.0,0.35834496899999996,1.0,0.75,1.0,0.707067742,1.0,0.416763636,False,,5ec92a7a5ed12a0367a0f95a,,1519394,124,,evan-feature22,full_pf_b,,0
99,19109,125,,,,2,2,1.0,1.0,-1.0,0.0,,0.0-127.0,,-1.0,539.285,1.0,0.38741613799999997,1.0,0.7177369570000001,1.0,0.734902455,1.0,0.49438664299999996,False,,5ec92a7a5ed12a0367a0f95a,,1529711,125,,evan-feature22,full_pf_b,,0
100,19110,126,,,,2,2,1.0,0.0,0.0,1.0,,0.0-128.0,,0.0,380.295,0.0,0.405255252,1.0,0.7300466640000001,1.0,0.7027748070000001,0.0,0.504359668,False,,5ec92a7a5ed12a0367a0f95a,,1539862,126,,evan-feature22,full_pf_b,,0
101,19111,127,,,,1,1,0.0,1.0,0.0,1.0,,0.0-129.0,,1.0,619.885,0.0,0.40697073,1.0,0.7260142190000001,0.0,0.724461982,1.0,0.522779179,False,,5ec92a7a5ed12a0367a0f95a,,1550256,127,,evan-feature22,full_pf_b,,1
102,19112,128,,,,1,1,1.0,1.0,0.0,1.0,,0.0-130.0,,1.0,864.665,1.0,0.43906215299999996,1.0,0.7252802340000001,0.0,0.719079934,1.0,0.5712990579999999,False,,5ec92a7a5ed12a0367a0f95a,,1560884,128,,evan-feature22,full_pf_b,,0
103,19113,129,,,,2,2,1.0,1.0,0.0,1.0,,0.0-131.0,,1.0,790.94,0.0,0.4076705,1.0,0.73280499,1.0,0.681313127,1.0,0.523891346,False,,5ec92a7a5ed12a0367a0f95a,,1571445,129,,evan-feature22,full_pf_b,,1
104,19114,130,,,,1,1,1.0,1.0,0.0,1.0,,0.0-132.0,,1.0,534.255,1.0,0.399102911,1.0,0.730498344,0.0,0.661080239,1.0,0.46742603,False,,5ec92a7a5ed12a0367a0f95a,,1581757,130,,evan-feature22,full_pf_b,,1
105,19115,131,,,,1,1,0.0,1.0,-1.0,0.0,,0.0-133.0,,0.0,1716.26,0.0,0.356477282,1.0,0.712296395,1.0,0.641812684,1.0,0.44868414,False,,5ec92a7a5ed12a0367a0f95a,,1593253,131,,evan-feature22,full_pf_b,,0
106,19116,132,,,,2,2,1.0,1.0,0.0,1.0,,0.0-134.0,,1.0,849.715,1.0,0.462760722,0.0,0.692349322,1.0,0.700947931,1.0,0.394680266,False,,5ec92a7a5ed12a0367a0f95a,,1603875,132,,evan-feature22,full_pf_b,,1
107,19117,133,,,,1,1,1.0,1.0,0.0,1.0,,0.0-135.0,,1.0,3859.385,1.0,0.422306413,1.0,0.718375916,1.0,0.706340917,0.0,0.367787185,False,,5ec92a7a5ed12a0367a0f95a,,1617522,133,,evan-feature22,full_pf_b,,1
108,19119,135,,,,1,1,1.0,1.0,0.0,1.0,,0.0-137.0,,1.0,863.085,1.0,0.4582233,1.0,0.643834117,1.0,0.75,0.0,0.39615823299999997,False,,5ec92a7a5ed12a0367a0f95a,,1631709,135,,evan-feature22,full_pf_b,,0
109,19120,136,,,,1,1,0.0,1.0,0.0,1.0,,0.0-138.0,,1.0,1099.435,0.0,0.43813437899999996,1.0,0.651283804,1.0,0.729674191,0.0,0.37711048,False,,5ec92a7a5ed12a0367a0f95a,,1642596,136,,evan-feature22,full_pf_b,,0
110,19121,137,,,,2,2,0.0,0.0,0.0,1.0,,0.0-139.0,,0.0,777.23,0.0,0.471199094,1.0,0.6470010979999999,0.0,0.715008097,0.0,0.410656191,False,,5ec92a7a5ed12a0367a0f95a,,1653139,137,,evan-feature22,full_pf_b,,1
111,19122,138,,,,2,2,0.0,0.0,-1.0,0.0,,0.0-140.0,,0.0,304.125,1.0,0.42486406,1.0,0.629771829,0.0,0.6550939960000001,0.0,0.459093873,False,,5ec92a7a5ed12a0367a0f95a,,1663218,138,,evan-feature22,full_pf_b,,0
112,19123,139,,,,1,1,1.0,1.0,-1.0,0.0,,0.0-141.0,,-1.0,843.13,1.0,0.4803197,1.0,0.645842715,1.0,0.6421749920000001,1.0,0.443092151,False,,5ec92a7a5ed12a0367a0f95a,,1673833,139,,evan-feature22,full_pf_b,,1
113,19124,140,,,,1,1,0.0,1.0,-1.0,0.0,,0.0-142.0,,0.0,649.22,0.0,0.521848997,1.0,0.735801074,1.0,0.6691348460000001,1.0,0.45259351600000003,False,,5ec92a7a5ed12a0367a0f95a,,1684265,140,,evan-feature22,full_pf_b,,0
114,19125,141,,,,2,2,0.0,0.0,0.0,1.0,,0.0-143.0,,0.0,1300.795,1.0,0.49565621299999996,1.0,0.742400847,0.0,0.661512553,0.0,0.483110831,False,,5ec92a7a5ed12a0367a0f95a,,1695346,141,,evan-feature22,full_pf_b,,1
115,19126,142,,,,2,2,0.0,0.0,-1.0,0.0,,0.0-144.0,,0.0,1328.445,1.0,0.521564361,1.0,0.731078632,0.0,0.6774886809999999,0.0,0.483263956,False,,5ec92a7a5ed12a0367a0f95a,,1706453,142,,evan-feature22,full_pf_b,,0
116,19127,143,,,,1,1,0.0,1.0,-1.0,0.0,,0.0-145.0,,0.0,1333.54,0.0,0.558893102,1.0,0.719810023,1.0,0.67461031,1.0,0.499349834,False,,5ec92a7a5ed12a0367a0f95a,,1717566,143,,evan-feature22,full_pf_b,,1
117,19128,144,,,,2,2,1.0,1.0,0.0,1.0,,0.0-146.0,,1.0,742.135,1.0,0.611031046,1.0,0.75,1.0,0.688072995,1.0,0.5321422729999999,False,,5ec92a7a5ed12a0367a0f95a,,1728088,144,,evan-feature22,full_pf_b,,1
118,19129,145,,,,1,1,1.0,1.0,-1.0,0.0,,0.0-147.0,,-1.0,577.76,1.0,0.633223941,1.0,0.713567728,0.0,0.75,1.0,0.48185314700000004,False,,5ec92a7a5ed12a0367a0f95a,,1738435,145,,evan-feature22,full_pf_b,,1
119,19130,146,,,,2,2,1.0,1.0,-1.0,0.0,,0.0-148.0,,-1.0,473.985,1.0,0.664001694,0.0,0.705509768,1.0,0.75,1.0,0.500211065,False,,5ec92a7a5ed12a0367a0f95a,,1748687,146,,evan-feature22,full_pf_b,,1
120,19131,147,,,,1,1,0.0,1.0,0.0,1.0,,0.0-149.0,,1.0,414.05,0.0,0.664001694,1.0,0.705509768,1.0,0.75,1.0,0.500211065,False,,5ec92a7a5ed12a0367a0f95a,,1758877,147,,evan-feature22,full_pf_b,,1
121,19132,148,,,,2,2,1.0,0.0,0.0,1.0,,0.0-150.0,,0.0,1107.9,0.0,0.696508041,1.0,0.71066027,1.0,0.717028709,0.0,0.49792991,False,,5ec92a7a5ed12a0367a0f95a,,1769776,148,,evan-feature22,full_pf_b,,1
122,19133,149,,,,2,2,1.0,0.0,-1.0,0.0,,0.0-151.0,,-1.0,1015.675,1.0,0.699883272,1.0,0.75,1.0,0.713543895,0.0,0.496962643,False,,5ec92a7a5ed12a0367a0f95a,,1780572,149,,evan-feature22,full_pf_b,,0
123,19134,150,,,,1,1,0.0,1.0,0.0,1.0,,0.0-152.0,,1.0,722.385,0.0,0.741163419,1.0,0.75,1.0,0.64691024,1.0,0.513858197,False,,5ec92a7a5ed12a0367a0f95a,,1791062,150,,evan-feature22,full_pf_b,,1
124,19135,151,,,,1,1,1.0,0.0,-1.0,0.0,,0.0-153.0,,-1.0,1511.6,1.0,0.75,0.0,0.70816558,1.0,0.594499079,0.0,0.48502124,False,,5ec92a7a5ed12a0367a0f95a,,1802349,151,,evan-feature22,full_pf_b,,0
125,19136,152,,,,1,1,1.0,0.0,0.0,1.0,,0.0-154.0,,0.0,514.095,1.0,0.75,0.0,0.721848901,0.0,0.62197249,1.0,0.48263586399999997,False,,5ec92a7a5ed12a0367a0f95a,,1812641,152,,evan-feature22,full_pf_b,,0
126,19137,153,,,,2,2,1.0,1.0,-1.0,0.0,,0.0-155.0,,-1.0,504.96,0.0,0.75,1.0,0.74813071,1.0,0.584357161,1.0,0.411477782,False,,5ec92a7a5ed12a0367a0f95a,,1822923,153,,evan-feature22,full_pf_b,,1
127,19138,154,,,,1,1,1.0,1.0,0.0,1.0,,0.0-156.0,,1.0,635.03,1.0,0.75,1.0,0.75,1.0,0.52287236,0.0,0.488290656,False,,5ec92a7a5ed12a0367a0f95a,,1833328,154,,evan-feature22,full_pf_b,,1
128,19139,155,,,,2,2,1.0,0.0,0.0,1.0,,0.0-157.0,,0.0,3940.205,1.0,0.75,0.0,0.75,1.0,0.544321581,0.0,0.53143059,False,,5ec92a7a5ed12a0367a0f95a,,1847060,155,,evan-feature22,full_pf_b,,1
129,19140,156,,,,1,1,0.0,0.0,0.0,1.0,,0.0-158.0,,0.0,1235.18,0.0,0.726754564,0.0,0.75,0.0,0.5129306370000001,1.0,0.530592445,False,,5ec92a7a5ed12a0367a0f95a,,1858074,156,,evan-feature22,full_pf_b,,1
130,19141,157,,,,1,1,1.0,1.0,-1.0,0.0,,0.0-159.0,,-1.0,916.54,1.0,0.75,1.0,0.7392590729999999,1.0,0.479875835,0.0,0.547007051,False,,5ec92a7a5ed12a0367a0f95a,,1868771,157,,evan-feature22,full_pf_b,,0
131,19142,158,,,,2,2,0.0,1.0,-1.0,0.0,,0.0-160.0,,0.0,277.225,1.0,0.75,1.0,0.7393376979999999,0.0,0.546045419,1.0,0.541267353,False,,5ec92a7a5ed12a0367a0f95a,,1878827,158,,evan-feature22,full_pf_b,,1
132,19143,159,,,,2,2,1.0,1.0,-1.0,0.0,,0.0-161.0,,-1.0,1277.755,0.0,0.75,1.0,0.75,1.0,0.485725895,1.0,0.527625395,False,,5ec92a7a5ed12a0367a0f95a,,1889885,159,,evan-feature22,full_pf_b,,0
133,19144,160,,,,1,1,1.0,1.0,0.0,1.0,,0.0-162.0,,1.0,901.675,1.0,0.75,1.0,0.725087974,0.0,0.488603595,1.0,0.504019206,False,,5ec92a7a5ed12a0367a0f95a,,1900574,160,,evan-feature22,full_pf_b,,1
134,19145,161,,,,2,2,0.0,1.0,0.0,1.0,,0.0-163.0,,1.0,1012.52,1.0,0.745504295,1.0,0.75,0.0,0.452379914,1.0,0.50131194,False,,5ec92a7a5ed12a0367a0f95a,,1911371,161,,evan-feature22,full_pf_b,,1
135,19146,162,,,,1,1,1.0,1.0,0.0,1.0,,0.0-164.0,,1.0,656.65,1.0,0.728513874,1.0,0.75,1.0,0.44125567200000004,1.0,0.531454591,False,,5ec92a7a5ed12a0367a0f95a,,1921814,162,,evan-feature22,full_pf_b,,1
136,19147,163,,,,2,2,0.0,0.0,-1.0,0.0,,0.0-165.0,,0.0,1306.885,1.0,0.73790804,0.0,0.75,0.0,0.413036656,0.0,0.524619035,False,,5ec92a7a5ed12a0367a0f95a,,1932899,163,,evan-feature22,full_pf_b,,1
137,19148,164,,,,1,1,1.0,1.0,0.0,1.0,,0.0-166.0,,1.0,906.365,1.0,0.7080961309999999,1.0,0.708666865,1.0,0.431915581,0.0,0.481819489,False,,5ec92a7a5ed12a0367a0f95a,,1943584,164,,evan-feature22,full_pf_b,,1
138,19149,165,,,,2,2,0.0,0.0,0.0,1.0,,0.0-167.0,,0.0,656.135,1.0,0.721378003,1.0,0.71605913,0.0,0.36642387,0.0,0.5036739929999999,False,,5ec92a7a5ed12a0367a0f95a,,1954025,165,,evan-feature22,full_pf_b,,1
139,19150,166,,,,2,2,0.0,0.0,0.0,1.0,,0.0-168.0,,0.0,858.13,1.0,0.7340618959999999,0.0,0.699323252,0.0,0.35298046299999997,0.0,0.511241692,False,,5ec92a7a5ed12a0367a0f95a,,1964670,166,,evan-feature22,full_pf_b,,0
140,19151,167,,,,2,2,1.0,0.0,-1.0,0.0,,0.0-169.0,,-1.0,707.73,1.0,0.75,1.0,0.70412698,1.0,0.380734814,0.0,0.529580116,False,,5ec92a7a5ed12a0367a0f95a,,1975162,167,,evan-feature22,full_pf_b,,0
141,19152,168,,,,2,2,1.0,0.0,0.0,1.0,,0.0-170.0,,0.0,651.675,1.0,0.7436654909999999,1.0,0.711182751,1.0,0.41125331,0.0,0.49554405,False,,5ec92a7a5ed12a0367a0f95a,,1985600,168,,evan-feature22,full_pf_b,,0
142,19153,169,,,,1,1,1.0,0.0,0.0,1.0,,0.0-171.0,,0.0,953.21,1.0,0.731607915,0.0,0.651774583,0.0,0.35688023,1.0,0.45194491600000003,False,,5ec92a7a5ed12a0367a0f95a,,1996335,169,,evan-feature22,full_pf_b,,1
143,19154,170,,,,1,1,1.0,1.0,-1.0,0.0,,0.0-172.0,,-1.0,1561.105,1.0,0.75,1.0,0.75,0.0,0.283145374,1.0,0.528608005,False,,5ec92a7a5ed12a0367a0f95a,,2007678,170,,evan-feature22,full_pf_b,,0
144,19155,171,,,,1,1,1.0,1.0,-1.0,0.0,,0.0-173.0,,-1.0,2820.92,1.0,0.7491416890000001,1.0,0.7423785959999999,0.0,0.29135870399999997,0.0,0.498888318,False,,5ec92a7a5ed12a0367a0f95a,,2020277,171,,evan-feature22,full_pf_b,,0
145,19156,172,,,,1,1,1.0,1.0,-1.0,0.0,,0.0-174.0,,-1.0,1327.84,1.0,0.708569387,1.0,0.717682277,0.0,0.294421699,1.0,0.493838163,False,,5ec92a7a5ed12a0367a0f95a,,2031389,172,,evan-feature22,full_pf_b,,0
146,19157,173,,,,1,1,0.0,1.0,0.0,1.0,,0.0-175.0,,1.0,1344.2,0.0,0.75,1.0,0.7383382159999999,1.0,0.356098707,0.0,0.442533405,False,,5ec92a7a5ed12a0367a0f95a,,2042510,173,,evan-feature22,full_pf_b,,0
147,19158,174,,,,2,2,1.0,1.0,0.0,1.0,,0.0-176.0,,1.0,1804.655,1.0,0.744527075,1.0,0.75,1.0,0.334127506,1.0,0.393165805,False,,5ec92a7a5ed12a0367a0f95a,,2054106,174,,evan-feature22,full_pf_b,,1
148,19159,175,,,,1,1,1.0,0.0,0.0,1.0,,0.0-177.0,,0.0,1014.935,1.0,0.75,0.0,0.75,1.0,0.33571021799999995,0.0,0.350393962,False,,5ec92a7a5ed12a0367a0f95a,,2064892,175,,evan-feature22,full_pf_b,,1
149,19160,176,,,,2,2,0.0,0.0,0.0,1.0,,0.0-178.0,,0.0,976.075,1.0,0.75,0.0,0.75,0.0,0.313628297,0.0,0.36349657399999996,False,,5ec92a7a5ed12a0367a0f95a,,2075651,176,,evan-feature22,full_pf_b,,1
150,19161,177,,,,2,2,0.0,0.0,-1.0,0.0,,0.0-179.0,,0.0,3663.29,1.0,0.75,1.0,0.734284182,0.0,0.262667667,0.0,0.380199119,False,,5ec92a7a5ed12a0367a0f95a,,2089105,177,,evan-feature22,full_pf_b,,0
151,19162,178,,,,2,2,0.0,1.0,0.0,1.0,,0.0-180.0,,1.0,871.935,1.0,0.75,1.0,0.75,0.0,0.25,1.0,0.394494013,False,,5ec92a7a5ed12a0367a0f95a,,2099760,178,,evan-feature22,full_pf_b,,0
152,19163,179,,,,1,1,1.0,0.0,-1.0,0.0,,0.0-181.0,,-1.0,1278.485,1.0,0.722298145,0.0,0.7357822340000001,0.0,0.25,0.0,0.319142121,False,,5ec92a7a5ed12a0367a0f95a,,2110825,179,,evan-feature22,full_pf_b,,1
153,19164,180,,,,2,2,0.0,0.0,-1.0,0.0,,0.0-182.0,,0.0,998.575,1.0,0.73149275,1.0,0.724276446,0.0,0.305856907,0.0,0.281315057,False,,5ec92a7a5ed12a0367a0f95a,,2121599,180,,evan-feature22,full_pf_b,,1
154,19165,181,,,,1,1,1.0,1.0,0.0,1.0,,0.0-183.0,,1.0,1037.0,1.0,0.7458732690000001,1.0,0.7336382459999999,0.0,0.272571964,1.0,0.266021999,False,,5ec92a7a5ed12a0367a0f95a,,2132422,181,,evan-feature22,full_pf_b,,1
155,19166,182,,,,2,2,0.0,0.0,0.0,1.0,,0.0-184.0,,0.0,879.025,1.0,0.705579037,0.0,0.720778292,0.0,0.320238144,0.0,0.30971744,False,,5ec92a7a5ed12a0367a0f95a,,2143086,182,,evan-feature22,full_pf_b,,1
156,19167,183,,,,2,2,0.0,0.0,0.0,1.0,,0.0-185.0,,0.0,1001.855,0.0,0.700425648,1.0,0.7198784009999999,0.0,0.272590393,0.0,0.304182931,False,,5ec92a7a5ed12a0367a0f95a,,2153876,183,,evan-feature22,full_pf_b,,0
157,19168,184,,,,1,1,1.0,1.0,0.0,1.0,,0.0-186.0,,1.0,944.365,1.0,0.735590785,1.0,0.722714973,0.0,0.25,1.0,0.323421091,False,,5ec92a7a5ed12a0367a0f95a,,2164601,184,,evan-feature22,full_pf_b,,1
158,19169,185,,,,1,1,1.0,0.0,0.0,1.0,,0.0-187.0,,0.0,1710.115,1.0,0.724807662,0.0,0.63146213,1.0,0.36836492600000004,0.0,0.34592153299999995,False,,5ec92a7a5ed12a0367a0f95a,,2176089,185,,evan-feature22,full_pf_b,,0
159,19170,186,,,,2,2,1.0,0.0,0.0,1.0,,0.0-188.0,,0.0,332.17,0.0,0.7352796909999999,0.0,0.555111392,1.0,0.36003922,0.0,0.31433779999999995,False,,5ec92a7a5ed12a0367a0f95a,,2186199,186,,evan-feature22,full_pf_b,,1
160,19171,187,notice,,,,,,,,,,0.0-189.0,"{""Q0"":""I won considerably more as I went on""}",,13746.0,,,,,,,,,False,,5ec92a7a5ed12a0367a0f95a,,2199946,187,Q,survey-text,full_pf_b,,1
161,19172,188,track1,,[1],,,,,,,,0.0-190.0,"{""Q0"":""no""}",,3940.0,,,,,,,,,False,,5ec92a7a5ed12a0367a0f95a,,2203891,188,Q,evan-quiz,full_pf_b,,1
162,19173,189,track2,,[1],,,,,,,,0.0-191.0,"{""Q0"":""no""}",,11997.0,,,,,,,,,False,,5ec92a7a5ed12a0367a0f95a,,2215891,189,Q,evan-quiz,full_pf_b,,1
163,19174,190,strat,,,,,,,,,,0.0-192.0,"{""Q0"":""random""}",,5018.0,,,,,,,,,False,,5ec92a7a5ed12a0367a0f95a,,2220912,190,Q,survey-text,full_pf_b,,1
