,index,Unnamed: 0,Q_name,button_pressed,choice_idxs,chosen_pos,chosen_state,chosen_state_f_1_outcome,chosen_state_f_2_outcome,f_1_reward,f_2_reward,incor_questions,internal_node_id,responses,reward_received,rt,s_1_f_1_outcome,s_1_f_1_prob,s_1_f_2_outcome,s_1_f_2_prob,s_2_f_1_outcome,s_2_f_1_prob,s_2_f_2_outcome,s_2_f_2_prob,safe_first,stimulus,subjectID,success,time_elapsed,trial_index,trial_num,trial_type,version,view_history,switching
0,34863,45,,,,1,1,0.0,0.0,-1.0,0.0,,0.0-27.0,,0.0,1451.045,0.0,0.6,0.0,0.6,0.0,0.4,0.0,0.4,False,,5b493d6e478a770001b70a88,,2059181,45,,evan-feature22,full_pf_b,,0
1,34864,46,,,,1,1,0.0,1.0,-1.0,0.0,,0.0-28.0,,0.0,908.03,0.0,0.608053294,1.0,0.63424552,0.0,0.397152172,0.0,0.347069101,False,,5b493d6e478a770001b70a88,,2069878,46,,evan-feature22,full_pf_b,,0
2,34865,47,,,,2,2,1.0,0.0,-1.0,0.0,,0.0-29.0,,-1.0,1118.585,0.0,0.642237155,1.0,0.648566321,1.0,0.389407674,0.0,0.285525717,False,,5b493d6e478a770001b70a88,,2080779,47,,evan-feature22,full_pf_b,,1
3,34866,48,,,,1,1,1.0,0.0,-1.0,0.0,,0.0-30.0,,-1.0,1154.035,1.0,0.661086576,0.0,0.630492543,1.0,0.399058924,1.0,0.25,False,,5b493d6e478a770001b70a88,,2091712,48,,evan-feature22,full_pf_b,,1
4,34867,49,,,,1,1,1.0,0.0,0.0,1.0,,0.0-31.0,,0.0,1181.55,1.0,0.631324137,0.0,0.6269842929999999,0.0,0.38734784299999997,1.0,0.25,False,,5b493d6e478a770001b70a88,,2102675,49,,evan-feature22,full_pf_b,,0
5,34868,50,,,,1,1,1.0,1.0,0.0,1.0,,0.0-32.0,,1.0,515.56,1.0,0.6381991370000001,1.0,0.68987999,1.0,0.384107265,0.0,0.271332943,False,,5b493d6e478a770001b70a88,,2112979,50,,evan-feature22,full_pf_b,,0
6,34869,51,,,,1,1,1.0,1.0,-1.0,0.0,,0.0-33.0,,-1.0,1174.38,1.0,0.66034901,1.0,0.742641349,0.0,0.360225629,1.0,0.25,False,,5b493d6e478a770001b70a88,,2123935,51,,evan-feature22,full_pf_b,,0
7,34870,52,,,,1,1,1.0,1.0,-1.0,0.0,,0.0-34.0,,-1.0,818.325,1.0,0.638612418,1.0,0.75,0.0,0.367273939,0.0,0.25,False,,5b493d6e478a770001b70a88,,2134530,52,,evan-feature22,full_pf_b,,0
8,34871,53,,,,2,2,1.0,0.0,0.0,1.0,,0.0-35.0,,0.0,717.16,0.0,0.624340629,0.0,0.75,1.0,0.425829545,0.0,0.25,False,,5b493d6e478a770001b70a88,,2145019,53,,evan-feature22,full_pf_b,,1
9,34872,54,,,,1,1,1.0,0.0,0.0,1.0,,0.0-36.0,,0.0,300.94,1.0,0.621999804,0.0,0.75,0.0,0.368609357,0.0,0.25,False,,5b493d6e478a770001b70a88,,2155095,54,,evan-feature22,full_pf_b,,1
10,34873,55,,,,1,1,0.0,1.0,-1.0,0.0,,0.0-37.0,,0.0,990.93,0.0,0.62666403,1.0,0.75,0.0,0.311151498,0.0,0.25,False,,5b493d6e478a770001b70a88,,2165869,55,,evan-feature22,full_pf_b,,0
11,34874,56,,,,1,1,1.0,0.0,0.0,1.0,,0.0-38.0,,0.0,1113.89,1.0,0.6819650009999999,0.0,0.75,0.0,0.310763048,1.0,0.25,False,,5b493d6e478a770001b70a88,,2176771,56,,evan-feature22,full_pf_b,,0
12,34875,57,,,,1,1,1.0,0.0,-1.0,0.0,,0.0-39.0,,-1.0,993.41,1.0,0.740626951,0.0,0.75,1.0,0.25,0.0,0.25,False,,5b493d6e478a770001b70a88,,2187549,57,,evan-feature22,full_pf_b,,0
13,34876,58,,,,2,2,0.0,0.0,-1.0,0.0,,0.0-40.0,,0.0,1368.89,1.0,0.739599242,0.0,0.742034978,0.0,0.25397114600000004,0.0,0.25,False,,5b493d6e478a770001b70a88,,2198695,58,,evan-feature22,full_pf_b,,1
14,34877,59,,,,1,1,1.0,1.0,-1.0,0.0,,0.0-41.0,,-1.0,580.955,1.0,0.732341315,1.0,0.72735643,0.0,0.25,0.0,0.25,False,,5b493d6e478a770001b70a88,,2209059,59,,evan-feature22,full_pf_b,,1
15,34878,60,,,,1,1,1.0,1.0,-1.0,0.0,,0.0-42.0,,-1.0,675.94,1.0,0.7062287770000001,1.0,0.75,0.0,0.29002151,0.0,0.288256649,False,,5b493d6e478a770001b70a88,,2219521,60,,evan-feature22,full_pf_b,,0
16,34879,61,,,,2,2,0.0,0.0,-1.0,0.0,,0.0-43.0,,0.0,2348.135,0.0,0.7086029209999999,1.0,0.75,0.0,0.274129113,0.0,0.262851608,False,,5b493d6e478a770001b70a88,,2231648,61,,evan-feature22,full_pf_b,,1
17,34880,62,,,,1,1,1.0,1.0,-1.0,0.0,,0.0-44.0,,-1.0,2029.465,1.0,0.669189651,1.0,0.727614338,1.0,0.298444036,0.0,0.296944518,False,,5b493d6e478a770001b70a88,,2243454,62,,evan-feature22,full_pf_b,,1
18,34881,63,,,,1,1,0.0,1.0,-1.0,0.0,,0.0-45.0,,0.0,1689.45,0.0,0.6819912929999999,1.0,0.7179434290000001,0.0,0.265003961,0.0,0.28157921199999997,False,,5b493d6e478a770001b70a88,,2254925,63,,evan-feature22,full_pf_b,,0
19,34882,64,,,,2,2,1.0,1.0,0.0,1.0,,0.0-46.0,,1.0,1006.835,1.0,0.665275002,1.0,0.723065271,1.0,0.260414971,1.0,0.30973870000000003,False,,5b493d6e478a770001b70a88,,2265713,64,,evan-feature22,full_pf_b,,1
20,34883,65,,,,1,1,1.0,0.0,-1.0,0.0,,0.0-47.0,,-1.0,1193.48,1.0,0.6660593260000001,0.0,0.728032907,0.0,0.30922817,1.0,0.338778608,False,,5b493d6e478a770001b70a88,,2276690,65,,evan-feature22,full_pf_b,,1
21,34884,66,,,,2,2,0.0,1.0,-1.0,0.0,,0.0-48.0,,0.0,1281.66,1.0,0.702068785,1.0,0.6528750879999999,0.0,0.287329608,1.0,0.35789613200000003,False,,5b493d6e478a770001b70a88,,2287753,66,,evan-feature22,full_pf_b,,1
22,34885,67,,,,SLOW,SLOW,,,-1.0,0.0,,0.0-49.0,,-3.0,,1.0,0.651939787,1.0,0.636725589,0.0,0.284834488,1.0,0.358563756,False,,5b493d6e478a770001b70a88,,2293571,67,,evan-feature22,full_pf_b,,1
23,34886,68,,,,1,1,1.0,1.0,0.0,1.0,,0.0-50.0,,1.0,647.82,1.0,0.67573929,1.0,0.612550049,0.0,0.37130387600000003,1.0,0.383542402,False,,5b493d6e478a770001b70a88,,2304002,68,,evan-feature22,full_pf_b,,1
24,34887,69,,,,2,2,0.0,0.0,0.0,1.0,,0.0-51.0,,0.0,518.535,1.0,0.620753801,0.0,0.60513644,0.0,0.385529434,0.0,0.340361743,False,,5b493d6e478a770001b70a88,,2314305,69,,evan-feature22,full_pf_b,,1
25,34888,70,,,,1,1,1.0,0.0,0.0,1.0,,0.0-52.0,,0.0,821.095,1.0,0.673564893,0.0,0.672437924,0.0,0.292955382,0.0,0.337633795,False,,5b493d6e478a770001b70a88,,2324904,70,,evan-feature22,full_pf_b,,1
26,34889,71,,,,2,2,1.0,1.0,-1.0,0.0,,0.0-53.0,,-1.0,724.88,1.0,0.6749427,0.0,0.724197502,1.0,0.32391132100000003,1.0,0.350995264,False,,5b493d6e478a770001b70a88,,2335412,71,,evan-feature22,full_pf_b,,1
27,34890,72,,,,2,2,0.0,1.0,-1.0,0.0,,0.0-54.0,,0.0,2502.97,1.0,0.6940159379999999,1.0,0.75,0.0,0.31710554399999996,1.0,0.413450341,False,,5b493d6e478a770001b70a88,,2347701,72,,evan-feature22,full_pf_b,,0
28,34891,73,,,,1,1,1.0,1.0,-1.0,0.0,,0.0-55.0,,-1.0,3496.265,1.0,0.6916018270000001,1.0,0.69001187,0.0,0.261817804,0.0,0.40038635,False,,5b493d6e478a770001b70a88,,2360982,73,,evan-feature22,full_pf_b,,1
29,34892,74,,,,2,2,0.0,0.0,-1.0,0.0,,0.0-56.0,,0.0,698.73,0.0,0.641061544,1.0,0.71337992,0.0,0.277296461,0.0,0.47372791700000005,False,,5b493d6e478a770001b70a88,,2371453,74,,evan-feature22,full_pf_b,,1
30,34893,75,,,,1,1,0.0,1.0,-1.0,0.0,,0.0-57.0,,0.0,651.54,0.0,0.6082438520000001,1.0,0.708471106,0.0,0.28745137,1.0,0.564174476,False,,5b493d6e478a770001b70a88,,2381886,75,,evan-feature22,full_pf_b,,1
31,34894,76,,,,1,1,1.0,1.0,-1.0,0.0,,0.0-58.0,,-1.0,3968.01,1.0,0.6051112120000001,1.0,0.7118147229999999,0.0,0.272390611,1.0,0.5595149939999999,False,,5b493d6e478a770001b70a88,,2395640,76,,evan-feature22,full_pf_b,,0
32,34895,77,,,,2,2,1.0,0.0,-1.0,0.0,,0.0-59.0,,-1.0,1165.61,1.0,0.582420852,1.0,0.635867583,1.0,0.31089574,0.0,0.5227206520000001,False,,5b493d6e478a770001b70a88,,2406594,77,,evan-feature22,full_pf_b,,1
33,34896,78,,,,1,1,1.0,1.0,0.0,1.0,,0.0-60.0,,1.0,583.44,1.0,0.623195575,1.0,0.655026044,0.0,0.25,1.0,0.560387538,False,,5b493d6e478a770001b70a88,,2416955,78,,evan-feature22,full_pf_b,,1
34,34897,79,,,,1,1,0.0,1.0,-1.0,0.0,,0.0-61.0,,0.0,709.315,0.0,0.601889598,1.0,0.678198724,1.0,0.25,1.0,0.559922936,False,,5b493d6e478a770001b70a88,,2427443,79,,evan-feature22,full_pf_b,,0
35,34898,80,,,,2,2,0.0,0.0,-1.0,0.0,,0.0-62.0,,0.0,660.625,0.0,0.601259914,0.0,0.704681482,0.0,0.33908969299999997,0.0,0.505003715,False,,5b493d6e478a770001b70a88,,2437872,80,,evan-feature22,full_pf_b,,1
36,34899,81,,,,1,1,1.0,1.0,-1.0,0.0,,0.0-63.0,,-1.0,1813.775,1.0,0.59645454,1.0,0.710437172,0.0,0.327441879,1.0,0.391749613,False,,5b493d6e478a770001b70a88,,2449470,81,,evan-feature22,full_pf_b,,1
37,34900,82,,,,SLOW,SLOW,,,-1.0,0.0,,0.0-64.0,,-3.0,,1.0,0.529473,1.0,0.636758527,0.0,0.301338063,1.0,0.365661481,False,,5b493d6e478a770001b70a88,,2455287,82,,evan-feature22,full_pf_b,,1
38,34901,83,,,,2,2,0.0,1.0,0.0,1.0,,0.0-65.0,,1.0,627.485,1.0,0.541657162,1.0,0.634541962,0.0,0.343535366,1.0,0.371763742,False,,5b493d6e478a770001b70a88,,2465699,83,,evan-feature22,full_pf_b,,1
39,34902,84,,,,1,1,1.0,0.0,-1.0,0.0,,0.0-66.0,,-1.0,989.105,1.0,0.5707533260000001,0.0,0.589121171,0.0,0.326428396,0.0,0.43961622899999997,False,,5b493d6e478a770001b70a88,,2476466,84,,evan-feature22,full_pf_b,,1
40,34903,85,,,,1,1,1.0,0.0,-1.0,0.0,,0.0-67.0,,-1.0,3080.96,1.0,0.5707533260000001,0.0,0.589121171,0.0,0.326428396,1.0,0.43961622899999997,False,,5b493d6e478a770001b70a88,,2489329,85,,evan-feature22,full_pf_b,,0
41,34904,86,,,,1,1,0.0,0.0,-1.0,0.0,,0.0-68.0,,0.0,1873.335,0.0,0.506271295,0.0,0.641775594,1.0,0.37149690700000004,0.0,0.404330166,False,,5b493d6e478a770001b70a88,,2500987,86,,evan-feature22,full_pf_b,,0
42,34905,87,,,,1,1,1.0,1.0,0.0,1.0,,0.0-69.0,,1.0,2997.45,1.0,0.455642565,1.0,0.623605825,1.0,0.358753011,1.0,0.346174041,False,,5b493d6e478a770001b70a88,,2513769,87,,evan-feature22,full_pf_b,,0
43,34906,88,,,,2,2,1.0,0.0,0.0,1.0,,0.0-70.0,,0.0,1117.08,0.0,0.483677308,0.0,0.5904681070000001,1.0,0.402218411,0.0,0.35344697,False,,5b493d6e478a770001b70a88,,2524667,88,,evan-feature22,full_pf_b,,1
44,34907,89,,,,1,1,1.0,0.0,0.0,1.0,,0.0-71.0,,0.0,3410.85,1.0,0.394210977,0.0,0.558925494,1.0,0.540052017,0.0,0.35182128700000004,False,,5b493d6e478a770001b70a88,,2537859,89,,evan-feature22,full_pf_b,,1
45,34908,90,,,,2,2,0.0,0.0,-1.0,0.0,,0.0-72.0,,0.0,427.2,0.0,0.382300414,1.0,0.577670603,0.0,0.607608448,0.0,0.378261578,False,,5b493d6e478a770001b70a88,,2548060,90,,evan-feature22,full_pf_b,,1
46,34909,91,,,,2,2,1.0,1.0,-1.0,0.0,,0.0-73.0,,-1.0,1324.505,0.0,0.357596762,1.0,0.5929076529999999,1.0,0.6579790010000001,1.0,0.401326777,False,,5b493d6e478a770001b70a88,,2559165,91,,evan-feature22,full_pf_b,,0
47,34910,92,,,,1,1,1.0,0.0,-1.0,0.0,,0.0-74.0,,-1.0,533.905,1.0,0.362033495,0.0,0.582308608,0.0,0.649195052,1.0,0.355158505,False,,5b493d6e478a770001b70a88,,2569475,92,,evan-feature22,full_pf_b,,1
48,34911,93,,,,2,2,1.0,0.0,-1.0,0.0,,0.0-75.0,,-1.0,1060.48,0.0,0.369620635,1.0,0.669100864,1.0,0.706059111,0.0,0.362516241,False,,5b493d6e478a770001b70a88,,2580319,93,,evan-feature22,full_pf_b,,1
49,34912,94,,,,1,1,0.0,0.0,-1.0,0.0,,0.0-76.0,,0.0,939.765,0.0,0.41477751399999996,0.0,0.7284416779999999,1.0,0.7182656940000001,0.0,0.36228040899999997,False,,5b493d6e478a770001b70a88,,2591036,94,,evan-feature22,full_pf_b,,1
50,34913,95,,,,2,2,1.0,0.0,0.0,1.0,,0.0-77.0,,0.0,884.84,1.0,0.37675460299999997,1.0,0.703250285,1.0,0.75,0.0,0.461979164,False,,5b493d6e478a770001b70a88,,2601703,95,,evan-feature22,full_pf_b,,1
51,34914,96,,,,1,1,0.0,1.0,0.0,1.0,,0.0-78.0,,1.0,2765.44,0.0,0.398716075,1.0,0.6723864890000001,1.0,0.674153818,1.0,0.519029516,False,,5b493d6e478a770001b70a88,,2614250,96,,evan-feature22,full_pf_b,,1
52,34915,97,,,,2,2,1.0,0.0,-1.0,0.0,,0.0-79.0,,-1.0,382.215,0.0,0.34677856700000004,1.0,0.69057175,1.0,0.6822438540000001,0.0,0.477292237,False,,5b493d6e478a770001b70a88,,2624407,97,,evan-feature22,full_pf_b,,1
53,34916,98,,,,1,1,0.0,0.0,0.0,1.0,,0.0-80.0,,0.0,1605.465,0.0,0.28580469199999997,0.0,0.68408818,0.0,0.684207565,0.0,0.49780448299999996,False,,5b493d6e478a770001b70a88,,2635787,98,,evan-feature22,full_pf_b,,1
54,34918,100,,,,1,1,1.0,1.0,-1.0,0.0,,0.0-82.0,,-1.0,686.14,1.0,0.25,1.0,0.7405808970000001,1.0,0.679614108,0.0,0.436436964,False,,5b493d6e478a770001b70a88,,2676049,100,,evan-feature22,full_pf_b,,0
55,34919,101,,,,2,2,1.0,0.0,0.0,1.0,,0.0-83.0,,0.0,565.295,0.0,0.29890393,0.0,0.730505706,1.0,0.7328203320000001,0.0,0.439256938,False,,5b493d6e478a770001b70a88,,2686393,101,,evan-feature22,full_pf_b,,1
56,34920,102,,,,1,1,0.0,0.0,-1.0,0.0,,0.0-84.0,,0.0,554.085,0.0,0.326762398,0.0,0.7148059609999999,0.0,0.75,0.0,0.44389608799999997,False,,5b493d6e478a770001b70a88,,2696728,102,,evan-feature22,full_pf_b,,1
57,34921,103,,,,2,2,1.0,1.0,-1.0,0.0,,0.0-85.0,,-1.0,2076.73,0.0,0.295168515,1.0,0.739760854,1.0,0.719947008,1.0,0.35277284600000003,False,,5b493d6e478a770001b70a88,,2708585,103,,evan-feature22,full_pf_b,,1
58,34922,104,,,,SLOW,SLOW,,,-1.0,0.0,,0.0-86.0,,-3.0,,0.0,0.25,1.0,0.70781482,1.0,0.75,0.0,0.286095925,False,,5b493d6e478a770001b70a88,,2714403,104,,evan-feature22,full_pf_b,,1
59,34923,105,,,,1,1,0.0,1.0,0.0,1.0,,0.0-87.0,,1.0,628.955,0.0,0.25638190899999996,1.0,0.704088163,1.0,0.75,0.0,0.26872601399999996,False,,5b493d6e478a770001b70a88,,2724816,105,,evan-feature22,full_pf_b,,1
60,34924,106,,,,1,1,0.0,1.0,0.0,1.0,,0.0-88.0,,1.0,638.705,0.0,0.271581126,1.0,0.669760107,1.0,0.733896663,1.0,0.273244572,False,,5b493d6e478a770001b70a88,,2735237,106,,evan-feature22,full_pf_b,,0
61,34925,107,,,,1,1,0.0,1.0,0.0,1.0,,0.0-89.0,,1.0,883.48,0.0,0.257144401,1.0,0.600575706,1.0,0.74488122,1.0,0.25,False,,5b493d6e478a770001b70a88,,2745910,107,,evan-feature22,full_pf_b,,0
62,34926,108,,,,2,2,0.0,0.0,-1.0,0.0,,0.0-90.0,,0.0,450.215,0.0,0.25,1.0,0.616870026,0.0,0.723610234,0.0,0.25,False,,5b493d6e478a770001b70a88,,2756138,108,,evan-feature22,full_pf_b,,1
63,34927,109,,,,1,1,0.0,0.0,0.0,1.0,,0.0-91.0,,0.0,354.245,0.0,0.25,0.0,0.583540187,1.0,0.7041042559999999,0.0,0.285961995,False,,5b493d6e478a770001b70a88,,2766264,109,,evan-feature22,full_pf_b,,1
64,34928,110,,,,2,2,0.0,0.0,-1.0,0.0,,0.0-92.0,,0.0,637.885,0.0,0.27254536,0.0,0.53875765,0.0,0.693783448,0.0,0.284961652,False,,5b493d6e478a770001b70a88,,2776676,110,,evan-feature22,full_pf_b,,1
65,34929,111,,,,1,1,1.0,1.0,0.0,1.0,,0.0-93.0,,1.0,1104.465,1.0,0.25,1.0,0.548431252,1.0,0.734221895,0.0,0.279445214,False,,5b493d6e478a770001b70a88,,2787577,111,,evan-feature22,full_pf_b,,1
66,34930,112,,,,2,2,0.0,1.0,-1.0,0.0,,0.0-94.0,,0.0,791.425,0.0,0.258640684,0.0,0.545878066,0.0,0.725245965,1.0,0.31487537,False,,5b493d6e478a770001b70a88,,2798161,112,,evan-feature22,full_pf_b,,1
67,34931,113,,,,1,1,1.0,0.0,-1.0,0.0,,0.0-95.0,,-1.0,357.695,1.0,0.251103711,0.0,0.5776290629999999,0.0,0.696320133,0.0,0.317831047,False,,5b493d6e478a770001b70a88,,2808296,113,,evan-feature22,full_pf_b,,1
68,34932,114,,,,2,2,0.0,0.0,-1.0,0.0,,0.0-96.0,,0.0,2302.695,0.0,0.276630292,0.0,0.617329858,0.0,0.73838088,0.0,0.261471582,False,,5b493d6e478a770001b70a88,,2820373,114,,evan-feature22,full_pf_b,,1
69,34933,115,,,,1,1,1.0,0.0,0.0,1.0,,0.0-97.0,,0.0,1440.2,1.0,0.297716424,0.0,0.618863717,0.0,0.7402358259999999,1.0,0.262600834,False,,5b493d6e478a770001b70a88,,2831594,115,,evan-feature22,full_pf_b,,1
70,34934,116,,,,2,2,0.0,0.0,-1.0,0.0,,0.0-98.0,,0.0,772.195,1.0,0.290935512,1.0,0.695370945,0.0,0.706570507,0.0,0.280030553,False,,5b493d6e478a770001b70a88,,2842142,116,,evan-feature22,full_pf_b,,1
71,34935,117,,,,1,1,1.0,0.0,-1.0,0.0,,0.0-99.0,,-1.0,2901.815,1.0,0.25,0.0,0.6465277079999999,0.0,0.67766682,0.0,0.25,False,,5b493d6e478a770001b70a88,,2854832,117,,evan-feature22,full_pf_b,,1
72,34936,118,,,,1,1,1.0,1.0,-1.0,0.0,,0.0-100.0,,-1.0,341.5,1.0,0.26463816,1.0,0.636100213,0.0,0.646048507,0.0,0.265607101,False,,5b493d6e478a770001b70a88,,2864954,118,,evan-feature22,full_pf_b,,0
73,34937,119,,,,1,1,1.0,0.0,-1.0,0.0,,0.0-101.0,,-1.0,338.755,1.0,0.314340707,0.0,0.667795927,1.0,0.613630805,0.0,0.25,False,,5b493d6e478a770001b70a88,,2875077,119,,evan-feature22,full_pf_b,,0
74,34938,120,,,,2,2,1.0,0.0,-1.0,0.0,,0.0-102.0,,-1.0,1225.42,0.0,0.28685784,1.0,0.6622549529999999,1.0,0.652154117,0.0,0.25,False,,5b493d6e478a770001b70a88,,2886083,120,,evan-feature22,full_pf_b,,1
75,34939,121,,,,SLOW,SLOW,,,0.0,1.0,,0.0-103.0,,-3.0,,0.0,0.304106554,0.0,0.631289538,1.0,0.707041942,1.0,0.29314237,False,,5b493d6e478a770001b70a88,,2891898,121,,evan-feature22,full_pf_b,,1
76,34940,122,,,,1,1,0.0,0.0,0.0,1.0,,0.0-104.0,,0.0,485.48,0.0,0.304806932,0.0,0.571167718,1.0,0.680472346,0.0,0.25,False,,5b493d6e478a770001b70a88,,2902160,122,,evan-feature22,full_pf_b,,1
77,34941,123,,,,2,2,1.0,1.0,0.0,1.0,,0.0-105.0,,1.0,943.61,1.0,0.37919861,0.0,0.5724849710000001,1.0,0.705638003,1.0,0.30179300600000003,False,,5b493d6e478a770001b70a88,,2912887,123,,evan-feature22,full_pf_b,,1
78,34942,124,,,,1,1,1.0,1.0,0.0,1.0,,0.0-106.0,,1.0,3874.625,1.0,0.464277969,1.0,0.554034373,1.0,0.7372627340000001,0.0,0.264699741,False,,5b493d6e478a770001b70a88,,2926546,124,,evan-feature22,full_pf_b,,1
79,34943,125,,,,2,2,1.0,0.0,-1.0,0.0,,0.0-107.0,,-1.0,1862.975,1.0,0.465104323,1.0,0.530793115,1.0,0.75,0.0,0.31683071,False,,5b493d6e478a770001b70a88,,2938190,125,,evan-feature22,full_pf_b,,1
80,34944,126,,,,SLOW,SLOW,,,0.0,1.0,,0.0-108.0,,-3.0,,1.0,0.465104323,0.0,0.530793115,1.0,0.75,0.0,0.31683071,False,,5b493d6e478a770001b70a88,,2944003,126,,evan-feature22,full_pf_b,,1
81,34945,127,,,,1,1,1.0,1.0,0.0,1.0,,0.0-109.0,,1.0,511.06,1.0,0.46833986,1.0,0.570249239,1.0,0.7244472590000001,1.0,0.364114163,False,,5b493d6e478a770001b70a88,,2954304,127,,evan-feature22,full_pf_b,,1
82,34946,128,,,,1,1,1.0,0.0,0.0,1.0,,0.0-110.0,,0.0,1267.75,1.0,0.445444024,0.0,0.649673355,0.0,0.6845441290000001,0.0,0.300660449,False,,5b493d6e478a770001b70a88,,2965348,128,,evan-feature22,full_pf_b,,0
83,34947,129,,,,2,2,1.0,0.0,0.0,1.0,,0.0-111.0,,0.0,1201.275,0.0,0.39909721299999995,1.0,0.6715179509999999,1.0,0.742310028,0.0,0.35496088299999995,False,,5b493d6e478a770001b70a88,,2976330,129,,evan-feature22,full_pf_b,,1
84,34948,130,,,,1,1,0.0,0.0,0.0,1.0,,0.0-112.0,,0.0,736.95,0.0,0.37956104799999996,0.0,0.694725302,0.0,0.7181651309999999,0.0,0.38726906299999997,False,,5b493d6e478a770001b70a88,,2986844,130,,evan-feature22,full_pf_b,,1
85,34949,131,,,,2,2,0.0,0.0,0.0,1.0,,0.0-113.0,,0.0,398.49,0.0,0.404995034,1.0,0.724375412,0.0,0.6910946859999999,0.0,0.387187347,False,,5b493d6e478a770001b70a88,,2997014,131,,evan-feature22,full_pf_b,,1
86,34950,132,,,,1,1,0.0,0.0,0.0,1.0,,0.0-114.0,,0.0,863.825,0.0,0.461740803,0.0,0.75,1.0,0.75,1.0,0.34872038200000005,False,,5b493d6e478a770001b70a88,,3007652,132,,evan-feature22,full_pf_b,,1
87,34951,133,,,,2,2,0.0,0.0,-1.0,0.0,,0.0-115.0,,0.0,667.655,1.0,0.43821380600000004,1.0,0.738833273,0.0,0.728286963,0.0,0.399538128,False,,5b493d6e478a770001b70a88,,3018096,133,,evan-feature22,full_pf_b,,1
88,34952,134,,,,1,1,1.0,0.0,0.0,1.0,,0.0-116.0,,0.0,497.93,1.0,0.41709882,0.0,0.736666736,1.0,0.75,0.0,0.389095584,False,,5b493d6e478a770001b70a88,,3028378,134,,evan-feature22,full_pf_b,,1
89,34953,135,,,,2,2,1.0,0.0,0.0,1.0,,0.0-117.0,,0.0,794.845,0.0,0.39749009799999996,1.0,0.744320029,1.0,0.75,0.0,0.363848678,False,,5b493d6e478a770001b70a88,,3038956,135,,evan-feature22,full_pf_b,,1
90,34954,136,,,,1,1,1.0,1.0,-1.0,0.0,,0.0-118.0,,-1.0,1004.185,1.0,0.392653706,1.0,0.75,0.0,0.75,0.0,0.384386976,False,,5b493d6e478a770001b70a88,,3049742,136,,evan-feature22,full_pf_b,,1
91,34955,137,,,,SLOW,SLOW,,,-1.0,0.0,,0.0-119.0,,-3.0,,0.0,0.31190902600000003,1.0,0.75,1.0,0.732413819,0.0,0.413082932,False,,5b493d6e478a770001b70a88,,3055559,137,,evan-feature22,full_pf_b,,1
92,34956,138,,,,1,1,0.0,1.0,0.0,1.0,,0.0-120.0,,1.0,1848.935,0.0,0.366917648,1.0,0.740073855,1.0,0.75,1.0,0.352861979,False,,5b493d6e478a770001b70a88,,3067192,138,,evan-feature22,full_pf_b,,1
93,34957,139,,,,1,1,0.0,0.0,0.0,1.0,,0.0-121.0,,0.0,1310.855,0.0,0.3645172,0.0,0.721770713,1.0,0.75,0.0,0.404074511,False,,5b493d6e478a770001b70a88,,3078280,139,,evan-feature22,full_pf_b,,0
94,34958,140,,,,2,2,1.0,0.0,0.0,1.0,,0.0-122.0,,0.0,652.325,0.0,0.35205600299999995,1.0,0.68983859,1.0,0.739735447,0.0,0.366895945,False,,5b493d6e478a770001b70a88,,3088712,140,,evan-feature22,full_pf_b,,1
95,34959,141,,,,1,1,1.0,1.0,0.0,1.0,,0.0-123.0,,1.0,519.395,1.0,0.40998722600000004,1.0,0.720859127,1.0,0.673854955,0.0,0.368528541,False,,5b493d6e478a770001b70a88,,3099018,141,,evan-feature22,full_pf_b,,1
96,34960,142,,,,2,2,0.0,0.0,-1.0,0.0,,0.0-124.0,,0.0,456.27,1.0,0.353625316,1.0,0.75,0.0,0.695605473,0.0,0.38303674200000004,False,,5b493d6e478a770001b70a88,,3109245,142,,evan-feature22,full_pf_b,,1
97,34961,143,,,,SLOW,SLOW,,,0.0,1.0,,0.0-125.0,,-3.0,,0.0,0.359216989,1.0,0.75,1.0,0.6987915090000001,0.0,0.35169046200000004,False,,5b493d6e478a770001b70a88,,3115060,143,,evan-feature22,full_pf_b,,1
98,34962,144,,,,1,1,0.0,1.0,-1.0,0.0,,0.0-126.0,,0.0,1874.93,0.0,0.35834496899999996,1.0,0.75,0.0,0.707067742,0.0,0.416763636,False,,5b493d6e478a770001b70a88,,3126715,144,,evan-feature22,full_pf_b,,1
99,34963,145,,,,2,2,1.0,1.0,-1.0,0.0,,0.0-127.0,,-1.0,1475.54,1.0,0.38741613799999997,1.0,0.7177369570000001,1.0,0.734902455,1.0,0.49438664299999996,False,,5b493d6e478a770001b70a88,,3137972,145,,evan-feature22,full_pf_b,,1
100,34964,146,,,,1,1,1.0,0.0,0.0,1.0,,0.0-128.0,,0.0,1769.68,1.0,0.405255252,0.0,0.7300466640000001,1.0,0.7027748070000001,0.0,0.504359668,False,,5b493d6e478a770001b70a88,,3149524,146,,evan-feature22,full_pf_b,,1
101,34965,147,,,,2,2,1.0,1.0,0.0,1.0,,0.0-129.0,,1.0,936.42,1.0,0.40697073,1.0,0.7260142190000001,1.0,0.724461982,1.0,0.522779179,False,,5b493d6e478a770001b70a88,,3160242,147,,evan-feature22,full_pf_b,,1
102,34966,148,,,,1,1,1.0,1.0,0.0,1.0,,0.0-130.0,,1.0,1193.325,1.0,0.43906215299999996,1.0,0.7252802340000001,1.0,0.719079934,0.0,0.5712990579999999,False,,5b493d6e478a770001b70a88,,3171216,148,,evan-feature22,full_pf_b,,1
103,34967,149,,,,2,2,1.0,1.0,0.0,1.0,,0.0-131.0,,1.0,418.645,0.0,0.4076705,1.0,0.73280499,1.0,0.681313127,1.0,0.523891346,False,,5b493d6e478a770001b70a88,,3181415,149,,evan-feature22,full_pf_b,,1
104,34968,150,,,,1,1,1.0,1.0,0.0,1.0,,0.0-132.0,,1.0,722.325,1.0,0.399102911,1.0,0.730498344,0.0,0.661080239,0.0,0.46742603,False,,5b493d6e478a770001b70a88,,3191921,150,,evan-feature22,full_pf_b,,1
105,34969,151,,,,2,2,0.0,0.0,-1.0,0.0,,0.0-133.0,,0.0,2137.665,1.0,0.356477282,1.0,0.712296395,0.0,0.641812684,0.0,0.44868414,False,,5b493d6e478a770001b70a88,,3203834,151,,evan-feature22,full_pf_b,,1
106,34970,152,,,,1,1,1.0,1.0,0.0,1.0,,0.0-134.0,,1.0,1218.87,1.0,0.462760722,1.0,0.692349322,1.0,0.700947931,0.0,0.394680266,False,,5b493d6e478a770001b70a88,,3214837,152,,evan-feature22,full_pf_b,,1
107,34971,153,,,,2,2,1.0,1.0,0.0,1.0,,0.0-135.0,,1.0,668.665,1.0,0.422306413,1.0,0.718375916,1.0,0.706340917,1.0,0.367787185,False,,5b493d6e478a770001b70a88,,3225290,153,,evan-feature22,full_pf_b,,1
108,34973,155,,,,1,1,1.0,0.0,0.0,1.0,,0.0-137.0,,0.0,1402.785,1.0,0.4582233,0.0,0.643834117,1.0,0.75,0.0,0.39615823299999997,False,,5b493d6e478a770001b70a88,,3323565,155,,evan-feature22,full_pf_b,,1
109,34974,156,,,,2,2,1.0,1.0,0.0,1.0,,0.0-138.0,,1.0,647.495,1.0,0.43813437899999996,1.0,0.651283804,1.0,0.729674191,1.0,0.37711048,False,,5b493d6e478a770001b70a88,,3333994,156,,evan-feature22,full_pf_b,,1
110,34975,157,,,,1,1,0.0,1.0,0.0,1.0,,0.0-139.0,,1.0,3727.375,0.0,0.471199094,1.0,0.6470010979999999,1.0,0.715008097,1.0,0.410656191,False,,5b493d6e478a770001b70a88,,3347499,157,,evan-feature22,full_pf_b,,1
111,34976,158,,,,1,1,1.0,1.0,-1.0,0.0,,0.0-140.0,,-1.0,643.99,1.0,0.42486406,1.0,0.629771829,1.0,0.6550939960000001,1.0,0.459093873,False,,5b493d6e478a770001b70a88,,3357933,158,,evan-feature22,full_pf_b,,0
112,34977,159,,,,1,1,0.0,1.0,-1.0,0.0,,0.0-141.0,,0.0,1902.995,0.0,0.4803197,1.0,0.645842715,1.0,0.6421749920000001,0.0,0.443092151,False,,5b493d6e478a770001b70a88,,3369620,159,,evan-feature22,full_pf_b,,0
113,34978,160,,,,2,2,1.0,0.0,-1.0,0.0,,0.0-142.0,,-1.0,896.465,0.0,0.521848997,1.0,0.735801074,1.0,0.6691348460000001,0.0,0.45259351600000003,False,,5b493d6e478a770001b70a88,,3380300,160,,evan-feature22,full_pf_b,,1
114,34979,161,,,,1,1,0.0,0.0,0.0,1.0,,0.0-143.0,,0.0,355.95,0.0,0.49565621299999996,0.0,0.742400847,0.0,0.661512553,0.0,0.483110831,False,,5b493d6e478a770001b70a88,,3390427,161,,evan-feature22,full_pf_b,,1
115,34980,162,,,,2,2,1.0,0.0,-1.0,0.0,,0.0-144.0,,-1.0,634.62,0.0,0.521564361,1.0,0.731078632,1.0,0.6774886809999999,0.0,0.483263956,False,,5b493d6e478a770001b70a88,,3400846,162,,evan-feature22,full_pf_b,,1
116,34981,163,,,,1,1,0.0,1.0,-1.0,0.0,,0.0-145.0,,0.0,346.845,0.0,0.558893102,1.0,0.719810023,1.0,0.67461031,0.0,0.499349834,False,,5b493d6e478a770001b70a88,,3410979,163,,evan-feature22,full_pf_b,,1
117,34982,164,,,,2,2,1.0,1.0,0.0,1.0,,0.0-146.0,,1.0,2602.705,1.0,0.611031046,0.0,0.75,1.0,0.688072995,1.0,0.5321422729999999,False,,5b493d6e478a770001b70a88,,3423376,164,,evan-feature22,full_pf_b,,1
118,34983,165,,,,1,1,1.0,1.0,-1.0,0.0,,0.0-147.0,,-1.0,2214.15,1.0,0.633223941,1.0,0.713567728,1.0,0.75,0.0,0.48185314700000004,False,,5b493d6e478a770001b70a88,,3435367,165,,evan-feature22,full_pf_b,,1
119,34984,166,,,,1,1,0.0,1.0,-1.0,0.0,,0.0-148.0,,0.0,896.435,0.0,0.664001694,1.0,0.705509768,1.0,0.75,1.0,0.500211065,False,,5b493d6e478a770001b70a88,,3446045,166,,evan-feature22,full_pf_b,,0
120,34985,167,,,,2,2,1.0,1.0,0.0,1.0,,0.0-149.0,,1.0,910.27,0.0,0.664001694,1.0,0.705509768,1.0,0.75,1.0,0.500211065,False,,5b493d6e478a770001b70a88,,3456743,167,,evan-feature22,full_pf_b,,1
121,34986,168,,,,1,1,1.0,1.0,0.0,1.0,,0.0-150.0,,1.0,478.64,1.0,0.696508041,1.0,0.71066027,1.0,0.717028709,1.0,0.49792991,False,,5b493d6e478a770001b70a88,,3467008,168,,evan-feature22,full_pf_b,,1
122,34987,169,,,,1,1,1.0,0.0,-1.0,0.0,,0.0-151.0,,-1.0,2299.185,1.0,0.699883272,0.0,0.75,1.0,0.713543895,1.0,0.496962643,False,,5b493d6e478a770001b70a88,,3479085,169,,evan-feature22,full_pf_b,,0
123,34988,170,,,,1,1,1.0,1.0,0.0,1.0,,0.0-152.0,,1.0,714.925,1.0,0.741163419,1.0,0.75,0.0,0.64691024,1.0,0.513858197,False,,5b493d6e478a770001b70a88,,3489582,170,,evan-feature22,full_pf_b,,0
124,34989,171,,,,2,2,0.0,0.0,-1.0,0.0,,0.0-153.0,,0.0,967.79,0.0,0.75,1.0,0.70816558,0.0,0.594499079,0.0,0.48502124,False,,5b493d6e478a770001b70a88,,3500320,171,,evan-feature22,full_pf_b,,1
125,34990,172,,,,1,1,0.0,1.0,0.0,1.0,,0.0-154.0,,1.0,726.715,0.0,0.75,1.0,0.721848901,1.0,0.62197249,0.0,0.48263586399999997,False,,5b493d6e478a770001b70a88,,3510830,172,,evan-feature22,full_pf_b,,1
126,34991,173,,,,2,2,0.0,1.0,-1.0,0.0,,0.0-155.0,,0.0,361.655,0.0,0.75,1.0,0.74813071,0.0,0.584357161,1.0,0.411477782,False,,5b493d6e478a770001b70a88,,3520969,173,,evan-feature22,full_pf_b,,1
127,34992,174,,,,1,1,0.0,0.0,0.0,1.0,,0.0-156.0,,0.0,1195.445,0.0,0.75,0.0,0.75,1.0,0.52287236,1.0,0.488290656,False,,5b493d6e478a770001b70a88,,3531938,174,,evan-feature22,full_pf_b,,1
128,34993,175,,,,2,2,0.0,0.0,0.0,1.0,,0.0-157.0,,0.0,320.235,1.0,0.75,1.0,0.75,0.0,0.544321581,0.0,0.53143059,False,,5b493d6e478a770001b70a88,,3542025,175,,evan-feature22,full_pf_b,,1
129,34994,176,,,,1,1,0.0,1.0,0.0,1.0,,0.0-158.0,,1.0,765.31,0.0,0.726754564,1.0,0.75,0.0,0.5129306370000001,0.0,0.530592445,False,,5b493d6e478a770001b70a88,,3552568,176,,evan-feature22,full_pf_b,,1
130,34995,177,,,,2,2,0.0,1.0,-1.0,0.0,,0.0-159.0,,0.0,846.075,1.0,0.75,1.0,0.7392590729999999,0.0,0.479875835,1.0,0.547007051,False,,5b493d6e478a770001b70a88,,3563196,177,,evan-feature22,full_pf_b,,1
131,34996,178,,,,1,1,1.0,1.0,-1.0,0.0,,0.0-160.0,,-1.0,1030.745,1.0,0.75,1.0,0.7393376979999999,0.0,0.546045419,0.0,0.541267353,False,,5b493d6e478a770001b70a88,,3574011,178,,evan-feature22,full_pf_b,,1
132,34997,179,,,,1,1,1.0,0.0,-1.0,0.0,,0.0-161.0,,-1.0,865.895,1.0,0.75,0.0,0.75,1.0,0.485725895,1.0,0.527625395,False,,5b493d6e478a770001b70a88,,3584663,179,,evan-feature22,full_pf_b,,0
133,34998,180,,,,2,2,0.0,1.0,0.0,1.0,,0.0-162.0,,1.0,670.975,1.0,0.75,1.0,0.725087974,0.0,0.488603595,1.0,0.504019206,False,,5b493d6e478a770001b70a88,,3595121,180,,evan-feature22,full_pf_b,,1
134,34999,181,,,,1,1,0.0,1.0,0.0,1.0,,0.0-163.0,,1.0,544.215,0.0,0.745504295,1.0,0.75,1.0,0.452379914,1.0,0.50131194,False,,5b493d6e478a770001b70a88,,3605444,181,,evan-feature22,full_pf_b,,1
135,35000,182,,,,2,2,1.0,1.0,0.0,1.0,,0.0-164.0,,1.0,3818.355,1.0,0.728513874,1.0,0.75,1.0,0.44125567200000004,1.0,0.531454591,False,,5b493d6e478a770001b70a88,,3619050,182,,evan-feature22,full_pf_b,,1
136,35001,183,,,,1,1,1.0,1.0,-1.0,0.0,,0.0-165.0,,-1.0,803.67,1.0,0.73790804,1.0,0.75,0.0,0.413036656,1.0,0.524619035,False,,5b493d6e478a770001b70a88,,3629635,183,,evan-feature22,full_pf_b,,1
137,35002,184,,,,1,1,1.0,1.0,0.0,1.0,,0.0-166.0,,1.0,945.49,1.0,0.7080961309999999,1.0,0.708666865,0.0,0.431915581,1.0,0.481819489,False,,5b493d6e478a770001b70a88,,3640364,184,,evan-feature22,full_pf_b,,0
138,35003,185,,,,2,2,1.0,0.0,0.0,1.0,,0.0-167.0,,0.0,777.195,0.0,0.721378003,1.0,0.71605913,1.0,0.36642387,0.0,0.5036739929999999,False,,5b493d6e478a770001b70a88,,3650927,185,,evan-feature22,full_pf_b,,1
139,35004,186,,,,1,1,1.0,0.0,0.0,1.0,,0.0-168.0,,0.0,1016.165,1.0,0.7340618959999999,0.0,0.699323252,0.0,0.35298046299999997,1.0,0.511241692,False,,5b493d6e478a770001b70a88,,3661722,186,,evan-feature22,full_pf_b,,1
140,35005,187,,,,2,2,0.0,1.0,-1.0,0.0,,0.0-169.0,,0.0,365.015,0.0,0.75,1.0,0.70412698,0.0,0.380734814,1.0,0.529580116,False,,5b493d6e478a770001b70a88,,3671872,187,,evan-feature22,full_pf_b,,1
141,35006,188,,,,1,1,1.0,1.0,0.0,1.0,,0.0-170.0,,1.0,615.705,1.0,0.7436654909999999,1.0,0.711182751,1.0,0.41125331,1.0,0.49554405,False,,5b493d6e478a770001b70a88,,3682284,188,,evan-feature22,full_pf_b,,1
142,35007,189,,,,2,2,1.0,0.0,0.0,1.0,,0.0-171.0,,0.0,409.725,0.0,0.731607915,0.0,0.651774583,1.0,0.35688023,0.0,0.45194491600000003,False,,5b493d6e478a770001b70a88,,3692469,189,,evan-feature22,full_pf_b,,1
143,35008,190,,,,1,1,1.0,1.0,-1.0,0.0,,0.0-172.0,,-1.0,474.325,1.0,0.75,1.0,0.75,1.0,0.283145374,1.0,0.528608005,False,,5b493d6e478a770001b70a88,,3702729,190,,evan-feature22,full_pf_b,,1
144,35009,191,,,,2,2,1.0,1.0,-1.0,0.0,,0.0-173.0,,-1.0,700.87,0.0,0.7491416890000001,1.0,0.7423785959999999,1.0,0.29135870399999997,1.0,0.498888318,False,,5b493d6e478a770001b70a88,,3713213,191,,evan-feature22,full_pf_b,,1
145,35010,192,,,,1,1,0.0,1.0,-1.0,0.0,,0.0-174.0,,0.0,1444.575,0.0,0.708569387,1.0,0.717682277,0.0,0.294421699,0.0,0.493838163,False,,5b493d6e478a770001b70a88,,3724438,192,,evan-feature22,full_pf_b,,1
146,35011,193,,,,2,2,0.0,1.0,0.0,1.0,,0.0-175.0,,1.0,984.62,1.0,0.75,1.0,0.7383382159999999,0.0,0.356098707,1.0,0.442533405,False,,5b493d6e478a770001b70a88,,3735200,193,,evan-feature22,full_pf_b,,1
147,35012,194,,,,1,1,1.0,1.0,0.0,1.0,,0.0-176.0,,1.0,1130.21,1.0,0.744527075,1.0,0.75,0.0,0.334127506,0.0,0.393165805,False,,5b493d6e478a770001b70a88,,3746111,194,,evan-feature22,full_pf_b,,1
148,35013,195,,,,2,2,0.0,0.0,0.0,1.0,,0.0-177.0,,0.0,616.885,1.0,0.75,1.0,0.75,0.0,0.33571021799999995,0.0,0.350393962,False,,5b493d6e478a770001b70a88,,3756498,195,,evan-feature22,full_pf_b,,1
149,35014,196,,,,1,1,0.0,1.0,0.0,1.0,,0.0-178.0,,1.0,821.5,0.0,0.75,1.0,0.75,0.0,0.313628297,0.0,0.36349657399999996,False,,5b493d6e478a770001b70a88,,3767097,196,,evan-feature22,full_pf_b,,1
150,35015,197,,,,2,2,0.0,0.0,-1.0,0.0,,0.0-179.0,,0.0,1607.21,1.0,0.75,1.0,0.734284182,0.0,0.262667667,0.0,0.380199119,False,,5b493d6e478a770001b70a88,,3778480,197,,evan-feature22,full_pf_b,,1
151,35016,198,,,,1,1,0.0,1.0,0.0,1.0,,0.0-180.0,,1.0,1676.415,0.0,0.75,1.0,0.75,1.0,0.25,1.0,0.394494013,False,,5b493d6e478a770001b70a88,,3789940,198,,evan-feature22,full_pf_b,,1
152,35017,199,,,,2,2,0.0,0.0,-1.0,0.0,,0.0-181.0,,0.0,496.77,1.0,0.722298145,0.0,0.7357822340000001,0.0,0.25,0.0,0.319142121,False,,5b493d6e478a770001b70a88,,3800205,199,,evan-feature22,full_pf_b,,1
153,35018,200,,,,1,1,1.0,1.0,-1.0,0.0,,0.0-182.0,,-1.0,516.98,1.0,0.73149275,1.0,0.724276446,0.0,0.305856907,0.0,0.281315057,False,,5b493d6e478a770001b70a88,,3810505,200,,evan-feature22,full_pf_b,,1
154,35019,201,,,,2,2,0.0,1.0,0.0,1.0,,0.0-183.0,,1.0,559.31,1.0,0.7458732690000001,1.0,0.7336382459999999,0.0,0.272571964,1.0,0.266021999,False,,5b493d6e478a770001b70a88,,3820845,201,,evan-feature22,full_pf_b,,1
155,35020,202,,,,1,1,1.0,1.0,0.0,1.0,,0.0-184.0,,1.0,755.195,1.0,0.705579037,1.0,0.720778292,0.0,0.320238144,1.0,0.30971744,False,,5b493d6e478a770001b70a88,,3831380,202,,evan-feature22,full_pf_b,,1
156,35021,203,,,,2,2,0.0,0.0,0.0,1.0,,0.0-185.0,,0.0,632.31,1.0,0.700425648,0.0,0.7198784009999999,0.0,0.272590393,0.0,0.304182931,False,,5b493d6e478a770001b70a88,,3841788,203,,evan-feature22,full_pf_b,,1
157,35022,204,,,,1,1,1.0,1.0,0.0,1.0,,0.0-186.0,,1.0,1727.505,1.0,0.735590785,1.0,0.722714973,0.0,0.25,1.0,0.323421091,False,,5b493d6e478a770001b70a88,,3853303,204,,evan-feature22,full_pf_b,,1
158,35023,205,,,,1,1,1.0,0.0,0.0,1.0,,0.0-187.0,,0.0,3119.58,1.0,0.724807662,0.0,0.63146213,1.0,0.36836492600000004,0.0,0.34592153299999995,False,,5b493d6e478a770001b70a88,,3866205,205,,evan-feature22,full_pf_b,,0
159,35024,206,,,,2,2,1.0,0.0,0.0,1.0,,0.0-188.0,,0.0,1023.505,1.0,0.7352796909999999,1.0,0.555111392,1.0,0.36003922,0.0,0.31433779999999995,False,,5b493d6e478a770001b70a88,,3877010,206,,evan-feature22,full_pf_b,,1
160,35025,207,notice,,,,,,,,,,0.0-189.0,"{""Q0"":""that there wasnt a pattern to the randomness""}",,32859.0,,,,,,,,,False,,5b493d6e478a770001b70a88,,3909876,207,Q,survey-text,full_pf_b,,1
161,35026,208,track1,,[1],,,,,,,,0.0-190.0,"{""Q0"":""no""}",,11678.0,,,,,,,,,False,,5b493d6e478a770001b70a88,,3921582,208,Q,evan-quiz,full_pf_b,,1
162,35027,209,track2,,[0],,,,,,,,0.0-191.0,"{""Q0"":""yes""}",,7146.0,,,,,,,,,False,,5b493d6e478a770001b70a88,,3928739,209,Q,evan-quiz,full_pf_b,,1
163,35028,210,strat,,,,,,,,,,0.0-192.0,"{""Q0"":""i tried to track petterns on where they are preffered ""}",,26066.0,,,,,,,,,False,,5b493d6e478a770001b70a88,,3954818,210,Q,survey-text,full_pf_b,,1
