,index,Unnamed: 0,Q_name,button_pressed,choice_idxs,chosen_pos,chosen_state,chosen_state_f_1_outcome,chosen_state_f_2_outcome,f_1_reward,f_2_reward,incor_questions,internal_node_id,responses,reward_received,rt,s_1_f_1_outcome,s_1_f_1_prob,s_1_f_2_outcome,s_1_f_2_prob,s_2_f_1_outcome,s_2_f_1_prob,s_2_f_2_outcome,s_2_f_2_prob,safe_first,stimulus,subjectID,success,time_elapsed,trial_index,trial_num,trial_type,version,view_history,switching
0,26746,25,,,,SLOW,SLOW,,,-1.0,0.0,,0.0-27.0,,-3.0,,0.0,0.6,0.0,0.6,0.0,0.4,0.0,0.4,False,,5b39f4f71d4b680001694617,,400981,25,,evan-feature22,full_pf_b,,0
1,26747,26,,,,2,2,1.0,0.0,-1.0,0.0,,0.0-28.0,,-1.0,1740.26,0.0,0.608053294,1.0,0.63424552,1.0,0.397152172,0.0,0.347069101,False,,5b39f4f71d4b680001694617,,412499,26,,evan-feature22,full_pf_b,,1
2,26748,27,,,,1,1,1.0,1.0,-1.0,0.0,,0.0-29.0,,-1.0,646.2,1.0,0.642237155,1.0,0.648566321,0.0,0.389407674,0.0,0.285525717,False,,5b39f4f71d4b680001694617,,422915,27,,evan-feature22,full_pf_b,,1
3,26749,28,,,,1,1,1.0,1.0,-1.0,0.0,,0.0-30.0,,-1.0,555.58,1.0,0.661086576,1.0,0.630492543,1.0,0.399058924,0.0,0.25,False,,5b39f4f71d4b680001694617,,433243,28,,evan-feature22,full_pf_b,,0
4,26750,29,,,,2,2,0.0,0.0,0.0,1.0,,0.0-31.0,,0.0,907.695,1.0,0.631324137,1.0,0.6269842929999999,0.0,0.38734784299999997,0.0,0.25,False,,5b39f4f71d4b680001694617,,443923,29,,evan-feature22,full_pf_b,,1
5,26751,30,,,,1,1,1.0,1.0,0.0,1.0,,0.0-32.0,,1.0,1449.86,1.0,0.6381991370000001,1.0,0.68987999,0.0,0.384107265,1.0,0.271332943,False,,5b39f4f71d4b680001694617,,455151,30,,evan-feature22,full_pf_b,,1
6,26752,31,,,,2,2,0.0,0.0,-1.0,0.0,,0.0-33.0,,0.0,1783.84,0.0,0.66034901,0.0,0.742641349,0.0,0.360225629,0.0,0.25,False,,5b39f4f71d4b680001694617,,466709,31,,evan-feature22,full_pf_b,,1
7,26753,32,,,,1,1,1.0,1.0,-1.0,0.0,,0.0-34.0,,-1.0,1867.855,1.0,0.638612418,1.0,0.75,1.0,0.367273939,0.0,0.25,False,,5b39f4f71d4b680001694617,,478341,32,,evan-feature22,full_pf_b,,1
8,26754,33,,,,2,2,1.0,0.0,0.0,1.0,,0.0-35.0,,0.0,801.9,1.0,0.624340629,1.0,0.75,1.0,0.425829545,0.0,0.25,False,,5b39f4f71d4b680001694617,,488919,33,,evan-feature22,full_pf_b,,1
9,26755,34,,,,1,1,1.0,1.0,0.0,1.0,,0.0-36.0,,1.0,467.53,1.0,0.621999804,1.0,0.75,0.0,0.368609357,1.0,0.25,False,,5b39f4f71d4b680001694617,,499169,34,,evan-feature22,full_pf_b,,1
10,26756,35,,,,1,1,1.0,0.0,-1.0,0.0,,0.0-37.0,,-1.0,1698.575,1.0,0.62666403,0.0,0.75,0.0,0.311151498,1.0,0.25,False,,5b39f4f71d4b680001694617,,510647,35,,evan-feature22,full_pf_b,,0
11,26757,36,,,,2,2,0.0,0.0,0.0,1.0,,0.0-38.0,,0.0,1360.83,1.0,0.6819650009999999,1.0,0.75,0.0,0.310763048,0.0,0.25,False,,5b39f4f71d4b680001694617,,521779,36,,evan-feature22,full_pf_b,,1
12,26758,37,,,,2,2,1.0,0.0,-1.0,0.0,,0.0-39.0,,-1.0,2269.655,1.0,0.740626951,1.0,0.75,1.0,0.25,0.0,0.25,False,,5b39f4f71d4b680001694617,,533820,37,,evan-feature22,full_pf_b,,0
13,26759,38,,,,1,1,1.0,1.0,-1.0,0.0,,0.0-40.0,,-1.0,1864.435,1.0,0.739599242,1.0,0.742034978,0.0,0.25397114600000004,0.0,0.25,False,,5b39f4f71d4b680001694617,,545451,38,,evan-feature22,full_pf_b,,1
14,26760,39,,,,2,2,0.0,0.0,-1.0,0.0,,0.0-41.0,,0.0,2106.175,1.0,0.732341315,1.0,0.72735643,0.0,0.25,0.0,0.25,False,,5b39f4f71d4b680001694617,,557329,39,,evan-feature22,full_pf_b,,1
15,26761,40,,,,1,1,1.0,1.0,-1.0,0.0,,0.0-42.0,,-1.0,1686.045,1.0,0.7062287770000001,1.0,0.75,1.0,0.29002151,0.0,0.288256649,False,,5b39f4f71d4b680001694617,,568786,40,,evan-feature22,full_pf_b,,1
16,26762,41,,,,2,2,0.0,0.0,-1.0,0.0,,0.0-43.0,,0.0,1623.31,1.0,0.7086029209999999,1.0,0.75,0.0,0.274129113,0.0,0.262851608,False,,5b39f4f71d4b680001694617,,580185,41,,evan-feature22,full_pf_b,,1
17,26763,42,,,,1,1,1.0,1.0,-1.0,0.0,,0.0-44.0,,-1.0,1833.64,1.0,0.669189651,1.0,0.727614338,0.0,0.298444036,0.0,0.296944518,False,,5b39f4f71d4b680001694617,,591525,42,,evan-feature22,full_pf_b,,1
18,26764,43,,,,2,2,0.0,0.0,-1.0,0.0,,0.0-45.0,,0.0,2491.85,1.0,0.6819912929999999,1.0,0.7179434290000001,0.0,0.265003961,0.0,0.28157921199999997,False,,5b39f4f71d4b680001694617,,603789,43,,evan-feature22,full_pf_b,,1
19,26765,44,,,,SLOW,SLOW,,,0.0,1.0,,0.0-46.0,,-3.0,,1.0,0.665275002,1.0,0.723065271,0.0,0.260414971,0.0,0.30973870000000003,False,,5b39f4f71d4b680001694617,,609597,44,,evan-feature22,full_pf_b,,1
20,26766,45,,,,SLOW,SLOW,,,-1.0,0.0,,0.0-47.0,,-3.0,,0.0,0.6660593260000001,0.0,0.728032907,0.0,0.30922817,0.0,0.338778608,False,,5b39f4f71d4b680001694617,,615410,45,,evan-feature22,full_pf_b,,0
21,26767,46,,,,1,1,0.0,1.0,-1.0,0.0,,0.0-48.0,,0.0,1138.65,0.0,0.702068785,1.0,0.6528750879999999,0.0,0.287329608,0.0,0.35789613200000003,False,,5b39f4f71d4b680001694617,,626318,46,,evan-feature22,full_pf_b,,1
22,26768,47,,,,2,2,0.0,0.0,-1.0,0.0,,0.0-49.0,,0.0,1431.425,0.0,0.651939787,0.0,0.636725589,0.0,0.284834488,0.0,0.358563756,False,,5b39f4f71d4b680001694617,,637522,47,,evan-feature22,full_pf_b,,1
23,26769,48,,,,2,2,1.0,0.0,0.0,1.0,,0.0-50.0,,0.0,986.175,0.0,0.67573929,1.0,0.612550049,1.0,0.37130387600000003,0.0,0.383542402,False,,5b39f4f71d4b680001694617,,648280,48,,evan-feature22,full_pf_b,,0
24,26770,49,,,,2,2,0.0,0.0,0.0,1.0,,0.0-51.0,,0.0,930.63,1.0,0.620753801,0.0,0.60513644,0.0,0.385529434,0.0,0.340361743,False,,5b39f4f71d4b680001694617,,658987,49,,evan-feature22,full_pf_b,,0
25,26771,50,,,,2,2,0.0,1.0,0.0,1.0,,0.0-52.0,,1.0,1687.54,1.0,0.673564893,0.0,0.672437924,0.0,0.292955382,1.0,0.337633795,False,,5b39f4f71d4b680001694617,,670454,50,,evan-feature22,full_pf_b,,0
26,26772,51,,,,2,2,0.0,0.0,-1.0,0.0,,0.0-53.0,,0.0,2010.49,0.0,0.6749427,1.0,0.724197502,0.0,0.32391132100000003,0.0,0.350995264,False,,5b39f4f71d4b680001694617,,682237,51,,evan-feature22,full_pf_b,,0
27,26773,52,,,,2,2,0.0,0.0,-1.0,0.0,,0.0-54.0,,0.0,1627.79,1.0,0.6940159379999999,1.0,0.75,0.0,0.31710554399999996,0.0,0.413450341,False,,5b39f4f71d4b680001694617,,693635,52,,evan-feature22,full_pf_b,,0
28,26774,53,,,,2,2,1.0,0.0,-1.0,0.0,,0.0-55.0,,-1.0,963.27,1.0,0.6916018270000001,1.0,0.69001187,1.0,0.261817804,0.0,0.40038635,False,,5b39f4f71d4b680001694617,,704369,53,,evan-feature22,full_pf_b,,0
29,26775,54,,,,2,2,0.0,1.0,-1.0,0.0,,0.0-56.0,,0.0,705.765,0.0,0.641061544,1.0,0.71337992,0.0,0.277296461,1.0,0.47372791700000005,False,,5b39f4f71d4b680001694617,,714846,54,,evan-feature22,full_pf_b,,0
30,26776,55,,,,2,2,1.0,1.0,-1.0,0.0,,0.0-57.0,,-1.0,1138.555,1.0,0.6082438520000001,1.0,0.708471106,1.0,0.28745137,1.0,0.564174476,False,,5b39f4f71d4b680001694617,,725764,55,,evan-feature22,full_pf_b,,0
31,26777,56,,,,1,1,1.0,0.0,-1.0,0.0,,0.0-58.0,,-1.0,452.34,1.0,0.6051112120000001,0.0,0.7118147229999999,0.0,0.272390611,0.0,0.5595149939999999,False,,5b39f4f71d4b680001694617,,735993,56,,evan-feature22,full_pf_b,,1
32,26778,57,,,,2,2,0.0,1.0,-1.0,0.0,,0.0-59.0,,0.0,2071.87,0.0,0.582420852,0.0,0.635867583,0.0,0.31089574,1.0,0.5227206520000001,False,,5b39f4f71d4b680001694617,,747838,57,,evan-feature22,full_pf_b,,1
33,26779,58,,,,1,1,0.0,1.0,0.0,1.0,,0.0-60.0,,1.0,1214.895,0.0,0.623195575,1.0,0.655026044,0.0,0.25,1.0,0.560387538,False,,5b39f4f71d4b680001694617,,758825,58,,evan-feature22,full_pf_b,,1
34,26780,59,,,,2,2,0.0,0.0,-1.0,0.0,,0.0-61.0,,0.0,1797.355,1.0,0.601889598,1.0,0.678198724,0.0,0.25,0.0,0.559922936,False,,5b39f4f71d4b680001694617,,770397,59,,evan-feature22,full_pf_b,,1
35,26781,60,,,,1,1,1.0,1.0,-1.0,0.0,,0.0-62.0,,-1.0,1467.665,1.0,0.601259914,1.0,0.704681482,1.0,0.33908969299999997,1.0,0.505003715,False,,5b39f4f71d4b680001694617,,781637,60,,evan-feature22,full_pf_b,,1
36,26782,61,,,,2,2,0.0,1.0,-1.0,0.0,,0.0-63.0,,0.0,707.035,1.0,0.59645454,0.0,0.710437172,0.0,0.327441879,1.0,0.391749613,False,,5b39f4f71d4b680001694617,,792114,61,,evan-feature22,full_pf_b,,1
37,26783,62,,,,2,2,1.0,0.0,-1.0,0.0,,0.0-64.0,,-1.0,671.95,0.0,0.529473,0.0,0.636758527,1.0,0.301338063,0.0,0.365661481,False,,5b39f4f71d4b680001694617,,802559,62,,evan-feature22,full_pf_b,,0
38,26784,63,,,,2,2,0.0,0.0,0.0,1.0,,0.0-65.0,,0.0,518.865,1.0,0.541657162,0.0,0.634541962,0.0,0.343535366,0.0,0.371763742,False,,5b39f4f71d4b680001694617,,812844,63,,evan-feature22,full_pf_b,,0
39,26785,64,,,,2,2,1.0,0.0,-1.0,0.0,,0.0-66.0,,-1.0,545.33,0.0,0.5707533260000001,0.0,0.589121171,1.0,0.326428396,0.0,0.43961622899999997,False,,5b39f4f71d4b680001694617,,823158,64,,evan-feature22,full_pf_b,,0
40,26786,65,,,,2,2,1.0,0.0,-1.0,0.0,,0.0-67.0,,-1.0,1096.635,0.0,0.5707533260000001,1.0,0.589121171,1.0,0.326428396,0.0,0.43961622899999997,False,,5b39f4f71d4b680001694617,,834023,65,,evan-feature22,full_pf_b,,0
41,26787,66,,,,1,1,0.0,1.0,-1.0,0.0,,0.0-68.0,,0.0,772.155,0.0,0.506271295,1.0,0.641775594,0.0,0.37149690700000004,1.0,0.404330166,False,,5b39f4f71d4b680001694617,,844571,66,,evan-feature22,full_pf_b,,1
42,26788,67,,,,1,1,0.0,1.0,0.0,1.0,,0.0-69.0,,1.0,2542.75,0.0,0.455642565,1.0,0.623605825,1.0,0.358753011,0.0,0.346174041,False,,5b39f4f71d4b680001694617,,856890,67,,evan-feature22,full_pf_b,,0
43,26789,68,,,,1,1,1.0,0.0,0.0,1.0,,0.0-70.0,,0.0,776.36,1.0,0.483677308,0.0,0.5904681070000001,0.0,0.402218411,1.0,0.35344697,False,,5b39f4f71d4b680001694617,,867440,68,,evan-feature22,full_pf_b,,0
44,26790,69,,,,1,1,0.0,0.0,0.0,1.0,,0.0-71.0,,0.0,498.565,0.0,0.394210977,0.0,0.558925494,0.0,0.540052017,1.0,0.35182128700000004,False,,5b39f4f71d4b680001694617,,877713,69,,evan-feature22,full_pf_b,,0
45,26791,70,,,,2,2,1.0,0.0,-1.0,0.0,,0.0-72.0,,-1.0,593.58,0.0,0.382300414,0.0,0.577670603,1.0,0.607608448,0.0,0.378261578,False,,5b39f4f71d4b680001694617,,888082,70,,evan-feature22,full_pf_b,,1
46,26792,71,,,,2,2,1.0,0.0,-1.0,0.0,,0.0-73.0,,-1.0,1196.175,0.0,0.357596762,0.0,0.5929076529999999,1.0,0.6579790010000001,0.0,0.401326777,False,,5b39f4f71d4b680001694617,,899051,71,,evan-feature22,full_pf_b,,0
47,26793,72,,,,2,2,1.0,1.0,-1.0,0.0,,0.0-74.0,,-1.0,590.86,0.0,0.362033495,1.0,0.582308608,1.0,0.649195052,1.0,0.355158505,False,,5b39f4f71d4b680001694617,,909416,72,,evan-feature22,full_pf_b,,0
48,26794,73,,,,2,2,1.0,0.0,-1.0,0.0,,0.0-75.0,,-1.0,963.28,0.0,0.369620635,1.0,0.669100864,1.0,0.706059111,0.0,0.362516241,False,,5b39f4f71d4b680001694617,,920149,73,,evan-feature22,full_pf_b,,0
49,26795,74,,,,2,2,0.0,1.0,-1.0,0.0,,0.0-76.0,,0.0,816.965,0.0,0.41477751399999996,1.0,0.7284416779999999,0.0,0.7182656940000001,1.0,0.36228040899999997,False,,5b39f4f71d4b680001694617,,930742,74,,evan-feature22,full_pf_b,,0
50,26796,75,,,,2,2,1.0,0.0,0.0,1.0,,0.0-77.0,,0.0,716.855,1.0,0.37675460299999997,1.0,0.703250285,1.0,0.75,0.0,0.461979164,False,,5b39f4f71d4b680001694617,,941231,75,,evan-feature22,full_pf_b,,0
51,26797,76,,,,2,2,1.0,0.0,0.0,1.0,,0.0-78.0,,0.0,3421.42,1.0,0.398716075,0.0,0.6723864890000001,1.0,0.674153818,0.0,0.519029516,False,,5b39f4f71d4b680001694617,,954425,76,,evan-feature22,full_pf_b,,0
52,26798,77,,,,1,1,0.0,1.0,-1.0,0.0,,0.0-79.0,,0.0,2500.345,0.0,0.34677856700000004,1.0,0.69057175,1.0,0.6822438540000001,1.0,0.477292237,False,,5b39f4f71d4b680001694617,,966692,77,,evan-feature22,full_pf_b,,1
53,26799,78,,,,2,2,1.0,0.0,0.0,1.0,,0.0-80.0,,0.0,2488.12,1.0,0.28580469199999997,1.0,0.68408818,1.0,0.684207565,0.0,0.49780448299999996,False,,5b39f4f71d4b680001694617,,978949,78,,evan-feature22,full_pf_b,,1
54,26801,80,,,,2,2,0.0,1.0,-1.0,0.0,,0.0-82.0,,0.0,2130.505,0.0,0.25,1.0,0.7405808970000001,0.0,0.679614108,1.0,0.436436964,False,,5b39f4f71d4b680001694617,,1008088,80,,evan-feature22,full_pf_b,,0
55,26802,81,,,,1,1,0.0,1.0,0.0,1.0,,0.0-83.0,,1.0,791.935,0.0,0.29890393,1.0,0.730505706,0.0,0.7328203320000001,0.0,0.439256938,False,,5b39f4f71d4b680001694617,,1018653,81,,evan-feature22,full_pf_b,,1
56,26803,82,,,,1,1,0.0,1.0,-1.0,0.0,,0.0-84.0,,0.0,2260.17,0.0,0.326762398,1.0,0.7148059609999999,1.0,0.75,1.0,0.44389608799999997,False,,5b39f4f71d4b680001694617,,1030681,82,,evan-feature22,full_pf_b,,0
57,26804,83,,,,2,2,1.0,0.0,-1.0,0.0,,0.0-85.0,,-1.0,640.825,1.0,0.295168515,1.0,0.739760854,1.0,0.719947008,0.0,0.35277284600000003,False,,5b39f4f71d4b680001694617,,1041092,83,,evan-feature22,full_pf_b,,1
58,26805,84,,,,1,1,0.0,0.0,-1.0,0.0,,0.0-86.0,,0.0,761.285,0.0,0.25,0.0,0.70781482,0.0,0.75,0.0,0.286095925,False,,5b39f4f71d4b680001694617,,1051631,84,,evan-feature22,full_pf_b,,1
59,26806,85,,,,2,2,1.0,1.0,0.0,1.0,,0.0-87.0,,1.0,807.485,0.0,0.25638190899999996,1.0,0.704088163,1.0,0.75,1.0,0.26872601399999996,False,,5b39f4f71d4b680001694617,,1062220,85,,evan-feature22,full_pf_b,,1
60,26807,86,,,,1,1,0.0,0.0,0.0,1.0,,0.0-88.0,,0.0,690.115,0.0,0.271581126,0.0,0.669760107,1.0,0.733896663,0.0,0.273244572,False,,5b39f4f71d4b680001694617,,1072688,86,,evan-feature22,full_pf_b,,1
61,26808,87,,,,1,1,0.0,1.0,0.0,1.0,,0.0-89.0,,1.0,510.185,0.0,0.257144401,1.0,0.600575706,1.0,0.74488122,0.0,0.25,False,,5b39f4f71d4b680001694617,,1082976,87,,evan-feature22,full_pf_b,,0
62,26809,88,,,,2,2,1.0,0.0,-1.0,0.0,,0.0-90.0,,-1.0,1032.88,0.0,0.25,0.0,0.616870026,1.0,0.723610234,0.0,0.25,False,,5b39f4f71d4b680001694617,,1093780,88,,evan-feature22,full_pf_b,,1
63,26810,89,,,,1,1,0.0,1.0,0.0,1.0,,0.0-91.0,,1.0,483.31,0.0,0.25,1.0,0.583540187,1.0,0.7041042559999999,0.0,0.285961995,False,,5b39f4f71d4b680001694617,,1104040,89,,evan-feature22,full_pf_b,,1
64,26811,90,,,,2,2,1.0,0.0,-1.0,0.0,,0.0-92.0,,-1.0,1140.36,1.0,0.27254536,1.0,0.53875765,1.0,0.693783448,0.0,0.284961652,False,,5b39f4f71d4b680001694617,,1114952,90,,evan-feature22,full_pf_b,,1
65,26812,91,,,,2,2,1.0,0.0,0.0,1.0,,0.0-93.0,,0.0,577.155,0.0,0.25,1.0,0.548431252,1.0,0.734221895,0.0,0.279445214,False,,5b39f4f71d4b680001694617,,1125302,91,,evan-feature22,full_pf_b,,0
66,26813,92,,,,1,1,0.0,1.0,-1.0,0.0,,0.0-94.0,,0.0,3194.925,0.0,0.258640684,1.0,0.545878066,1.0,0.725245965,1.0,0.31487537,False,,5b39f4f71d4b680001694617,,1138270,92,,evan-feature22,full_pf_b,,1
67,26814,93,,,,2,2,1.0,1.0,-1.0,0.0,,0.0-95.0,,-1.0,1634.11,0.0,0.251103711,1.0,0.5776290629999999,1.0,0.696320133,1.0,0.317831047,False,,5b39f4f71d4b680001694617,,1149677,93,,evan-feature22,full_pf_b,,1
68,26815,94,,,,1,1,0.0,0.0,-1.0,0.0,,0.0-96.0,,0.0,793.665,0.0,0.276630292,0.0,0.617329858,0.0,0.73838088,0.0,0.261471582,False,,5b39f4f71d4b680001694617,,1160247,94,,evan-feature22,full_pf_b,,1
69,26816,95,,,,2,2,1.0,0.0,0.0,1.0,,0.0-97.0,,0.0,962.205,0.0,0.297716424,1.0,0.618863717,1.0,0.7402358259999999,0.0,0.262600834,False,,5b39f4f71d4b680001694617,,1170985,95,,evan-feature22,full_pf_b,,1
70,26817,96,,,,1,1,1.0,1.0,-1.0,0.0,,0.0-98.0,,-1.0,345.245,1.0,0.290935512,1.0,0.695370945,0.0,0.706570507,0.0,0.280030553,False,,5b39f4f71d4b680001694617,,1181104,96,,evan-feature22,full_pf_b,,1
71,26818,97,,,,SLOW,SLOW,,,-1.0,0.0,,0.0-99.0,,-3.0,,0.0,0.25,1.0,0.6465277079999999,0.0,0.67766682,0.0,0.25,False,,5b39f4f71d4b680001694617,,1186912,97,,evan-feature22,full_pf_b,,1
72,26819,98,,,,1,1,0.0,1.0,-1.0,0.0,,0.0-100.0,,0.0,793.79,0.0,0.26463816,1.0,0.636100213,1.0,0.646048507,0.0,0.265607101,False,,5b39f4f71d4b680001694617,,1197471,98,,evan-feature22,full_pf_b,,1
73,26820,99,,,,2,2,1.0,0.0,-1.0,0.0,,0.0-101.0,,-1.0,380.085,0.0,0.314340707,1.0,0.667795927,1.0,0.613630805,0.0,0.25,False,,5b39f4f71d4b680001694617,,1207625,99,,evan-feature22,full_pf_b,,1
74,26821,100,,,,1,1,0.0,0.0,-1.0,0.0,,0.0-102.0,,0.0,360.98,0.0,0.28685784,0.0,0.6622549529999999,0.0,0.652154117,0.0,0.25,False,,5b39f4f71d4b680001694617,,1217762,100,,evan-feature22,full_pf_b,,1
75,26822,101,,,,1,1,0.0,0.0,0.0,1.0,,0.0-103.0,,0.0,322.445,0.0,0.304106554,0.0,0.631289538,1.0,0.707041942,0.0,0.29314237,False,,5b39f4f71d4b680001694617,,1227858,101,,evan-feature22,full_pf_b,,0
76,26823,102,,,,2,2,0.0,1.0,0.0,1.0,,0.0-104.0,,1.0,1422.535,0.0,0.304806932,1.0,0.571167718,0.0,0.680472346,1.0,0.25,False,,5b39f4f71d4b680001694617,,1239052,102,,evan-feature22,full_pf_b,,1
77,26824,103,,,,1,1,0.0,1.0,0.0,1.0,,0.0-105.0,,1.0,758.96,0.0,0.37919861,1.0,0.5724849710000001,1.0,0.705638003,0.0,0.30179300600000003,False,,5b39f4f71d4b680001694617,,1249586,103,,evan-feature22,full_pf_b,,1
78,26825,104,,,,2,2,0.0,0.0,0.0,1.0,,0.0-106.0,,0.0,1946.56,0.0,0.464277969,1.0,0.554034373,0.0,0.7372627340000001,0.0,0.264699741,False,,5b39f4f71d4b680001694617,,1261298,104,,evan-feature22,full_pf_b,,1
79,26826,105,,,,1,1,1.0,0.0,-1.0,0.0,,0.0-107.0,,-1.0,972.605,1.0,0.465104323,0.0,0.530793115,1.0,0.75,0.0,0.31683071,False,,5b39f4f71d4b680001694617,,1272048,105,,evan-feature22,full_pf_b,,1
80,26827,106,,,,2,2,1.0,0.0,0.0,1.0,,0.0-108.0,,0.0,949.81,0.0,0.465104323,0.0,0.530793115,1.0,0.75,0.0,0.31683071,False,,5b39f4f71d4b680001694617,,1282772,106,,evan-feature22,full_pf_b,,1
81,26828,107,,,,1,1,0.0,1.0,0.0,1.0,,0.0-109.0,,1.0,458.595,0.0,0.46833986,1.0,0.570249239,1.0,0.7244472590000001,0.0,0.364114163,False,,5b39f4f71d4b680001694617,,1293004,107,,evan-feature22,full_pf_b,,1
82,26829,108,,,,1,1,0.0,1.0,0.0,1.0,,0.0-110.0,,1.0,554.98,0.0,0.445444024,1.0,0.649673355,1.0,0.6845441290000001,0.0,0.300660449,False,,5b39f4f71d4b680001694617,,1303335,108,,evan-feature22,full_pf_b,,0
83,26830,109,,,,2,2,1.0,0.0,0.0,1.0,,0.0-111.0,,0.0,1717.34,0.0,0.39909721299999995,1.0,0.6715179509999999,1.0,0.742310028,0.0,0.35496088299999995,False,,5b39f4f71d4b680001694617,,1314830,109,,evan-feature22,full_pf_b,,1
84,26831,110,,,,1,1,1.0,1.0,0.0,1.0,,0.0-112.0,,1.0,1315.825,1.0,0.37956104799999996,1.0,0.694725302,1.0,0.7181651309999999,0.0,0.38726906299999997,False,,5b39f4f71d4b680001694617,,1325925,110,,evan-feature22,full_pf_b,,1
85,26832,111,,,,2,2,1.0,0.0,0.0,1.0,,0.0-113.0,,0.0,474.7,0.0,0.404995034,1.0,0.724375412,1.0,0.6910946859999999,0.0,0.387187347,False,,5b39f4f71d4b680001694617,,1336172,111,,evan-feature22,full_pf_b,,1
86,26833,112,,,,1,1,1.0,1.0,0.0,1.0,,0.0-114.0,,1.0,721.255,1.0,0.461740803,1.0,0.75,0.0,0.75,0.0,0.34872038200000005,False,,5b39f4f71d4b680001694617,,1346666,112,,evan-feature22,full_pf_b,,1
87,26834,113,,,,1,1,0.0,1.0,-1.0,0.0,,0.0-115.0,,0.0,462.46,0.0,0.43821380600000004,1.0,0.738833273,1.0,0.728286963,0.0,0.399538128,False,,5b39f4f71d4b680001694617,,1356899,113,,evan-feature22,full_pf_b,,0
88,26835,114,,,,2,2,0.0,0.0,0.0,1.0,,0.0-116.0,,0.0,1360.84,1.0,0.41709882,1.0,0.736666736,0.0,0.75,0.0,0.389095584,False,,5b39f4f71d4b680001694617,,1368035,114,,evan-feature22,full_pf_b,,1
89,26836,115,,,,1,1,1.0,1.0,0.0,1.0,,0.0-117.0,,1.0,802.285,1.0,0.39749009799999996,1.0,0.744320029,0.0,0.75,1.0,0.363848678,False,,5b39f4f71d4b680001694617,,1378609,115,,evan-feature22,full_pf_b,,1
90,26837,116,,,,2,2,1.0,0.0,-1.0,0.0,,0.0-118.0,,-1.0,793.75,0.0,0.392653706,1.0,0.75,1.0,0.75,0.0,0.384386976,False,,5b39f4f71d4b680001694617,,1389182,116,,evan-feature22,full_pf_b,,1
91,26838,117,,,,2,2,1.0,0.0,-1.0,0.0,,0.0-119.0,,-1.0,699.68,1.0,0.31190902600000003,1.0,0.75,1.0,0.732413819,0.0,0.413082932,False,,5b39f4f71d4b680001694617,,1399654,117,,evan-feature22,full_pf_b,,0
92,26839,118,,,,1,1,0.0,1.0,0.0,1.0,,0.0-120.0,,1.0,1129.16,0.0,0.366917648,1.0,0.740073855,1.0,0.75,0.0,0.352861979,False,,5b39f4f71d4b680001694617,,1410559,118,,evan-feature22,full_pf_b,,1
93,26840,119,,,,2,2,0.0,0.0,0.0,1.0,,0.0-121.0,,0.0,857.85,0.0,0.3645172,0.0,0.721770713,0.0,0.75,0.0,0.404074511,False,,5b39f4f71d4b680001694617,,1421187,119,,evan-feature22,full_pf_b,,1
94,26841,120,,,,2,2,0.0,1.0,0.0,1.0,,0.0-122.0,,1.0,1374.935,0.0,0.35205600299999995,1.0,0.68983859,0.0,0.739735447,1.0,0.366895945,False,,5b39f4f71d4b680001694617,,1432331,120,,evan-feature22,full_pf_b,,0
95,26842,121,,,,2,2,0.0,1.0,0.0,1.0,,0.0-123.0,,1.0,989.24,0.0,0.40998722600000004,0.0,0.720859127,0.0,0.673854955,1.0,0.368528541,False,,5b39f4f71d4b680001694617,,1443088,121,,evan-feature22,full_pf_b,,0
96,26843,122,,,,1,1,1.0,1.0,-1.0,0.0,,0.0-124.0,,-1.0,1267.835,1.0,0.353625316,1.0,0.75,0.0,0.695605473,1.0,0.38303674200000004,False,,5b39f4f71d4b680001694617,,1454131,122,,evan-feature22,full_pf_b,,1
97,26844,123,,,,1,1,0.0,1.0,0.0,1.0,,0.0-125.0,,1.0,2067.82,0.0,0.359216989,1.0,0.75,1.0,0.6987915090000001,0.0,0.35169046200000004,False,,5b39f4f71d4b680001694617,,1465971,123,,evan-feature22,full_pf_b,,0
98,26845,124,,,,1,1,0.0,1.0,-1.0,0.0,,0.0-126.0,,0.0,1081.085,0.0,0.35834496899999996,1.0,0.75,1.0,0.707067742,0.0,0.416763636,False,,5b39f4f71d4b680001694617,,1476827,124,,evan-feature22,full_pf_b,,0
99,26846,125,,,,1,1,1.0,1.0,-1.0,0.0,,0.0-127.0,,-1.0,748.49,1.0,0.38741613799999997,1.0,0.7177369570000001,1.0,0.734902455,0.0,0.49438664299999996,False,,5b39f4f71d4b680001694617,,1487345,125,,evan-feature22,full_pf_b,,0
100,26847,126,,,,2,2,1.0,1.0,0.0,1.0,,0.0-128.0,,1.0,1762.5,0.0,0.405255252,1.0,0.7300466640000001,1.0,0.7027748070000001,1.0,0.504359668,False,,5b39f4f71d4b680001694617,,1498883,126,,evan-feature22,full_pf_b,,1
101,26848,127,,,,2,2,1.0,0.0,0.0,1.0,,0.0-129.0,,0.0,1194.105,0.0,0.40697073,0.0,0.7260142190000001,1.0,0.724461982,0.0,0.522779179,False,,5b39f4f71d4b680001694617,,1509856,127,,evan-feature22,full_pf_b,,0
102,26849,128,,,,2,2,1.0,1.0,0.0,1.0,,0.0-130.0,,1.0,586.45,1.0,0.43906215299999996,1.0,0.7252802340000001,1.0,0.719079934,1.0,0.5712990579999999,False,,5b39f4f71d4b680001694617,,1520215,128,,evan-feature22,full_pf_b,,0
103,26850,129,,,,2,2,1.0,0.0,0.0,1.0,,0.0-131.0,,0.0,2250.415,0.0,0.4076705,0.0,0.73280499,1.0,0.681313127,0.0,0.523891346,False,,5b39f4f71d4b680001694617,,1532240,129,,evan-feature22,full_pf_b,,0
104,26851,130,,,,2,2,1.0,1.0,0.0,1.0,,0.0-132.0,,1.0,705.255,1.0,0.399102911,0.0,0.730498344,1.0,0.661080239,1.0,0.46742603,False,,5b39f4f71d4b680001694617,,1542719,130,,evan-feature22,full_pf_b,,0
105,26852,131,,,,2,2,0.0,0.0,-1.0,0.0,,0.0-133.0,,0.0,2553.165,0.0,0.356477282,1.0,0.712296395,0.0,0.641812684,0.0,0.44868414,False,,5b39f4f71d4b680001694617,,1555052,131,,evan-feature22,full_pf_b,,0
106,26853,132,,,,1,1,1.0,1.0,0.0,1.0,,0.0-134.0,,1.0,831.215,1.0,0.462760722,1.0,0.692349322,1.0,0.700947931,0.0,0.394680266,False,,5b39f4f71d4b680001694617,,1565659,132,,evan-feature22,full_pf_b,,1
107,26854,133,,,,2,2,1.0,0.0,0.0,1.0,,0.0-135.0,,0.0,2248.565,1.0,0.422306413,1.0,0.718375916,1.0,0.706340917,0.0,0.367787185,False,,5b39f4f71d4b680001694617,,1577682,133,,evan-feature22,full_pf_b,,1
108,26856,135,,,,2,2,0.0,0.0,0.0,1.0,,0.0-137.0,,0.0,1063.82,0.0,0.4582233,1.0,0.643834117,0.0,0.75,0.0,0.39615823299999997,False,,5b39f4f71d4b680001694617,,1599616,135,,evan-feature22,full_pf_b,,0
109,26857,136,,,,1,1,0.0,0.0,0.0,1.0,,0.0-138.0,,0.0,494.41,0.0,0.43813437899999996,0.0,0.651283804,0.0,0.729674191,0.0,0.37711048,False,,5b39f4f71d4b680001694617,,1609880,136,,evan-feature22,full_pf_b,,1
110,26858,137,,,,1,1,1.0,1.0,0.0,1.0,,0.0-139.0,,1.0,552.885,1.0,0.471199094,1.0,0.6470010979999999,1.0,0.715008097,1.0,0.410656191,False,,5b39f4f71d4b680001694617,,1620203,137,,evan-feature22,full_pf_b,,0
111,26859,138,,,,1,1,1.0,0.0,-1.0,0.0,,0.0-140.0,,-1.0,1147.69,1.0,0.42486406,0.0,0.629771829,1.0,0.6550939960000001,1.0,0.459093873,False,,5b39f4f71d4b680001694617,,1631124,138,,evan-feature22,full_pf_b,,0
112,26860,139,,,,2,2,0.0,0.0,-1.0,0.0,,0.0-141.0,,0.0,878.31,0.0,0.4803197,1.0,0.645842715,0.0,0.6421749920000001,0.0,0.443092151,False,,5b39f4f71d4b680001694617,,1641784,139,,evan-feature22,full_pf_b,,1
113,26861,140,,,,2,2,1.0,0.0,-1.0,0.0,,0.0-142.0,,-1.0,925.62,1.0,0.521848997,1.0,0.735801074,1.0,0.6691348460000001,0.0,0.45259351600000003,False,,5b39f4f71d4b680001694617,,1652481,140,,evan-feature22,full_pf_b,,0
114,26862,141,,,,2,2,1.0,1.0,0.0,1.0,,0.0-143.0,,1.0,1448.605,0.0,0.49565621299999996,1.0,0.742400847,1.0,0.661512553,1.0,0.483110831,False,,5b39f4f71d4b680001694617,,1663704,141,,evan-feature22,full_pf_b,,0
115,26863,142,,,,2,2,1.0,0.0,-1.0,0.0,,0.0-144.0,,-1.0,1037.55,1.0,0.521564361,1.0,0.731078632,1.0,0.6774886809999999,0.0,0.483263956,False,,5b39f4f71d4b680001694617,,1674518,142,,evan-feature22,full_pf_b,,0
116,26864,143,,,,2,2,0.0,0.0,-1.0,0.0,,0.0-145.0,,0.0,642.99,0.0,0.558893102,0.0,0.719810023,0.0,0.67461031,0.0,0.499349834,False,,5b39f4f71d4b680001694617,,1684937,143,,evan-feature22,full_pf_b,,0
117,26865,144,,,,2,2,1.0,1.0,0.0,1.0,,0.0-146.0,,1.0,627.615,1.0,0.611031046,1.0,0.75,1.0,0.688072995,1.0,0.5321422729999999,False,,5b39f4f71d4b680001694617,,1695333,144,,evan-feature22,full_pf_b,,0
118,26866,145,,,,2,2,0.0,1.0,-1.0,0.0,,0.0-147.0,,0.0,1352.245,0.0,0.633223941,0.0,0.713567728,0.0,0.75,1.0,0.48185314700000004,False,,5b39f4f71d4b680001694617,,1706460,145,,evan-feature22,full_pf_b,,0
119,26867,146,,,,2,2,1.0,0.0,-1.0,0.0,,0.0-148.0,,-1.0,2092.345,0.0,0.664001694,1.0,0.705509768,1.0,0.75,0.0,0.500211065,False,,5b39f4f71d4b680001694617,,1718327,146,,evan-feature22,full_pf_b,,0
120,26868,147,,,,2,2,0.0,1.0,0.0,1.0,,0.0-149.0,,1.0,657.385,1.0,0.664001694,0.0,0.705509768,0.0,0.75,1.0,0.500211065,False,,5b39f4f71d4b680001694617,,1728749,147,,evan-feature22,full_pf_b,,0
121,26869,148,,,,1,1,1.0,0.0,0.0,1.0,,0.0-150.0,,0.0,1029.615,1.0,0.696508041,0.0,0.71066027,1.0,0.717028709,0.0,0.49792991,False,,5b39f4f71d4b680001694617,,1739546,148,,evan-feature22,full_pf_b,,1
122,26870,149,,,,2,2,1.0,0.0,-1.0,0.0,,0.0-151.0,,-1.0,1236.345,0.0,0.699883272,1.0,0.75,1.0,0.713543895,0.0,0.496962643,False,,5b39f4f71d4b680001694617,,1750551,149,,evan-feature22,full_pf_b,,1
123,26871,150,,,,1,1,1.0,1.0,0.0,1.0,,0.0-152.0,,1.0,410.01,1.0,0.741163419,1.0,0.75,0.0,0.64691024,1.0,0.513858197,False,,5b39f4f71d4b680001694617,,1760734,150,,evan-feature22,full_pf_b,,1
124,26872,151,,,,1,1,1.0,0.0,-1.0,0.0,,0.0-153.0,,-1.0,3204.52,1.0,0.75,0.0,0.70816558,1.0,0.594499079,0.0,0.48502124,False,,5b39f4f71d4b680001694617,,1773715,151,,evan-feature22,full_pf_b,,0
125,26873,152,,,,1,1,1.0,1.0,0.0,1.0,,0.0-154.0,,1.0,779.655,1.0,0.75,1.0,0.721848901,1.0,0.62197249,0.0,0.48263586399999997,False,,5b39f4f71d4b680001694617,,1784277,152,,evan-feature22,full_pf_b,,0
126,26874,153,,,,2,2,1.0,0.0,-1.0,0.0,,0.0-155.0,,-1.0,979.935,0.0,0.75,1.0,0.74813071,1.0,0.584357161,0.0,0.411477782,False,,5b39f4f71d4b680001694617,,1795026,153,,evan-feature22,full_pf_b,,1
127,26875,154,,,,2,2,0.0,1.0,0.0,1.0,,0.0-156.0,,1.0,865.58,1.0,0.75,1.0,0.75,0.0,0.52287236,1.0,0.488290656,False,,5b39f4f71d4b680001694617,,1805667,154,,evan-feature22,full_pf_b,,0
128,26876,155,,,,2,2,0.0,0.0,0.0,1.0,,0.0-157.0,,0.0,1913.35,1.0,0.75,0.0,0.75,0.0,0.544321581,0.0,0.53143059,False,,5b39f4f71d4b680001694617,,1817360,155,,evan-feature22,full_pf_b,,0
129,26877,156,,,,2,2,0.0,1.0,0.0,1.0,,0.0-158.0,,1.0,834.765,1.0,0.726754564,1.0,0.75,0.0,0.5129306370000001,1.0,0.530592445,False,,5b39f4f71d4b680001694617,,1827965,156,,evan-feature22,full_pf_b,,0
130,26878,157,,,,2,2,1.0,1.0,-1.0,0.0,,0.0-159.0,,-1.0,970.105,0.0,0.75,1.0,0.7392590729999999,1.0,0.479875835,1.0,0.547007051,False,,5b39f4f71d4b680001694617,,1838712,157,,evan-feature22,full_pf_b,,0
131,26879,158,,,,2,2,1.0,0.0,-1.0,0.0,,0.0-160.0,,-1.0,2020.955,1.0,0.75,1.0,0.7393376979999999,1.0,0.546045419,0.0,0.541267353,False,,5b39f4f71d4b680001694617,,1850506,158,,evan-feature22,full_pf_b,,0
132,26880,159,,,,2,2,1.0,0.0,-1.0,0.0,,0.0-161.0,,-1.0,831.705,1.0,0.75,0.0,0.75,1.0,0.485725895,0.0,0.527625395,False,,5b39f4f71d4b680001694617,,1861110,159,,evan-feature22,full_pf_b,,0
133,26881,160,,,,2,2,0.0,1.0,0.0,1.0,,0.0-162.0,,1.0,3573.08,1.0,0.75,1.0,0.725087974,0.0,0.488603595,1.0,0.504019206,False,,5b39f4f71d4b680001694617,,1874454,160,,evan-feature22,full_pf_b,,0
134,26882,161,,,,2,2,0.0,0.0,0.0,1.0,,0.0-163.0,,0.0,746.075,1.0,0.745504295,0.0,0.75,0.0,0.452379914,0.0,0.50131194,False,,5b39f4f71d4b680001694617,,1884974,161,,evan-feature22,full_pf_b,,0
135,26883,162,,,,2,2,1.0,1.0,0.0,1.0,,0.0-164.0,,1.0,1439.87,1.0,0.728513874,1.0,0.75,1.0,0.44125567200000004,1.0,0.531454591,False,,5b39f4f71d4b680001694617,,1896188,162,,evan-feature22,full_pf_b,,0
136,26884,163,,,,2,2,1.0,0.0,-1.0,0.0,,0.0-165.0,,-1.0,607.67,0.0,0.73790804,1.0,0.75,1.0,0.413036656,0.0,0.524619035,False,,5b39f4f71d4b680001694617,,1906568,163,,evan-feature22,full_pf_b,,0
137,26885,164,,,,1,1,1.0,1.0,0.0,1.0,,0.0-166.0,,1.0,1179.285,1.0,0.7080961309999999,1.0,0.708666865,0.0,0.431915581,0.0,0.481819489,False,,5b39f4f71d4b680001694617,,1917520,164,,evan-feature22,full_pf_b,,1
138,26886,165,,,,1,1,1.0,0.0,0.0,1.0,,0.0-167.0,,0.0,557.395,1.0,0.721378003,0.0,0.71605913,0.0,0.36642387,1.0,0.5036739929999999,False,,5b39f4f71d4b680001694617,,1927848,165,,evan-feature22,full_pf_b,,0
139,26887,166,,,,1,1,0.0,1.0,0.0,1.0,,0.0-168.0,,1.0,1178.005,0.0,0.7340618959999999,1.0,0.699323252,0.0,0.35298046299999997,1.0,0.511241692,False,,5b39f4f71d4b680001694617,,1938802,166,,evan-feature22,full_pf_b,,0
140,26888,167,,,,1,1,0.0,1.0,-1.0,0.0,,0.0-169.0,,0.0,1148.615,0.0,0.75,1.0,0.70412698,0.0,0.380734814,1.0,0.529580116,False,,5b39f4f71d4b680001694617,,1949735,167,,evan-feature22,full_pf_b,,0
141,26889,168,,,,1,1,1.0,1.0,0.0,1.0,,0.0-170.0,,1.0,1618.815,1.0,0.7436654909999999,1.0,0.711182751,0.0,0.41125331,0.0,0.49554405,False,,5b39f4f71d4b680001694617,,1961132,168,,evan-feature22,full_pf_b,,0
142,26890,169,,,,1,1,1.0,1.0,0.0,1.0,,0.0-171.0,,1.0,704.895,1.0,0.731607915,1.0,0.651774583,1.0,0.35688023,1.0,0.45194491600000003,False,,5b39f4f71d4b680001694617,,1971603,169,,evan-feature22,full_pf_b,,0
143,26891,170,,,,1,1,1.0,1.0,-1.0,0.0,,0.0-172.0,,-1.0,488.96,1.0,0.75,1.0,0.75,0.0,0.283145374,1.0,0.528608005,False,,5b39f4f71d4b680001694617,,1981863,170,,evan-feature22,full_pf_b,,0
144,26892,171,,,,2,2,1.0,1.0,-1.0,0.0,,0.0-173.0,,-1.0,595.525,0.0,0.7491416890000001,1.0,0.7423785959999999,1.0,0.29135870399999997,1.0,0.498888318,False,,5b39f4f71d4b680001694617,,1992235,171,,evan-feature22,full_pf_b,,1
145,26893,172,,,,1,1,0.0,1.0,-1.0,0.0,,0.0-174.0,,0.0,719.23,0.0,0.708569387,1.0,0.717682277,0.0,0.294421699,0.0,0.493838163,False,,5b39f4f71d4b680001694617,,2002724,172,,evan-feature22,full_pf_b,,1
146,26894,173,,,,1,1,1.0,0.0,0.0,1.0,,0.0-175.0,,0.0,835.965,1.0,0.75,0.0,0.7383382159999999,0.0,0.356098707,1.0,0.442533405,False,,5b39f4f71d4b680001694617,,2013336,173,,evan-feature22,full_pf_b,,0
147,26895,174,,,,1,1,0.0,0.0,0.0,1.0,,0.0-176.0,,0.0,703.47,0.0,0.744527075,0.0,0.75,0.0,0.334127506,0.0,0.393165805,False,,5b39f4f71d4b680001694617,,2023816,174,,evan-feature22,full_pf_b,,0
148,26896,175,,,,2,2,0.0,0.0,0.0,1.0,,0.0-177.0,,0.0,1490.44,0.0,0.75,1.0,0.75,0.0,0.33571021799999995,0.0,0.350393962,False,,5b39f4f71d4b680001694617,,2035079,175,,evan-feature22,full_pf_b,,1
149,26897,176,,,,1,1,1.0,1.0,0.0,1.0,,0.0-178.0,,1.0,1951.505,1.0,0.75,1.0,0.75,0.0,0.313628297,0.0,0.36349657399999996,False,,5b39f4f71d4b680001694617,,2046805,176,,evan-feature22,full_pf_b,,1
150,26898,177,,,,SLOW,SLOW,,,-1.0,0.0,,0.0-179.0,,-3.0,,1.0,0.75,1.0,0.734284182,1.0,0.262667667,1.0,0.380199119,False,,5b39f4f71d4b680001694617,,2052620,177,,evan-feature22,full_pf_b,,1
151,26899,178,,,,1,1,0.0,1.0,0.0,1.0,,0.0-180.0,,1.0,999.61,0.0,0.75,1.0,0.75,1.0,0.25,0.0,0.394494013,False,,5b39f4f71d4b680001694617,,2063396,178,,evan-feature22,full_pf_b,,1
152,26900,179,,,,1,1,1.0,1.0,-1.0,0.0,,0.0-181.0,,-1.0,2626.0,1.0,0.722298145,1.0,0.7357822340000001,0.0,0.25,0.0,0.319142121,False,,5b39f4f71d4b680001694617,,2075796,179,,evan-feature22,full_pf_b,,0
153,26901,180,,,,1,1,1.0,1.0,-1.0,0.0,,0.0-182.0,,-1.0,1397.875,1.0,0.73149275,1.0,0.724276446,0.0,0.305856907,0.0,0.281315057,False,,5b39f4f71d4b680001694617,,2086965,180,,evan-feature22,full_pf_b,,0
154,26902,181,,,,2,2,1.0,0.0,0.0,1.0,,0.0-183.0,,0.0,465.445,1.0,0.7458732690000001,1.0,0.7336382459999999,1.0,0.272571964,0.0,0.266021999,False,,5b39f4f71d4b680001694617,,2097199,181,,evan-feature22,full_pf_b,,1
155,26903,182,,,,1,1,0.0,0.0,0.0,1.0,,0.0-184.0,,0.0,1434.795,0.0,0.705579037,0.0,0.720778292,1.0,0.320238144,0.0,0.30971744,False,,5b39f4f71d4b680001694617,,2108404,182,,evan-feature22,full_pf_b,,1
156,26904,183,,,,1,1,0.0,1.0,0.0,1.0,,0.0-185.0,,1.0,1404.855,0.0,0.700425648,1.0,0.7198784009999999,1.0,0.272590393,0.0,0.304182931,False,,5b39f4f71d4b680001694617,,2119576,183,,evan-feature22,full_pf_b,,0
157,26905,184,,,,2,2,1.0,1.0,0.0,1.0,,0.0-186.0,,1.0,463.73,1.0,0.735590785,0.0,0.722714973,1.0,0.25,1.0,0.323421091,False,,5b39f4f71d4b680001694617,,2129814,184,,evan-feature22,full_pf_b,,1
158,26906,185,,,,1,1,0.0,0.0,0.0,1.0,,0.0-187.0,,0.0,2393.36,0.0,0.724807662,0.0,0.63146213,0.0,0.36836492600000004,1.0,0.34592153299999995,False,,5b39f4f71d4b680001694617,,2141978,185,,evan-feature22,full_pf_b,,1
159,26907,186,,,,1,1,1.0,1.0,0.0,1.0,,0.0-188.0,,1.0,1424.53,1.0,0.7352796909999999,1.0,0.555111392,0.0,0.36003922,1.0,0.31433779999999995,False,,5b39f4f71d4b680001694617,,2153177,186,,evan-feature22,full_pf_b,,0
160,26908,187,notice,,,,,,,,,,0.0-189.0,"{""Q0"":""no""}",,27218.0,,,,,,,,,False,,5b39f4f71d4b680001694617,,2180397,187,Q,survey-text,full_pf_b,,1
161,26909,188,track1,,[1],,,,,,,,0.0-190.0,"{""Q0"":""no""}",,4346.0,,,,,,,,,False,,5b39f4f71d4b680001694617,,2184748,188,Q,evan-quiz,full_pf_b,,1
162,26910,189,track2,,[1],,,,,,,,0.0-191.0,"{""Q0"":""no""}",,18604.0,,,,,,,,,False,,5b39f4f71d4b680001694617,,2203355,189,Q,evan-quiz,full_pf_b,,1
163,26911,190,strat,,,,,,,,,,0.0-192.0,"{""Q0"":""tried to guess based on what had already appeared""}",,32287.0,,,,,,,,,False,,5b39f4f71d4b680001694617,,2235646,190,Q,survey-text,full_pf_b,,1
