,index,Unnamed: 0,Q_name,button_pressed,choice_idxs,chosen_pos,chosen_state,chosen_state_f_1_outcome,chosen_state_f_2_outcome,f_1_reward,f_2_reward,incor_questions,internal_node_id,responses,reward_received,rt,s_1_f_1_outcome,s_1_f_1_prob,s_1_f_2_outcome,s_1_f_2_prob,s_2_f_1_outcome,s_2_f_1_prob,s_2_f_2_outcome,s_2_f_2_prob,safe_first,stimulus,subjectID,success,time_elapsed,trial_index,trial_num,trial_type,version,view_history,switching
0,36225,25,,,,1,1,1.0,1.0,0.0,1.0,,0.0-27.0,,1.0,1406.0,1.0,0.6,1.0,0.6,0.0,0.4,0.0,0.4,True,,5e123ff176f4508ad89fa734,,554771,25,,evan-feature22,full_rf_b,,0
1,36226,26,,,,1,1,1.0,0.0,0.0,1.0,,0.0-28.0,,0.0,918.0,1.0,0.608053294,0.0,0.63424552,1.0,0.397152172,1.0,0.347069101,True,,5e123ff176f4508ad89fa734,,565444,26,,evan-feature22,full_rf_b,,0
2,36227,27,,,,1,1,0.0,0.0,0.0,1.0,,0.0-29.0,,0.0,465.0,0.0,0.642237155,0.0,0.648566321,0.0,0.389407674,1.0,0.285525717,True,,5e123ff176f4508ad89fa734,,575663,27,,evan-feature22,full_rf_b,,0
3,36228,28,,,,1,1,0.0,0.0,0.0,1.0,,0.0-30.0,,0.0,1176.0,0.0,0.661086576,0.0,0.630492543,1.0,0.399058924,0.0,0.25,True,,5e123ff176f4508ad89fa734,,586593,28,,evan-feature22,full_rf_b,,0
4,36229,29,,,,1,1,1.0,0.0,0.0,1.0,,0.0-31.0,,0.0,436.0,1.0,0.631324137,0.0,0.6269842929999999,0.0,0.38734784299999997,0.0,0.25,True,,5e123ff176f4508ad89fa734,,596782,29,,evan-feature22,full_rf_b,,0
5,36230,30,,,,2,2,1.0,0.0,0.0,1.0,,0.0-32.0,,0.0,518.0,1.0,0.6381991370000001,1.0,0.68987999,1.0,0.384107265,0.0,0.271332943,True,,5e123ff176f4508ad89fa734,,607054,30,,evan-feature22,full_rf_b,,1
6,36231,31,,,,2,2,1.0,0.0,0.0,1.0,,0.0-33.0,,0.0,168.0,1.0,0.66034901,1.0,0.742641349,1.0,0.360225629,0.0,0.25,True,,5e123ff176f4508ad89fa734,,616977,31,,evan-feature22,full_rf_b,,0
7,36232,32,,,,1,1,1.0,1.0,-1.0,0.0,,0.0-34.0,,-1.0,812.0,1.0,0.638612418,1.0,0.75,0.0,0.367273939,0.0,0.25,True,,5e123ff176f4508ad89fa734,,627543,32,,evan-feature22,full_rf_b,,1
8,36233,33,,,,2,2,1.0,0.0,0.0,1.0,,0.0-35.0,,0.0,419.0,1.0,0.624340629,1.0,0.75,1.0,0.425829545,0.0,0.25,True,,5e123ff176f4508ad89fa734,,637719,33,,evan-feature22,full_rf_b,,1
9,36234,34,,,,1,1,1.0,0.0,0.0,1.0,,0.0-36.0,,0.0,117.0,1.0,0.621999804,0.0,0.75,0.0,0.368609357,0.0,0.25,True,,5e123ff176f4508ad89fa734,,647592,34,,evan-feature22,full_rf_b,,1
10,36235,35,,,,2,2,1.0,0.0,-1.0,0.0,,0.0-37.0,,-1.0,636.0,1.0,0.62666403,1.0,0.75,1.0,0.311151498,0.0,0.25,True,,5e123ff176f4508ad89fa734,,657984,35,,evan-feature22,full_rf_b,,1
11,36236,36,,,,1,1,0.0,1.0,-1.0,0.0,,0.0-38.0,,0.0,463.0,0.0,0.6819650009999999,1.0,0.75,0.0,0.310763048,0.0,0.25,True,,5e123ff176f4508ad89fa734,,668204,36,,evan-feature22,full_rf_b,,1
12,36237,37,,,,1,1,1.0,0.0,0.0,1.0,,0.0-39.0,,0.0,753.0,1.0,0.740626951,0.0,0.75,0.0,0.25,0.0,0.25,True,,5e123ff176f4508ad89fa734,,678711,37,,evan-feature22,full_rf_b,,0
13,36238,38,,,,1,1,1.0,0.0,0.0,1.0,,0.0-40.0,,0.0,474.0,1.0,0.739599242,0.0,0.742034978,1.0,0.25397114600000004,0.0,0.25,True,,5e123ff176f4508ad89fa734,,688941,38,,evan-feature22,full_rf_b,,0
14,36239,39,,,,1,1,1.0,1.0,0.0,1.0,,0.0-41.0,,1.0,317.0,1.0,0.732341315,1.0,0.72735643,1.0,0.25,0.0,0.25,True,,5e123ff176f4508ad89fa734,,699018,39,,evan-feature22,full_rf_b,,0
15,36240,40,,,,1,1,1.0,1.0,0.0,1.0,,0.0-42.0,,1.0,428.0,1.0,0.7062287770000001,1.0,0.75,1.0,0.29002151,0.0,0.288256649,True,,5e123ff176f4508ad89fa734,,709201,40,,evan-feature22,full_rf_b,,0
16,36241,41,,,,1,1,0.0,0.0,-1.0,0.0,,0.0-43.0,,0.0,307.0,0.0,0.7086029209999999,0.0,0.75,0.0,0.274129113,0.0,0.262851608,True,,5e123ff176f4508ad89fa734,,719264,41,,evan-feature22,full_rf_b,,0
17,36242,42,,,,1,1,0.0,1.0,0.0,1.0,,0.0-44.0,,1.0,892.0,0.0,0.669189651,1.0,0.727614338,0.0,0.298444036,1.0,0.296944518,True,,5e123ff176f4508ad89fa734,,729910,42,,evan-feature22,full_rf_b,,0
18,36243,43,,,,1,1,1.0,1.0,-1.0,0.0,,0.0-45.0,,-1.0,86.0,1.0,0.6819912929999999,1.0,0.7179434290000001,1.0,0.265003961,0.0,0.28157921199999997,True,,5e123ff176f4508ad89fa734,,739824,43,,evan-feature22,full_rf_b,,0
19,36244,44,,,,1,1,1.0,1.0,-1.0,0.0,,0.0-46.0,,-1.0,306.0,1.0,0.665275002,1.0,0.723065271,0.0,0.260414971,1.0,0.30973870000000003,True,,5e123ff176f4508ad89fa734,,749886,44,,evan-feature22,full_rf_b,,0
20,36245,45,,,,2,2,1.0,0.0,0.0,1.0,,0.0-47.0,,0.0,318.0,1.0,0.6660593260000001,1.0,0.728032907,1.0,0.30922817,0.0,0.338778608,True,,5e123ff176f4508ad89fa734,,759960,45,,evan-feature22,full_rf_b,,1
21,36246,46,,,,2,2,0.0,1.0,0.0,1.0,,0.0-48.0,,1.0,399.0,0.0,0.702068785,1.0,0.6528750879999999,0.0,0.287329608,1.0,0.35789613200000003,True,,5e123ff176f4508ad89fa734,,770116,46,,evan-feature22,full_rf_b,,0
22,36247,47,,,,2,2,0.0,1.0,0.0,1.0,,0.0-49.0,,1.0,378.0,0.0,0.651939787,1.0,0.636725589,0.0,0.284834488,1.0,0.358563756,True,,5e123ff176f4508ad89fa734,,780249,47,,evan-feature22,full_rf_b,,0
23,36248,48,,,,2,2,1.0,0.0,0.0,1.0,,0.0-50.0,,0.0,348.0,0.0,0.67573929,1.0,0.612550049,1.0,0.37130387600000003,0.0,0.383542402,True,,5e123ff176f4508ad89fa734,,790352,48,,evan-feature22,full_rf_b,,0
24,36249,49,,,,1,1,1.0,0.0,0.0,1.0,,0.0-51.0,,0.0,279.0,1.0,0.620753801,0.0,0.60513644,0.0,0.385529434,0.0,0.340361743,True,,5e123ff176f4508ad89fa734,,800387,49,,evan-feature22,full_rf_b,,1
25,36250,50,,,,1,1,0.0,1.0,-1.0,0.0,,0.0-52.0,,0.0,517.0,0.0,0.673564893,1.0,0.672437924,1.0,0.292955382,1.0,0.337633795,True,,5e123ff176f4508ad89fa734,,810663,50,,evan-feature22,full_rf_b,,0
26,36251,51,,,,2,2,1.0,1.0,0.0,1.0,,0.0-53.0,,1.0,789.0,1.0,0.6749427,1.0,0.724197502,1.0,0.32391132100000003,1.0,0.350995264,True,,5e123ff176f4508ad89fa734,,821212,51,,evan-feature22,full_rf_b,,1
27,36252,52,,,,1,1,0.0,1.0,0.0,1.0,,0.0-54.0,,1.0,324.0,0.0,0.6940159379999999,1.0,0.75,0.0,0.31710554399999996,0.0,0.413450341,True,,5e123ff176f4508ad89fa734,,831291,52,,evan-feature22,full_rf_b,,1
28,36253,53,,,,2,2,0.0,0.0,0.0,1.0,,0.0-55.0,,0.0,276.0,1.0,0.6916018270000001,0.0,0.69001187,0.0,0.261817804,0.0,0.40038635,True,,5e123ff176f4508ad89fa734,,841324,53,,evan-feature22,full_rf_b,,1
29,36254,54,,,,1,1,0.0,1.0,0.0,1.0,,0.0-56.0,,1.0,159.0,0.0,0.641061544,1.0,0.71337992,1.0,0.277296461,1.0,0.47372791700000005,True,,5e123ff176f4508ad89fa734,,851237,54,,evan-feature22,full_rf_b,,1
30,36255,55,,,,2,2,1.0,0.0,0.0,1.0,,0.0-57.0,,0.0,448.0,0.0,0.6082438520000001,1.0,0.708471106,1.0,0.28745137,0.0,0.564174476,True,,5e123ff176f4508ad89fa734,,861441,55,,evan-feature22,full_rf_b,,1
31,36256,56,,,,1,1,0.0,1.0,-1.0,0.0,,0.0-58.0,,0.0,239.0,0.0,0.6051112120000001,1.0,0.7118147229999999,0.0,0.272390611,1.0,0.5595149939999999,True,,5e123ff176f4508ad89fa734,,871436,56,,evan-feature22,full_rf_b,,1
32,36257,57,,,,2,2,0.0,0.0,-1.0,0.0,,0.0-59.0,,0.0,323.0,1.0,0.582420852,0.0,0.635867583,0.0,0.31089574,0.0,0.5227206520000001,True,,5e123ff176f4508ad89fa734,,881516,57,,evan-feature22,full_rf_b,,1
33,36258,58,,,,1,1,1.0,0.0,-1.0,0.0,,0.0-60.0,,-1.0,395.0,1.0,0.623195575,0.0,0.655026044,0.0,0.25,1.0,0.560387538,True,,5e123ff176f4508ad89fa734,,891668,58,,evan-feature22,full_rf_b,,1
34,36259,59,,,,2,2,0.0,1.0,0.0,1.0,,0.0-61.0,,1.0,326.0,1.0,0.601889598,1.0,0.678198724,0.0,0.25,1.0,0.559922936,True,,5e123ff176f4508ad89fa734,,901750,59,,evan-feature22,full_rf_b,,1
35,36260,60,,,,1,1,0.0,1.0,-1.0,0.0,,0.0-62.0,,0.0,398.0,0.0,0.601259914,1.0,0.704681482,1.0,0.33908969299999997,0.0,0.505003715,True,,5e123ff176f4508ad89fa734,,911903,60,,evan-feature22,full_rf_b,,1
36,36261,61,,,,2,2,0.0,0.0,-1.0,0.0,,0.0-63.0,,0.0,406.0,0.0,0.59645454,0.0,0.710437172,0.0,0.327441879,0.0,0.391749613,True,,5e123ff176f4508ad89fa734,,922069,61,,evan-feature22,full_rf_b,,1
37,36262,62,,,,1,1,1.0,1.0,0.0,1.0,,0.0-64.0,,1.0,218.0,1.0,0.529473,1.0,0.636758527,0.0,0.301338063,0.0,0.365661481,True,,5e123ff176f4508ad89fa734,,932043,62,,evan-feature22,full_rf_b,,1
38,36263,63,,,,2,2,0.0,1.0,-1.0,0.0,,0.0-65.0,,0.0,226.0,0.0,0.541657162,1.0,0.634541962,0.0,0.343535366,1.0,0.371763742,True,,5e123ff176f4508ad89fa734,,942023,63,,evan-feature22,full_rf_b,,1
39,36264,64,,,,1,1,0.0,1.0,-1.0,0.0,,0.0-66.0,,0.0,424.0,0.0,0.5707533260000001,1.0,0.589121171,0.0,0.326428396,1.0,0.43961622899999997,True,,5e123ff176f4508ad89fa734,,952202,64,,evan-feature22,full_rf_b,,1
40,36265,65,,,,2,2,1.0,0.0,0.0,1.0,,0.0-67.0,,0.0,409.0,0.0,0.5707533260000001,1.0,0.589121171,1.0,0.326428396,0.0,0.43961622899999997,True,,5e123ff176f4508ad89fa734,,962369,65,,evan-feature22,full_rf_b,,1
41,36266,66,,,,1,1,0.0,0.0,0.0,1.0,,0.0-68.0,,0.0,263.0,0.0,0.506271295,0.0,0.641775594,0.0,0.37149690700000004,0.0,0.404330166,True,,5e123ff176f4508ad89fa734,,972388,66,,evan-feature22,full_rf_b,,1
42,36267,67,,,,1,1,0.0,1.0,-1.0,0.0,,0.0-69.0,,0.0,541.0,0.0,0.455642565,1.0,0.623605825,0.0,0.358753011,1.0,0.346174041,True,,5e123ff176f4508ad89fa734,,982684,67,,evan-feature22,full_rf_b,,0
43,36268,68,,,,2,2,0.0,0.0,0.0,1.0,,0.0-70.0,,0.0,368.0,0.0,0.483677308,0.0,0.5904681070000001,0.0,0.402218411,0.0,0.35344697,True,,5e123ff176f4508ad89fa734,,992811,68,,evan-feature22,full_rf_b,,1
44,36269,69,,,,1,1,0.0,1.0,-1.0,0.0,,0.0-71.0,,0.0,792.0,0.0,0.394210977,1.0,0.558925494,0.0,0.540052017,1.0,0.35182128700000004,True,,5e123ff176f4508ad89fa734,,1003361,69,,evan-feature22,full_rf_b,,1
45,36270,70,,,,2,2,0.0,0.0,0.0,1.0,,0.0-72.0,,0.0,120.0,0.0,0.382300414,1.0,0.577670603,0.0,0.607608448,0.0,0.378261578,True,,5e123ff176f4508ad89fa734,,1013236,70,,evan-feature22,full_rf_b,,1
46,36271,71,,,,1,1,1.0,0.0,-1.0,0.0,,0.0-73.0,,-1.0,724.0,1.0,0.357596762,0.0,0.5929076529999999,1.0,0.6579790010000001,0.0,0.401326777,True,,5e123ff176f4508ad89fa734,,1023716,71,,evan-feature22,full_rf_b,,1
47,36272,72,,,,2,2,1.0,1.0,0.0,1.0,,0.0-74.0,,1.0,2703.0,1.0,0.362033495,1.0,0.582308608,1.0,0.649195052,1.0,0.355158505,True,,5e123ff176f4508ad89fa734,,1036174,72,,evan-feature22,full_rf_b,,1
48,36273,73,,,,1,1,0.0,0.0,0.0,1.0,,0.0-75.0,,0.0,231.0,0.0,0.369620635,0.0,0.669100864,1.0,0.706059111,0.0,0.362516241,True,,5e123ff176f4508ad89fa734,,1046161,73,,evan-feature22,full_rf_b,,1
49,36274,74,,,,1,1,0.0,1.0,0.0,1.0,,0.0-76.0,,1.0,408.0,0.0,0.41477751399999996,1.0,0.7284416779999999,1.0,0.7182656940000001,0.0,0.36228040899999997,True,,5e123ff176f4508ad89fa734,,1056324,74,,evan-feature22,full_rf_b,,0
50,36275,75,,,,2,2,0.0,1.0,-1.0,0.0,,0.0-77.0,,0.0,327.0,0.0,0.37675460299999997,1.0,0.703250285,0.0,0.75,1.0,0.461979164,True,,5e123ff176f4508ad89fa734,,1066406,75,,evan-feature22,full_rf_b,,1
51,36276,76,,,,1,1,1.0,1.0,-1.0,0.0,,0.0-78.0,,-1.0,964.0,1.0,0.398716075,1.0,0.6723864890000001,1.0,0.674153818,1.0,0.519029516,True,,5e123ff176f4508ad89fa734,,1077131,76,,evan-feature22,full_rf_b,,1
52,36277,77,,,,2,2,1.0,1.0,-1.0,0.0,,0.0-79.0,,-1.0,719.0,1.0,0.34677856700000004,1.0,0.69057175,1.0,0.6822438540000001,1.0,0.477292237,True,,5e123ff176f4508ad89fa734,,1087608,77,,evan-feature22,full_rf_b,,1
53,36278,78,,,,1,1,0.0,1.0,0.0,1.0,,0.0-80.0,,1.0,462.0,0.0,0.28580469199999997,1.0,0.68408818,1.0,0.684207565,1.0,0.49780448299999996,True,,5e123ff176f4508ad89fa734,,1097826,78,,evan-feature22,full_rf_b,,1
54,36280,80,,,,1,1,0.0,1.0,0.0,1.0,,0.0-82.0,,1.0,699.0,0.0,0.25,1.0,0.7405808970000001,0.0,0.679614108,0.0,0.436436964,True,,5e123ff176f4508ad89fa734,,1141717,80,,evan-feature22,full_rf_b,,0
55,36281,81,,,,2,2,0.0,0.0,0.0,1.0,,0.0-83.0,,0.0,552.0,1.0,0.29890393,0.0,0.730505706,0.0,0.7328203320000001,0.0,0.439256938,True,,5e123ff176f4508ad89fa734,,1152024,81,,evan-feature22,full_rf_b,,1
56,36282,82,,,,2,2,1.0,0.0,-1.0,0.0,,0.0-84.0,,-1.0,1086.0,0.0,0.326762398,1.0,0.7148059609999999,1.0,0.75,0.0,0.44389608799999997,True,,5e123ff176f4508ad89fa734,,1162868,82,,evan-feature22,full_rf_b,,0
57,36283,83,,,,1,1,1.0,0.0,0.0,1.0,,0.0-85.0,,0.0,259.0,1.0,0.295168515,0.0,0.739760854,1.0,0.719947008,1.0,0.35277284600000003,True,,5e123ff176f4508ad89fa734,,1172884,83,,evan-feature22,full_rf_b,,1
58,36284,84,,,,1,1,0.0,1.0,0.0,1.0,,0.0-86.0,,1.0,426.0,0.0,0.25,1.0,0.70781482,0.0,0.75,1.0,0.286095925,True,,5e123ff176f4508ad89fa734,,1183068,84,,evan-feature22,full_rf_b,,0
59,36285,85,,,,2,2,1.0,0.0,0.0,1.0,,0.0-87.0,,0.0,388.0,1.0,0.25638190899999996,0.0,0.704088163,1.0,0.75,0.0,0.26872601399999996,True,,5e123ff176f4508ad89fa734,,1193214,85,,evan-feature22,full_rf_b,,1
60,36286,86,,,,2,2,1.0,0.0,-1.0,0.0,,0.0-88.0,,-1.0,2638.0,1.0,0.271581126,1.0,0.669760107,1.0,0.733896663,0.0,0.273244572,True,,5e123ff176f4508ad89fa734,,1205611,86,,evan-feature22,full_rf_b,,0
61,36287,87,,,,1,1,0.0,1.0,0.0,1.0,,0.0-89.0,,1.0,331.0,0.0,0.257144401,1.0,0.600575706,0.0,0.74488122,1.0,0.25,True,,5e123ff176f4508ad89fa734,,1215705,87,,evan-feature22,full_rf_b,,1
62,36288,88,,,,2,2,0.0,0.0,0.0,1.0,,0.0-90.0,,0.0,946.0,0.0,0.25,0.0,0.616870026,0.0,0.723610234,0.0,0.25,True,,5e123ff176f4508ad89fa734,,1226408,88,,evan-feature22,full_rf_b,,1
63,36289,89,,,,1,1,0.0,0.0,-1.0,0.0,,0.0-91.0,,0.0,179.0,0.0,0.25,0.0,0.583540187,1.0,0.7041042559999999,0.0,0.285961995,True,,5e123ff176f4508ad89fa734,,1236344,89,,evan-feature22,full_rf_b,,1
64,36290,90,,,,2,2,1.0,0.0,-1.0,0.0,,0.0-92.0,,-1.0,323.0,0.0,0.27254536,1.0,0.53875765,1.0,0.693783448,0.0,0.284961652,True,,5e123ff176f4508ad89fa734,,1246426,90,,evan-feature22,full_rf_b,,1
65,36291,91,,,,1,1,0.0,0.0,-1.0,0.0,,0.0-93.0,,0.0,382.0,0.0,0.25,0.0,0.548431252,1.0,0.734221895,1.0,0.279445214,True,,5e123ff176f4508ad89fa734,,1256569,91,,evan-feature22,full_rf_b,,1
66,36292,92,,,,2,2,0.0,0.0,0.0,1.0,,0.0-94.0,,0.0,340.0,0.0,0.258640684,1.0,0.545878066,0.0,0.725245965,0.0,0.31487537,True,,5e123ff176f4508ad89fa734,,1266668,92,,evan-feature22,full_rf_b,,1
67,36293,93,,,,1,1,0.0,1.0,0.0,1.0,,0.0-95.0,,1.0,255.0,0.0,0.251103711,1.0,0.5776290629999999,0.0,0.696320133,1.0,0.317831047,True,,5e123ff176f4508ad89fa734,,1276680,93,,evan-feature22,full_rf_b,,1
68,36294,94,,,,2,2,0.0,0.0,0.0,1.0,,0.0-96.0,,0.0,378.0,0.0,0.276630292,1.0,0.617329858,0.0,0.73838088,0.0,0.261471582,True,,5e123ff176f4508ad89fa734,,1286814,94,,evan-feature22,full_rf_b,,1
69,36295,95,,,,1,1,0.0,1.0,0.0,1.0,,0.0-97.0,,1.0,520.0,0.0,0.297716424,1.0,0.618863717,1.0,0.7402358259999999,1.0,0.262600834,True,,5e123ff176f4508ad89fa734,,1297091,95,,evan-feature22,full_rf_b,,1
70,36296,96,,,,2,2,0.0,0.0,-1.0,0.0,,0.0-98.0,,0.0,282.0,1.0,0.290935512,0.0,0.695370945,0.0,0.706570507,0.0,0.280030553,True,,5e123ff176f4508ad89fa734,,1307131,96,,evan-feature22,full_rf_b,,1
71,36297,97,,,,1,1,0.0,1.0,0.0,1.0,,0.0-99.0,,1.0,430.0,0.0,0.25,1.0,0.6465277079999999,1.0,0.67766682,0.0,0.25,True,,5e123ff176f4508ad89fa734,,1317321,97,,evan-feature22,full_rf_b,,1
72,36298,98,,,,2,2,1.0,0.0,-1.0,0.0,,0.0-100.0,,-1.0,533.0,0.0,0.26463816,1.0,0.636100213,1.0,0.646048507,0.0,0.265607101,True,,5e123ff176f4508ad89fa734,,1327615,98,,evan-feature22,full_rf_b,,1
73,36299,99,,,,1,1,0.0,1.0,-1.0,0.0,,0.0-101.0,,0.0,624.0,0.0,0.314340707,1.0,0.667795927,0.0,0.613630805,0.0,0.25,True,,5e123ff176f4508ad89fa734,,1337999,99,,evan-feature22,full_rf_b,,1
74,36300,100,,,,2,2,1.0,0.0,0.0,1.0,,0.0-102.0,,0.0,1000.0,1.0,0.28685784,1.0,0.6622549529999999,1.0,0.652154117,0.0,0.25,True,,5e123ff176f4508ad89fa734,,1348758,100,,evan-feature22,full_rf_b,,1
75,36301,101,,,,1,1,0.0,1.0,0.0,1.0,,0.0-103.0,,1.0,507.0,0.0,0.304106554,1.0,0.631289538,1.0,0.707041942,0.0,0.29314237,True,,5e123ff176f4508ad89fa734,,1359024,101,,evan-feature22,full_rf_b,,1
76,36302,102,,,,2,2,0.0,1.0,0.0,1.0,,0.0-104.0,,1.0,2903.0,0.0,0.304806932,1.0,0.571167718,0.0,0.680472346,1.0,0.25,True,,5e123ff176f4508ad89fa734,,1371683,102,,evan-feature22,full_rf_b,,1
77,36303,103,,,,1,1,1.0,1.0,0.0,1.0,,0.0-105.0,,1.0,202.0,1.0,0.37919861,1.0,0.5724849710000001,1.0,0.705638003,0.0,0.30179300600000003,True,,5e123ff176f4508ad89fa734,,1381643,103,,evan-feature22,full_rf_b,,1
78,36304,104,,,,2,2,1.0,0.0,0.0,1.0,,0.0-106.0,,0.0,246.0,1.0,0.464277969,0.0,0.554034373,1.0,0.7372627340000001,0.0,0.264699741,True,,5e123ff176f4508ad89fa734,,1391647,104,,evan-feature22,full_rf_b,,1
79,36305,105,,,,1,1,0.0,1.0,0.0,1.0,,0.0-107.0,,1.0,565.0,0.0,0.465104323,1.0,0.530793115,1.0,0.75,1.0,0.31683071,True,,5e123ff176f4508ad89fa734,,1401971,105,,evan-feature22,full_rf_b,,1
80,36306,106,,,,1,1,0.0,1.0,-1.0,0.0,,0.0-108.0,,0.0,562.0,0.0,0.465104323,1.0,0.530793115,0.0,0.75,0.0,0.31683071,True,,5e123ff176f4508ad89fa734,,1412289,106,,evan-feature22,full_rf_b,,0
81,36307,107,,,,2,2,0.0,1.0,-1.0,0.0,,0.0-109.0,,0.0,344.0,1.0,0.46833986,0.0,0.570249239,0.0,0.7244472590000001,1.0,0.364114163,True,,5e123ff176f4508ad89fa734,,1422390,107,,evan-feature22,full_rf_b,,1
82,36308,108,,,,1,1,0.0,1.0,-1.0,0.0,,0.0-110.0,,0.0,523.0,0.0,0.445444024,1.0,0.649673355,1.0,0.6845441290000001,1.0,0.300660449,True,,5e123ff176f4508ad89fa734,,1432671,108,,evan-feature22,full_rf_b,,1
83,36309,109,,,,2,2,1.0,0.0,-1.0,0.0,,0.0-111.0,,-1.0,37.0,0.0,0.39909721299999995,0.0,0.6715179509999999,1.0,0.742310028,0.0,0.35496088299999995,True,,5e123ff176f4508ad89fa734,,1442463,109,,evan-feature22,full_rf_b,,1
84,36310,110,,,,1,1,0.0,1.0,0.0,1.0,,0.0-112.0,,1.0,1339.0,0.0,0.37956104799999996,1.0,0.694725302,0.0,0.7181651309999999,0.0,0.38726906299999997,True,,5e123ff176f4508ad89fa734,,1453561,110,,evan-feature22,full_rf_b,,1
85,36311,111,,,,2,2,1.0,0.0,0.0,1.0,,0.0-113.0,,0.0,431.0,0.0,0.404995034,1.0,0.724375412,1.0,0.6910946859999999,0.0,0.387187347,True,,5e123ff176f4508ad89fa734,,1463749,111,,evan-feature22,full_rf_b,,1
86,36312,112,,,,1,1,0.0,0.0,-1.0,0.0,,0.0-114.0,,0.0,836.0,0.0,0.461740803,0.0,0.75,0.0,0.75,0.0,0.34872038200000005,True,,5e123ff176f4508ad89fa734,,1474344,112,,evan-feature22,full_rf_b,,1
87,36313,113,,,,2,2,0.0,0.0,-1.0,0.0,,0.0-115.0,,0.0,571.0,0.0,0.43821380600000004,0.0,0.738833273,0.0,0.728286963,0.0,0.399538128,True,,5e123ff176f4508ad89fa734,,1484675,113,,evan-feature22,full_rf_b,,1
88,36314,114,,,,1,1,1.0,1.0,0.0,1.0,,0.0-116.0,,1.0,1154.0,1.0,0.41709882,1.0,0.736666736,1.0,0.75,0.0,0.389095584,True,,5e123ff176f4508ad89fa734,,1495586,114,,evan-feature22,full_rf_b,,1
89,36315,115,,,,2,2,1.0,0.0,0.0,1.0,,0.0-117.0,,0.0,160.0,1.0,0.39749009799999996,1.0,0.744320029,1.0,0.75,0.0,0.363848678,True,,5e123ff176f4508ad89fa734,,1505503,115,,evan-feature22,full_rf_b,,1
90,36316,116,,,,1,1,0.0,0.0,-1.0,0.0,,0.0-118.0,,0.0,489.0,0.0,0.392653706,0.0,0.75,1.0,0.75,0.0,0.384386976,True,,5e123ff176f4508ad89fa734,,1515748,116,,evan-feature22,full_rf_b,,1
91,36317,117,,,,2,2,1.0,0.0,0.0,1.0,,0.0-119.0,,0.0,311.0,0.0,0.31190902600000003,1.0,0.75,1.0,0.732413819,0.0,0.413082932,True,,5e123ff176f4508ad89fa734,,1525822,117,,evan-feature22,full_rf_b,,1
92,36318,118,,,,1,1,0.0,1.0,-1.0,0.0,,0.0-120.0,,0.0,388.0,0.0,0.366917648,1.0,0.740073855,0.0,0.75,0.0,0.352861979,True,,5e123ff176f4508ad89fa734,,1535964,118,,evan-feature22,full_rf_b,,1
93,36319,119,,,,2,2,1.0,0.0,-1.0,0.0,,0.0-121.0,,-1.0,325.0,0.0,0.3645172,1.0,0.721770713,1.0,0.75,0.0,0.404074511,True,,5e123ff176f4508ad89fa734,,1546045,119,,evan-feature22,full_rf_b,,1
94,36320,120,,,,1,1,0.0,0.0,-1.0,0.0,,0.0-122.0,,0.0,529.0,0.0,0.35205600299999995,0.0,0.68983859,0.0,0.739735447,1.0,0.366895945,True,,5e123ff176f4508ad89fa734,,1556333,120,,evan-feature22,full_rf_b,,1
95,36321,121,,,,2,2,1.0,0.0,-1.0,0.0,,0.0-123.0,,-1.0,310.0,1.0,0.40998722600000004,1.0,0.720859127,1.0,0.673854955,0.0,0.368528541,True,,5e123ff176f4508ad89fa734,,1566399,121,,evan-feature22,full_rf_b,,1
96,36322,122,,,,1,1,1.0,1.0,-1.0,0.0,,0.0-124.0,,-1.0,381.0,1.0,0.353625316,1.0,0.75,1.0,0.695605473,1.0,0.38303674200000004,True,,5e123ff176f4508ad89fa734,,1576536,122,,evan-feature22,full_rf_b,,1
97,36323,123,,,,1,1,1.0,1.0,-1.0,0.0,,0.0-125.0,,-1.0,1242.0,1.0,0.359216989,1.0,0.75,1.0,0.6987915090000001,1.0,0.35169046200000004,True,,5e123ff176f4508ad89fa734,,1587539,123,,evan-feature22,full_rf_b,,0
98,36324,124,,,,1,1,0.0,0.0,-1.0,0.0,,0.0-126.0,,0.0,351.0,0.0,0.35834496899999996,0.0,0.75,0.0,0.707067742,1.0,0.416763636,True,,5e123ff176f4508ad89fa734,,1597646,124,,evan-feature22,full_rf_b,,0
99,36325,125,,,,1,1,1.0,0.0,0.0,1.0,,0.0-127.0,,0.0,440.0,1.0,0.38741613799999997,0.0,0.7177369570000001,1.0,0.734902455,1.0,0.49438664299999996,True,,5e123ff176f4508ad89fa734,,1607842,125,,evan-feature22,full_rf_b,,0
100,36326,126,,,,1,1,1.0,0.0,-1.0,0.0,,0.0-128.0,,-1.0,825.0,1.0,0.405255252,0.0,0.7300466640000001,0.0,0.7027748070000001,1.0,0.504359668,True,,5e123ff176f4508ad89fa734,,1618425,126,,evan-feature22,full_rf_b,,0
101,36327,127,,,,2,2,0.0,1.0,-1.0,0.0,,0.0-129.0,,0.0,337.0,1.0,0.40697073,0.0,0.7260142190000001,0.0,0.724461982,1.0,0.522779179,True,,5e123ff176f4508ad89fa734,,1628518,127,,evan-feature22,full_rf_b,,1
102,36328,128,,,,1,1,0.0,1.0,-1.0,0.0,,0.0-130.0,,0.0,325.0,0.0,0.43906215299999996,1.0,0.7252802340000001,0.0,0.719079934,1.0,0.5712990579999999,True,,5e123ff176f4508ad89fa734,,1638598,128,,evan-feature22,full_rf_b,,1
103,36329,129,,,,1,1,1.0,1.0,0.0,1.0,,0.0-131.0,,1.0,263.0,1.0,0.4076705,1.0,0.73280499,1.0,0.681313127,1.0,0.523891346,True,,5e123ff176f4508ad89fa734,,1648617,129,,evan-feature22,full_rf_b,,0
104,36330,130,,,,2,2,1.0,0.0,0.0,1.0,,0.0-132.0,,0.0,90.0,1.0,0.399102911,1.0,0.730498344,1.0,0.661080239,0.0,0.46742603,True,,5e123ff176f4508ad89fa734,,1658462,130,,evan-feature22,full_rf_b,,1
105,36331,131,,,,1,1,1.0,1.0,0.0,1.0,,0.0-133.0,,1.0,356.0,1.0,0.356477282,1.0,0.712296395,0.0,0.641812684,0.0,0.44868414,True,,5e123ff176f4508ad89fa734,,1668571,131,,evan-feature22,full_rf_b,,1
106,36332,132,,,,2,2,1.0,0.0,-1.0,0.0,,0.0-134.0,,-1.0,382.0,1.0,0.462760722,1.0,0.692349322,1.0,0.700947931,0.0,0.394680266,True,,5e123ff176f4508ad89fa734,,1678711,132,,evan-feature22,full_rf_b,,1
107,36333,133,,,,2,2,0.0,0.0,-1.0,0.0,,0.0-135.0,,0.0,390.0,0.0,0.422306413,1.0,0.718375916,0.0,0.706340917,0.0,0.367787185,True,,5e123ff176f4508ad89fa734,,1688861,133,,evan-feature22,full_rf_b,,0
108,36335,135,,,,SLOW,SLOW,,,-1.0,0.0,,0.0-137.0,,-3.0,,1.0,0.4582233,1.0,0.643834117,1.0,0.75,1.0,0.39615823299999997,True,,5e123ff176f4508ad89fa734,,1830981,135,,evan-feature22,full_rf_b,,1
109,36336,136,,,,SLOW,SLOW,,,-1.0,0.0,,0.0-138.0,,-3.0,,0.0,0.43813437899999996,1.0,0.651283804,0.0,0.729674191,0.0,0.37711048,True,,5e123ff176f4508ad89fa734,,1836783,136,,evan-feature22,full_rf_b,,0
110,36337,137,,,,1,1,0.0,1.0,-1.0,0.0,,0.0-139.0,,0.0,330.0,0.0,0.471199094,1.0,0.6470010979999999,1.0,0.715008097,1.0,0.410656191,True,,5e123ff176f4508ad89fa734,,1846871,137,,evan-feature22,full_rf_b,,1
111,36338,138,,,,2,2,1.0,1.0,-1.0,0.0,,0.0-140.0,,-1.0,54.0,0.0,0.42486406,0.0,0.629771829,1.0,0.6550939960000001,1.0,0.459093873,True,,5e123ff176f4508ad89fa734,,1856690,138,,evan-feature22,full_rf_b,,1
112,36339,139,,,,1,1,0.0,1.0,-1.0,0.0,,0.0-141.0,,0.0,248.0,0.0,0.4803197,1.0,0.645842715,1.0,0.6421749920000001,0.0,0.443092151,True,,5e123ff176f4508ad89fa734,,1866695,139,,evan-feature22,full_rf_b,,1
113,36340,140,,,,1,1,1.0,1.0,0.0,1.0,,0.0-142.0,,1.0,1284.0,1.0,0.521848997,1.0,0.735801074,1.0,0.6691348460000001,1.0,0.45259351600000003,True,,5e123ff176f4508ad89fa734,,1877742,140,,evan-feature22,full_rf_b,,0
114,36341,141,,,,2,2,1.0,1.0,-1.0,0.0,,0.0-143.0,,-1.0,2331.0,0.0,0.49565621299999996,1.0,0.742400847,1.0,0.661512553,1.0,0.483110831,True,,5e123ff176f4508ad89fa734,,1889837,141,,evan-feature22,full_rf_b,,1
115,36342,142,,,,1,1,0.0,1.0,-1.0,0.0,,0.0-144.0,,0.0,1111.0,0.0,0.521564361,1.0,0.731078632,1.0,0.6774886809999999,1.0,0.483263956,True,,5e123ff176f4508ad89fa734,,1900707,142,,evan-feature22,full_rf_b,,1
116,36343,143,,,,1,1,1.0,0.0,-1.0,0.0,,0.0-145.0,,-1.0,1547.0,1.0,0.558893102,0.0,0.719810023,1.0,0.67461031,1.0,0.499349834,True,,5e123ff176f4508ad89fa734,,1912012,143,,evan-feature22,full_rf_b,,0
117,36344,144,,,,2,2,0.0,0.0,-1.0,0.0,,0.0-146.0,,0.0,359.0,1.0,0.611031046,1.0,0.75,0.0,0.688072995,0.0,0.5321422729999999,True,,5e123ff176f4508ad89fa734,,1922129,144,,evan-feature22,full_rf_b,,1
118,36345,145,,,,1,1,1.0,0.0,0.0,1.0,,0.0-147.0,,0.0,590.0,1.0,0.633223941,0.0,0.713567728,1.0,0.75,0.0,0.48185314700000004,True,,5e123ff176f4508ad89fa734,,1932476,145,,evan-feature22,full_rf_b,,1
119,36346,146,,,,2,2,1.0,1.0,-1.0,0.0,,0.0-148.0,,-1.0,1300.0,1.0,0.664001694,0.0,0.705509768,1.0,0.75,1.0,0.500211065,True,,5e123ff176f4508ad89fa734,,1943533,146,,evan-feature22,full_rf_b,,1
120,36347,147,,,,1,1,1.0,1.0,-1.0,0.0,,0.0-149.0,,-1.0,965.0,1.0,0.664001694,1.0,0.705509768,0.0,0.75,0.0,0.500211065,True,,5e123ff176f4508ad89fa734,,1954256,147,,evan-feature22,full_rf_b,,1
121,36348,148,,,,2,2,0.0,0.0,-1.0,0.0,,0.0-150.0,,0.0,520.0,1.0,0.696508041,1.0,0.71066027,0.0,0.717028709,0.0,0.49792991,True,,5e123ff176f4508ad89fa734,,1964534,148,,evan-feature22,full_rf_b,,1
122,36349,149,,,,2,2,1.0,0.0,0.0,1.0,,0.0-151.0,,0.0,808.0,1.0,0.699883272,1.0,0.75,1.0,0.713543895,0.0,0.496962643,True,,5e123ff176f4508ad89fa734,,1975100,149,,evan-feature22,full_rf_b,,0
123,36350,150,,,,1,1,1.0,0.0,0.0,1.0,,0.0-152.0,,0.0,1111.0,1.0,0.741163419,0.0,0.75,0.0,0.64691024,0.0,0.513858197,True,,5e123ff176f4508ad89fa734,,1985968,150,,evan-feature22,full_rf_b,,1
124,36351,151,,,,1,1,1.0,1.0,0.0,1.0,,0.0-153.0,,1.0,3094.0,1.0,0.75,1.0,0.70816558,1.0,0.594499079,0.0,0.48502124,True,,5e123ff176f4508ad89fa734,,1998819,151,,evan-feature22,full_rf_b,,0
125,36352,152,,,,2,2,0.0,1.0,-1.0,0.0,,0.0-154.0,,0.0,564.0,0.0,0.75,1.0,0.721848901,0.0,0.62197249,1.0,0.48263586399999997,True,,5e123ff176f4508ad89fa734,,2009141,152,,evan-feature22,full_rf_b,,1
126,36353,153,,,,1,1,1.0,0.0,-1.0,0.0,,0.0-155.0,,-1.0,19.0,1.0,0.75,0.0,0.74813071,1.0,0.584357161,1.0,0.411477782,True,,5e123ff176f4508ad89fa734,,2018917,153,,evan-feature22,full_rf_b,,1
127,36354,154,,,,1,1,1.0,1.0,-1.0,0.0,,0.0-156.0,,-1.0,1118.0,1.0,0.75,1.0,0.75,1.0,0.52287236,0.0,0.488290656,True,,5e123ff176f4508ad89fa734,,2029792,154,,evan-feature22,full_rf_b,,0
128,36355,155,,,,2,2,1.0,0.0,-1.0,0.0,,0.0-157.0,,-1.0,97.0,0.0,0.75,0.0,0.75,1.0,0.544321581,0.0,0.53143059,True,,5e123ff176f4508ad89fa734,,2039645,155,,evan-feature22,full_rf_b,,1
129,36356,156,,,,1,1,1.0,1.0,-1.0,0.0,,0.0-158.0,,-1.0,575.0,1.0,0.726754564,1.0,0.75,1.0,0.5129306370000001,1.0,0.530592445,True,,5e123ff176f4508ad89fa734,,2049977,156,,evan-feature22,full_rf_b,,1
130,36357,157,,,,2,2,0.0,1.0,0.0,1.0,,0.0-159.0,,1.0,27.0,1.0,0.75,0.0,0.7392590729999999,0.0,0.479875835,1.0,0.547007051,True,,5e123ff176f4508ad89fa734,,2059761,157,,evan-feature22,full_rf_b,,1
131,36358,158,,,,1,1,1.0,1.0,0.0,1.0,,0.0-160.0,,1.0,692.0,1.0,0.75,1.0,0.7393376979999999,1.0,0.546045419,0.0,0.541267353,True,,5e123ff176f4508ad89fa734,,2070213,158,,evan-feature22,full_rf_b,,1
132,36359,159,,,,2,2,1.0,0.0,-1.0,0.0,,0.0-161.0,,-1.0,166.0,0.0,0.75,1.0,0.75,1.0,0.485725895,0.0,0.527625395,True,,5e123ff176f4508ad89fa734,,2080134,159,,evan-feature22,full_rf_b,,1
133,36360,160,,,,1,1,1.0,1.0,0.0,1.0,,0.0-162.0,,1.0,308.0,1.0,0.75,1.0,0.725087974,1.0,0.488603595,1.0,0.504019206,True,,5e123ff176f4508ad89fa734,,2090199,160,,evan-feature22,full_rf_b,,1
134,36361,161,,,,2,2,0.0,0.0,-1.0,0.0,,0.0-163.0,,0.0,577.0,1.0,0.745504295,1.0,0.75,0.0,0.452379914,0.0,0.50131194,True,,5e123ff176f4508ad89fa734,,2100532,161,,evan-feature22,full_rf_b,,1
135,36362,162,,,,1,1,0.0,0.0,0.0,1.0,,0.0-164.0,,0.0,9.0,0.0,0.728513874,0.0,0.75,0.0,0.44125567200000004,0.0,0.531454591,True,,5e123ff176f4508ad89fa734,,2110296,162,,evan-feature22,full_rf_b,,1
136,36363,163,,,,1,1,1.0,1.0,-1.0,0.0,,0.0-165.0,,-1.0,461.0,1.0,0.73790804,1.0,0.75,0.0,0.413036656,0.0,0.524619035,True,,5e123ff176f4508ad89fa734,,2120515,163,,evan-feature22,full_rf_b,,0
137,36364,164,,,,2,2,1.0,0.0,-1.0,0.0,,0.0-166.0,,-1.0,364.0,1.0,0.7080961309999999,1.0,0.708666865,1.0,0.431915581,0.0,0.481819489,True,,5e123ff176f4508ad89fa734,,2130639,164,,evan-feature22,full_rf_b,,1
138,36365,165,,,,1,1,1.0,0.0,-1.0,0.0,,0.0-167.0,,-1.0,157.0,1.0,0.721378003,0.0,0.71605913,0.0,0.36642387,0.0,0.5036739929999999,True,,5e123ff176f4508ad89fa734,,2140553,165,,evan-feature22,full_rf_b,,1
139,36366,166,,,,2,2,1.0,0.0,0.0,1.0,,0.0-168.0,,0.0,95.0,1.0,0.7340618959999999,1.0,0.699323252,1.0,0.35298046299999997,0.0,0.511241692,True,,5e123ff176f4508ad89fa734,,2150405,166,,evan-feature22,full_rf_b,,1
140,36367,167,,,,1,1,1.0,1.0,0.0,1.0,,0.0-169.0,,1.0,3288.0,1.0,0.75,1.0,0.70412698,1.0,0.380734814,1.0,0.529580116,True,,5e123ff176f4508ad89fa734,,2163451,167,,evan-feature22,full_rf_b,,1
141,36368,168,,,,1,1,0.0,1.0,0.0,1.0,,0.0-170.0,,1.0,1911.0,0.0,0.7436654909999999,1.0,0.711182751,0.0,0.41125331,0.0,0.49554405,True,,5e123ff176f4508ad89fa734,,2175120,168,,evan-feature22,full_rf_b,,0
142,36369,169,,,,2,2,0.0,0.0,-1.0,0.0,,0.0-171.0,,0.0,744.0,1.0,0.731607915,1.0,0.651774583,0.0,0.35688023,0.0,0.45194491600000003,True,,5e123ff176f4508ad89fa734,,2185622,169,,evan-feature22,full_rf_b,,1
143,36370,170,,,,1,1,0.0,1.0,0.0,1.0,,0.0-172.0,,1.0,625.0,0.0,0.75,1.0,0.75,0.0,0.283145374,0.0,0.528608005,True,,5e123ff176f4508ad89fa734,,2196004,170,,evan-feature22,full_rf_b,,1
144,36371,171,,,,1,1,1.0,0.0,-1.0,0.0,,0.0-173.0,,-1.0,923.0,1.0,0.7491416890000001,0.0,0.7423785959999999,0.0,0.29135870399999997,0.0,0.498888318,True,,5e123ff176f4508ad89fa734,,2206685,171,,evan-feature22,full_rf_b,,0
145,36372,172,,,,1,1,1.0,1.0,0.0,1.0,,0.0-174.0,,1.0,457.0,1.0,0.708569387,1.0,0.717682277,0.0,0.294421699,0.0,0.493838163,True,,5e123ff176f4508ad89fa734,,2216899,172,,evan-feature22,full_rf_b,,0
146,36373,173,,,,SLOW,SLOW,,,-1.0,0.0,,0.0-175.0,,-3.0,,1.0,0.75,0.0,0.7383382159999999,0.0,0.356098707,0.0,0.442533405,True,,5e123ff176f4508ad89fa734,,2222702,173,,evan-feature22,full_rf_b,,1
147,36374,174,,,,2,2,0.0,1.0,-1.0,0.0,,0.0-176.0,,0.0,473.0,1.0,0.744527075,0.0,0.75,0.0,0.334127506,1.0,0.393165805,True,,5e123ff176f4508ad89fa734,,2232931,174,,evan-feature22,full_rf_b,,1
148,36375,175,,,,2,2,0.0,0.0,-1.0,0.0,,0.0-177.0,,0.0,344.0,1.0,0.75,1.0,0.75,0.0,0.33571021799999995,0.0,0.350393962,True,,5e123ff176f4508ad89fa734,,2243031,175,,evan-feature22,full_rf_b,,0
149,36376,176,,,,2,2,1.0,0.0,0.0,1.0,,0.0-178.0,,0.0,924.0,1.0,0.75,1.0,0.75,1.0,0.313628297,0.0,0.36349657399999996,True,,5e123ff176f4508ad89fa734,,2253717,176,,evan-feature22,full_rf_b,,0
150,36377,177,,,,1,1,1.0,1.0,-1.0,0.0,,0.0-179.0,,-1.0,1346.0,1.0,0.75,1.0,0.734284182,0.0,0.262667667,0.0,0.380199119,True,,5e123ff176f4508ad89fa734,,2264821,177,,evan-feature22,full_rf_b,,1
151,36378,178,,,,SLOW,SLOW,,,-1.0,0.0,,0.0-180.0,,-3.0,,1.0,0.75,1.0,0.75,0.0,0.25,0.0,0.394494013,True,,5e123ff176f4508ad89fa734,,2270627,178,,evan-feature22,full_rf_b,,1
152,36379,179,,,,1,1,1.0,1.0,-1.0,0.0,,0.0-181.0,,-1.0,407.0,1.0,0.722298145,1.0,0.7357822340000001,0.0,0.25,0.0,0.319142121,True,,5e123ff176f4508ad89fa734,,2280793,179,,evan-feature22,full_rf_b,,1
153,36380,180,,,,1,1,0.0,1.0,-1.0,0.0,,0.0-182.0,,0.0,729.0,0.0,0.73149275,1.0,0.724276446,1.0,0.305856907,0.0,0.281315057,True,,5e123ff176f4508ad89fa734,,2291278,180,,evan-feature22,full_rf_b,,0
154,36381,181,,,,2,2,0.0,0.0,-1.0,0.0,,0.0-183.0,,0.0,31.0,0.0,0.7458732690000001,1.0,0.7336382459999999,0.0,0.272571964,0.0,0.266021999,True,,5e123ff176f4508ad89fa734,,2301071,181,,evan-feature22,full_rf_b,,1
155,36382,182,,,,1,1,1.0,0.0,0.0,1.0,,0.0-184.0,,0.0,357.0,1.0,0.705579037,0.0,0.720778292,0.0,0.320238144,0.0,0.30971744,True,,5e123ff176f4508ad89fa734,,2311185,182,,evan-feature22,full_rf_b,,1
156,36383,183,,,,1,1,1.0,1.0,0.0,1.0,,0.0-185.0,,1.0,252.0,1.0,0.700425648,1.0,0.7198784009999999,0.0,0.272590393,0.0,0.304182931,True,,5e123ff176f4508ad89fa734,,2321193,183,,evan-feature22,full_rf_b,,0
157,36384,184,,,,2,2,0.0,0.0,0.0,1.0,,0.0-186.0,,0.0,485.0,1.0,0.735590785,0.0,0.722714973,0.0,0.25,0.0,0.323421091,True,,5e123ff176f4508ad89fa734,,2331434,184,,evan-feature22,full_rf_b,,1
158,36385,185,,,,1,1,1.0,1.0,0.0,1.0,,0.0-187.0,,1.0,32.0,1.0,0.724807662,1.0,0.63146213,0.0,0.36836492600000004,0.0,0.34592153299999995,True,,5e123ff176f4508ad89fa734,,2341222,185,,evan-feature22,full_rf_b,,1
159,36386,186,,,,2,2,1.0,0.0,-1.0,0.0,,0.0-188.0,,-1.0,343.0,0.0,0.7352796909999999,0.0,0.555111392,1.0,0.36003922,0.0,0.31433779999999995,True,,5e123ff176f4508ad89fa734,,2351323,186,,evan-feature22,full_rf_b,,1
160,36387,187,notice,,,,,,,,,,0.0-189.0,"{""Q0"":""no""}",,6403.0,,,,,,,,,True,,5e123ff176f4508ad89fa734,,2357740,187,Q,survey-text,full_rf_b,,1
161,36388,188,track1,,[1],,,,,,,,0.0-190.0,"{""Q0"":""no""}",,2720.0,,,,,,,,,True,,5e123ff176f4508ad89fa734,,2360466,188,Q,evan-quiz,full_rf_b,,1
162,36389,189,track2,,[0],,,,,,,,0.0-191.0,"{""Q0"":""yes""}",,5171.0,,,,,,,,,True,,5e123ff176f4508ad89fa734,,2365642,189,Q,evan-quiz,full_rf_b,,1
163,36390,190,strat,,,,,,,,,,0.0-192.0,"{""Q0"":""patterns""}",,7913.0,,,,,,,,,True,,5e123ff176f4508ad89fa734,,2373558,190,Q,survey-text,full_rf_b,,1
