,index,Unnamed: 0,Q_name,button_pressed,choice_idxs,chosen_pos,chosen_state,chosen_state_f_1_outcome,chosen_state_f_2_outcome,f_1_reward,f_2_reward,incor_questions,internal_node_id,responses,reward_received,rt,s_1_f_1_outcome,s_1_f_1_prob,s_1_f_2_outcome,s_1_f_2_prob,s_2_f_1_outcome,s_2_f_1_prob,s_2_f_2_outcome,s_2_f_2_prob,safe_first,stimulus,subjectID,success,time_elapsed,trial_index,trial_num,trial_type,version,view_history,switching
0,30310,25,,,,2,2,0.0,0.0,-1.0,0.0,,0.0-27.0,,0.0,2253.435,0.0,0.6,1.0,0.6,0.0,0.4,0.0,0.4,False,,57309e1230a5560010ecbdc2,,603310,25,,evan-feature22,full_pf_b,,0
1,30311,26,,,,1,1,1.0,0.0,-1.0,0.0,,0.0-28.0,,-1.0,1475.195,1.0,0.608053294,0.0,0.63424552,0.0,0.397152172,1.0,0.347069101,False,,57309e1230a5560010ecbdc2,,614553,26,,evan-feature22,full_pf_b,,1
2,30312,27,,,,1,1,1.0,1.0,-1.0,0.0,,0.0-29.0,,-1.0,1673.935,1.0,0.642237155,1.0,0.648566321,1.0,0.389407674,0.0,0.285525717,False,,57309e1230a5560010ecbdc2,,625994,27,,evan-feature22,full_pf_b,,0
3,30313,28,,,,1,1,0.0,1.0,-1.0,0.0,,0.0-30.0,,0.0,1889.645,0.0,0.661086576,1.0,0.630492543,0.0,0.399058924,0.0,0.25,False,,57309e1230a5560010ecbdc2,,637645,28,,evan-feature22,full_pf_b,,0
4,30314,29,,,,1,1,1.0,0.0,0.0,1.0,,0.0-31.0,,0.0,1438.96,1.0,0.631324137,0.0,0.6269842929999999,0.0,0.38734784299999997,0.0,0.25,False,,57309e1230a5560010ecbdc2,,648847,29,,evan-feature22,full_pf_b,,0
5,30315,30,,,,2,2,1.0,0.0,0.0,1.0,,0.0-32.0,,0.0,1892.945,0.0,0.6381991370000001,1.0,0.68987999,1.0,0.384107265,0.0,0.271332943,False,,57309e1230a5560010ecbdc2,,660501,30,,evan-feature22,full_pf_b,,1
6,30316,31,,,,1,1,0.0,1.0,-1.0,0.0,,0.0-33.0,,0.0,1524.585,0.0,0.66034901,1.0,0.742641349,0.0,0.360225629,0.0,0.25,False,,57309e1230a5560010ecbdc2,,671790,31,,evan-feature22,full_pf_b,,1
7,30317,32,,,,2,2,0.0,0.0,-1.0,0.0,,0.0-34.0,,0.0,1926.195,0.0,0.638612418,1.0,0.75,0.0,0.367273939,0.0,0.25,False,,57309e1230a5560010ecbdc2,,683483,32,,evan-feature22,full_pf_b,,1
8,30318,33,,,,1,1,1.0,1.0,0.0,1.0,,0.0-35.0,,1.0,1712.745,1.0,0.624340629,1.0,0.75,0.0,0.425829545,0.0,0.25,False,,57309e1230a5560010ecbdc2,,694961,33,,evan-feature22,full_pf_b,,1
9,30319,34,,,,2,2,1.0,0.0,0.0,1.0,,0.0-36.0,,0.0,1050.645,1.0,0.621999804,0.0,0.75,1.0,0.368609357,0.0,0.25,False,,57309e1230a5560010ecbdc2,,705773,34,,evan-feature22,full_pf_b,,1
10,30320,35,,,,2,2,0.0,1.0,-1.0,0.0,,0.0-37.0,,0.0,1245.865,0.0,0.62666403,0.0,0.75,0.0,0.311151498,1.0,0.25,False,,57309e1230a5560010ecbdc2,,716782,35,,evan-feature22,full_pf_b,,0
11,30321,36,,,,1,1,1.0,1.0,0.0,1.0,,0.0-38.0,,1.0,1564.145,1.0,0.6819650009999999,1.0,0.75,0.0,0.310763048,0.0,0.25,False,,57309e1230a5560010ecbdc2,,728112,36,,evan-feature22,full_pf_b,,1
12,30322,37,,,,1,1,0.0,1.0,-1.0,0.0,,0.0-39.0,,0.0,1699.93,0.0,0.740626951,1.0,0.75,1.0,0.25,0.0,0.25,False,,57309e1230a5560010ecbdc2,,739576,37,,evan-feature22,full_pf_b,,0
13,30323,38,,,,2,2,0.0,1.0,-1.0,0.0,,0.0-40.0,,0.0,1852.13,1.0,0.739599242,1.0,0.742034978,0.0,0.25397114600000004,1.0,0.25,False,,57309e1230a5560010ecbdc2,,751190,38,,evan-feature22,full_pf_b,,1
14,30324,39,,,,2,2,1.0,0.0,-1.0,0.0,,0.0-41.0,,-1.0,1325.53,1.0,0.732341315,1.0,0.72735643,1.0,0.25,0.0,0.25,False,,57309e1230a5560010ecbdc2,,762277,39,,evan-feature22,full_pf_b,,0
15,30325,40,,,,2,2,0.0,0.0,-1.0,0.0,,0.0-42.0,,0.0,1518.44,0.0,0.7062287770000001,1.0,0.75,0.0,0.29002151,0.0,0.288256649,False,,57309e1230a5560010ecbdc2,,773558,40,,evan-feature22,full_pf_b,,0
16,30326,41,,,,1,1,0.0,1.0,-1.0,0.0,,0.0-43.0,,0.0,1706.285,0.0,0.7086029209999999,1.0,0.75,1.0,0.274129113,0.0,0.262851608,False,,57309e1230a5560010ecbdc2,,785030,41,,evan-feature22,full_pf_b,,1
17,30327,42,,,,2,2,0.0,1.0,-1.0,0.0,,0.0-44.0,,0.0,1765.64,1.0,0.669189651,1.0,0.727614338,0.0,0.298444036,1.0,0.296944518,False,,57309e1230a5560010ecbdc2,,796558,42,,evan-feature22,full_pf_b,,1
18,30328,43,,,,1,1,0.0,1.0,-1.0,0.0,,0.0-45.0,,0.0,1925.625,0.0,0.6819912929999999,1.0,0.7179434290000001,0.0,0.265003961,0.0,0.28157921199999997,False,,57309e1230a5560010ecbdc2,,808245,43,,evan-feature22,full_pf_b,,1
19,30329,44,,,,2,2,0.0,1.0,0.0,1.0,,0.0-46.0,,1.0,1694.44,1.0,0.665275002,1.0,0.723065271,0.0,0.260414971,1.0,0.30973870000000003,False,,57309e1230a5560010ecbdc2,,819702,44,,evan-feature22,full_pf_b,,1
20,30330,45,,,,2,2,0.0,0.0,-1.0,0.0,,0.0-47.0,,0.0,1539.35,1.0,0.6660593260000001,1.0,0.728032907,0.0,0.30922817,0.0,0.338778608,False,,57309e1230a5560010ecbdc2,,831005,45,,evan-feature22,full_pf_b,,0
21,30331,46,,,,1,1,1.0,1.0,-1.0,0.0,,0.0-48.0,,-1.0,1453.285,1.0,0.702068785,1.0,0.6528750879999999,1.0,0.287329608,0.0,0.35789613200000003,False,,57309e1230a5560010ecbdc2,,842225,46,,evan-feature22,full_pf_b,,1
22,30332,47,,,,1,1,1.0,0.0,-1.0,0.0,,0.0-49.0,,-1.0,1578.675,1.0,0.651939787,0.0,0.636725589,0.0,0.284834488,1.0,0.358563756,False,,57309e1230a5560010ecbdc2,,853566,47,,evan-feature22,full_pf_b,,0
23,30333,48,,,,1,1,1.0,0.0,0.0,1.0,,0.0-50.0,,0.0,2125.13,1.0,0.67573929,0.0,0.612550049,0.0,0.37130387600000003,0.0,0.383542402,False,,57309e1230a5560010ecbdc2,,865453,48,,evan-feature22,full_pf_b,,0
24,30334,49,,,,2,2,1.0,0.0,0.0,1.0,,0.0-51.0,,0.0,1924.915,1.0,0.620753801,1.0,0.60513644,1.0,0.385529434,0.0,0.340361743,False,,57309e1230a5560010ecbdc2,,877141,49,,evan-feature22,full_pf_b,,1
25,30335,50,,,,2,2,0.0,0.0,0.0,1.0,,0.0-52.0,,0.0,1439.06,1.0,0.673564893,1.0,0.672437924,0.0,0.292955382,0.0,0.337633795,False,,57309e1230a5560010ecbdc2,,888342,50,,evan-feature22,full_pf_b,,0
26,30336,51,,,,2,2,0.0,1.0,-1.0,0.0,,0.0-53.0,,0.0,1724.455,0.0,0.6749427,0.0,0.724197502,0.0,0.32391132100000003,1.0,0.350995264,False,,57309e1230a5560010ecbdc2,,899829,51,,evan-feature22,full_pf_b,,0
27,30337,52,,,,2,2,1.0,0.0,-1.0,0.0,,0.0-54.0,,-1.0,1414.075,1.0,0.6940159379999999,1.0,0.75,1.0,0.31710554399999996,0.0,0.413450341,False,,57309e1230a5560010ecbdc2,,911007,52,,evan-feature22,full_pf_b,,0
28,30338,53,,,,2,2,1.0,0.0,-1.0,0.0,,0.0-55.0,,-1.0,1084.805,1.0,0.6916018270000001,1.0,0.69001187,1.0,0.261817804,0.0,0.40038635,False,,57309e1230a5560010ecbdc2,,921854,53,,evan-feature22,full_pf_b,,0
29,30339,54,,,,2,2,0.0,0.0,-1.0,0.0,,0.0-56.0,,0.0,1973.495,1.0,0.641061544,0.0,0.71337992,0.0,0.277296461,0.0,0.47372791700000005,False,,57309e1230a5560010ecbdc2,,933587,54,,evan-feature22,full_pf_b,,0
30,30340,55,,,,1,1,0.0,1.0,-1.0,0.0,,0.0-57.0,,0.0,1144.38,0.0,0.6082438520000001,1.0,0.708471106,0.0,0.28745137,1.0,0.564174476,False,,57309e1230a5560010ecbdc2,,944494,55,,evan-feature22,full_pf_b,,1
31,30341,56,,,,1,1,0.0,1.0,-1.0,0.0,,0.0-58.0,,0.0,1634.725,0.0,0.6051112120000001,1.0,0.7118147229999999,0.0,0.272390611,1.0,0.5595149939999999,False,,57309e1230a5560010ecbdc2,,955895,56,,evan-feature22,full_pf_b,,0
32,30342,57,,,,1,1,1.0,1.0,-1.0,0.0,,0.0-59.0,,-1.0,1100.33,1.0,0.582420852,1.0,0.635867583,0.0,0.31089574,0.0,0.5227206520000001,False,,57309e1230a5560010ecbdc2,,966759,57,,evan-feature22,full_pf_b,,0
33,30343,58,,,,2,2,0.0,1.0,0.0,1.0,,0.0-60.0,,1.0,1405.415,1.0,0.623195575,1.0,0.655026044,0.0,0.25,1.0,0.560387538,False,,57309e1230a5560010ecbdc2,,977926,58,,evan-feature22,full_pf_b,,1
34,30344,59,,,,2,2,0.0,1.0,-1.0,0.0,,0.0-61.0,,0.0,1437.755,1.0,0.601889598,0.0,0.678198724,0.0,0.25,1.0,0.559922936,False,,57309e1230a5560010ecbdc2,,989126,59,,evan-feature22,full_pf_b,,0
35,30345,60,,,,1,1,1.0,1.0,-1.0,0.0,,0.0-62.0,,-1.0,1397.91,1.0,0.601259914,1.0,0.704681482,0.0,0.33908969299999997,0.0,0.505003715,False,,57309e1230a5560010ecbdc2,,1000288,60,,evan-feature22,full_pf_b,,1
36,30346,61,,,,1,1,0.0,1.0,-1.0,0.0,,0.0-63.0,,0.0,1539.585,0.0,0.59645454,1.0,0.710437172,0.0,0.327441879,1.0,0.391749613,False,,57309e1230a5560010ecbdc2,,1011594,61,,evan-feature22,full_pf_b,,0
37,30347,62,,,,2,2,0.0,0.0,-1.0,0.0,,0.0-64.0,,0.0,1530.03,0.0,0.529473,0.0,0.636758527,0.0,0.301338063,0.0,0.365661481,False,,57309e1230a5560010ecbdc2,,1022885,62,,evan-feature22,full_pf_b,,1
38,30348,63,,,,2,2,0.0,1.0,0.0,1.0,,0.0-65.0,,1.0,1718.65,0.0,0.541657162,0.0,0.634541962,0.0,0.343535366,1.0,0.371763742,False,,57309e1230a5560010ecbdc2,,1034365,63,,evan-feature22,full_pf_b,,0
39,30349,64,,,,1,1,1.0,0.0,-1.0,0.0,,0.0-66.0,,-1.0,2165.745,1.0,0.5707533260000001,0.0,0.589121171,0.0,0.326428396,1.0,0.43961622899999997,False,,57309e1230a5560010ecbdc2,,1046293,64,,evan-feature22,full_pf_b,,1
40,30350,65,,,,1,1,1.0,0.0,-1.0,0.0,,0.0-67.0,,-1.0,1366.065,1.0,0.5707533260000001,0.0,0.589121171,0.0,0.326428396,0.0,0.43961622899999997,False,,57309e1230a5560010ecbdc2,,1057422,65,,evan-feature22,full_pf_b,,0
41,30351,66,,,,2,2,0.0,1.0,-1.0,0.0,,0.0-68.0,,0.0,1668.25,0.0,0.506271295,1.0,0.641775594,0.0,0.37149690700000004,1.0,0.404330166,False,,57309e1230a5560010ecbdc2,,1068854,66,,evan-feature22,full_pf_b,,1
42,30352,67,,,,2,2,0.0,1.0,0.0,1.0,,0.0-69.0,,1.0,1421.985,0.0,0.455642565,1.0,0.623605825,0.0,0.358753011,1.0,0.346174041,False,,57309e1230a5560010ecbdc2,,1080042,67,,evan-feature22,full_pf_b,,0
43,30353,68,,,,1,1,0.0,0.0,0.0,1.0,,0.0-70.0,,0.0,2106.085,0.0,0.483677308,0.0,0.5904681070000001,1.0,0.402218411,0.0,0.35344697,False,,57309e1230a5560010ecbdc2,,1091908,68,,evan-feature22,full_pf_b,,1
44,30354,69,,,,2,2,0.0,0.0,0.0,1.0,,0.0-71.0,,0.0,1424.255,0.0,0.394210977,1.0,0.558925494,0.0,0.540052017,0.0,0.35182128700000004,False,,57309e1230a5560010ecbdc2,,1103093,69,,evan-feature22,full_pf_b,,1
45,30355,70,,,,1,1,0.0,1.0,-1.0,0.0,,0.0-72.0,,0.0,1871.565,0.0,0.382300414,1.0,0.577670603,1.0,0.607608448,1.0,0.378261578,False,,57309e1230a5560010ecbdc2,,1114729,70,,evan-feature22,full_pf_b,,1
46,30356,71,,,,2,2,1.0,1.0,-1.0,0.0,,0.0-73.0,,-1.0,1979.165,0.0,0.357596762,0.0,0.5929076529999999,1.0,0.6579790010000001,1.0,0.401326777,False,,57309e1230a5560010ecbdc2,,1126472,71,,evan-feature22,full_pf_b,,1
47,30357,72,,,,2,2,1.0,1.0,-1.0,0.0,,0.0-74.0,,-1.0,1219.56,0.0,0.362033495,0.0,0.582308608,1.0,0.649195052,1.0,0.355158505,False,,57309e1230a5560010ecbdc2,,1137456,72,,evan-feature22,full_pf_b,,0
48,30358,73,,,,1,1,0.0,0.0,-1.0,0.0,,0.0-75.0,,0.0,1298.955,0.0,0.369620635,0.0,0.669100864,1.0,0.706059111,0.0,0.362516241,False,,57309e1230a5560010ecbdc2,,1148518,73,,evan-feature22,full_pf_b,,1
49,30359,74,,,,1,1,0.0,1.0,-1.0,0.0,,0.0-76.0,,0.0,1478.03,0.0,0.41477751399999996,1.0,0.7284416779999999,1.0,0.7182656940000001,0.0,0.36228040899999997,False,,57309e1230a5560010ecbdc2,,1159758,74,,evan-feature22,full_pf_b,,0
50,30360,75,,,,2,2,1.0,0.0,0.0,1.0,,0.0-77.0,,0.0,1781.63,0.0,0.37675460299999997,0.0,0.703250285,1.0,0.75,0.0,0.461979164,False,,57309e1230a5560010ecbdc2,,1171301,75,,evan-feature22,full_pf_b,,1
51,30361,76,,,,2,2,1.0,1.0,0.0,1.0,,0.0-78.0,,1.0,1572.99,1.0,0.398716075,0.0,0.6723864890000001,1.0,0.674153818,1.0,0.519029516,False,,57309e1230a5560010ecbdc2,,1182639,76,,evan-feature22,full_pf_b,,0
52,30362,77,,,,2,2,1.0,0.0,-1.0,0.0,,0.0-79.0,,-1.0,1580.985,0.0,0.34677856700000004,1.0,0.69057175,1.0,0.6822438540000001,0.0,0.477292237,False,,57309e1230a5560010ecbdc2,,1193981,77,,evan-feature22,full_pf_b,,0
53,30363,78,,,,1,1,0.0,1.0,0.0,1.0,,0.0-80.0,,1.0,1333.415,0.0,0.28580469199999997,1.0,0.68408818,1.0,0.684207565,1.0,0.49780448299999996,False,,57309e1230a5560010ecbdc2,,1205077,78,,evan-feature22,full_pf_b,,1
54,30365,80,,,,2,2,0.0,1.0,-1.0,0.0,,0.0-82.0,,0.0,1830.07,0.0,0.25,0.0,0.7405808970000001,0.0,0.679614108,1.0,0.436436964,False,,57309e1230a5560010ecbdc2,,1221982,80,,evan-feature22,full_pf_b,,1
55,30366,81,,,,1,1,0.0,1.0,0.0,1.0,,0.0-83.0,,1.0,1309.905,0.0,0.29890393,1.0,0.730505706,1.0,0.7328203320000001,1.0,0.439256938,False,,57309e1230a5560010ecbdc2,,1233057,81,,evan-feature22,full_pf_b,,1
56,30367,82,,,,2,2,0.0,1.0,-1.0,0.0,,0.0-84.0,,0.0,1810.14,0.0,0.326762398,1.0,0.7148059609999999,0.0,0.75,1.0,0.44389608799999997,False,,57309e1230a5560010ecbdc2,,1244628,82,,evan-feature22,full_pf_b,,1
57,30368,83,,,,1,1,0.0,1.0,-1.0,0.0,,0.0-85.0,,0.0,1695.56,0.0,0.295168515,1.0,0.739760854,1.0,0.719947008,0.0,0.35277284600000003,False,,57309e1230a5560010ecbdc2,,1256086,83,,evan-feature22,full_pf_b,,1
58,30369,84,,,,2,2,0.0,0.0,-1.0,0.0,,0.0-86.0,,0.0,1445.015,1.0,0.25,0.0,0.70781482,0.0,0.75,0.0,0.286095925,False,,57309e1230a5560010ecbdc2,,1267292,84,,evan-feature22,full_pf_b,,1
59,30370,85,,,,1,1,0.0,1.0,0.0,1.0,,0.0-87.0,,1.0,1814.995,0.0,0.25638190899999996,1.0,0.704088163,1.0,0.75,0.0,0.26872601399999996,False,,57309e1230a5560010ecbdc2,,1278872,85,,evan-feature22,full_pf_b,,1
60,30371,86,,,,2,2,1.0,0.0,0.0,1.0,,0.0-88.0,,0.0,1226.03,0.0,0.271581126,1.0,0.669760107,1.0,0.733896663,0.0,0.273244572,False,,57309e1230a5560010ecbdc2,,1289863,86,,evan-feature22,full_pf_b,,1
61,30372,87,,,,1,1,0.0,1.0,0.0,1.0,,0.0-89.0,,1.0,1554.74,0.0,0.257144401,1.0,0.600575706,1.0,0.74488122,0.0,0.25,False,,57309e1230a5560010ecbdc2,,1301181,87,,evan-feature22,full_pf_b,,1
62,30373,88,,,,2,2,1.0,0.0,-1.0,0.0,,0.0-90.0,,-1.0,1198.215,0.0,0.25,1.0,0.616870026,1.0,0.723610234,0.0,0.25,False,,57309e1230a5560010ecbdc2,,1312141,88,,evan-feature22,full_pf_b,,1
63,30374,89,,,,2,2,0.0,1.0,0.0,1.0,,0.0-91.0,,1.0,1823.255,0.0,0.25,1.0,0.583540187,0.0,0.7041042559999999,1.0,0.285961995,False,,57309e1230a5560010ecbdc2,,1323726,89,,evan-feature22,full_pf_b,,0
64,30375,90,,,,1,1,1.0,1.0,-1.0,0.0,,0.0-92.0,,-1.0,1502.65,1.0,0.27254536,1.0,0.53875765,1.0,0.693783448,1.0,0.284961652,False,,57309e1230a5560010ecbdc2,,1334992,90,,evan-feature22,full_pf_b,,1
65,30376,91,,,,2,2,1.0,1.0,0.0,1.0,,0.0-93.0,,1.0,1131.98,0.0,0.25,1.0,0.548431252,1.0,0.734221895,1.0,0.279445214,False,,57309e1230a5560010ecbdc2,,1345890,91,,evan-feature22,full_pf_b,,1
66,30377,92,,,,1,1,0.0,1.0,-1.0,0.0,,0.0-94.0,,0.0,1722.0,0.0,0.258640684,1.0,0.545878066,1.0,0.725245965,1.0,0.31487537,False,,57309e1230a5560010ecbdc2,,1357374,92,,evan-feature22,full_pf_b,,1
67,30378,93,,,,2,2,1.0,0.0,-1.0,0.0,,0.0-95.0,,-1.0,1190.865,0.0,0.251103711,1.0,0.5776290629999999,1.0,0.696320133,0.0,0.317831047,False,,57309e1230a5560010ecbdc2,,1368328,93,,evan-feature22,full_pf_b,,1
68,30379,94,,,,2,2,1.0,0.0,-1.0,0.0,,0.0-96.0,,-1.0,1737.865,0.0,0.276630292,1.0,0.617329858,1.0,0.73838088,0.0,0.261471582,False,,57309e1230a5560010ecbdc2,,1379835,94,,evan-feature22,full_pf_b,,0
69,30380,95,,,,2,2,1.0,0.0,0.0,1.0,,0.0-97.0,,0.0,2081.28,0.0,0.297716424,0.0,0.618863717,1.0,0.7402358259999999,0.0,0.262600834,False,,57309e1230a5560010ecbdc2,,1391678,95,,evan-feature22,full_pf_b,,0
70,30381,96,,,,1,1,0.0,1.0,-1.0,0.0,,0.0-98.0,,0.0,973.75,0.0,0.290935512,1.0,0.695370945,1.0,0.706570507,0.0,0.280030553,False,,57309e1230a5560010ecbdc2,,1402415,96,,evan-feature22,full_pf_b,,1
71,30382,97,,,,1,1,0.0,0.0,-1.0,0.0,,0.0-99.0,,0.0,1377.99,0.0,0.25,0.0,0.6465277079999999,1.0,0.67766682,1.0,0.25,False,,57309e1230a5560010ecbdc2,,1413556,97,,evan-feature22,full_pf_b,,0
72,30383,98,,,,1,1,0.0,1.0,-1.0,0.0,,0.0-100.0,,0.0,1127.57,0.0,0.26463816,1.0,0.636100213,1.0,0.646048507,0.0,0.265607101,False,,57309e1230a5560010ecbdc2,,1424446,98,,evan-feature22,full_pf_b,,0
73,30384,99,,,,1,1,1.0,1.0,-1.0,0.0,,0.0-101.0,,-1.0,1157.37,1.0,0.314340707,1.0,0.667795927,1.0,0.613630805,0.0,0.25,False,,57309e1230a5560010ecbdc2,,1435369,99,,evan-feature22,full_pf_b,,0
74,30385,100,,,,1,1,0.0,1.0,-1.0,0.0,,0.0-102.0,,0.0,2017.89,0.0,0.28685784,1.0,0.6622549529999999,0.0,0.652154117,0.0,0.25,False,,57309e1230a5560010ecbdc2,,1447149,100,,evan-feature22,full_pf_b,,0
75,30386,101,,,,1,1,1.0,1.0,0.0,1.0,,0.0-103.0,,1.0,1223.195,1.0,0.304106554,1.0,0.631289538,0.0,0.707041942,0.0,0.29314237,False,,57309e1230a5560010ecbdc2,,1458136,101,,evan-feature22,full_pf_b,,0
76,30387,102,,,,1,1,0.0,1.0,0.0,1.0,,0.0-104.0,,1.0,1235.61,0.0,0.304806932,1.0,0.571167718,1.0,0.680472346,1.0,0.25,False,,57309e1230a5560010ecbdc2,,1469134,102,,evan-feature22,full_pf_b,,0
77,30388,103,,,,1,1,0.0,1.0,0.0,1.0,,0.0-105.0,,1.0,1077.16,0.0,0.37919861,1.0,0.5724849710000001,1.0,0.705638003,0.0,0.30179300600000003,False,,57309e1230a5560010ecbdc2,,1479975,103,,evan-feature22,full_pf_b,,0
78,30389,104,,,,1,1,0.0,1.0,0.0,1.0,,0.0-106.0,,1.0,941.0250001,0.0,0.464277969,1.0,0.554034373,0.0,0.7372627340000001,0.0,0.264699741,False,,57309e1230a5560010ecbdc2,,1490677,104,,evan-feature22,full_pf_b,,0
79,30390,105,,,,1,1,1.0,1.0,-1.0,0.0,,0.0-107.0,,-1.0,1051.555,1.0,0.465104323,1.0,0.530793115,1.0,0.75,0.0,0.31683071,False,,57309e1230a5560010ecbdc2,,1501497,105,,evan-feature22,full_pf_b,,0
80,30391,106,,,,1,1,0.0,0.0,0.0,1.0,,0.0-108.0,,0.0,1162.66,0.0,0.465104323,0.0,0.530793115,1.0,0.75,0.0,0.31683071,False,,57309e1230a5560010ecbdc2,,1512421,106,,evan-feature22,full_pf_b,,0
81,30392,107,,,,1,1,0.0,1.0,0.0,1.0,,0.0-109.0,,1.0,933.82,0.0,0.46833986,1.0,0.570249239,1.0,0.7244472590000001,1.0,0.364114163,False,,57309e1230a5560010ecbdc2,,1523117,107,,evan-feature22,full_pf_b,,0
82,30393,108,,,,1,1,1.0,0.0,0.0,1.0,,0.0-110.0,,0.0,999.01,1.0,0.445444024,0.0,0.649673355,1.0,0.6845441290000001,1.0,0.300660449,False,,57309e1230a5560010ecbdc2,,1533878,108,,evan-feature22,full_pf_b,,0
83,30394,109,,,,2,2,0.0,1.0,0.0,1.0,,0.0-111.0,,1.0,1870.785,0.0,0.39909721299999995,1.0,0.6715179509999999,0.0,0.742310028,1.0,0.35496088299999995,False,,57309e1230a5560010ecbdc2,,1545511,109,,evan-feature22,full_pf_b,,1
84,30395,110,,,,2,2,1.0,1.0,0.0,1.0,,0.0-112.0,,1.0,804.365,0.0,0.37956104799999996,1.0,0.694725302,1.0,0.7181651309999999,1.0,0.38726906299999997,False,,57309e1230a5560010ecbdc2,,1556080,110,,evan-feature22,full_pf_b,,0
85,30396,111,,,,2,2,1.0,0.0,0.0,1.0,,0.0-113.0,,0.0,955.9899998999999,0.0,0.404995034,1.0,0.724375412,1.0,0.6910946859999999,0.0,0.387187347,False,,57309e1230a5560010ecbdc2,,1566799,111,,evan-feature22,full_pf_b,,0
86,30397,112,,,,1,1,0.0,0.0,0.0,1.0,,0.0-114.0,,0.0,1147.06,0.0,0.461740803,0.0,0.75,1.0,0.75,1.0,0.34872038200000005,False,,57309e1230a5560010ecbdc2,,1577709,112,,evan-feature22,full_pf_b,,1
87,30398,113,,,,2,2,0.0,0.0,-1.0,0.0,,0.0-115.0,,0.0,1527.64,0.0,0.43821380600000004,1.0,0.738833273,0.0,0.728286963,0.0,0.399538128,False,,57309e1230a5560010ecbdc2,,1588997,113,,evan-feature22,full_pf_b,,1
88,30399,114,,,,2,2,1.0,0.0,0.0,1.0,,0.0-116.0,,0.0,1221.58,1.0,0.41709882,1.0,0.736666736,1.0,0.75,0.0,0.389095584,False,,57309e1230a5560010ecbdc2,,1599984,114,,evan-feature22,full_pf_b,,0
89,30400,115,,,,1,1,0.0,0.0,0.0,1.0,,0.0-117.0,,0.0,1132.57,0.0,0.39749009799999996,0.0,0.744320029,1.0,0.75,0.0,0.363848678,False,,57309e1230a5560010ecbdc2,,1610876,115,,evan-feature22,full_pf_b,,1
90,30401,116,,,,1,1,0.0,0.0,-1.0,0.0,,0.0-118.0,,0.0,863.31,0.0,0.392653706,0.0,0.75,1.0,0.75,0.0,0.384386976,False,,57309e1230a5560010ecbdc2,,1621501,116,,evan-feature22,full_pf_b,,0
91,30402,117,,,,1,1,0.0,1.0,-1.0,0.0,,0.0-119.0,,0.0,1113.095,0.0,0.31190902600000003,1.0,0.75,1.0,0.732413819,0.0,0.413082932,False,,57309e1230a5560010ecbdc2,,1632383,117,,evan-feature22,full_pf_b,,0
92,30403,118,,,,1,1,0.0,1.0,0.0,1.0,,0.0-120.0,,1.0,1235.195,0.0,0.366917648,1.0,0.740073855,1.0,0.75,0.0,0.352861979,False,,57309e1230a5560010ecbdc2,,1643384,118,,evan-feature22,full_pf_b,,0
93,30404,119,,,,1,1,1.0,1.0,0.0,1.0,,0.0-121.0,,1.0,1051.935,1.0,0.3645172,1.0,0.721770713,0.0,0.75,0.0,0.404074511,False,,57309e1230a5560010ecbdc2,,1654199,119,,evan-feature22,full_pf_b,,0
94,30405,120,,,,1,1,0.0,0.0,0.0,1.0,,0.0-122.0,,0.0,1029.465,0.0,0.35205600299999995,0.0,0.68983859,0.0,0.739735447,0.0,0.366895945,False,,57309e1230a5560010ecbdc2,,1664987,120,,evan-feature22,full_pf_b,,0
95,30406,121,,,,1,1,1.0,0.0,0.0,1.0,,0.0-123.0,,0.0,1216.475,1.0,0.40998722600000004,0.0,0.720859127,1.0,0.673854955,0.0,0.368528541,False,,57309e1230a5560010ecbdc2,,1675965,121,,evan-feature22,full_pf_b,,0
96,30407,122,,,,1,1,1.0,1.0,-1.0,0.0,,0.0-124.0,,-1.0,1382.355,1.0,0.353625316,1.0,0.75,1.0,0.695605473,0.0,0.38303674200000004,False,,57309e1230a5560010ecbdc2,,1687113,122,,evan-feature22,full_pf_b,,0
97,30408,123,,,,2,2,0.0,1.0,0.0,1.0,,0.0-125.0,,1.0,1218.09,1.0,0.359216989,1.0,0.75,0.0,0.6987915090000001,1.0,0.35169046200000004,False,,57309e1230a5560010ecbdc2,,1698093,123,,evan-feature22,full_pf_b,,1
98,30409,124,,,,2,2,1.0,0.0,-1.0,0.0,,0.0-126.0,,-1.0,1078.605,0.0,0.35834496899999996,1.0,0.75,1.0,0.707067742,0.0,0.416763636,False,,57309e1230a5560010ecbdc2,,1708934,124,,evan-feature22,full_pf_b,,0
99,30410,125,,,,1,1,0.0,1.0,-1.0,0.0,,0.0-127.0,,0.0,965.75,0.0,0.38741613799999997,1.0,0.7177369570000001,1.0,0.734902455,1.0,0.49438664299999996,False,,57309e1230a5560010ecbdc2,,1719662,125,,evan-feature22,full_pf_b,,1
100,30411,126,,,,1,1,0.0,1.0,0.0,1.0,,0.0-128.0,,1.0,876.9,0.0,0.405255252,1.0,0.7300466640000001,0.0,0.7027748070000001,1.0,0.504359668,False,,57309e1230a5560010ecbdc2,,1730301,126,,evan-feature22,full_pf_b,,0
101,30412,127,,,,1,1,0.0,1.0,0.0,1.0,,0.0-129.0,,1.0,844.1150001,0.0,0.40697073,1.0,0.7260142190000001,1.0,0.724461982,1.0,0.522779179,False,,57309e1230a5560010ecbdc2,,1740910,127,,evan-feature22,full_pf_b,,0
102,30413,128,,,,1,1,1.0,0.0,0.0,1.0,,0.0-130.0,,0.0,1118.52,1.0,0.43906215299999996,0.0,0.7252802340000001,1.0,0.719079934,1.0,0.5712990579999999,False,,57309e1230a5560010ecbdc2,,1751790,128,,evan-feature22,full_pf_b,,0
103,30414,129,,,,2,2,0.0,1.0,0.0,1.0,,0.0-131.0,,1.0,1015.065,0.0,0.4076705,1.0,0.73280499,0.0,0.681313127,1.0,0.523891346,False,,57309e1230a5560010ecbdc2,,1762566,129,,evan-feature22,full_pf_b,,1
104,30415,130,,,,2,2,0.0,0.0,0.0,1.0,,0.0-132.0,,0.0,909.365,0.0,0.399102911,1.0,0.730498344,0.0,0.661080239,0.0,0.46742603,False,,57309e1230a5560010ecbdc2,,1773237,130,,evan-feature22,full_pf_b,,0
105,30416,131,,,,1,1,0.0,0.0,-1.0,0.0,,0.0-133.0,,0.0,1118.795,0.0,0.356477282,0.0,0.712296395,1.0,0.641812684,0.0,0.44868414,False,,57309e1230a5560010ecbdc2,,1784115,131,,evan-feature22,full_pf_b,,1
106,30417,132,,,,1,1,0.0,1.0,0.0,1.0,,0.0-134.0,,1.0,1317.75,0.0,0.462760722,1.0,0.692349322,0.0,0.700947931,1.0,0.394680266,False,,57309e1230a5560010ecbdc2,,1795197,132,,evan-feature22,full_pf_b,,0
107,30418,133,,,,1,1,0.0,1.0,0.0,1.0,,0.0-135.0,,1.0,790.77,0.0,0.422306413,1.0,0.718375916,0.0,0.706340917,0.0,0.367787185,False,,57309e1230a5560010ecbdc2,,1805750,133,,evan-feature22,full_pf_b,,0
108,30420,135,,,,1,1,1.0,0.0,0.0,1.0,,0.0-137.0,,0.0,1278.28,1.0,0.4582233,0.0,0.643834117,1.0,0.75,0.0,0.39615823299999997,False,,57309e1230a5560010ecbdc2,,1819901,135,,evan-feature22,full_pf_b,,0
109,30421,136,,,,2,2,1.0,0.0,0.0,1.0,,0.0-138.0,,0.0,1054.955,1.0,0.43813437899999996,1.0,0.651283804,1.0,0.729674191,0.0,0.37711048,False,,57309e1230a5560010ecbdc2,,1830717,136,,evan-feature22,full_pf_b,,1
110,30422,137,,,,1,1,0.0,0.0,0.0,1.0,,0.0-139.0,,0.0,1031.07,0.0,0.471199094,0.0,0.6470010979999999,1.0,0.715008097,1.0,0.410656191,False,,57309e1230a5560010ecbdc2,,1841508,137,,evan-feature22,full_pf_b,,1
111,30423,138,,,,2,2,0.0,1.0,-1.0,0.0,,0.0-140.0,,0.0,1293.395,1.0,0.42486406,0.0,0.629771829,0.0,0.6550939960000001,1.0,0.459093873,False,,57309e1230a5560010ecbdc2,,1852567,138,,evan-feature22,full_pf_b,,1
112,30424,139,,,,2,2,1.0,1.0,-1.0,0.0,,0.0-141.0,,-1.0,1037.045,1.0,0.4803197,1.0,0.645842715,1.0,0.6421749920000001,1.0,0.443092151,False,,57309e1230a5560010ecbdc2,,1863369,139,,evan-feature22,full_pf_b,,0
113,30425,140,,,,2,2,0.0,0.0,-1.0,0.0,,0.0-142.0,,0.0,1129.89,0.0,0.521848997,1.0,0.735801074,0.0,0.6691348460000001,0.0,0.45259351600000003,False,,57309e1230a5560010ecbdc2,,1874260,140,,evan-feature22,full_pf_b,,0
114,30426,141,,,,1,1,0.0,1.0,0.0,1.0,,0.0-143.0,,1.0,1079.485,0.0,0.49565621299999996,1.0,0.742400847,0.0,0.661512553,1.0,0.483110831,False,,57309e1230a5560010ecbdc2,,1885104,141,,evan-feature22,full_pf_b,,1
115,30427,142,,,,1,1,1.0,0.0,-1.0,0.0,,0.0-144.0,,-1.0,1204.455,1.0,0.521564361,0.0,0.731078632,0.0,0.6774886809999999,1.0,0.483263956,False,,57309e1230a5560010ecbdc2,,1896071,142,,evan-feature22,full_pf_b,,0
116,30428,143,,,,1,1,1.0,0.0,-1.0,0.0,,0.0-145.0,,-1.0,964.9,1.0,0.558893102,0.0,0.719810023,1.0,0.67461031,0.0,0.499349834,False,,57309e1230a5560010ecbdc2,,1906798,143,,evan-feature22,full_pf_b,,0
117,30429,144,,,,2,2,1.0,1.0,0.0,1.0,,0.0-146.0,,1.0,1031.645,1.0,0.611031046,0.0,0.75,1.0,0.688072995,1.0,0.5321422729999999,False,,57309e1230a5560010ecbdc2,,1917592,144,,evan-feature22,full_pf_b,,1
118,30430,145,,,,2,2,1.0,1.0,-1.0,0.0,,0.0-147.0,,-1.0,1076.585,0.0,0.633223941,1.0,0.713567728,1.0,0.75,1.0,0.48185314700000004,False,,57309e1230a5560010ecbdc2,,1928432,145,,evan-feature22,full_pf_b,,0
119,30431,146,,,,1,1,1.0,1.0,-1.0,0.0,,0.0-148.0,,-1.0,1011.895,1.0,0.664001694,1.0,0.705509768,1.0,0.75,1.0,0.500211065,False,,57309e1230a5560010ecbdc2,,1939208,146,,evan-feature22,full_pf_b,,1
120,30432,147,,,,1,1,1.0,1.0,0.0,1.0,,0.0-149.0,,1.0,1164.235,1.0,0.664001694,1.0,0.705509768,0.0,0.75,0.0,0.500211065,False,,57309e1230a5560010ecbdc2,,1950137,147,,evan-feature22,full_pf_b,,0
121,30433,148,,,,2,2,1.0,1.0,0.0,1.0,,0.0-150.0,,1.0,728.315,1.0,0.696508041,1.0,0.71066027,1.0,0.717028709,1.0,0.49792991,False,,57309e1230a5560010ecbdc2,,1960641,148,,evan-feature22,full_pf_b,,1
122,30434,149,,,,2,2,1.0,1.0,-1.0,0.0,,0.0-151.0,,-1.0,1186.195,0.0,0.699883272,1.0,0.75,1.0,0.713543895,1.0,0.496962643,False,,57309e1230a5560010ecbdc2,,1971592,149,,evan-feature22,full_pf_b,,0
123,30435,150,,,,1,1,1.0,1.0,0.0,1.0,,0.0-152.0,,1.0,1067.84,1.0,0.741163419,1.0,0.75,1.0,0.64691024,1.0,0.513858197,False,,57309e1230a5560010ecbdc2,,1982424,150,,evan-feature22,full_pf_b,,1
124,30436,151,,,,1,1,1.0,1.0,-1.0,0.0,,0.0-153.0,,-1.0,988.03,1.0,0.75,1.0,0.70816558,1.0,0.594499079,1.0,0.48502124,False,,57309e1230a5560010ecbdc2,,1993176,151,,evan-feature22,full_pf_b,,0
125,30437,152,,,,1,1,1.0,1.0,0.0,1.0,,0.0-154.0,,1.0,1012.23,1.0,0.75,1.0,0.721848901,1.0,0.62197249,0.0,0.48263586399999997,False,,57309e1230a5560010ecbdc2,,2003955,152,,evan-feature22,full_pf_b,,0
126,30438,153,,,,2,2,0.0,0.0,-1.0,0.0,,0.0-155.0,,0.0,1745.18,1.0,0.75,1.0,0.74813071,0.0,0.584357161,0.0,0.411477782,False,,57309e1230a5560010ecbdc2,,2015462,153,,evan-feature22,full_pf_b,,1
127,30439,154,,,,2,2,1.0,1.0,0.0,1.0,,0.0-156.0,,1.0,1454.745,1.0,0.75,1.0,0.75,1.0,0.52287236,1.0,0.488290656,False,,57309e1230a5560010ecbdc2,,2026679,154,,evan-feature22,full_pf_b,,0
128,30440,155,,,,2,2,0.0,0.0,0.0,1.0,,0.0-157.0,,0.0,1076.66,1.0,0.75,0.0,0.75,0.0,0.544321581,0.0,0.53143059,False,,57309e1230a5560010ecbdc2,,2037517,155,,evan-feature22,full_pf_b,,0
129,30441,156,,,,1,1,0.0,1.0,0.0,1.0,,0.0-158.0,,1.0,1119.805,0.0,0.726754564,1.0,0.75,1.0,0.5129306370000001,0.0,0.530592445,False,,57309e1230a5560010ecbdc2,,2048398,156,,evan-feature22,full_pf_b,,1
130,30442,157,,,,1,1,1.0,0.0,-1.0,0.0,,0.0-159.0,,-1.0,1437.68,1.0,0.75,0.0,0.7392590729999999,1.0,0.479875835,1.0,0.547007051,False,,57309e1230a5560010ecbdc2,,2059598,157,,evan-feature22,full_pf_b,,0
131,30443,158,,,,2,2,1.0,0.0,-1.0,0.0,,0.0-160.0,,-1.0,1283.64,0.0,0.75,0.0,0.7393376979999999,1.0,0.546045419,0.0,0.541267353,False,,57309e1230a5560010ecbdc2,,2070647,158,,evan-feature22,full_pf_b,,1
132,30444,159,,,,1,1,1.0,1.0,-1.0,0.0,,0.0-161.0,,-1.0,732.85,1.0,0.75,1.0,0.75,1.0,0.485725895,1.0,0.527625395,False,,57309e1230a5560010ecbdc2,,2081146,159,,evan-feature22,full_pf_b,,1
133,30445,160,,,,1,1,0.0,1.0,0.0,1.0,,0.0-162.0,,1.0,874.3850001000001,0.0,0.75,1.0,0.725087974,0.0,0.488603595,0.0,0.504019206,False,,57309e1230a5560010ecbdc2,,2091782,160,,evan-feature22,full_pf_b,,0
134,30446,161,,,,1,1,0.0,1.0,0.0,1.0,,0.0-163.0,,1.0,925.7050001,0.0,0.745504295,1.0,0.75,1.0,0.452379914,0.0,0.50131194,False,,57309e1230a5560010ecbdc2,,2102469,161,,evan-feature22,full_pf_b,,0
135,30447,162,,,,1,1,1.0,0.0,0.0,1.0,,0.0-164.0,,0.0,991.5949999,1.0,0.728513874,0.0,0.75,0.0,0.44125567200000004,0.0,0.531454591,False,,57309e1230a5560010ecbdc2,,2113223,162,,evan-feature22,full_pf_b,,0
136,30448,163,,,,2,2,1.0,0.0,-1.0,0.0,,0.0-165.0,,-1.0,1213.15,0.0,0.73790804,1.0,0.75,1.0,0.413036656,0.0,0.524619035,False,,57309e1230a5560010ecbdc2,,2124197,163,,evan-feature22,full_pf_b,,1
137,30449,164,,,,1,1,1.0,1.0,0.0,1.0,,0.0-166.0,,1.0,1103.06,1.0,0.7080961309999999,1.0,0.708666865,1.0,0.431915581,0.0,0.481819489,False,,57309e1230a5560010ecbdc2,,2135070,164,,evan-feature22,full_pf_b,,1
138,30450,165,,,,2,2,1.0,1.0,0.0,1.0,,0.0-167.0,,1.0,1413.79,1.0,0.721378003,1.0,0.71605913,1.0,0.36642387,1.0,0.5036739929999999,False,,57309e1230a5560010ecbdc2,,2146248,165,,evan-feature22,full_pf_b,,1
139,30451,166,,,,1,1,0.0,0.0,0.0,1.0,,0.0-168.0,,0.0,1132.035,0.0,0.7340618959999999,0.0,0.699323252,0.0,0.35298046299999997,1.0,0.511241692,False,,57309e1230a5560010ecbdc2,,2157142,166,,evan-feature22,full_pf_b,,1
140,30452,167,,,,2,2,0.0,1.0,-1.0,0.0,,0.0-169.0,,0.0,1229.855,0.0,0.75,1.0,0.70412698,0.0,0.380734814,1.0,0.529580116,False,,57309e1230a5560010ecbdc2,,2168134,167,,evan-feature22,full_pf_b,,1
141,30453,168,,,,2,2,1.0,1.0,0.0,1.0,,0.0-170.0,,1.0,1366.955,1.0,0.7436654909999999,1.0,0.711182751,1.0,0.41125331,1.0,0.49554405,False,,57309e1230a5560010ecbdc2,,2179273,168,,evan-feature22,full_pf_b,,0
142,30454,169,,,,1,1,1.0,1.0,0.0,1.0,,0.0-171.0,,1.0,1043.79,1.0,0.731607915,1.0,0.651774583,1.0,0.35688023,1.0,0.45194491600000003,False,,57309e1230a5560010ecbdc2,,2190081,169,,evan-feature22,full_pf_b,,1
143,30455,170,,,,1,1,1.0,1.0,-1.0,0.0,,0.0-172.0,,-1.0,898.96,1.0,0.75,1.0,0.75,1.0,0.283145374,0.0,0.528608005,False,,57309e1230a5560010ecbdc2,,2200744,170,,evan-feature22,full_pf_b,,0
144,30456,171,,,,1,1,1.0,1.0,-1.0,0.0,,0.0-173.0,,-1.0,1068.415,1.0,0.7491416890000001,1.0,0.7423785959999999,1.0,0.29135870399999997,0.0,0.498888318,False,,57309e1230a5560010ecbdc2,,2211576,171,,evan-feature22,full_pf_b,,0
145,30457,172,,,,2,2,1.0,1.0,-1.0,0.0,,0.0-174.0,,-1.0,1011.915,1.0,0.708569387,1.0,0.717682277,1.0,0.294421699,1.0,0.493838163,False,,57309e1230a5560010ecbdc2,,2222352,172,,evan-feature22,full_pf_b,,1
146,30458,173,,,,1,1,1.0,0.0,0.0,1.0,,0.0-175.0,,0.0,1555.58,1.0,0.75,0.0,0.7383382159999999,0.0,0.356098707,1.0,0.442533405,False,,57309e1230a5560010ecbdc2,,2233669,173,,evan-feature22,full_pf_b,,1
147,30459,174,,,,2,2,0.0,0.0,0.0,1.0,,0.0-176.0,,0.0,886.7100001,1.0,0.744527075,0.0,0.75,0.0,0.334127506,0.0,0.393165805,False,,57309e1230a5560010ecbdc2,,2244316,174,,evan-feature22,full_pf_b,,1
148,30460,175,,,,2,2,0.0,1.0,0.0,1.0,,0.0-177.0,,1.0,1560.54,0.0,0.75,1.0,0.75,0.0,0.33571021799999995,1.0,0.350393962,False,,57309e1230a5560010ecbdc2,,2255638,175,,evan-feature22,full_pf_b,,0
149,30461,176,,,,2,2,1.0,1.0,0.0,1.0,,0.0-178.0,,1.0,1077.345,0.0,0.75,1.0,0.75,1.0,0.313628297,1.0,0.36349657399999996,False,,57309e1230a5560010ecbdc2,,2266480,176,,evan-feature22,full_pf_b,,0
150,30462,177,,,,2,2,0.0,0.0,-1.0,0.0,,0.0-179.0,,0.0,1636.18,1.0,0.75,1.0,0.734284182,0.0,0.262667667,0.0,0.380199119,False,,57309e1230a5560010ecbdc2,,2277876,177,,evan-feature22,full_pf_b,,0
151,30463,178,,,,1,1,1.0,1.0,0.0,1.0,,0.0-180.0,,1.0,1636.745,1.0,0.75,1.0,0.75,0.0,0.25,1.0,0.394494013,False,,57309e1230a5560010ecbdc2,,2289282,178,,evan-feature22,full_pf_b,,1
152,30464,179,,,,1,1,1.0,1.0,-1.0,0.0,,0.0-181.0,,-1.0,1786.015,1.0,0.722298145,1.0,0.7357822340000001,0.0,0.25,0.0,0.319142121,False,,57309e1230a5560010ecbdc2,,2300835,179,,evan-feature22,full_pf_b,,0
153,30465,180,,,,2,2,0.0,0.0,-1.0,0.0,,0.0-182.0,,0.0,928.94,0.0,0.73149275,1.0,0.724276446,0.0,0.305856907,0.0,0.281315057,False,,57309e1230a5560010ecbdc2,,2311525,180,,evan-feature22,full_pf_b,,1
154,30466,181,,,,2,2,1.0,0.0,0.0,1.0,,0.0-183.0,,0.0,1126.62,1.0,0.7458732690000001,1.0,0.7336382459999999,1.0,0.272571964,0.0,0.266021999,False,,57309e1230a5560010ecbdc2,,2322413,181,,evan-feature22,full_pf_b,,0
155,30467,182,,,,1,1,0.0,0.0,0.0,1.0,,0.0-184.0,,0.0,759.0699999,0.0,0.705579037,0.0,0.720778292,0.0,0.320238144,0.0,0.30971744,False,,57309e1230a5560010ecbdc2,,2332931,182,,evan-feature22,full_pf_b,,1
156,30468,183,,,,1,1,0.0,0.0,0.0,1.0,,0.0-185.0,,0.0,840.635,0.0,0.700425648,0.0,0.7198784009999999,0.0,0.272590393,0.0,0.304182931,False,,57309e1230a5560010ecbdc2,,2343532,183,,evan-feature22,full_pf_b,,0
157,30469,184,,,,1,1,0.0,1.0,0.0,1.0,,0.0-186.0,,1.0,895.16,0.0,0.735590785,1.0,0.722714973,0.0,0.25,0.0,0.323421091,False,,57309e1230a5560010ecbdc2,,2354188,184,,evan-feature22,full_pf_b,,0
158,30470,185,,,,1,1,1.0,0.0,0.0,1.0,,0.0-187.0,,0.0,720.765,1.0,0.724807662,0.0,0.63146213,1.0,0.36836492600000004,1.0,0.34592153299999995,False,,57309e1230a5560010ecbdc2,,2364669,185,,evan-feature22,full_pf_b,,0
159,30471,186,,,,2,2,0.0,0.0,0.0,1.0,,0.0-188.0,,0.0,1038.885,1.0,0.7352796909999999,0.0,0.555111392,0.0,0.36003922,0.0,0.31433779999999995,False,,57309e1230a5560010ecbdc2,,2375469,186,,evan-feature22,full_pf_b,,1
160,30472,187,notice,,,,,,,,,,0.0-189.0,"{""Q0"":""no""}",,11120.0,,,,,,,,,False,,57309e1230a5560010ecbdc2,,2386591,187,Q,survey-text,full_pf_b,,1
161,30473,188,track1,,[1],,,,,,,,0.0-190.0,"{""Q0"":""no""}",,5790.0,,,,,,,,,False,,57309e1230a5560010ecbdc2,,2392383,188,Q,evan-quiz,full_pf_b,,1
162,30474,189,track2,,[1],,,,,,,,0.0-191.0,"{""Q0"":""no""}",,15767.0,,,,,,,,,False,,57309e1230a5560010ecbdc2,,2408151,189,Q,evan-quiz,full_pf_b,,1
163,30475,190,strat,,,,,,,,,,0.0-192.0,"{""Q0"":""pure guess work; couldn't see a pattern!""}",,23117.0,,,,,,,,,False,,57309e1230a5560010ecbdc2,,2431271,190,Q,survey-text,full_pf_b,,1
