,index,Unnamed: 0,Q_name,button_pressed,choice_idxs,chosen_pos,chosen_state,chosen_state_f_1_outcome,chosen_state_f_2_outcome,f_1_reward,f_2_reward,incor_questions,internal_node_id,responses,reward_received,rt,s_1_f_1_outcome,s_1_f_1_prob,s_1_f_2_outcome,s_1_f_2_prob,s_2_f_1_outcome,s_2_f_1_prob,s_2_f_2_outcome,s_2_f_2_prob,safe_first,stimulus,subjectID,success,time_elapsed,trial_index,trial_num,trial_type,version,view_history,switching
0,18469,30,,,,1,1,1.0,1.0,1.0,0.0,,0.0-27.0,,1.0,2199.425,1.0,0.6,1.0,0.6,0.0,0.4,0.0,0.4,True,,5e21c6434238bd000bcff4a3,,480618,30,,evan-feature22,full_rf_a,,0
1,18470,31,,,,1,1,1.0,1.0,1.0,0.0,,0.0-28.0,,1.0,1416.87,1.0,0.608053294,1.0,0.63424552,0.0,0.397152172,0.0,0.347069101,True,,5e21c6434238bd000bcff4a3,,491852,31,,evan-feature22,full_rf_a,,0
2,18471,32,,,,1,1,0.0,1.0,1.0,0.0,,0.0-29.0,,0.0,598.245,0.0,0.642237155,1.0,0.648566321,0.0,0.389407674,0.0,0.285525717,True,,5e21c6434238bd000bcff4a3,,502252,32,,evan-feature22,full_rf_a,,0
3,18472,33,,,,1,1,1.0,0.0,1.0,0.0,,0.0-30.0,,1.0,401.4400002,1.0,0.661086576,0.0,0.630492543,0.0,0.399058924,0.0,0.25,True,,5e21c6434238bd000bcff4a3,,512474,33,,evan-feature22,full_rf_a,,0
4,18473,34,,,,SLOW,SLOW,,,0.0,-1.0,,0.0-31.0,,-3.0,,0.0,0.631324137,0.0,0.6269842929999999,0.0,0.38734784299999997,1.0,0.25,True,,5e21c6434238bd000bcff4a3,,518314,34,,evan-feature22,full_rf_a,,1
5,18474,35,,,,2,2,0.0,1.0,0.0,-1.0,,0.0-32.0,,-1.0,1437.14,1.0,0.6381991370000001,0.0,0.68987999,0.0,0.384107265,1.0,0.271332943,True,,5e21c6434238bd000bcff4a3,,529552,35,,evan-feature22,full_rf_a,,1
6,18475,36,,,,1,1,1.0,1.0,1.0,0.0,,0.0-33.0,,1.0,592.2950003,1.0,0.66034901,1.0,0.742641349,0.0,0.360225629,0.0,0.25,True,,5e21c6434238bd000bcff4a3,,539979,36,,evan-feature22,full_rf_a,,1
7,18476,37,,,,1,1,0.0,1.0,1.0,0.0,,0.0-34.0,,0.0,593.2450001,0.0,0.638612418,1.0,0.75,0.0,0.367273939,1.0,0.25,True,,5e21c6434238bd000bcff4a3,,550384,37,,evan-feature22,full_rf_a,,0
8,18477,38,,,,1,1,1.0,1.0,0.0,-1.0,,0.0-35.0,,-1.0,509.3100001,1.0,0.624340629,1.0,0.75,0.0,0.425829545,0.0,0.25,True,,5e21c6434238bd000bcff4a3,,560713,38,,evan-feature22,full_rf_a,,0
9,18478,39,,,,2,2,0.0,0.0,0.0,-1.0,,0.0-36.0,,0.0,299.36000010000004,1.0,0.621999804,1.0,0.75,0.0,0.368609357,0.0,0.25,True,,5e21c6434238bd000bcff4a3,,570825,39,,evan-feature22,full_rf_a,,1
10,18479,40,,,,2,2,1.0,0.0,1.0,0.0,,0.0-37.0,,1.0,535.9700001,1.0,0.62666403,0.0,0.75,1.0,0.311151498,0.0,0.25,True,,5e21c6434238bd000bcff4a3,,581184,40,,evan-feature22,full_rf_a,,0
11,18480,41,,,,2,2,0.0,0.0,0.0,-1.0,,0.0-38.0,,0.0,887.9500004,1.0,0.6819650009999999,1.0,0.75,0.0,0.310763048,0.0,0.25,True,,5e21c6434238bd000bcff4a3,,591911,41,,evan-feature22,full_rf_a,,0
12,18481,42,,,,1,1,1.0,1.0,1.0,0.0,,0.0-39.0,,1.0,1081.495,1.0,0.740626951,1.0,0.75,0.0,0.25,1.0,0.25,True,,5e21c6434238bd000bcff4a3,,602802,42,,evan-feature22,full_rf_a,,1
13,18482,43,,,,1,1,1.0,0.0,1.0,0.0,,0.0-40.0,,1.0,594.7949997999999,1.0,0.739599242,0.0,0.742034978,0.0,0.25397114600000004,0.0,0.25,True,,5e21c6434238bd000bcff4a3,,613196,43,,evan-feature22,full_rf_a,,0
14,18483,44,,,,1,1,1.0,1.0,1.0,0.0,,0.0-41.0,,1.0,543.7849997999999,1.0,0.732341315,1.0,0.72735643,0.0,0.25,0.0,0.25,True,,5e21c6434238bd000bcff4a3,,623574,44,,evan-feature22,full_rf_a,,0
15,18484,45,,,,1,1,1.0,1.0,1.0,0.0,,0.0-42.0,,1.0,579.2550002,1.0,0.7062287770000001,1.0,0.75,0.0,0.29002151,0.0,0.288256649,True,,5e21c6434238bd000bcff4a3,,633953,45,,evan-feature22,full_rf_a,,0
16,18485,46,,,,1,1,0.0,0.0,1.0,0.0,,0.0-43.0,,0.0,1045.035,0.0,0.7086029209999999,0.0,0.75,1.0,0.274129113,0.0,0.262851608,True,,5e21c6434238bd000bcff4a3,,644804,46,,evan-feature22,full_rf_a,,0
17,18486,47,,,,1,1,1.0,1.0,1.0,0.0,,0.0-44.0,,1.0,1600.85,1.0,0.669189651,1.0,0.727614338,1.0,0.298444036,0.0,0.296944518,True,,5e21c6434238bd000bcff4a3,,656226,47,,evan-feature22,full_rf_a,,0
18,18487,48,,,,1,1,1.0,1.0,1.0,0.0,,0.0-45.0,,1.0,1308.505,1.0,0.6819912929999999,1.0,0.7179434290000001,0.0,0.265003961,1.0,0.28157921199999997,True,,5e21c6434238bd000bcff4a3,,667348,48,,evan-feature22,full_rf_a,,0
19,18488,49,,,,1,1,1.0,1.0,0.0,-1.0,,0.0-46.0,,-1.0,375.9250003,1.0,0.665275002,1.0,0.723065271,0.0,0.260414971,0.0,0.30973870000000003,True,,5e21c6434238bd000bcff4a3,,677543,49,,evan-feature22,full_rf_a,,0
20,18489,50,,,,2,2,0.0,0.0,1.0,0.0,,0.0-47.0,,0.0,451.98500020000006,1.0,0.6660593260000001,0.0,0.728032907,0.0,0.30922817,0.0,0.338778608,True,,5e21c6434238bd000bcff4a3,,687813,50,,evan-feature22,full_rf_a,,1
21,18490,51,,,,1,1,1.0,0.0,1.0,0.0,,0.0-48.0,,1.0,735.3050001,1.0,0.702068785,0.0,0.6528750879999999,0.0,0.287329608,0.0,0.35789613200000003,True,,5e21c6434238bd000bcff4a3,,698376,51,,evan-feature22,full_rf_a,,1
22,18491,52,,,,1,1,1.0,1.0,1.0,0.0,,0.0-49.0,,1.0,684.7450002,1.0,0.651939787,1.0,0.636725589,0.0,0.284834488,1.0,0.358563756,True,,5e21c6434238bd000bcff4a3,,708854,52,,evan-feature22,full_rf_a,,0
23,18492,53,,,,2,2,0.0,0.0,0.0,-1.0,,0.0-50.0,,0.0,503.4599998,0.0,0.67573929,1.0,0.612550049,0.0,0.37130387600000003,0.0,0.383542402,True,,5e21c6434238bd000bcff4a3,,719170,53,,evan-feature22,full_rf_a,,1
24,18493,54,,,,2,2,1.0,1.0,0.0,-1.0,,0.0-51.0,,-1.0,680.3100002,0.0,0.620753801,1.0,0.60513644,1.0,0.385529434,1.0,0.340361743,True,,5e21c6434238bd000bcff4a3,,729689,54,,evan-feature22,full_rf_a,,0
25,18494,55,,,,2,2,0.0,0.0,0.0,-1.0,,0.0-52.0,,0.0,605.6550001,1.0,0.673564893,1.0,0.672437924,0.0,0.292955382,0.0,0.337633795,True,,5e21c6434238bd000bcff4a3,,740119,55,,evan-feature22,full_rf_a,,0
26,18495,56,,,,1,1,0.0,1.0,1.0,0.0,,0.0-53.0,,0.0,762.0999999,0.0,0.6749427,1.0,0.724197502,0.0,0.32391132100000003,0.0,0.350995264,True,,5e21c6434238bd000bcff4a3,,750697,56,,evan-feature22,full_rf_a,,1
27,18496,57,,,,1,1,0.0,0.0,1.0,0.0,,0.0-54.0,,0.0,621.6549999,0.0,0.6940159379999999,0.0,0.75,0.0,0.31710554399999996,1.0,0.413450341,True,,5e21c6434238bd000bcff4a3,,761115,57,,evan-feature22,full_rf_a,,0
28,18497,58,,,,1,1,1.0,1.0,1.0,0.0,,0.0-55.0,,1.0,1167.945,1.0,0.6916018270000001,1.0,0.69001187,0.0,0.261817804,0.0,0.40038635,True,,5e21c6434238bd000bcff4a3,,772084,58,,evan-feature22,full_rf_a,,0
29,18498,59,,,,1,1,0.0,1.0,1.0,0.0,,0.0-56.0,,0.0,581.9999999,0.0,0.641061544,1.0,0.71337992,1.0,0.277296461,0.0,0.47372791700000005,True,,5e21c6434238bd000bcff4a3,,782479,59,,evan-feature22,full_rf_a,,0
30,18499,60,,,,1,1,1.0,1.0,1.0,0.0,,0.0-57.0,,1.0,501.435,1.0,0.6082438520000001,1.0,0.708471106,0.0,0.28745137,1.0,0.564174476,True,,5e21c6434238bd000bcff4a3,,792796,60,,evan-feature22,full_rf_a,,0
31,18500,61,,,,1,1,0.0,1.0,1.0,0.0,,0.0-58.0,,0.0,448.4049999,0.0,0.6051112120000001,1.0,0.7118147229999999,0.0,0.272390611,1.0,0.5595149939999999,True,,5e21c6434238bd000bcff4a3,,803089,61,,evan-feature22,full_rf_a,,0
32,18501,62,,,,1,1,1.0,0.0,1.0,0.0,,0.0-59.0,,1.0,683.9649999,1.0,0.582420852,0.0,0.635867583,0.0,0.31089574,1.0,0.5227206520000001,True,,5e21c6434238bd000bcff4a3,,813585,62,,evan-feature22,full_rf_a,,0
33,18502,63,,,,2,2,0.0,1.0,0.0,-1.0,,0.0-60.0,,-1.0,814.795,0.0,0.623195575,1.0,0.655026044,0.0,0.25,1.0,0.560387538,True,,5e21c6434238bd000bcff4a3,,824224,63,,evan-feature22,full_rf_a,,1
34,18503,64,,,,1,1,1.0,1.0,1.0,0.0,,0.0-61.0,,1.0,541.7550001,1.0,0.601889598,1.0,0.678198724,0.0,0.25,0.0,0.559922936,True,,5e21c6434238bd000bcff4a3,,834594,64,,evan-feature22,full_rf_a,,1
35,18504,65,,,,1,1,1.0,1.0,1.0,0.0,,0.0-62.0,,1.0,726.9000001,1.0,0.601259914,1.0,0.704681482,0.0,0.33908969299999997,0.0,0.505003715,True,,5e21c6434238bd000bcff4a3,,845124,65,,evan-feature22,full_rf_a,,0
36,18505,66,,,,1,1,1.0,0.0,1.0,0.0,,0.0-63.0,,1.0,662.5999999,1.0,0.59645454,0.0,0.710437172,0.0,0.327441879,0.0,0.391749613,True,,5e21c6434238bd000bcff4a3,,855583,66,,evan-feature22,full_rf_a,,0
37,18506,67,,,,1,1,1.0,1.0,1.0,0.0,,0.0-64.0,,1.0,1153.35,1.0,0.529473,1.0,0.636758527,0.0,0.301338063,0.0,0.365661481,True,,5e21c6434238bd000bcff4a3,,866561,67,,evan-feature22,full_rf_a,,0
38,18507,68,,,,2,2,0.0,0.0,0.0,-1.0,,0.0-65.0,,0.0,1457.045,0.0,0.541657162,0.0,0.634541962,0.0,0.343535366,0.0,0.371763742,True,,5e21c6434238bd000bcff4a3,,877828,68,,evan-feature22,full_rf_a,,1
39,18508,69,,,,1,1,1.0,0.0,1.0,0.0,,0.0-66.0,,1.0,518.2650001000001,1.0,0.5707533260000001,0.0,0.589121171,1.0,0.326428396,0.0,0.43961622899999997,True,,5e21c6434238bd000bcff4a3,,888152,69,,evan-feature22,full_rf_a,,1
40,18509,70,,,,1,1,0.0,0.0,1.0,0.0,,0.0-67.0,,0.0,1289.155,0.0,0.5707533260000001,0.0,0.589121171,1.0,0.326428396,0.0,0.43961622899999997,True,,5e21c6434238bd000bcff4a3,,899244,70,,evan-feature22,full_rf_a,,0
41,18510,71,,,,1,1,1.0,0.0,1.0,0.0,,0.0-68.0,,1.0,507.26000030000006,1.0,0.506271295,0.0,0.641775594,0.0,0.37149690700000004,1.0,0.404330166,True,,5e21c6434238bd000bcff4a3,,909556,71,,evan-feature22,full_rf_a,,0
42,18511,72,,,,2,2,0.0,1.0,0.0,-1.0,,0.0-69.0,,-1.0,514.3399998,0.0,0.455642565,1.0,0.623605825,0.0,0.358753011,1.0,0.346174041,True,,5e21c6434238bd000bcff4a3,,919879,72,,evan-feature22,full_rf_a,,1
43,18512,73,,,,2,2,1.0,0.0,0.0,-1.0,,0.0-70.0,,0.0,614.5700002,0.0,0.483677308,1.0,0.5904681070000001,1.0,0.402218411,0.0,0.35344697,True,,5e21c6434238bd000bcff4a3,,930316,73,,evan-feature22,full_rf_a,,0
44,18513,74,,,,2,2,0.0,0.0,0.0,-1.0,,0.0-71.0,,0.0,496.8500002,0.0,0.394210977,0.0,0.558925494,0.0,0.540052017,0.0,0.35182128700000004,True,,5e21c6434238bd000bcff4a3,,940611,74,,evan-feature22,full_rf_a,,0
45,18514,75,,,,1,1,0.0,1.0,1.0,0.0,,0.0-72.0,,0.0,533.4200002,0.0,0.382300414,1.0,0.577670603,1.0,0.607608448,0.0,0.378261578,True,,5e21c6434238bd000bcff4a3,,950959,75,,evan-feature22,full_rf_a,,1
46,18515,76,,,,1,1,0.0,1.0,1.0,0.0,,0.0-73.0,,0.0,504.17999969999994,0.0,0.357596762,1.0,0.5929076529999999,0.0,0.6579790010000001,0.0,0.401326777,True,,5e21c6434238bd000bcff4a3,,961259,76,,evan-feature22,full_rf_a,,0
47,18516,77,,,,1,1,0.0,1.0,1.0,0.0,,0.0-74.0,,0.0,423.76000020000004,0.0,0.362033495,1.0,0.582308608,1.0,0.649195052,0.0,0.355158505,True,,5e21c6434238bd000bcff4a3,,971482,77,,evan-feature22,full_rf_a,,0
48,18517,78,,,,2,2,1.0,0.0,1.0,0.0,,0.0-75.0,,1.0,563.0199997999999,0.0,0.369620635,0.0,0.669100864,1.0,0.706059111,0.0,0.362516241,True,,5e21c6434238bd000bcff4a3,,981867,78,,evan-feature22,full_rf_a,,1
49,18518,79,,,,1,1,0.0,1.0,1.0,0.0,,0.0-76.0,,0.0,729.3750001,0.0,0.41477751399999996,1.0,0.7284416779999999,0.0,0.7182656940000001,1.0,0.36228040899999997,True,,5e21c6434238bd000bcff4a3,,992418,79,,evan-feature22,full_rf_a,,1
50,18519,80,,,,1,1,1.0,1.0,0.0,-1.0,,0.0-77.0,,-1.0,1065.41,1.0,0.37675460299999997,1.0,0.703250285,1.0,0.75,1.0,0.461979164,True,,5e21c6434238bd000bcff4a3,,1003284,80,,evan-feature22,full_rf_a,,0
51,18520,81,,,,1,1,0.0,1.0,0.0,-1.0,,0.0-78.0,,-1.0,1033.22,0.0,0.398716075,1.0,0.6723864890000001,1.0,0.674153818,1.0,0.519029516,True,,5e21c6434238bd000bcff4a3,,1014139,81,,evan-feature22,full_rf_a,,0
52,18521,82,,,,1,1,1.0,0.0,1.0,0.0,,0.0-79.0,,1.0,713.6850003,1.0,0.34677856700000004,0.0,0.69057175,1.0,0.6822438540000001,1.0,0.477292237,True,,5e21c6434238bd000bcff4a3,,1024652,82,,evan-feature22,full_rf_a,,0
53,18522,83,,,,2,2,1.0,0.0,0.0,-1.0,,0.0-80.0,,0.0,606.72,0.0,0.28580469199999997,0.0,0.68408818,1.0,0.684207565,0.0,0.49780448299999996,True,,5e21c6434238bd000bcff4a3,,1035074,83,,evan-feature22,full_rf_a,,1
54,18524,85,,,,1,1,0.0,1.0,1.0,0.0,,0.0-82.0,,0.0,1386.255,0.0,0.25,1.0,0.7405808970000001,1.0,0.679614108,1.0,0.436436964,True,,5e21c6434238bd000bcff4a3,,1050712,85,,evan-feature22,full_rf_a,,1
55,18525,86,,,,1,1,1.0,0.0,0.0,-1.0,,0.0-83.0,,0.0,863.3249998,1.0,0.29890393,0.0,0.730505706,0.0,0.7328203320000001,0.0,0.439256938,True,,5e21c6434238bd000bcff4a3,,1061382,86,,evan-feature22,full_rf_a,,0
56,18526,87,,,,2,2,1.0,1.0,1.0,0.0,,0.0-84.0,,1.0,761.6949999,0.0,0.326762398,1.0,0.7148059609999999,1.0,0.75,1.0,0.44389608799999997,True,,5e21c6434238bd000bcff4a3,,1071960,87,,evan-feature22,full_rf_a,,1
57,18527,88,,,,2,2,1.0,0.0,1.0,0.0,,0.0-85.0,,1.0,947.65,0.0,0.295168515,1.0,0.739760854,1.0,0.719947008,0.0,0.35277284600000003,True,,5e21c6434238bd000bcff4a3,,1082715,88,,evan-feature22,full_rf_a,,0
58,18528,89,,,,2,2,1.0,1.0,1.0,0.0,,0.0-86.0,,1.0,620.1800001,1.0,0.25,1.0,0.70781482,1.0,0.75,1.0,0.286095925,True,,5e21c6434238bd000bcff4a3,,1093128,89,,evan-feature22,full_rf_a,,0
59,18529,90,,,,1,1,0.0,0.0,0.0,-1.0,,0.0-87.0,,0.0,700.9550002000001,0.0,0.25638190899999996,0.0,0.704088163,0.0,0.75,0.0,0.26872601399999996,True,,5e21c6434238bd000bcff4a3,,1103632,90,,evan-feature22,full_rf_a,,1
60,18530,91,,,,1,1,0.0,0.0,0.0,-1.0,,0.0-88.0,,0.0,716.6200001,0.0,0.271581126,0.0,0.669760107,1.0,0.733896663,1.0,0.273244572,True,,5e21c6434238bd000bcff4a3,,1114157,91,,evan-feature22,full_rf_a,,0
61,18531,92,,,,1,1,0.0,1.0,0.0,-1.0,,0.0-89.0,,-1.0,704.6650001,0.0,0.257144401,1.0,0.600575706,0.0,0.74488122,1.0,0.25,True,,5e21c6434238bd000bcff4a3,,1124675,92,,evan-feature22,full_rf_a,,0
62,18532,93,,,,2,2,1.0,0.0,1.0,0.0,,0.0-90.0,,1.0,783.63,1.0,0.25,0.0,0.616870026,1.0,0.723610234,0.0,0.25,True,,5e21c6434238bd000bcff4a3,,1135266,93,,evan-feature22,full_rf_a,,1
63,18533,94,,,,1,1,0.0,1.0,0.0,-1.0,,0.0-91.0,,-1.0,572.6649999,0.0,0.25,1.0,0.583540187,1.0,0.7041042559999999,0.0,0.285961995,True,,5e21c6434238bd000bcff4a3,,1145631,94,,evan-feature22,full_rf_a,,1
64,18534,95,,,,2,2,1.0,0.0,1.0,0.0,,0.0-92.0,,1.0,611.4050001,0.0,0.27254536,1.0,0.53875765,1.0,0.693783448,0.0,0.284961652,True,,5e21c6434238bd000bcff4a3,,1156051,95,,evan-feature22,full_rf_a,,1
65,18535,96,,,,2,2,1.0,1.0,0.0,-1.0,,0.0-93.0,,-1.0,1406.435,1.0,0.25,0.0,0.548431252,1.0,0.734221895,1.0,0.279445214,True,,5e21c6434238bd000bcff4a3,,1167254,96,,evan-feature22,full_rf_a,,0
66,18536,97,,,,2,2,1.0,1.0,1.0,0.0,,0.0-94.0,,1.0,1511.875,0.0,0.258640684,0.0,0.545878066,1.0,0.725245965,1.0,0.31487537,True,,5e21c6434238bd000bcff4a3,,1178576,97,,evan-feature22,full_rf_a,,0
67,18537,98,,,,2,2,0.0,0.0,1.0,0.0,,0.0-95.0,,0.0,1453.725,0.0,0.251103711,0.0,0.5776290629999999,0.0,0.696320133,0.0,0.317831047,True,,5e21c6434238bd000bcff4a3,,1189830,98,,evan-feature22,full_rf_a,,0
68,18538,99,,,,2,2,1.0,0.0,1.0,0.0,,0.0-96.0,,1.0,658.3600002000001,0.0,0.276630292,1.0,0.617329858,1.0,0.73838088,0.0,0.261471582,True,,5e21c6434238bd000bcff4a3,,1200292,99,,evan-feature22,full_rf_a,,0
69,18539,100,,,,1,1,0.0,1.0,0.0,-1.0,,0.0-97.0,,-1.0,400.0349999,0.0,0.297716424,1.0,0.618863717,0.0,0.7402358259999999,0.0,0.262600834,True,,5e21c6434238bd000bcff4a3,,1210479,100,,evan-feature22,full_rf_a,,1
70,18540,101,,,,2,2,0.0,0.0,1.0,0.0,,0.0-98.0,,0.0,424.7150002,1.0,0.290935512,1.0,0.695370945,0.0,0.706570507,0.0,0.280030553,True,,5e21c6434238bd000bcff4a3,,1220712,101,,evan-feature22,full_rf_a,,1
71,18541,102,,,,2,2,0.0,0.0,1.0,0.0,,0.0-99.0,,0.0,1060.955,0.0,0.25,1.0,0.6465277079999999,0.0,0.67766682,0.0,0.25,True,,5e21c6434238bd000bcff4a3,,1231602,102,,evan-feature22,full_rf_a,,0
72,18542,103,,,,1,1,0.0,1.0,1.0,0.0,,0.0-100.0,,0.0,595.0150001000001,0.0,0.26463816,1.0,0.636100213,0.0,0.646048507,0.0,0.265607101,True,,5e21c6434238bd000bcff4a3,,1242024,103,,evan-feature22,full_rf_a,,1
73,18543,104,,,,2,2,0.0,0.0,1.0,0.0,,0.0-101.0,,0.0,496.4100001,0.0,0.314340707,1.0,0.667795927,0.0,0.613630805,0.0,0.25,True,,5e21c6434238bd000bcff4a3,,1252332,104,,evan-feature22,full_rf_a,,1
74,18544,105,,,,2,2,1.0,0.0,1.0,0.0,,0.0-102.0,,1.0,412.885,0.0,0.28685784,1.0,0.6622549529999999,1.0,0.652154117,0.0,0.25,True,,5e21c6434238bd000bcff4a3,,1262557,105,,evan-feature22,full_rf_a,,0
75,18545,106,,,,1,1,0.0,1.0,0.0,-1.0,,0.0-103.0,,-1.0,811.5699999,0.0,0.304106554,1.0,0.631289538,1.0,0.707041942,1.0,0.29314237,True,,5e21c6434238bd000bcff4a3,,1273171,106,,evan-feature22,full_rf_a,,1
76,18546,107,,,,1,1,0.0,1.0,0.0,-1.0,,0.0-104.0,,-1.0,555.5600002,0.0,0.304806932,1.0,0.571167718,1.0,0.680472346,1.0,0.25,True,,5e21c6434238bd000bcff4a3,,1283538,107,,evan-feature22,full_rf_a,,0
77,18547,108,,,,1,1,0.0,0.0,0.0,-1.0,,0.0-105.0,,0.0,1450.305,0.0,0.37919861,0.0,0.5724849710000001,0.0,0.705638003,1.0,0.30179300600000003,True,,5e21c6434238bd000bcff4a3,,1294805,108,,evan-feature22,full_rf_a,,0
78,18548,109,,,,1,1,0.0,1.0,0.0,-1.0,,0.0-106.0,,-1.0,671.6749999,0.0,0.464277969,1.0,0.554034373,1.0,0.7372627340000001,1.0,0.264699741,True,,5e21c6434238bd000bcff4a3,,1305280,109,,evan-feature22,full_rf_a,,0
79,18549,110,,,,2,2,1.0,0.0,1.0,0.0,,0.0-107.0,,1.0,925.4399999,1.0,0.465104323,1.0,0.530793115,1.0,0.75,0.0,0.31683071,True,,5e21c6434238bd000bcff4a3,,1316003,110,,evan-feature22,full_rf_a,,1
80,18550,111,,,,1,1,0.0,0.0,0.0,-1.0,,0.0-108.0,,0.0,1249.93,0.0,0.465104323,0.0,0.530793115,1.0,0.75,0.0,0.31683071,True,,5e21c6434238bd000bcff4a3,,1327050,111,,evan-feature22,full_rf_a,,1
81,18551,112,,,,1,1,1.0,1.0,0.0,-1.0,,0.0-109.0,,-1.0,675.7450001,1.0,0.46833986,1.0,0.570249239,1.0,0.7244472590000001,0.0,0.364114163,True,,5e21c6434238bd000bcff4a3,,1337555,112,,evan-feature22,full_rf_a,,0
82,18552,113,,,,2,2,0.0,0.0,0.0,-1.0,,0.0-110.0,,0.0,787.645,0.0,0.445444024,0.0,0.649673355,0.0,0.6845441290000001,0.0,0.300660449,True,,5e21c6434238bd000bcff4a3,,1348163,113,,evan-feature22,full_rf_a,,1
83,18553,114,,,,2,2,0.0,1.0,0.0,-1.0,,0.0-111.0,,-1.0,746.8650001,0.0,0.39909721299999995,1.0,0.6715179509999999,0.0,0.742310028,1.0,0.35496088299999995,True,,5e21c6434238bd000bcff4a3,,1358725,114,,evan-feature22,full_rf_a,,0
84,18554,115,,,,2,2,1.0,0.0,0.0,-1.0,,0.0-112.0,,0.0,539.0500003,1.0,0.37956104799999996,1.0,0.694725302,1.0,0.7181651309999999,0.0,0.38726906299999997,True,,5e21c6434238bd000bcff4a3,,1369053,115,,evan-feature22,full_rf_a,,0
85,18555,116,,,,1,1,0.0,0.0,0.0,-1.0,,0.0-113.0,,0.0,819.7050001,0.0,0.404995034,0.0,0.724375412,1.0,0.6910946859999999,0.0,0.387187347,True,,5e21c6434238bd000bcff4a3,,1379679,116,,evan-feature22,full_rf_a,,1
86,18556,117,,,,1,1,1.0,1.0,0.0,-1.0,,0.0-114.0,,-1.0,1123.06,1.0,0.461740803,1.0,0.75,0.0,0.75,0.0,0.34872038200000005,True,,5e21c6434238bd000bcff4a3,,1390604,117,,evan-feature22,full_rf_a,,0
87,18557,118,,,,1,1,0.0,1.0,1.0,0.0,,0.0-115.0,,0.0,722.17,0.0,0.43821380600000004,1.0,0.738833273,1.0,0.728286963,0.0,0.399538128,True,,5e21c6434238bd000bcff4a3,,1401141,118,,evan-feature22,full_rf_a,,0
88,18558,119,,,,2,2,0.0,0.0,0.0,-1.0,,0.0-116.0,,0.0,439.82499979999994,1.0,0.41709882,0.0,0.736666736,0.0,0.75,0.0,0.389095584,True,,5e21c6434238bd000bcff4a3,,1411394,119,,evan-feature22,full_rf_a,,1
89,18559,120,,,,1,1,0.0,1.0,0.0,-1.0,,0.0-117.0,,-1.0,958.8200002999998,0.0,0.39749009799999996,1.0,0.744320029,0.0,0.75,0.0,0.363848678,True,,5e21c6434238bd000bcff4a3,,1422178,120,,evan-feature22,full_rf_a,,1
90,18560,121,,,,1,1,0.0,0.0,1.0,0.0,,0.0-118.0,,0.0,782.7000002999999,0.0,0.392653706,0.0,0.75,1.0,0.75,0.0,0.384386976,True,,5e21c6434238bd000bcff4a3,,1432777,121,,evan-feature22,full_rf_a,,0
91,18561,122,,,,2,2,0.0,0.0,1.0,0.0,,0.0-119.0,,0.0,296.9,1.0,0.31190902600000003,1.0,0.75,0.0,0.732413819,0.0,0.413082932,True,,5e21c6434238bd000bcff4a3,,1442869,122,,evan-feature22,full_rf_a,,1
92,18562,123,,,,2,2,1.0,0.0,0.0,-1.0,,0.0-120.0,,0.0,286.1600001,0.0,0.366917648,0.0,0.740073855,1.0,0.75,0.0,0.352861979,True,,5e21c6434238bd000bcff4a3,,1452977,123,,evan-feature22,full_rf_a,,0
93,18563,124,,,,2,2,1.0,0.0,0.0,-1.0,,0.0-121.0,,0.0,486.6450001,1.0,0.3645172,0.0,0.721770713,1.0,0.75,0.0,0.404074511,True,,5e21c6434238bd000bcff4a3,,1463253,124,,evan-feature22,full_rf_a,,0
94,18564,125,,,,2,2,1.0,0.0,0.0,-1.0,,0.0-122.0,,0.0,331.605,0.0,0.35205600299999995,1.0,0.68983859,1.0,0.739735447,0.0,0.366895945,True,,5e21c6434238bd000bcff4a3,,1473384,125,,evan-feature22,full_rf_a,,0
95,18565,126,,,,2,2,1.0,0.0,0.0,-1.0,,0.0-123.0,,0.0,1380.045,1.0,0.40998722600000004,1.0,0.720859127,1.0,0.673854955,0.0,0.368528541,True,,5e21c6434238bd000bcff4a3,,1484557,126,,evan-feature22,full_rf_a,,0
96,18566,127,,,,2,2,0.0,1.0,1.0,0.0,,0.0-124.0,,0.0,263.4999999,1.0,0.353625316,1.0,0.75,0.0,0.695605473,1.0,0.38303674200000004,True,,5e21c6434238bd000bcff4a3,,1494631,127,,evan-feature22,full_rf_a,,0
97,18567,128,,,,1,1,0.0,1.0,0.0,-1.0,,0.0-125.0,,-1.0,378.1150002,0.0,0.359216989,1.0,0.75,1.0,0.6987915090000001,1.0,0.35169046200000004,True,,5e21c6434238bd000bcff4a3,,1504827,128,,evan-feature22,full_rf_a,,1
98,18568,129,,,,1,1,0.0,1.0,1.0,0.0,,0.0-126.0,,0.0,252.9200003,0.0,0.35834496899999996,1.0,0.75,1.0,0.707067742,0.0,0.416763636,True,,5e21c6434238bd000bcff4a3,,1514882,129,,evan-feature22,full_rf_a,,0
99,18569,130,,,,1,1,0.0,1.0,1.0,0.0,,0.0-127.0,,0.0,1193.535,0.0,0.38741613799999997,1.0,0.7177369570000001,1.0,0.734902455,0.0,0.49438664299999996,True,,5e21c6434238bd000bcff4a3,,1525875,130,,evan-feature22,full_rf_a,,0
100,18570,131,,,,1,1,1.0,0.0,0.0,-1.0,,0.0-128.0,,0.0,375.455,1.0,0.405255252,0.0,0.7300466640000001,1.0,0.7027748070000001,0.0,0.504359668,True,,5e21c6434238bd000bcff4a3,,1536053,131,,evan-feature22,full_rf_a,,0
101,18571,132,,,,2,2,1.0,0.0,0.0,-1.0,,0.0-129.0,,0.0,1071.095,1.0,0.40697073,1.0,0.7260142190000001,1.0,0.724461982,0.0,0.522779179,True,,5e21c6434238bd000bcff4a3,,1546940,132,,evan-feature22,full_rf_a,,1
102,18572,133,,,,1,1,0.0,0.0,0.0,-1.0,,0.0-130.0,,0.0,1118.275,0.0,0.43906215299999996,0.0,0.7252802340000001,1.0,0.719079934,1.0,0.5712990579999999,True,,5e21c6434238bd000bcff4a3,,1557853,133,,evan-feature22,full_rf_a,,1
103,18573,134,,,,1,1,0.0,0.0,0.0,-1.0,,0.0-131.0,,0.0,750.1449999,0.0,0.4076705,0.0,0.73280499,1.0,0.681313127,0.0,0.523891346,True,,5e21c6434238bd000bcff4a3,,1568414,134,,evan-feature22,full_rf_a,,0
104,18574,135,,,,1,1,1.0,1.0,0.0,-1.0,,0.0-132.0,,-1.0,757.3150001,1.0,0.399102911,1.0,0.730498344,1.0,0.661080239,0.0,0.46742603,True,,5e21c6434238bd000bcff4a3,,1578985,135,,evan-feature22,full_rf_a,,0
105,18575,136,,,,2,2,0.0,1.0,1.0,0.0,,0.0-133.0,,0.0,1315.51,0.0,0.356477282,1.0,0.712296395,0.0,0.641812684,1.0,0.44868414,True,,5e21c6434238bd000bcff4a3,,1590124,136,,evan-feature22,full_rf_a,,1
106,18576,137,,,,1,1,1.0,1.0,0.0,-1.0,,0.0-134.0,,-1.0,735.1699997999999,1.0,0.462760722,1.0,0.692349322,1.0,0.700947931,0.0,0.394680266,True,,5e21c6434238bd000bcff4a3,,1600650,137,,evan-feature22,full_rf_a,,1
107,18577,138,,,,1,1,0.0,1.0,0.0,-1.0,,0.0-135.0,,-1.0,898.7199999,0.0,0.422306413,1.0,0.718375916,1.0,0.706340917,1.0,0.367787185,True,,5e21c6434238bd000bcff4a3,,1611364,138,,evan-feature22,full_rf_a,,0
108,18579,140,,,,1,1,0.0,0.0,0.0,-1.0,,0.0-137.0,,0.0,2286.125,0.0,0.4582233,0.0,0.643834117,0.0,0.75,0.0,0.39615823299999997,True,,5e21c6434238bd000bcff4a3,,1632367,140,,evan-feature22,full_rf_a,,0
109,18580,141,,,,1,1,0.0,1.0,0.0,-1.0,,0.0-138.0,,-1.0,895.4649995999999,0.0,0.43813437899999996,1.0,0.651283804,1.0,0.729674191,0.0,0.37711048,True,,5e21c6434238bd000bcff4a3,,1643070,141,,evan-feature22,full_rf_a,,0
110,18581,142,,,,1,1,1.0,1.0,0.0,-1.0,,0.0-139.0,,-1.0,733.6000004,1.0,0.471199094,1.0,0.6470010979999999,1.0,0.715008097,1.0,0.410656191,True,,5e21c6434238bd000bcff4a3,,1653624,142,,evan-feature22,full_rf_a,,0
111,18582,143,,,,1,1,0.0,0.0,1.0,0.0,,0.0-140.0,,0.0,400.2400003,0.0,0.42486406,0.0,0.629771829,1.0,0.6550939960000001,1.0,0.459093873,True,,5e21c6434238bd000bcff4a3,,1663834,143,,evan-feature22,full_rf_a,,0
112,18583,144,,,,1,1,0.0,0.0,1.0,0.0,,0.0-141.0,,0.0,1052.33,0.0,0.4803197,0.0,0.645842715,1.0,0.6421749920000001,0.0,0.443092151,True,,5e21c6434238bd000bcff4a3,,1674705,144,,evan-feature22,full_rf_a,,0
113,18584,145,,,,1,1,0.0,1.0,1.0,0.0,,0.0-142.0,,0.0,694.8499996,0.0,0.521848997,1.0,0.735801074,1.0,0.6691348460000001,0.0,0.45259351600000003,True,,5e21c6434238bd000bcff4a3,,1685218,145,,evan-feature22,full_rf_a,,0
114,18585,146,,,,1,1,0.0,1.0,0.0,-1.0,,0.0-143.0,,-1.0,243.7299998,0.0,0.49565621299999996,1.0,0.742400847,0.0,0.661512553,1.0,0.483110831,True,,5e21c6434238bd000bcff4a3,,1695272,146,,evan-feature22,full_rf_a,,0
115,18586,147,,,,1,1,0.0,1.0,1.0,0.0,,0.0-144.0,,0.0,344.48999960000003,0.0,0.521564361,1.0,0.731078632,1.0,0.6774886809999999,0.0,0.483263956,True,,5e21c6434238bd000bcff4a3,,1705447,147,,evan-feature22,full_rf_a,,0
116,18587,148,,,,1,1,1.0,1.0,1.0,0.0,,0.0-145.0,,1.0,913.3299999,1.0,0.558893102,1.0,0.719810023,1.0,0.67461031,1.0,0.499349834,True,,5e21c6434238bd000bcff4a3,,1716179,148,,evan-feature22,full_rf_a,,0
117,18588,149,,,,1,1,1.0,1.0,0.0,-1.0,,0.0-146.0,,-1.0,337.8649997,1.0,0.611031046,1.0,0.75,1.0,0.688072995,0.0,0.5321422729999999,True,,5e21c6434238bd000bcff4a3,,1726338,149,,evan-feature22,full_rf_a,,0
118,18589,150,,,,1,1,1.0,1.0,1.0,0.0,,0.0-147.0,,1.0,1191.455,1.0,0.633223941,1.0,0.713567728,0.0,0.75,1.0,0.48185314700000004,True,,5e21c6434238bd000bcff4a3,,1737322,150,,evan-feature22,full_rf_a,,0
119,18590,151,,,,1,1,1.0,0.0,1.0,0.0,,0.0-148.0,,1.0,371.03499980000004,1.0,0.664001694,0.0,0.705509768,0.0,0.75,1.0,0.500211065,True,,5e21c6434238bd000bcff4a3,,1747493,151,,evan-feature22,full_rf_a,,0
120,18591,152,,,,1,1,0.0,1.0,0.0,-1.0,,0.0-149.0,,-1.0,364.3699996,0.0,0.664001694,1.0,0.705509768,1.0,0.75,0.0,0.500211065,True,,5e21c6434238bd000bcff4a3,,1757671,152,,evan-feature22,full_rf_a,,0
121,18592,153,,,,2,2,1.0,0.0,0.0,-1.0,,0.0-150.0,,0.0,348.6049999,1.0,0.696508041,1.0,0.71066027,1.0,0.717028709,0.0,0.49792991,True,,5e21c6434238bd000bcff4a3,,1767823,153,,evan-feature22,full_rf_a,,1
122,18593,154,,,,1,1,1.0,0.0,1.0,0.0,,0.0-151.0,,1.0,306.5749998,1.0,0.699883272,0.0,0.75,1.0,0.713543895,0.0,0.496962643,True,,5e21c6434238bd000bcff4a3,,1777937,154,,evan-feature22,full_rf_a,,1
123,18594,155,,,,2,2,1.0,0.0,0.0,-1.0,,0.0-152.0,,0.0,293.01499989999996,1.0,0.741163419,0.0,0.75,1.0,0.64691024,0.0,0.513858197,True,,5e21c6434238bd000bcff4a3,,1788041,155,,evan-feature22,full_rf_a,,1
124,18595,156,,,,1,1,1.0,1.0,1.0,0.0,,0.0-153.0,,1.0,244.5749999,1.0,0.75,1.0,0.70816558,0.0,0.594499079,0.0,0.48502124,True,,5e21c6434238bd000bcff4a3,,1798112,156,,evan-feature22,full_rf_a,,1
125,18596,157,,,,1,1,1.0,0.0,0.0,-1.0,,0.0-154.0,,0.0,1157.26,1.0,0.75,0.0,0.721848901,1.0,0.62197249,0.0,0.48263586399999997,True,,5e21c6434238bd000bcff4a3,,1809091,157,,evan-feature22,full_rf_a,,0
126,18597,158,,,,2,2,0.0,0.0,1.0,0.0,,0.0-155.0,,0.0,1606.585,1.0,0.75,1.0,0.74813071,0.0,0.584357161,0.0,0.411477782,True,,5e21c6434238bd000bcff4a3,,1820507,158,,evan-feature22,full_rf_a,,1
127,18598,159,,,,1,1,0.0,1.0,0.0,-1.0,,0.0-156.0,,-1.0,358.8999999,0.0,0.75,1.0,0.75,1.0,0.52287236,1.0,0.488290656,True,,5e21c6434238bd000bcff4a3,,1830683,159,,evan-feature22,full_rf_a,,1
128,18599,160,,,,1,1,1.0,1.0,0.0,-1.0,,0.0-157.0,,-1.0,301.7850001,1.0,0.75,1.0,0.75,1.0,0.544321581,0.0,0.53143059,True,,5e21c6434238bd000bcff4a3,,1840798,160,,evan-feature22,full_rf_a,,0
129,18600,161,,,,1,1,0.0,1.0,0.0,-1.0,,0.0-158.0,,-1.0,972.3550002000001,0.0,0.726754564,1.0,0.75,0.0,0.5129306370000001,0.0,0.530592445,True,,5e21c6434238bd000bcff4a3,,1851574,161,,evan-feature22,full_rf_a,,0
130,18601,162,,,,2,2,1.0,1.0,1.0,0.0,,0.0-159.0,,1.0,250.3,1.0,0.75,0.0,0.7392590729999999,1.0,0.479875835,1.0,0.547007051,True,,5e21c6434238bd000bcff4a3,,1861643,162,,evan-feature22,full_rf_a,,1
