,index,Unnamed: 0,Q_name,button_pressed,choice_idxs,chosen_pos,chosen_state,chosen_state_f_1_outcome,chosen_state_f_2_outcome,f_1_reward,f_2_reward,incor_questions,internal_node_id,responses,reward_received,rt,s_1_f_1_outcome,s_1_f_1_prob,s_1_f_2_outcome,s_1_f_2_prob,s_2_f_1_outcome,s_2_f_1_prob,s_2_f_2_outcome,s_2_f_2_prob,safe_first,stimulus,subjectID,success,time_elapsed,trial_index,trial_num,trial_type,version,view_history,switching
0,23084,30,,,,2,2,0.0,1.0,-1.0,0.0,,0.0-27.0,,0.0,1658.58,0.0,0.6,1.0,0.6,0.0,0.4,1.0,0.4,False,,5aa308f0b5e2110001c71eb5,,636872,30,,evan-feature22,full_pf_b,,0
1,23085,31,,,,2,2,1.0,0.0,-1.0,0.0,,0.0-28.0,,-1.0,1167.035,1.0,0.608053294,0.0,0.63424552,1.0,0.397152172,0.0,0.347069101,False,,5aa308f0b5e2110001c71eb5,,647832,31,,evan-feature22,full_pf_b,,0
2,23086,32,,,,2,2,1.0,0.0,-1.0,0.0,,0.0-29.0,,-1.0,1257.825,1.0,0.642237155,1.0,0.648566321,1.0,0.389407674,0.0,0.285525717,False,,5aa308f0b5e2110001c71eb5,,658865,32,,evan-feature22,full_pf_b,,0
3,23087,33,,,,2,2,0.0,0.0,-1.0,0.0,,0.0-30.0,,0.0,1721.88,1.0,0.661086576,1.0,0.630492543,0.0,0.399058924,0.0,0.25,False,,5aa308f0b5e2110001c71eb5,,670370,33,,evan-feature22,full_pf_b,,0
4,23088,34,,,,2,2,0.0,1.0,0.0,1.0,,0.0-31.0,,1.0,1481.95,0.0,0.631324137,0.0,0.6269842929999999,0.0,0.38734784299999997,1.0,0.25,False,,5aa308f0b5e2110001c71eb5,,681640,34,,evan-feature22,full_pf_b,,0
5,23089,35,,,,1,1,1.0,1.0,0.0,1.0,,0.0-32.0,,1.0,1742.155,1.0,0.6381991370000001,1.0,0.68987999,1.0,0.384107265,0.0,0.271332943,False,,5aa308f0b5e2110001c71eb5,,693164,35,,evan-feature22,full_pf_b,,1
6,23090,36,,,,1,1,1.0,0.0,-1.0,0.0,,0.0-33.0,,-1.0,1546.5,1.0,0.66034901,0.0,0.742641349,0.0,0.360225629,1.0,0.25,False,,5aa308f0b5e2110001c71eb5,,704496,36,,evan-feature22,full_pf_b,,0
7,23091,37,,,,2,2,1.0,0.0,-1.0,0.0,,0.0-34.0,,-1.0,880.325,1.0,0.638612418,1.0,0.75,1.0,0.367273939,0.0,0.25,False,,5aa308f0b5e2110001c71eb5,,715163,37,,evan-feature22,full_pf_b,,1
8,23092,38,,,,2,2,0.0,0.0,0.0,1.0,,0.0-35.0,,0.0,1670.895,0.0,0.624340629,1.0,0.75,0.0,0.425829545,0.0,0.25,False,,5aa308f0b5e2110001c71eb5,,726622,38,,evan-feature22,full_pf_b,,0
9,23093,39,,,,2,2,1.0,0.0,0.0,1.0,,0.0-36.0,,0.0,673.51,0.0,0.621999804,1.0,0.75,1.0,0.368609357,0.0,0.25,False,,5aa308f0b5e2110001c71eb5,,737080,39,,evan-feature22,full_pf_b,,0
10,23094,40,,,,2,2,0.0,0.0,-1.0,0.0,,0.0-37.0,,0.0,936.16,1.0,0.62666403,1.0,0.75,0.0,0.311151498,0.0,0.25,False,,5aa308f0b5e2110001c71eb5,,747792,40,,evan-feature22,full_pf_b,,0
11,23095,41,,,,2,2,0.0,0.0,0.0,1.0,,0.0-38.0,,0.0,650.995,0.0,0.6819650009999999,0.0,0.75,0.0,0.310763048,0.0,0.25,False,,5aa308f0b5e2110001c71eb5,,758230,41,,evan-feature22,full_pf_b,,0
12,23096,42,,,,2,2,0.0,0.0,-1.0,0.0,,0.0-39.0,,0.0,1088.39,0.0,0.740626951,0.0,0.75,0.0,0.25,0.0,0.25,False,,5aa308f0b5e2110001c71eb5,,769095,42,,evan-feature22,full_pf_b,,0
13,23097,43,,,,1,1,1.0,1.0,-1.0,0.0,,0.0-40.0,,-1.0,837.205,1.0,0.739599242,1.0,0.742034978,0.0,0.25397114600000004,0.0,0.25,False,,5aa308f0b5e2110001c71eb5,,779711,43,,evan-feature22,full_pf_b,,1
14,23098,44,,,,1,1,1.0,0.0,-1.0,0.0,,0.0-41.0,,-1.0,714.535,1.0,0.732341315,0.0,0.72735643,0.0,0.25,0.0,0.25,False,,5aa308f0b5e2110001c71eb5,,790206,44,,evan-feature22,full_pf_b,,0
15,23099,45,,,,2,2,0.0,0.0,-1.0,0.0,,0.0-42.0,,0.0,797.43,1.0,0.7062287770000001,0.0,0.75,0.0,0.29002151,0.0,0.288256649,False,,5aa308f0b5e2110001c71eb5,,800778,45,,evan-feature22,full_pf_b,,1
16,23100,46,,,,2,2,0.0,1.0,-1.0,0.0,,0.0-43.0,,0.0,701.74,0.0,0.7086029209999999,0.0,0.75,0.0,0.274129113,1.0,0.262851608,False,,5aa308f0b5e2110001c71eb5,,811264,46,,evan-feature22,full_pf_b,,0
17,23101,47,,,,2,2,0.0,0.0,-1.0,0.0,,0.0-44.0,,0.0,653.855,0.0,0.669189651,1.0,0.727614338,0.0,0.298444036,0.0,0.296944518,False,,5aa308f0b5e2110001c71eb5,,821696,47,,evan-feature22,full_pf_b,,0
18,23102,48,,,,2,2,0.0,0.0,-1.0,0.0,,0.0-45.0,,0.0,1195.755,1.0,0.6819912929999999,1.0,0.7179434290000001,0.0,0.265003961,0.0,0.28157921199999997,False,,5aa308f0b5e2110001c71eb5,,832676,48,,evan-feature22,full_pf_b,,0
19,23103,49,,,,2,2,0.0,1.0,0.0,1.0,,0.0-46.0,,1.0,361.475,1.0,0.665275002,1.0,0.723065271,0.0,0.260414971,1.0,0.30973870000000003,False,,5aa308f0b5e2110001c71eb5,,842820,49,,evan-feature22,full_pf_b,,0
20,23104,50,,,,1,1,0.0,1.0,-1.0,0.0,,0.0-47.0,,0.0,1439.69,0.0,0.6660593260000001,1.0,0.728032907,0.0,0.30922817,0.0,0.338778608,False,,5aa308f0b5e2110001c71eb5,,854044,50,,evan-feature22,full_pf_b,,1
21,23105,51,,,,2,2,1.0,0.0,-1.0,0.0,,0.0-48.0,,-1.0,869.525,0.0,0.702068785,1.0,0.6528750879999999,1.0,0.287329608,0.0,0.35789613200000003,False,,5aa308f0b5e2110001c71eb5,,864700,51,,evan-feature22,full_pf_b,,1
22,23106,52,,,,2,2,0.0,0.0,-1.0,0.0,,0.0-49.0,,0.0,2180.52,1.0,0.651939787,0.0,0.636725589,0.0,0.284834488,0.0,0.358563756,False,,5aa308f0b5e2110001c71eb5,,876660,52,,evan-feature22,full_pf_b,,0
23,23107,53,,,,2,2,0.0,0.0,0.0,1.0,,0.0-50.0,,0.0,3996.955,0.0,0.67573929,1.0,0.612550049,0.0,0.37130387600000003,0.0,0.383542402,False,,5aa308f0b5e2110001c71eb5,,890441,53,,evan-feature22,full_pf_b,,0
24,23108,54,,,,2,2,0.0,1.0,0.0,1.0,,0.0-51.0,,1.0,1019.615,0.0,0.620753801,0.0,0.60513644,0.0,0.385529434,1.0,0.340361743,False,,5aa308f0b5e2110001c71eb5,,901245,54,,evan-feature22,full_pf_b,,0
25,23109,55,,,,2,2,0.0,0.0,0.0,1.0,,0.0-52.0,,0.0,1178.245,1.0,0.673564893,1.0,0.672437924,0.0,0.292955382,0.0,0.337633795,False,,5aa308f0b5e2110001c71eb5,,912191,55,,evan-feature22,full_pf_b,,0
26,23110,56,,,,2,2,0.0,0.0,-1.0,0.0,,0.0-53.0,,0.0,2975.99,1.0,0.6749427,1.0,0.724197502,0.0,0.32391132100000003,0.0,0.350995264,False,,5aa308f0b5e2110001c71eb5,,924948,56,,evan-feature22,full_pf_b,,0
27,23111,57,,,,2,2,0.0,1.0,-1.0,0.0,,0.0-54.0,,0.0,1128.64,1.0,0.6940159379999999,1.0,0.75,0.0,0.31710554399999996,1.0,0.413450341,False,,5aa308f0b5e2110001c71eb5,,935854,57,,evan-feature22,full_pf_b,,0
28,23112,58,,,,2,2,0.0,1.0,-1.0,0.0,,0.0-55.0,,0.0,852.985,1.0,0.6916018270000001,1.0,0.69001187,0.0,0.261817804,1.0,0.40038635,False,,5aa308f0b5e2110001c71eb5,,946493,58,,evan-feature22,full_pf_b,,0
29,23113,59,,,,2,2,0.0,0.0,-1.0,0.0,,0.0-56.0,,0.0,651.07,1.0,0.641061544,0.0,0.71337992,0.0,0.277296461,0.0,0.47372791700000005,False,,5aa308f0b5e2110001c71eb5,,956932,59,,evan-feature22,full_pf_b,,0
30,23114,60,,,,2,2,1.0,0.0,-1.0,0.0,,0.0-57.0,,-1.0,406.275,1.0,0.6082438520000001,0.0,0.708471106,1.0,0.28745137,0.0,0.564174476,False,,5aa308f0b5e2110001c71eb5,,967123,60,,evan-feature22,full_pf_b,,0
31,23115,61,,,,2,2,0.0,0.0,-1.0,0.0,,0.0-58.0,,0.0,401.375,0.0,0.6051112120000001,0.0,0.7118147229999999,0.0,0.272390611,0.0,0.5595149939999999,False,,5aa308f0b5e2110001c71eb5,,977310,61,,evan-feature22,full_pf_b,,0
32,23116,62,,,,2,2,0.0,0.0,-1.0,0.0,,0.0-59.0,,0.0,739.835,0.0,0.582420852,1.0,0.635867583,0.0,0.31089574,0.0,0.5227206520000001,False,,5aa308f0b5e2110001c71eb5,,987832,62,,evan-feature22,full_pf_b,,0
33,23117,63,,,,2,2,0.0,0.0,0.0,1.0,,0.0-60.0,,0.0,495.09,1.0,0.623195575,1.0,0.655026044,0.0,0.25,0.0,0.560387538,False,,5aa308f0b5e2110001c71eb5,,998115,63,,evan-feature22,full_pf_b,,0
34,23118,64,,,,2,2,1.0,0.0,-1.0,0.0,,0.0-61.0,,-1.0,276.66,1.0,0.601889598,1.0,0.678198724,1.0,0.25,0.0,0.559922936,False,,5aa308f0b5e2110001c71eb5,,1008179,64,,evan-feature22,full_pf_b,,0
35,23119,65,,,,2,2,0.0,1.0,-1.0,0.0,,0.0-62.0,,0.0,814.34,1.0,0.601259914,0.0,0.704681482,0.0,0.33908969299999997,1.0,0.505003715,False,,5aa308f0b5e2110001c71eb5,,1018776,65,,evan-feature22,full_pf_b,,0
36,23120,66,,,,2,2,0.0,1.0,-1.0,0.0,,0.0-63.0,,0.0,402.41,1.0,0.59645454,1.0,0.710437172,0.0,0.327441879,1.0,0.391749613,False,,5aa308f0b5e2110001c71eb5,,1028955,66,,evan-feature22,full_pf_b,,0
37,23121,67,,,,2,2,1.0,0.0,-1.0,0.0,,0.0-64.0,,-1.0,1625.81,1.0,0.529473,0.0,0.636758527,1.0,0.301338063,0.0,0.365661481,False,,5aa308f0b5e2110001c71eb5,,1040366,67,,evan-feature22,full_pf_b,,0
38,23122,68,,,,2,2,1.0,1.0,0.0,1.0,,0.0-65.0,,1.0,733.205,1.0,0.541657162,1.0,0.634541962,1.0,0.343535366,1.0,0.371763742,False,,5aa308f0b5e2110001c71eb5,,1050885,68,,evan-feature22,full_pf_b,,0
39,23123,69,,,,2,2,1.0,0.0,-1.0,0.0,,0.0-66.0,,-1.0,1500.13,0.0,0.5707533260000001,1.0,0.589121171,1.0,0.326428396,0.0,0.43961622899999997,False,,5aa308f0b5e2110001c71eb5,,1062161,69,,evan-feature22,full_pf_b,,0
40,23124,70,,,,2,2,0.0,1.0,-1.0,0.0,,0.0-67.0,,0.0,1626.395,1.0,0.5707533260000001,1.0,0.589121171,0.0,0.326428396,1.0,0.43961622899999997,False,,5aa308f0b5e2110001c71eb5,,1073573,70,,evan-feature22,full_pf_b,,0
41,23125,71,,,,1,1,0.0,1.0,-1.0,0.0,,0.0-68.0,,0.0,3347.865,0.0,0.506271295,1.0,0.641775594,0.0,0.37149690700000004,0.0,0.404330166,False,,5aa308f0b5e2110001c71eb5,,1086704,71,,evan-feature22,full_pf_b,,1
42,23126,72,,,,1,1,1.0,1.0,0.0,1.0,,0.0-69.0,,1.0,1659.53,1.0,0.455642565,1.0,0.623605825,0.0,0.358753011,0.0,0.346174041,False,,5aa308f0b5e2110001c71eb5,,1098149,72,,evan-feature22,full_pf_b,,0
43,23127,73,,,,1,1,0.0,1.0,0.0,1.0,,0.0-70.0,,1.0,1469.51,0.0,0.483677308,1.0,0.5904681070000001,0.0,0.402218411,0.0,0.35344697,False,,5aa308f0b5e2110001c71eb5,,1109403,73,,evan-feature22,full_pf_b,,0
44,23128,74,,,,2,2,0.0,0.0,0.0,1.0,,0.0-71.0,,0.0,3627.035,0.0,0.394210977,0.0,0.558925494,0.0,0.540052017,0.0,0.35182128700000004,False,,5aa308f0b5e2110001c71eb5,,1122812,74,,evan-feature22,full_pf_b,,1
45,23129,75,,,,1,1,0.0,0.0,-1.0,0.0,,0.0-72.0,,0.0,1053.77,0.0,0.382300414,0.0,0.577670603,1.0,0.607608448,0.0,0.378261578,False,,5aa308f0b5e2110001c71eb5,,1133643,75,,evan-feature22,full_pf_b,,1
46,23130,76,,,,2,2,0.0,0.0,-1.0,0.0,,0.0-73.0,,0.0,468.21,1.0,0.357596762,0.0,0.5929076529999999,0.0,0.6579790010000001,0.0,0.401326777,False,,5aa308f0b5e2110001c71eb5,,1143889,76,,evan-feature22,full_pf_b,,1
47,23131,77,,,,2,2,0.0,0.0,-1.0,0.0,,0.0-74.0,,0.0,1097.4,0.0,0.362033495,1.0,0.582308608,0.0,0.649195052,0.0,0.355158505,False,,5aa308f0b5e2110001c71eb5,,1154772,77,,evan-feature22,full_pf_b,,0
48,23132,78,,,,2,2,1.0,0.0,-1.0,0.0,,0.0-75.0,,-1.0,957.23,0.0,0.369620635,0.0,0.669100864,1.0,0.706059111,0.0,0.362516241,False,,5aa308f0b5e2110001c71eb5,,1165515,78,,evan-feature22,full_pf_b,,0
49,23133,79,,,,2,2,1.0,1.0,-1.0,0.0,,0.0-76.0,,-1.0,670.4,1.0,0.41477751399999996,1.0,0.7284416779999999,1.0,0.7182656940000001,1.0,0.36228040899999997,False,,5aa308f0b5e2110001c71eb5,,1175973,79,,evan-feature22,full_pf_b,,0
50,23134,80,,,,2,2,1.0,0.0,0.0,1.0,,0.0-77.0,,0.0,1636.3,0.0,0.37675460299999997,1.0,0.703250285,1.0,0.75,0.0,0.461979164,False,,5aa308f0b5e2110001c71eb5,,1187394,80,,evan-feature22,full_pf_b,,0
51,23135,81,,,,2,2,0.0,0.0,0.0,1.0,,0.0-78.0,,0.0,648.86,1.0,0.398716075,1.0,0.6723864890000001,0.0,0.674153818,0.0,0.519029516,False,,5aa308f0b5e2110001c71eb5,,1197832,81,,evan-feature22,full_pf_b,,0
52,23136,82,,,,SLOW,SLOW,,,-1.0,0.0,,0.0-79.0,,-3.0,,0.0,0.34677856700000004,1.0,0.69057175,1.0,0.6822438540000001,1.0,0.477292237,False,,5aa308f0b5e2110001c71eb5,,1203650,82,,evan-feature22,full_pf_b,,1
53,23137,83,,,,2,2,1.0,0.0,0.0,1.0,,0.0-80.0,,0.0,600.28,0.0,0.28580469199999997,1.0,0.68408818,1.0,0.684207565,0.0,0.49780448299999996,False,,5aa308f0b5e2110001c71eb5,,1214041,83,,evan-feature22,full_pf_b,,1
54,23139,85,,,,2,2,1.0,0.0,-1.0,0.0,,0.0-82.0,,-1.0,1039.05,0.0,0.25,1.0,0.7405808970000001,1.0,0.679614108,0.0,0.436436964,False,,5aa308f0b5e2110001c71eb5,,1227790,85,,evan-feature22,full_pf_b,,0
55,23140,86,,,,2,2,1.0,1.0,0.0,1.0,,0.0-83.0,,1.0,1500.92,0.0,0.29890393,1.0,0.730505706,1.0,0.7328203320000001,1.0,0.439256938,False,,5aa308f0b5e2110001c71eb5,,1239076,86,,evan-feature22,full_pf_b,,0
56,23141,87,,,,2,2,1.0,1.0,-1.0,0.0,,0.0-84.0,,-1.0,880.185,0.0,0.326762398,1.0,0.7148059609999999,1.0,0.75,1.0,0.44389608799999997,False,,5aa308f0b5e2110001c71eb5,,1249746,87,,evan-feature22,full_pf_b,,0
57,23142,88,,,,2,2,1.0,1.0,-1.0,0.0,,0.0-85.0,,-1.0,881.305,0.0,0.295168515,1.0,0.739760854,1.0,0.719947008,1.0,0.35277284600000003,False,,5aa308f0b5e2110001c71eb5,,1260416,88,,evan-feature22,full_pf_b,,0
58,23143,89,,,,2,2,1.0,0.0,-1.0,0.0,,0.0-86.0,,-1.0,906.615,0.0,0.25,0.0,0.70781482,1.0,0.75,0.0,0.286095925,False,,5aa308f0b5e2110001c71eb5,,1271108,89,,evan-feature22,full_pf_b,,0
59,23144,90,,,,2,2,0.0,0.0,0.0,1.0,,0.0-87.0,,0.0,1867.43,0.0,0.25638190899999996,1.0,0.704088163,0.0,0.75,0.0,0.26872601399999996,False,,5aa308f0b5e2110001c71eb5,,1282753,90,,evan-feature22,full_pf_b,,0
60,23145,91,,,,2,2,1.0,0.0,0.0,1.0,,0.0-88.0,,0.0,1401.68,0.0,0.271581126,1.0,0.669760107,1.0,0.733896663,0.0,0.273244572,False,,5aa308f0b5e2110001c71eb5,,1293942,91,,evan-feature22,full_pf_b,,0
61,23146,92,,,,2,2,1.0,0.0,0.0,1.0,,0.0-89.0,,0.0,2168.13,0.0,0.257144401,1.0,0.600575706,1.0,0.74488122,0.0,0.25,False,,5aa308f0b5e2110001c71eb5,,1305903,92,,evan-feature22,full_pf_b,,0
62,23147,93,,,,1,1,0.0,1.0,-1.0,0.0,,0.0-90.0,,0.0,663.52,0.0,0.25,1.0,0.616870026,1.0,0.723610234,0.0,0.25,False,,5aa308f0b5e2110001c71eb5,,1316349,93,,evan-feature22,full_pf_b,,1
63,23148,94,,,,1,1,0.0,0.0,0.0,1.0,,0.0-91.0,,0.0,1855.895,0.0,0.25,0.0,0.583540187,1.0,0.7041042559999999,1.0,0.285961995,False,,5aa308f0b5e2110001c71eb5,,1327980,94,,evan-feature22,full_pf_b,,0
64,23149,95,,,,1,1,0.0,1.0,-1.0,0.0,,0.0-92.0,,0.0,1347.4,0.0,0.27254536,1.0,0.53875765,1.0,0.693783448,0.0,0.284961652,False,,5aa308f0b5e2110001c71eb5,,1339104,95,,evan-feature22,full_pf_b,,0
65,23150,96,,,,1,1,0.0,1.0,0.0,1.0,,0.0-93.0,,1.0,715.9,0.0,0.25,1.0,0.548431252,0.0,0.734221895,1.0,0.279445214,False,,5aa308f0b5e2110001c71eb5,,1349605,96,,evan-feature22,full_pf_b,,0
66,23151,97,,,,1,1,0.0,1.0,-1.0,0.0,,0.0-94.0,,0.0,1374.235,0.0,0.258640684,1.0,0.545878066,1.0,0.725245965,0.0,0.31487537,False,,5aa308f0b5e2110001c71eb5,,1360765,97,,evan-feature22,full_pf_b,,0
67,23152,98,,,,1,1,0.0,0.0,-1.0,0.0,,0.0-95.0,,0.0,413.735,0.0,0.251103711,0.0,0.5776290629999999,0.0,0.696320133,0.0,0.317831047,False,,5aa308f0b5e2110001c71eb5,,1370960,98,,evan-feature22,full_pf_b,,0
68,23153,99,,,,1,1,0.0,1.0,-1.0,0.0,,0.0-96.0,,0.0,1045.09,0.0,0.276630292,1.0,0.617329858,1.0,0.73838088,1.0,0.261471582,False,,5aa308f0b5e2110001c71eb5,,1381791,99,,evan-feature22,full_pf_b,,0
69,23154,100,,,,1,1,0.0,0.0,0.0,1.0,,0.0-97.0,,0.0,2175.795,0.0,0.297716424,0.0,0.618863717,1.0,0.7402358259999999,0.0,0.262600834,False,,5aa308f0b5e2110001c71eb5,,1393750,100,,evan-feature22,full_pf_b,,0
70,23155,101,,,,1,1,1.0,0.0,-1.0,0.0,,0.0-98.0,,-1.0,1988.635,1.0,0.290935512,0.0,0.695370945,1.0,0.706570507,0.0,0.280030553,False,,5aa308f0b5e2110001c71eb5,,1405530,101,,evan-feature22,full_pf_b,,0
71,23156,102,,,,2,2,1.0,0.0,-1.0,0.0,,0.0-99.0,,-1.0,1490.46,0.0,0.25,1.0,0.6465277079999999,1.0,0.67766682,0.0,0.25,False,,5aa308f0b5e2110001c71eb5,,1416809,102,,evan-feature22,full_pf_b,,1
72,23157,103,,,,1,1,0.0,0.0,-1.0,0.0,,0.0-100.0,,0.0,471.885,0.0,0.26463816,0.0,0.636100213,0.0,0.646048507,1.0,0.265607101,False,,5aa308f0b5e2110001c71eb5,,1427069,103,,evan-feature22,full_pf_b,,1
73,23158,104,,,,1,1,0.0,0.0,-1.0,0.0,,0.0-101.0,,0.0,836.38,0.0,0.314340707,0.0,0.667795927,0.0,0.613630805,0.0,0.25,False,,5aa308f0b5e2110001c71eb5,,1437695,104,,evan-feature22,full_pf_b,,0
74,23159,105,,,,1,1,0.0,0.0,-1.0,0.0,,0.0-102.0,,0.0,512.775,0.0,0.28685784,0.0,0.6622549529999999,1.0,0.652154117,0.0,0.25,False,,5aa308f0b5e2110001c71eb5,,1447986,105,,evan-feature22,full_pf_b,,0
75,23160,106,,,,1,1,0.0,1.0,0.0,1.0,,0.0-103.0,,1.0,2208.43,0.0,0.304106554,1.0,0.631289538,1.0,0.707041942,1.0,0.29314237,False,,5aa308f0b5e2110001c71eb5,,1459977,106,,evan-feature22,full_pf_b,,0
76,23161,107,,,,1,1,0.0,1.0,0.0,1.0,,0.0-104.0,,1.0,1136.51,0.0,0.304806932,1.0,0.571167718,1.0,0.680472346,0.0,0.25,False,,5aa308f0b5e2110001c71eb5,,1470903,107,,evan-feature22,full_pf_b,,0
77,23162,108,,,,1,1,1.0,1.0,0.0,1.0,,0.0-105.0,,1.0,593.3,1.0,0.37919861,1.0,0.5724849710000001,1.0,0.705638003,0.0,0.30179300600000003,False,,5aa308f0b5e2110001c71eb5,,1481277,108,,evan-feature22,full_pf_b,,0
78,23163,109,,,,1,1,1.0,0.0,0.0,1.0,,0.0-106.0,,0.0,745.645,1.0,0.464277969,0.0,0.554034373,1.0,0.7372627340000001,0.0,0.264699741,False,,5aa308f0b5e2110001c71eb5,,1491806,109,,evan-feature22,full_pf_b,,0
79,23164,110,,,,1,1,0.0,1.0,-1.0,0.0,,0.0-107.0,,0.0,520.03,0.0,0.465104323,1.0,0.530793115,1.0,0.75,0.0,0.31683071,False,,5aa308f0b5e2110001c71eb5,,1502107,110,,evan-feature22,full_pf_b,,0
80,23165,111,,,,1,1,0.0,1.0,0.0,1.0,,0.0-108.0,,1.0,579.585,0.0,0.465104323,1.0,0.530793115,1.0,0.75,1.0,0.31683071,False,,5aa308f0b5e2110001c71eb5,,1512479,111,,evan-feature22,full_pf_b,,0
81,23166,112,,,,1,1,1.0,0.0,0.0,1.0,,0.0-109.0,,0.0,765.46,1.0,0.46833986,0.0,0.570249239,1.0,0.7244472590000001,0.0,0.364114163,False,,5aa308f0b5e2110001c71eb5,,1523038,112,,evan-feature22,full_pf_b,,0
82,23167,113,,,,1,1,0.0,0.0,0.0,1.0,,0.0-110.0,,0.0,2847.115,0.0,0.445444024,0.0,0.649673355,0.0,0.6845441290000001,1.0,0.300660449,False,,5aa308f0b5e2110001c71eb5,,1535666,113,,evan-feature22,full_pf_b,,0
83,23168,114,,,,1,1,1.0,0.0,0.0,1.0,,0.0-111.0,,0.0,1163.575,1.0,0.39909721299999995,0.0,0.6715179509999999,0.0,0.742310028,1.0,0.35496088299999995,False,,5aa308f0b5e2110001c71eb5,,1546618,114,,evan-feature22,full_pf_b,,0
84,23169,115,,,,1,1,0.0,1.0,0.0,1.0,,0.0-112.0,,1.0,508.87,0.0,0.37956104799999996,1.0,0.694725302,1.0,0.7181651309999999,1.0,0.38726906299999997,False,,5aa308f0b5e2110001c71eb5,,1556912,115,,evan-feature22,full_pf_b,,0
85,23170,116,,,,1,1,1.0,0.0,0.0,1.0,,0.0-113.0,,0.0,537.9,1.0,0.404995034,0.0,0.724375412,1.0,0.6910946859999999,0.0,0.387187347,False,,5aa308f0b5e2110001c71eb5,,1567234,116,,evan-feature22,full_pf_b,,0
86,23171,117,,,,1,1,1.0,1.0,0.0,1.0,,0.0-114.0,,1.0,639.89,1.0,0.461740803,1.0,0.75,1.0,0.75,0.0,0.34872038200000005,False,,5aa308f0b5e2110001c71eb5,,1577650,117,,evan-feature22,full_pf_b,,0
87,23172,118,,,,1,1,0.0,1.0,-1.0,0.0,,0.0-115.0,,0.0,642.35,0.0,0.43821380600000004,1.0,0.738833273,1.0,0.728286963,0.0,0.399538128,False,,5aa308f0b5e2110001c71eb5,,1588074,118,,evan-feature22,full_pf_b,,0
88,23173,119,,,,1,1,1.0,1.0,0.0,1.0,,0.0-116.0,,1.0,328.335,1.0,0.41709882,1.0,0.736666736,1.0,0.75,0.0,0.389095584,False,,5aa308f0b5e2110001c71eb5,,1598178,119,,evan-feature22,full_pf_b,,0
89,23174,120,,,,1,1,0.0,0.0,0.0,1.0,,0.0-117.0,,0.0,902.65,0.0,0.39749009799999996,0.0,0.744320029,1.0,0.75,1.0,0.363848678,False,,5aa308f0b5e2110001c71eb5,,1608864,120,,evan-feature22,full_pf_b,,0
90,23175,121,,,,1,1,0.0,1.0,-1.0,0.0,,0.0-118.0,,0.0,747.975,0.0,0.392653706,1.0,0.75,1.0,0.75,1.0,0.384386976,False,,5aa308f0b5e2110001c71eb5,,1619387,121,,evan-feature22,full_pf_b,,0
91,23176,122,,,,1,1,1.0,0.0,-1.0,0.0,,0.0-119.0,,-1.0,1012.235,1.0,0.31190902600000003,0.0,0.75,1.0,0.732413819,0.0,0.413082932,False,,5aa308f0b5e2110001c71eb5,,1630192,122,,evan-feature22,full_pf_b,,0
92,23177,123,,,,1,1,0.0,1.0,0.0,1.0,,0.0-120.0,,1.0,663.8,0.0,0.366917648,1.0,0.740073855,1.0,0.75,0.0,0.352861979,False,,5aa308f0b5e2110001c71eb5,,1640639,123,,evan-feature22,full_pf_b,,0
93,23178,124,,,,1,1,0.0,1.0,0.0,1.0,,0.0-121.0,,1.0,703.385,0.0,0.3645172,1.0,0.721770713,1.0,0.75,0.0,0.404074511,False,,5aa308f0b5e2110001c71eb5,,1651128,124,,evan-feature22,full_pf_b,,0
94,23179,125,,,,1,1,0.0,0.0,0.0,1.0,,0.0-122.0,,0.0,932.335,0.0,0.35205600299999995,0.0,0.68983859,0.0,0.739735447,1.0,0.366895945,False,,5aa308f0b5e2110001c71eb5,,1661846,125,,evan-feature22,full_pf_b,,0
95,23180,126,,,,1,1,1.0,1.0,0.0,1.0,,0.0-123.0,,1.0,792.21,1.0,0.40998722600000004,1.0,0.720859127,1.0,0.673854955,0.0,0.368528541,False,,5aa308f0b5e2110001c71eb5,,1672424,126,,evan-feature22,full_pf_b,,0
96,23181,127,,,,1,1,1.0,1.0,-1.0,0.0,,0.0-124.0,,-1.0,477.585,1.0,0.353625316,1.0,0.75,1.0,0.695605473,1.0,0.38303674200000004,False,,5aa308f0b5e2110001c71eb5,,1682678,127,,evan-feature22,full_pf_b,,0
97,23182,128,,,,1,1,0.0,1.0,0.0,1.0,,0.0-125.0,,1.0,884.485,0.0,0.359216989,1.0,0.75,1.0,0.6987915090000001,1.0,0.35169046200000004,False,,5aa308f0b5e2110001c71eb5,,1693347,128,,evan-feature22,full_pf_b,,0
98,23183,129,,,,1,1,0.0,1.0,-1.0,0.0,,0.0-126.0,,0.0,1114.325,0.0,0.35834496899999996,1.0,0.75,1.0,0.707067742,0.0,0.416763636,False,,5aa308f0b5e2110001c71eb5,,1704251,129,,evan-feature22,full_pf_b,,0
99,23184,130,,,,1,1,0.0,1.0,-1.0,0.0,,0.0-127.0,,0.0,554.145,0.0,0.38741613799999997,1.0,0.7177369570000001,1.0,0.734902455,0.0,0.49438664299999996,False,,5aa308f0b5e2110001c71eb5,,1714588,130,,evan-feature22,full_pf_b,,0
100,23185,131,,,,1,1,1.0,1.0,0.0,1.0,,0.0-128.0,,1.0,573.685,1.0,0.405255252,1.0,0.7300466640000001,1.0,0.7027748070000001,0.0,0.504359668,False,,5aa308f0b5e2110001c71eb5,,1724947,131,,evan-feature22,full_pf_b,,0
101,23186,132,,,,1,1,0.0,0.0,0.0,1.0,,0.0-129.0,,0.0,992.72,0.0,0.40697073,0.0,0.7260142190000001,1.0,0.724461982,1.0,0.522779179,False,,5aa308f0b5e2110001c71eb5,,1735728,132,,evan-feature22,full_pf_b,,0
102,23187,133,,,,1,1,0.0,0.0,0.0,1.0,,0.0-130.0,,0.0,425.03,0.0,0.43906215299999996,0.0,0.7252802340000001,1.0,0.719079934,1.0,0.5712990579999999,False,,5aa308f0b5e2110001c71eb5,,1745935,133,,evan-feature22,full_pf_b,,0
103,23188,134,,,,1,1,0.0,1.0,0.0,1.0,,0.0-131.0,,1.0,887.205,0.0,0.4076705,1.0,0.73280499,1.0,0.681313127,0.0,0.523891346,False,,5aa308f0b5e2110001c71eb5,,1756609,134,,evan-feature22,full_pf_b,,0
104,23189,135,,,,1,1,1.0,1.0,0.0,1.0,,0.0-132.0,,1.0,922.335,1.0,0.399102911,1.0,0.730498344,0.0,0.661080239,0.0,0.46742603,False,,5aa308f0b5e2110001c71eb5,,1767307,135,,evan-feature22,full_pf_b,,0
105,23190,136,,,,1,1,0.0,0.0,-1.0,0.0,,0.0-133.0,,0.0,748.57,0.0,0.356477282,0.0,0.712296395,0.0,0.641812684,1.0,0.44868414,False,,5aa308f0b5e2110001c71eb5,,1777837,136,,evan-feature22,full_pf_b,,0
106,23191,137,,,,1,1,0.0,1.0,0.0,1.0,,0.0-134.0,,1.0,675.425,0.0,0.462760722,1.0,0.692349322,1.0,0.700947931,1.0,0.394680266,False,,5aa308f0b5e2110001c71eb5,,1788294,137,,evan-feature22,full_pf_b,,0
107,23192,138,,,,1,1,0.0,0.0,0.0,1.0,,0.0-135.0,,0.0,2296.335,0.0,0.422306413,0.0,0.718375916,1.0,0.706340917,1.0,0.367787185,False,,5aa308f0b5e2110001c71eb5,,1800376,138,,evan-feature22,full_pf_b,,0
108,23194,140,,,,1,1,0.0,0.0,0.0,1.0,,0.0-137.0,,0.0,1274.915,0.0,0.4582233,0.0,0.643834117,1.0,0.75,1.0,0.39615823299999997,False,,5aa308f0b5e2110001c71eb5,,1814815,140,,evan-feature22,full_pf_b,,0
109,23195,141,,,,1,1,1.0,1.0,0.0,1.0,,0.0-138.0,,1.0,474.61,1.0,0.43813437899999996,1.0,0.651283804,1.0,0.729674191,1.0,0.37711048,False,,5aa308f0b5e2110001c71eb5,,1825068,141,,evan-feature22,full_pf_b,,0
110,23196,142,,,,1,1,1.0,0.0,0.0,1.0,,0.0-139.0,,0.0,459.59,1.0,0.471199094,0.0,0.6470010979999999,1.0,0.715008097,1.0,0.410656191,False,,5aa308f0b5e2110001c71eb5,,1835312,142,,evan-feature22,full_pf_b,,0
111,23197,143,,,,1,1,1.0,1.0,-1.0,0.0,,0.0-140.0,,-1.0,477.99,1.0,0.42486406,1.0,0.629771829,1.0,0.6550939960000001,0.0,0.459093873,False,,5aa308f0b5e2110001c71eb5,,1845571,143,,evan-feature22,full_pf_b,,0
112,23198,144,,,,1,1,0.0,0.0,-1.0,0.0,,0.0-141.0,,0.0,534.415,0.0,0.4803197,0.0,0.645842715,1.0,0.6421749920000001,1.0,0.443092151,False,,5aa308f0b5e2110001c71eb5,,1855891,144,,evan-feature22,full_pf_b,,0
113,23199,145,,,,1,1,0.0,1.0,-1.0,0.0,,0.0-142.0,,0.0,899.645,0.0,0.521848997,1.0,0.735801074,0.0,0.6691348460000001,0.0,0.45259351600000003,False,,5aa308f0b5e2110001c71eb5,,1866572,145,,evan-feature22,full_pf_b,,0
114,23200,146,,,,1,1,1.0,1.0,0.0,1.0,,0.0-143.0,,1.0,1597.155,1.0,0.49565621299999996,1.0,0.742400847,1.0,0.661512553,0.0,0.483110831,False,,5aa308f0b5e2110001c71eb5,,1877947,146,,evan-feature22,full_pf_b,,0
115,23201,147,,,,1,1,1.0,0.0,-1.0,0.0,,0.0-144.0,,-1.0,979.1,1.0,0.521564361,0.0,0.731078632,1.0,0.6774886809999999,0.0,0.483263956,False,,5aa308f0b5e2110001c71eb5,,1888710,147,,evan-feature22,full_pf_b,,0
116,23202,148,,,,1,1,1.0,1.0,-1.0,0.0,,0.0-145.0,,-1.0,1341.25,1.0,0.558893102,1.0,0.719810023,1.0,0.67461031,1.0,0.499349834,False,,5aa308f0b5e2110001c71eb5,,1899830,148,,evan-feature22,full_pf_b,,0
117,23203,149,,,,1,1,1.0,1.0,0.0,1.0,,0.0-146.0,,1.0,409.03,1.0,0.611031046,1.0,0.75,0.0,0.688072995,0.0,0.5321422729999999,False,,5aa308f0b5e2110001c71eb5,,1910021,149,,evan-feature22,full_pf_b,,0
118,23204,150,,,,1,1,0.0,1.0,-1.0,0.0,,0.0-147.0,,0.0,390.985,0.0,0.633223941,1.0,0.713567728,1.0,0.75,1.0,0.48185314700000004,False,,5aa308f0b5e2110001c71eb5,,1920195,150,,evan-feature22,full_pf_b,,0
119,23205,151,,,,1,1,1.0,1.0,-1.0,0.0,,0.0-148.0,,-1.0,440.945,1.0,0.664001694,1.0,0.705509768,1.0,0.75,0.0,0.500211065,False,,5aa308f0b5e2110001c71eb5,,1930423,151,,evan-feature22,full_pf_b,,0
120,23206,152,,,,1,1,1.0,0.0,0.0,1.0,,0.0-149.0,,0.0,1095.06,1.0,0.664001694,0.0,0.705509768,1.0,0.75,1.0,0.500211065,False,,5aa308f0b5e2110001c71eb5,,1941302,152,,evan-feature22,full_pf_b,,0
121,23207,153,,,,1,1,1.0,0.0,0.0,1.0,,0.0-150.0,,0.0,989.58,1.0,0.696508041,0.0,0.71066027,1.0,0.717028709,1.0,0.49792991,False,,5aa308f0b5e2110001c71eb5,,1952080,153,,evan-feature22,full_pf_b,,0
122,23208,154,,,,1,1,1.0,0.0,-1.0,0.0,,0.0-151.0,,-1.0,2391.505,1.0,0.699883272,0.0,0.75,0.0,0.713543895,1.0,0.496962643,False,,5aa308f0b5e2110001c71eb5,,1964257,154,,evan-feature22,full_pf_b,,0
123,23209,155,,,,1,1,1.0,0.0,0.0,1.0,,0.0-152.0,,0.0,2601.15,1.0,0.741163419,0.0,0.75,0.0,0.64691024,1.0,0.513858197,False,,5aa308f0b5e2110001c71eb5,,1976649,155,,evan-feature22,full_pf_b,,0
124,23210,156,,,,1,1,1.0,1.0,-1.0,0.0,,0.0-153.0,,-1.0,1633.8,1.0,0.75,1.0,0.70816558,1.0,0.594499079,0.0,0.48502124,False,,5aa308f0b5e2110001c71eb5,,1988065,156,,evan-feature22,full_pf_b,,0
125,23211,157,,,,1,1,1.0,1.0,0.0,1.0,,0.0-154.0,,1.0,1903.31,1.0,0.75,1.0,0.721848901,1.0,0.62197249,0.0,0.48263586399999997,False,,5aa308f0b5e2110001c71eb5,,1999753,157,,evan-feature22,full_pf_b,,0
126,23212,158,,,,1,1,1.0,0.0,-1.0,0.0,,0.0-155.0,,-1.0,627.145,1.0,0.75,0.0,0.74813071,1.0,0.584357161,1.0,0.411477782,False,,5aa308f0b5e2110001c71eb5,,2010167,158,,evan-feature22,full_pf_b,,0
127,23213,159,,,,1,1,0.0,1.0,0.0,1.0,,0.0-156.0,,1.0,911.005,0.0,0.75,1.0,0.75,1.0,0.52287236,1.0,0.488290656,False,,5aa308f0b5e2110001c71eb5,,2020865,159,,evan-feature22,full_pf_b,,0
128,23214,160,,,,1,1,1.0,1.0,0.0,1.0,,0.0-157.0,,1.0,396.345,1.0,0.75,1.0,0.75,1.0,0.544321581,0.0,0.53143059,False,,5aa308f0b5e2110001c71eb5,,2031048,160,,evan-feature22,full_pf_b,,0
129,23215,161,,,,1,1,1.0,0.0,0.0,1.0,,0.0-158.0,,0.0,352.93,1.0,0.726754564,0.0,0.75,1.0,0.5129306370000001,0.0,0.530592445,False,,5aa308f0b5e2110001c71eb5,,2041188,161,,evan-feature22,full_pf_b,,0
130,23216,162,,,,1,1,1.0,1.0,-1.0,0.0,,0.0-159.0,,-1.0,1481.03,1.0,0.75,1.0,0.7392590729999999,1.0,0.479875835,1.0,0.547007051,False,,5aa308f0b5e2110001c71eb5,,2052457,162,,evan-feature22,full_pf_b,,0
131,23217,163,,,,SLOW,SLOW,,,-1.0,0.0,,0.0-160.0,,-3.0,,1.0,0.75,1.0,0.7393376979999999,1.0,0.546045419,1.0,0.541267353,False,,5aa308f0b5e2110001c71eb5,,2058277,163,,evan-feature22,full_pf_b,,1
132,23218,164,,,,2,2,1.0,0.0,-1.0,0.0,,0.0-161.0,,-1.0,3785.605,0.0,0.75,1.0,0.75,1.0,0.485725895,0.0,0.527625395,False,,5aa308f0b5e2110001c71eb5,,2071839,164,,evan-feature22,full_pf_b,,1
133,23219,165,,,,1,1,0.0,0.0,0.0,1.0,,0.0-162.0,,0.0,1521.27,0.0,0.75,0.0,0.725087974,1.0,0.488603595,0.0,0.504019206,False,,5aa308f0b5e2110001c71eb5,,2083140,165,,evan-feature22,full_pf_b,,1
134,23220,166,,,,1,1,0.0,0.0,0.0,1.0,,0.0-163.0,,0.0,1342.43,0.0,0.745504295,0.0,0.75,0.0,0.452379914,0.0,0.50131194,False,,5aa308f0b5e2110001c71eb5,,2094270,166,,evan-feature22,full_pf_b,,0
135,23221,167,,,,1,1,0.0,1.0,0.0,1.0,,0.0-164.0,,1.0,562.24,0.0,0.728513874,1.0,0.75,1.0,0.44125567200000004,1.0,0.531454591,False,,5aa308f0b5e2110001c71eb5,,2104622,167,,evan-feature22,full_pf_b,,0
136,23222,168,,,,1,1,1.0,0.0,-1.0,0.0,,0.0-165.0,,-1.0,1995.13,1.0,0.73790804,0.0,0.75,1.0,0.413036656,0.0,0.524619035,False,,5aa308f0b5e2110001c71eb5,,2116401,168,,evan-feature22,full_pf_b,,0
137,23223,169,,,,1,1,0.0,1.0,0.0,1.0,,0.0-166.0,,1.0,1145.37,0.0,0.7080961309999999,1.0,0.708666865,1.0,0.431915581,1.0,0.481819489,False,,5aa308f0b5e2110001c71eb5,,2127330,169,,evan-feature22,full_pf_b,,0
138,23224,170,,,,1,1,1.0,1.0,0.0,1.0,,0.0-167.0,,1.0,925.39,1.0,0.721378003,1.0,0.71605913,1.0,0.36642387,1.0,0.5036739929999999,False,,5aa308f0b5e2110001c71eb5,,2138047,170,,evan-feature22,full_pf_b,,0
139,23225,171,,,,1,1,1.0,1.0,0.0,1.0,,0.0-168.0,,1.0,974.04,1.0,0.7340618959999999,1.0,0.699323252,0.0,0.35298046299999997,1.0,0.511241692,False,,5aa308f0b5e2110001c71eb5,,2148806,171,,evan-feature22,full_pf_b,,0
140,23226,172,,,,2,2,0.0,0.0,-1.0,0.0,,0.0-169.0,,0.0,2133.27,1.0,0.75,1.0,0.70412698,0.0,0.380734814,0.0,0.529580116,False,,5aa308f0b5e2110001c71eb5,,2160726,172,,evan-feature22,full_pf_b,,1
141,23227,173,,,,1,1,1.0,1.0,0.0,1.0,,0.0-170.0,,1.0,959.585,1.0,0.7436654909999999,1.0,0.711182751,0.0,0.41125331,1.0,0.49554405,False,,5aa308f0b5e2110001c71eb5,,2171465,173,,evan-feature22,full_pf_b,,1
142,23228,174,,,,1,1,1.0,0.0,0.0,1.0,,0.0-171.0,,0.0,1459.2,1.0,0.731607915,0.0,0.651774583,1.0,0.35688023,0.0,0.45194491600000003,False,,5aa308f0b5e2110001c71eb5,,2182714,174,,evan-feature22,full_pf_b,,0
143,23229,175,,,,2,2,0.0,1.0,-1.0,0.0,,0.0-172.0,,0.0,1847.81,1.0,0.75,1.0,0.75,0.0,0.283145374,1.0,0.528608005,False,,5aa308f0b5e2110001c71eb5,,2194343,175,,evan-feature22,full_pf_b,,1
144,23230,176,,,,2,2,0.0,1.0,-1.0,0.0,,0.0-173.0,,0.0,1908.775,0.0,0.7491416890000001,0.0,0.7423785959999999,0.0,0.29135870399999997,1.0,0.498888318,False,,5aa308f0b5e2110001c71eb5,,2206032,176,,evan-feature22,full_pf_b,,0
145,23231,177,,,,2,2,0.0,1.0,-1.0,0.0,,0.0-174.0,,0.0,1976.195,1.0,0.708569387,1.0,0.717682277,0.0,0.294421699,1.0,0.493838163,False,,5aa308f0b5e2110001c71eb5,,2217792,177,,evan-feature22,full_pf_b,,0
146,23232,178,,,,1,1,1.0,1.0,0.0,1.0,,0.0-175.0,,1.0,765.27,1.0,0.75,1.0,0.7383382159999999,1.0,0.356098707,1.0,0.442533405,False,,5aa308f0b5e2110001c71eb5,,2228334,178,,evan-feature22,full_pf_b,,1
147,23233,179,,,,1,1,1.0,1.0,0.0,1.0,,0.0-176.0,,1.0,1102.94,1.0,0.744527075,1.0,0.75,1.0,0.334127506,0.0,0.393165805,False,,5aa308f0b5e2110001c71eb5,,2239225,179,,evan-feature22,full_pf_b,,0
148,23234,180,,,,1,1,1.0,1.0,0.0,1.0,,0.0-177.0,,1.0,857.18,1.0,0.75,1.0,0.75,0.0,0.33571021799999995,0.0,0.350393962,False,,5aa308f0b5e2110001c71eb5,,2249867,180,,evan-feature22,full_pf_b,,0
149,23235,181,,,,1,1,1.0,1.0,0.0,1.0,,0.0-178.0,,1.0,746.89,1.0,0.75,1.0,0.75,0.0,0.313628297,1.0,0.36349657399999996,False,,5aa308f0b5e2110001c71eb5,,2260389,181,,evan-feature22,full_pf_b,,0
150,23236,182,,,,2,2,0.0,0.0,-1.0,0.0,,0.0-179.0,,0.0,1413.11,0.0,0.75,1.0,0.734284182,0.0,0.262667667,0.0,0.380199119,False,,5aa308f0b5e2110001c71eb5,,2271589,182,,evan-feature22,full_pf_b,,1
151,23237,183,,,,1,1,1.0,1.0,0.0,1.0,,0.0-180.0,,1.0,882.885,1.0,0.75,1.0,0.75,1.0,0.25,1.0,0.394494013,False,,5aa308f0b5e2110001c71eb5,,2282258,183,,evan-feature22,full_pf_b,,1
152,23238,184,,,,2,2,0.0,1.0,-1.0,0.0,,0.0-181.0,,0.0,1291.255,0.0,0.722298145,1.0,0.7357822340000001,0.0,0.25,1.0,0.319142121,False,,5aa308f0b5e2110001c71eb5,,2293331,184,,evan-feature22,full_pf_b,,1
153,23239,185,,,,2,2,0.0,1.0,-1.0,0.0,,0.0-182.0,,0.0,1499.095,1.0,0.73149275,1.0,0.724276446,0.0,0.305856907,1.0,0.281315057,False,,5aa308f0b5e2110001c71eb5,,2304604,185,,evan-feature22,full_pf_b,,0
154,23240,186,,,,1,1,0.0,1.0,0.0,1.0,,0.0-183.0,,1.0,930.095,0.0,0.7458732690000001,1.0,0.7336382459999999,0.0,0.272571964,0.0,0.266021999,False,,5aa308f0b5e2110001c71eb5,,2315321,186,,evan-feature22,full_pf_b,,1
155,23241,187,,,,1,1,0.0,1.0,0.0,1.0,,0.0-184.0,,1.0,715.565,0.0,0.705579037,1.0,0.720778292,0.0,0.320238144,0.0,0.30971744,False,,5aa308f0b5e2110001c71eb5,,2325822,187,,evan-feature22,full_pf_b,,0
156,23242,188,,,,1,1,1.0,0.0,0.0,1.0,,0.0-185.0,,0.0,1205.28,1.0,0.700425648,0.0,0.7198784009999999,1.0,0.272590393,0.0,0.304182931,False,,5aa308f0b5e2110001c71eb5,,2336813,188,,evan-feature22,full_pf_b,,0
157,23243,189,,,,1,1,1.0,1.0,0.0,1.0,,0.0-186.0,,1.0,985.52,1.0,0.735590785,1.0,0.722714973,0.0,0.25,0.0,0.323421091,False,,5aa308f0b5e2110001c71eb5,,2347583,189,,evan-feature22,full_pf_b,,0
158,23244,190,,,,1,1,1.0,1.0,0.0,1.0,,0.0-187.0,,1.0,1449.955,1.0,0.724807662,1.0,0.63146213,0.0,0.36836492600000004,0.0,0.34592153299999995,False,,5aa308f0b5e2110001c71eb5,,2358815,190,,evan-feature22,full_pf_b,,0
159,23245,191,,,,1,1,1.0,0.0,0.0,1.0,,0.0-188.0,,0.0,798.66,1.0,0.7352796909999999,0.0,0.555111392,0.0,0.36003922,0.0,0.31433779999999995,False,,5aa308f0b5e2110001c71eb5,,2369394,191,,evan-feature22,full_pf_b,,0
160,23246,192,notice,,,,,,,,,,0.0-189.0,"{""Q0"":""no""}",,6926.0,,,,,,,,,False,,5aa308f0b5e2110001c71eb5,,2376322,192,Q,survey-text,full_pf_b,,1
161,23247,193,track1,,[0],,,,,,,,0.0-190.0,"{""Q0"":""yes""}",,5246.0,,,,,,,,,False,,5aa308f0b5e2110001c71eb5,,2381574,193,Q,evan-quiz,full_pf_b,,1
162,23248,194,track2,,[1],,,,,,,,0.0-191.0,"{""Q0"":""no""}",,13362.0,,,,,,,,,False,,5aa308f0b5e2110001c71eb5,,2394944,194,Q,evan-quiz,full_pf_b,,1
163,23249,195,strat,,,,,,,,,,0.0-192.0,"{""Q0"":""no strategy""}",,8119.0,,,,,,,,,False,,5aa308f0b5e2110001c71eb5,,2403072,195,Q,survey-text,full_pf_b,,1
