,index,Unnamed: 0,Q_name,button_pressed,choice_idxs,chosen_pos,chosen_state,chosen_state_f_1_outcome,chosen_state_f_2_outcome,f_1_reward,f_2_reward,incor_questions,internal_node_id,responses,reward_received,rt,s_1_f_1_outcome,s_1_f_1_prob,s_1_f_2_outcome,s_1_f_2_prob,s_2_f_1_outcome,s_2_f_1_prob,s_2_f_2_outcome,s_2_f_2_prob,safe_first,stimulus,subjectID,success,time_elapsed,trial_index,trial_num,trial_type,version,view_history,switching
0,42472,25,,,,1,1,1.0,0.0,0.0,-1.0,,0.0-27.0,,0.0,580.845,1.0,0.6,0.0,0.6,1.0,0.4,0.0,0.4,False,,5ecbb58e19906d745d70c399,,771858,25,,evan-feature22,full_pf_a,,0
1,42473,26,,,,2,2,0.0,1.0,0.0,-1.0,,0.0-28.0,,-1.0,537.405,1.0,0.608053294,1.0,0.63424552,0.0,0.397152172,1.0,0.347069101,False,,5ecbb58e19906d745d70c399,,782164,26,,evan-feature22,full_pf_a,,1
2,42474,27,,,,1,1,0.0,1.0,0.0,-1.0,,0.0-29.0,,-1.0,420.015,0.0,0.642237155,1.0,0.648566321,1.0,0.389407674,1.0,0.285525717,False,,5ecbb58e19906d745d70c399,,792347,27,,evan-feature22,full_pf_a,,1
3,42475,28,,,,1,1,1.0,0.0,0.0,-1.0,,0.0-30.0,,0.0,714.715,1.0,0.661086576,0.0,0.630492543,1.0,0.399058924,1.0,0.25,False,,5ecbb58e19906d745d70c399,,802823,28,,evan-feature22,full_pf_a,,0
4,42476,29,,,,1,1,0.0,0.0,0.0,-1.0,,0.0-31.0,,0.0,1296.575,0.0,0.631324137,0.0,0.6269842929999999,1.0,0.38734784299999997,0.0,0.25,False,,5ecbb58e19906d745d70c399,,813885,29,,evan-feature22,full_pf_a,,0
5,42477,30,,,,2,2,0.0,0.0,0.0,-1.0,,0.0-32.0,,0.0,1096.24,1.0,0.6381991370000001,1.0,0.68987999,0.0,0.384107265,0.0,0.271332943,False,,5ecbb58e19906d745d70c399,,824745,30,,evan-feature22,full_pf_a,,1
6,42478,31,,,,1,1,1.0,1.0,0.0,-1.0,,0.0-33.0,,-1.0,797.75,1.0,0.66034901,1.0,0.742641349,0.0,0.360225629,0.0,0.25,False,,5ecbb58e19906d745d70c399,,835307,31,,evan-feature22,full_pf_a,,1
7,42479,32,,,,2,2,0.0,0.0,1.0,0.0,,0.0-34.0,,0.0,1353.96,0.0,0.638612418,0.0,0.75,0.0,0.367273939,0.0,0.25,False,,5ecbb58e19906d745d70c399,,846425,32,,evan-feature22,full_pf_a,,1
8,42480,33,,,,SLOW,SLOW,,,0.0,-1.0,,0.0-35.0,,-3.0,,1.0,0.624340629,1.0,0.75,1.0,0.425829545,0.0,0.25,False,,5ecbb58e19906d745d70c399,,852238,33,,evan-feature22,full_pf_a,,1
9,42481,34,,,,1,1,0.0,1.0,0.0,-1.0,,0.0-36.0,,-1.0,699.145,0.0,0.621999804,1.0,0.75,1.0,0.368609357,1.0,0.25,False,,5ecbb58e19906d745d70c399,,862708,34,,evan-feature22,full_pf_a,,1
10,42482,35,,,,2,2,0.0,0.0,1.0,0.0,,0.0-37.0,,0.0,347.985,1.0,0.62666403,0.0,0.75,0.0,0.311151498,0.0,0.25,False,,5ecbb58e19906d745d70c399,,872819,35,,evan-feature22,full_pf_a,,1
11,42483,36,,,,2,2,0.0,1.0,1.0,0.0,,0.0-38.0,,0.0,516.08,0.0,0.6819650009999999,1.0,0.75,0.0,0.310763048,1.0,0.25,False,,5ecbb58e19906d745d70c399,,883103,36,,evan-feature22,full_pf_a,,0
12,42484,37,,,,2,2,1.0,0.0,0.0,-1.0,,0.0-39.0,,0.0,1008.015,0.0,0.740626951,0.0,0.75,1.0,0.25,0.0,0.25,False,,5ecbb58e19906d745d70c399,,893873,37,,evan-feature22,full_pf_a,,0
13,42485,38,,,,1,1,0.0,1.0,0.0,-1.0,,0.0-40.0,,-1.0,396.67,0.0,0.739599242,1.0,0.742034978,0.0,0.25397114600000004,1.0,0.25,False,,5ecbb58e19906d745d70c399,,904035,38,,evan-feature22,full_pf_a,,1
14,42486,39,,,,2,2,0.0,1.0,0.0,-1.0,,0.0-41.0,,-1.0,360.48,0.0,0.732341315,1.0,0.72735643,0.0,0.25,1.0,0.25,False,,5ecbb58e19906d745d70c399,,914162,39,,evan-feature22,full_pf_a,,1
15,42487,40,,,,1,1,1.0,0.0,0.0,-1.0,,0.0-42.0,,0.0,587.265,1.0,0.7062287770000001,0.0,0.75,0.0,0.29002151,0.0,0.288256649,False,,5ecbb58e19906d745d70c399,,924514,40,,evan-feature22,full_pf_a,,1
16,42488,41,,,,2,2,0.0,0.0,1.0,0.0,,0.0-43.0,,0.0,734.02,1.0,0.7086029209999999,1.0,0.75,0.0,0.274129113,0.0,0.262851608,False,,5ecbb58e19906d745d70c399,,935010,41,,evan-feature22,full_pf_a,,1
17,42489,42,,,,1,1,1.0,1.0,0.0,-1.0,,0.0-44.0,,-1.0,2573.795,1.0,0.669189651,1.0,0.727614338,0.0,0.298444036,0.0,0.296944518,False,,5ecbb58e19906d745d70c399,,947346,42,,evan-feature22,full_pf_a,,1
18,42490,43,,,,2,2,1.0,0.0,1.0,0.0,,0.0-45.0,,1.0,548.07,0.0,0.6819912929999999,1.0,0.7179434290000001,1.0,0.265003961,0.0,0.28157921199999997,False,,5ecbb58e19906d745d70c399,,957656,43,,evan-feature22,full_pf_a,,1
19,42491,44,,,,SLOW,SLOW,,,1.0,0.0,,0.0-46.0,,-3.0,,1.0,0.665275002,0.0,0.723065271,0.0,0.260414971,0.0,0.30973870000000003,False,,5ecbb58e19906d745d70c399,,963463,44,,evan-feature22,full_pf_a,,1
20,42492,45,,,,2,2,1.0,0.0,0.0,-1.0,,0.0-47.0,,0.0,2919.88,1.0,0.6660593260000001,1.0,0.728032907,1.0,0.30922817,0.0,0.338778608,False,,5ecbb58e19906d745d70c399,,976149,45,,evan-feature22,full_pf_a,,1
21,42493,46,,,,2,2,0.0,0.0,0.0,-1.0,,0.0-48.0,,0.0,384.11,1.0,0.702068785,1.0,0.6528750879999999,0.0,0.287329608,0.0,0.35789613200000003,False,,5ecbb58e19906d745d70c399,,986294,46,,evan-feature22,full_pf_a,,0
22,42494,47,,,,2,2,0.0,0.0,0.0,-1.0,,0.0-49.0,,0.0,579.005,1.0,0.651939787,1.0,0.636725589,0.0,0.284834488,0.0,0.358563756,False,,5ecbb58e19906d745d70c399,,996637,47,,evan-feature22,full_pf_a,,0
23,42495,48,,,,2,2,1.0,0.0,0.0,-1.0,,0.0-50.0,,0.0,665.185,1.0,0.67573929,1.0,0.612550049,1.0,0.37130387600000003,0.0,0.383542402,False,,5ecbb58e19906d745d70c399,,1007065,48,,evan-feature22,full_pf_a,,0
24,42496,49,,,,2,2,0.0,0.0,0.0,-1.0,,0.0-51.0,,0.0,3966.3,0.0,0.620753801,0.0,0.60513644,0.0,0.385529434,0.0,0.340361743,False,,5ecbb58e19906d745d70c399,,1020792,49,,evan-feature22,full_pf_a,,0
25,42497,50,,,,1,1,1.0,0.0,1.0,0.0,,0.0-52.0,,1.0,1094.355,1.0,0.673564893,0.0,0.672437924,1.0,0.292955382,1.0,0.337633795,False,,5ecbb58e19906d745d70c399,,1031650,50,,evan-feature22,full_pf_a,,1
26,42498,51,,,,1,1,1.0,0.0,0.0,-1.0,,0.0-53.0,,0.0,662.425,1.0,0.6749427,0.0,0.724197502,0.0,0.32391132100000003,1.0,0.350995264,False,,5ecbb58e19906d745d70c399,,1042072,51,,evan-feature22,full_pf_a,,0
27,42499,52,,,,1,1,1.0,1.0,0.0,-1.0,,0.0-54.0,,-1.0,1925.43,1.0,0.6940159379999999,1.0,0.75,1.0,0.31710554399999996,0.0,0.413450341,False,,5ecbb58e19906d745d70c399,,1053761,52,,evan-feature22,full_pf_a,,0
28,42500,53,,,,2,2,1.0,0.0,0.0,-1.0,,0.0-55.0,,0.0,370.375,0.0,0.6916018270000001,1.0,0.69001187,1.0,0.261817804,0.0,0.40038635,False,,5ecbb58e19906d745d70c399,,1063897,53,,evan-feature22,full_pf_a,,1
29,42501,54,,,,2,2,1.0,0.0,0.0,-1.0,,0.0-56.0,,0.0,1662.93,1.0,0.641061544,1.0,0.71337992,1.0,0.277296461,0.0,0.47372791700000005,False,,5ecbb58e19906d745d70c399,,1075329,54,,evan-feature22,full_pf_a,,0
30,42502,55,,,,1,1,0.0,0.0,0.0,-1.0,,0.0-57.0,,0.0,797.55,0.0,0.6082438520000001,0.0,0.708471106,1.0,0.28745137,1.0,0.564174476,False,,5ecbb58e19906d745d70c399,,1085889,55,,evan-feature22,full_pf_a,,1
31,42503,56,,,,2,2,0.0,1.0,1.0,0.0,,0.0-58.0,,0.0,749.47,0.0,0.6051112120000001,1.0,0.7118147229999999,0.0,0.272390611,1.0,0.5595149939999999,False,,5ecbb58e19906d745d70c399,,1096401,56,,evan-feature22,full_pf_a,,1
32,42504,57,,,,1,1,0.0,1.0,1.0,0.0,,0.0-59.0,,0.0,1029.165,0.0,0.582420852,1.0,0.635867583,0.0,0.31089574,0.0,0.5227206520000001,False,,5ecbb58e19906d745d70c399,,1107190,57,,evan-feature22,full_pf_a,,1
33,42505,58,,,,2,2,1.0,0.0,1.0,0.0,,0.0-60.0,,1.0,783.145,1.0,0.623195575,0.0,0.655026044,1.0,0.25,0.0,0.560387538,False,,5ecbb58e19906d745d70c399,,1117738,58,,evan-feature22,full_pf_a,,1
34,42506,59,,,,1,1,0.0,1.0,0.0,-1.0,,0.0-61.0,,-1.0,687.805,0.0,0.601889598,1.0,0.678198724,0.0,0.25,1.0,0.559922936,False,,5ecbb58e19906d745d70c399,,1128188,59,,evan-feature22,full_pf_a,,1
35,42507,60,,,,2,2,1.0,0.0,1.0,0.0,,0.0-62.0,,1.0,425.185,0.0,0.601259914,1.0,0.704681482,1.0,0.33908969299999997,0.0,0.505003715,False,,5ecbb58e19906d745d70c399,,1138380,60,,evan-feature22,full_pf_a,,1
36,42508,61,,,,2,2,0.0,1.0,1.0,0.0,,0.0-63.0,,0.0,665.895,1.0,0.59645454,0.0,0.710437172,0.0,0.327441879,1.0,0.391749613,False,,5ecbb58e19906d745d70c399,,1148811,61,,evan-feature22,full_pf_a,,0
37,42509,62,,,,1,1,0.0,0.0,0.0,-1.0,,0.0-64.0,,0.0,650.555,0.0,0.529473,0.0,0.636758527,1.0,0.301338063,0.0,0.365661481,False,,5ecbb58e19906d745d70c399,,1159230,62,,evan-feature22,full_pf_a,,1
38,42510,63,,,,2,2,0.0,0.0,1.0,0.0,,0.0-65.0,,0.0,542.19,1.0,0.541657162,1.0,0.634541962,0.0,0.343535366,0.0,0.371763742,False,,5ecbb58e19906d745d70c399,,1169538,63,,evan-feature22,full_pf_a,,1
39,42511,64,,,,2,2,0.0,1.0,1.0,0.0,,0.0-66.0,,0.0,932.705,0.0,0.5707533260000001,0.0,0.589121171,0.0,0.326428396,1.0,0.43961622899999997,False,,5ecbb58e19906d745d70c399,,1180233,64,,evan-feature22,full_pf_a,,0
40,42512,65,,,,2,2,0.0,0.0,0.0,-1.0,,0.0-67.0,,0.0,1373.5,0.0,0.5707533260000001,1.0,0.589121171,0.0,0.326428396,0.0,0.43961622899999997,False,,5ecbb58e19906d745d70c399,,1191367,65,,evan-feature22,full_pf_a,,0
41,42513,66,,,,2,2,0.0,0.0,0.0,-1.0,,0.0-68.0,,0.0,783.11,1.0,0.506271295,1.0,0.641775594,0.0,0.37149690700000004,0.0,0.404330166,False,,5ecbb58e19906d745d70c399,,1201911,66,,evan-feature22,full_pf_a,,0
42,42514,67,,,,2,2,0.0,1.0,1.0,0.0,,0.0-69.0,,0.0,1009.995,0.0,0.455642565,1.0,0.623605825,0.0,0.358753011,1.0,0.346174041,False,,5ecbb58e19906d745d70c399,,1212680,67,,evan-feature22,full_pf_a,,0
43,42515,68,,,,1,1,1.0,0.0,0.0,-1.0,,0.0-70.0,,0.0,390.84,1.0,0.483677308,0.0,0.5904681070000001,0.0,0.402218411,0.0,0.35344697,False,,5ecbb58e19906d745d70c399,,1222833,68,,evan-feature22,full_pf_a,,1
44,42516,69,,,,2,2,1.0,0.0,1.0,0.0,,0.0-71.0,,1.0,1639.125,0.0,0.394210977,0.0,0.558925494,1.0,0.540052017,0.0,0.35182128700000004,False,,5ecbb58e19906d745d70c399,,1234236,69,,evan-feature22,full_pf_a,,1
45,42517,70,,,,2,2,0.0,0.0,0.0,-1.0,,0.0-72.0,,0.0,834.565,1.0,0.382300414,0.0,0.577670603,0.0,0.607608448,0.0,0.378261578,False,,5ecbb58e19906d745d70c399,,1244830,70,,evan-feature22,full_pf_a,,0
46,42518,71,,,,1,1,0.0,1.0,1.0,0.0,,0.0-73.0,,0.0,669.03,0.0,0.357596762,1.0,0.5929076529999999,1.0,0.6579790010000001,0.0,0.401326777,False,,5ecbb58e19906d745d70c399,,1255273,71,,evan-feature22,full_pf_a,,1
47,42519,72,,,,2,2,1.0,0.0,0.0,-1.0,,0.0-74.0,,0.0,1068.915,0.0,0.362033495,1.0,0.582308608,1.0,0.649195052,0.0,0.355158505,False,,5ecbb58e19906d745d70c399,,1266108,72,,evan-feature22,full_pf_a,,1
48,42520,73,,,,2,2,1.0,0.0,0.0,-1.0,,0.0-75.0,,0.0,3171.395,0.0,0.369620635,0.0,0.669100864,1.0,0.706059111,0.0,0.362516241,False,,5ecbb58e19906d745d70c399,,1279043,73,,evan-feature22,full_pf_a,,0
49,42521,74,,,,1,1,1.0,1.0,0.0,-1.0,,0.0-76.0,,-1.0,863.46,1.0,0.41477751399999996,1.0,0.7284416779999999,0.0,0.7182656940000001,1.0,0.36228040899999997,False,,5ecbb58e19906d745d70c399,,1289680,74,,evan-feature22,full_pf_a,,1
50,42522,75,,,,2,2,1.0,1.0,1.0,0.0,,0.0-77.0,,1.0,585.5,0.0,0.37675460299999997,1.0,0.703250285,1.0,0.75,1.0,0.461979164,False,,5ecbb58e19906d745d70c399,,1300032,75,,evan-feature22,full_pf_a,,1
51,42523,76,,,,2,2,1.0,1.0,1.0,0.0,,0.0-78.0,,1.0,485.96,0.0,0.398716075,0.0,0.6723864890000001,1.0,0.674153818,1.0,0.519029516,False,,5ecbb58e19906d745d70c399,,1310282,76,,evan-feature22,full_pf_a,,0
52,42524,77,,,,2,2,1.0,1.0,1.0,0.0,,0.0-79.0,,1.0,947.575,0.0,0.34677856700000004,1.0,0.69057175,1.0,0.6822438540000001,1.0,0.477292237,False,,5ecbb58e19906d745d70c399,,1320993,77,,evan-feature22,full_pf_a,,0
53,42525,78,,,,2,2,1.0,1.0,0.0,-1.0,,0.0-80.0,,-1.0,559.265,0.0,0.28580469199999997,1.0,0.68408818,1.0,0.684207565,1.0,0.49780448299999996,False,,5ecbb58e19906d745d70c399,,1331316,78,,evan-feature22,full_pf_a,,0
54,42527,80,,,,2,2,1.0,1.0,0.0,-1.0,,0.0-82.0,,-1.0,1085.035,0.0,0.25,1.0,0.7405808970000001,1.0,0.679614108,1.0,0.436436964,False,,5ecbb58e19906d745d70c399,,1400112,80,,evan-feature22,full_pf_a,,0
55,42528,81,,,,2,2,1.0,1.0,0.0,-1.0,,0.0-83.0,,-1.0,1690.735,0.0,0.29890393,1.0,0.730505706,1.0,0.7328203320000001,1.0,0.439256938,False,,5ecbb58e19906d745d70c399,,1411568,81,,evan-feature22,full_pf_a,,0
56,42529,82,,,,2,2,1.0,1.0,1.0,0.0,,0.0-84.0,,1.0,686.575,0.0,0.326762398,0.0,0.7148059609999999,1.0,0.75,1.0,0.44389608799999997,False,,5ecbb58e19906d745d70c399,,1422017,82,,evan-feature22,full_pf_a,,0
57,42530,83,,,,2,2,1.0,1.0,0.0,-1.0,,0.0-85.0,,-1.0,169.68,0.0,0.295168515,0.0,0.739760854,1.0,0.719947008,1.0,0.35277284600000003,False,,5ecbb58e19906d745d70c399,,1431953,83,,evan-feature22,full_pf_a,,0
58,42531,84,,,,1,1,1.0,0.0,0.0,-1.0,,0.0-86.0,,0.0,367.16,1.0,0.25,0.0,0.70781482,0.0,0.75,0.0,0.286095925,False,,5ecbb58e19906d745d70c399,,1442086,84,,evan-feature22,full_pf_a,,1
59,42532,85,,,,2,2,1.0,0.0,0.0,-1.0,,0.0-87.0,,0.0,825.5,0.0,0.25638190899999996,0.0,0.704088163,1.0,0.75,0.0,0.26872601399999996,False,,5ecbb58e19906d745d70c399,,1452671,85,,evan-feature22,full_pf_a,,1
60,42533,86,,,,2,2,0.0,0.0,1.0,0.0,,0.0-88.0,,0.0,1005.36,1.0,0.271581126,1.0,0.669760107,0.0,0.733896663,0.0,0.273244572,False,,5ecbb58e19906d745d70c399,,1463443,86,,evan-feature22,full_pf_a,,0
61,42534,87,,,,2,2,1.0,0.0,0.0,-1.0,,0.0-89.0,,0.0,1210.42,0.0,0.257144401,1.0,0.600575706,1.0,0.74488122,0.0,0.25,False,,5ecbb58e19906d745d70c399,,1474429,87,,evan-feature22,full_pf_a,,0
62,42535,88,,,,1,1,1.0,1.0,0.0,-1.0,,0.0-90.0,,-1.0,776.065,1.0,0.25,1.0,0.616870026,0.0,0.723610234,1.0,0.25,False,,5ecbb58e19906d745d70c399,,1484968,88,,evan-feature22,full_pf_a,,1
63,42536,89,,,,2,2,1.0,0.0,1.0,0.0,,0.0-91.0,,1.0,504.145,0.0,0.25,1.0,0.583540187,1.0,0.7041042559999999,0.0,0.285961995,False,,5ecbb58e19906d745d70c399,,1495240,89,,evan-feature22,full_pf_a,,1
64,42537,90,,,,1,1,0.0,1.0,1.0,0.0,,0.0-92.0,,0.0,934.31,0.0,0.27254536,1.0,0.53875765,0.0,0.693783448,0.0,0.284961652,False,,5ecbb58e19906d745d70c399,,1505940,90,,evan-feature22,full_pf_a,,1
65,42538,91,,,,2,2,0.0,0.0,1.0,0.0,,0.0-93.0,,0.0,963.1,1.0,0.25,0.0,0.548431252,0.0,0.734221895,0.0,0.279445214,False,,5ecbb58e19906d745d70c399,,1516672,91,,evan-feature22,full_pf_a,,1
66,42539,92,,,,1,1,0.0,0.0,0.0,-1.0,,0.0-94.0,,0.0,741.915,0.0,0.258640684,0.0,0.545878066,0.0,0.725245965,0.0,0.31487537,False,,5ecbb58e19906d745d70c399,,1527176,92,,evan-feature22,full_pf_a,,1
67,42540,93,,,,1,1,0.0,0.0,0.0,-1.0,,0.0-95.0,,0.0,2128.465,0.0,0.251103711,0.0,0.5776290629999999,1.0,0.696320133,0.0,0.317831047,False,,5ecbb58e19906d745d70c399,,1539072,93,,evan-feature22,full_pf_a,,0
68,42541,94,,,,1,1,0.0,1.0,0.0,-1.0,,0.0-96.0,,-1.0,1046.95,0.0,0.276630292,1.0,0.617329858,1.0,0.73838088,0.0,0.261471582,False,,5ecbb58e19906d745d70c399,,1549883,94,,evan-feature22,full_pf_a,,0
69,42542,95,,,,1,1,1.0,0.0,0.0,-1.0,,0.0-97.0,,0.0,1516.07,1.0,0.297716424,0.0,0.618863717,1.0,0.7402358259999999,1.0,0.262600834,False,,5ecbb58e19906d745d70c399,,1561160,95,,evan-feature22,full_pf_a,,0
70,42543,96,,,,1,1,0.0,1.0,1.0,0.0,,0.0-98.0,,0.0,2917.68,0.0,0.290935512,1.0,0.695370945,1.0,0.706570507,1.0,0.280030553,False,,5ecbb58e19906d745d70c399,,1573838,96,,evan-feature22,full_pf_a,,0
71,42544,97,,,,2,2,1.0,0.0,0.0,-1.0,,0.0-99.0,,0.0,830.275,0.0,0.25,1.0,0.6465277079999999,1.0,0.67766682,0.0,0.25,False,,5ecbb58e19906d745d70c399,,1584438,97,,evan-feature22,full_pf_a,,1
72,42545,98,,,,1,1,1.0,1.0,1.0,0.0,,0.0-100.0,,1.0,624.83,1.0,0.26463816,1.0,0.636100213,1.0,0.646048507,1.0,0.265607101,False,,5ecbb58e19906d745d70c399,,1594825,98,,evan-feature22,full_pf_a,,1
73,42546,99,,,,1,1,0.0,0.0,1.0,0.0,,0.0-101.0,,0.0,987.255,0.0,0.314340707,0.0,0.667795927,1.0,0.613630805,0.0,0.25,False,,5ecbb58e19906d745d70c399,,1605576,99,,evan-feature22,full_pf_a,,0
74,42547,100,,,,2,2,1.0,0.0,0.0,-1.0,,0.0-102.0,,0.0,462.8,1.0,0.28685784,1.0,0.6622549529999999,1.0,0.652154117,0.0,0.25,False,,5ecbb58e19906d745d70c399,,1615799,100,,evan-feature22,full_pf_a,,1
75,42548,101,,,,2,2,1.0,1.0,0.0,-1.0,,0.0-103.0,,-1.0,468.625,1.0,0.304106554,1.0,0.631289538,1.0,0.707041942,1.0,0.29314237,False,,5ecbb58e19906d745d70c399,,1626043,101,,evan-feature22,full_pf_a,,0
76,42549,102,,,,1,1,0.0,1.0,0.0,-1.0,,0.0-104.0,,-1.0,91.05999995,0.0,0.304806932,1.0,0.571167718,0.0,0.680472346,0.0,0.25,False,,5ecbb58e19906d745d70c399,,1635893,102,,evan-feature22,full_pf_a,,1
77,42550,103,,,,2,2,0.0,0.0,0.0,-1.0,,0.0-105.0,,0.0,672.44,0.0,0.37919861,1.0,0.5724849710000001,0.0,0.705638003,0.0,0.30179300600000003,False,,5ecbb58e19906d745d70c399,,1646328,103,,evan-feature22,full_pf_a,,1
78,42551,104,,,,2,2,1.0,0.0,0.0,-1.0,,0.0-106.0,,0.0,631.3,0.0,0.464277969,1.0,0.554034373,1.0,0.7372627340000001,0.0,0.264699741,False,,5ecbb58e19906d745d70c399,,1656728,104,,evan-feature22,full_pf_a,,0
79,42552,105,,,,1,1,0.0,1.0,0.0,-1.0,,0.0-107.0,,-1.0,800.135,0.0,0.465104323,1.0,0.530793115,1.0,0.75,0.0,0.31683071,False,,5ecbb58e19906d745d70c399,,1667292,105,,evan-feature22,full_pf_a,,1
80,42553,106,,,,1,1,0.0,0.0,1.0,0.0,,0.0-108.0,,0.0,3105.045,0.0,0.465104323,0.0,0.530793115,1.0,0.75,1.0,0.31683071,False,,5ecbb58e19906d745d70c399,,1680161,106,,evan-feature22,full_pf_a,,0
81,42554,107,,,,1,1,0.0,1.0,1.0,0.0,,0.0-109.0,,0.0,987.865,0.0,0.46833986,1.0,0.570249239,1.0,0.7244472590000001,0.0,0.364114163,False,,5ecbb58e19906d745d70c399,,1690913,107,,evan-feature22,full_pf_a,,0
82,42555,108,,,,1,1,0.0,0.0,1.0,0.0,,0.0-110.0,,0.0,2297.915,0.0,0.445444024,0.0,0.649673355,1.0,0.6845441290000001,0.0,0.300660449,False,,5ecbb58e19906d745d70c399,,1702976,108,,evan-feature22,full_pf_a,,0
83,42556,109,,,,SLOW,SLOW,,,1.0,0.0,,0.0-111.0,,-3.0,,0.0,0.39909721299999995,1.0,0.6715179509999999,1.0,0.742310028,0.0,0.35496088299999995,False,,5ecbb58e19906d745d70c399,,1708790,109,,evan-feature22,full_pf_a,,1
84,42557,110,,,,2,2,1.0,1.0,0.0,-1.0,,0.0-112.0,,-1.0,1396.795,0.0,0.37956104799999996,1.0,0.694725302,1.0,0.7181651309999999,1.0,0.38726906299999997,False,,5ecbb58e19906d745d70c399,,1719954,110,,evan-feature22,full_pf_a,,1
85,42558,111,,,,1,1,0.0,1.0,0.0,-1.0,,0.0-113.0,,-1.0,756.56,0.0,0.404995034,1.0,0.724375412,1.0,0.6910946859999999,0.0,0.387187347,False,,5ecbb58e19906d745d70c399,,1730472,111,,evan-feature22,full_pf_a,,1
86,42559,112,,,,2,2,1.0,0.0,1.0,0.0,,0.0-114.0,,1.0,765.255,0.0,0.461740803,0.0,0.75,1.0,0.75,0.0,0.34872038200000005,False,,5ecbb58e19906d745d70c399,,1740999,112,,evan-feature22,full_pf_a,,1
87,42560,113,,,,1,1,0.0,1.0,1.0,0.0,,0.0-115.0,,0.0,432.615,0.0,0.43821380600000004,1.0,0.738833273,1.0,0.728286963,1.0,0.399538128,False,,5ecbb58e19906d745d70c399,,1751203,113,,evan-feature22,full_pf_a,,1
88,42561,114,,,,1,1,1.0,1.0,0.0,-1.0,,0.0-116.0,,-1.0,466.35,1.0,0.41709882,1.0,0.736666736,1.0,0.75,0.0,0.389095584,False,,5ecbb58e19906d745d70c399,,1761433,114,,evan-feature22,full_pf_a,,0
89,42562,115,,,,2,2,1.0,0.0,0.0,-1.0,,0.0-117.0,,0.0,412.605,0.0,0.39749009799999996,1.0,0.744320029,1.0,0.75,0.0,0.363848678,False,,5ecbb58e19906d745d70c399,,1771610,115,,evan-feature22,full_pf_a,,1
90,42563,116,,,,1,1,0.0,0.0,1.0,0.0,,0.0-118.0,,0.0,372.48,0.0,0.392653706,0.0,0.75,1.0,0.75,1.0,0.384386976,False,,5ecbb58e19906d745d70c399,,1781750,116,,evan-feature22,full_pf_a,,1
91,42564,117,,,,1,1,1.0,1.0,0.0,-1.0,,0.0-119.0,,-1.0,428.1,1.0,0.31190902600000003,1.0,0.75,0.0,0.732413819,0.0,0.413082932,False,,5ecbb58e19906d745d70c399,,1791949,117,,evan-feature22,full_pf_a,,0
92,42565,118,,,,2,2,1.0,0.0,1.0,0.0,,0.0-120.0,,1.0,781.395,1.0,0.366917648,1.0,0.740073855,1.0,0.75,0.0,0.352861979,False,,5ecbb58e19906d745d70c399,,1802497,118,,evan-feature22,full_pf_a,,1
93,42566,119,,,,2,2,1.0,1.0,1.0,0.0,,0.0-121.0,,1.0,839.39,1.0,0.3645172,1.0,0.721770713,1.0,0.75,1.0,0.404074511,False,,5ecbb58e19906d745d70c399,,1813099,119,,evan-feature22,full_pf_a,,0
94,42567,120,,,,2,2,1.0,1.0,1.0,0.0,,0.0-122.0,,1.0,1273.795,0.0,0.35205600299999995,1.0,0.68983859,1.0,0.739735447,1.0,0.366895945,False,,5ecbb58e19906d745d70c399,,1824137,120,,evan-feature22,full_pf_a,,0
95,42568,121,,,,2,2,1.0,0.0,1.0,0.0,,0.0-123.0,,1.0,662.56,0.0,0.40998722600000004,1.0,0.720859127,1.0,0.673854955,0.0,0.368528541,False,,5ecbb58e19906d745d70c399,,1834563,121,,evan-feature22,full_pf_a,,0
96,42569,122,,,,SLOW,SLOW,,,1.0,0.0,,0.0-124.0,,-3.0,,0.0,0.353625316,1.0,0.75,1.0,0.695605473,1.0,0.38303674200000004,False,,5ecbb58e19906d745d70c399,,1840371,122,,evan-feature22,full_pf_a,,1
97,42570,123,,,,SLOW,SLOW,,,1.0,0.0,,0.0-125.0,,-3.0,,1.0,0.359216989,1.0,0.75,0.0,0.6987915090000001,0.0,0.35169046200000004,False,,5ecbb58e19906d745d70c399,,1846176,123,,evan-feature22,full_pf_a,,0
98,42571,124,,,,2,2,0.0,0.0,1.0,0.0,,0.0-126.0,,0.0,158.26,1.0,0.35834496899999996,1.0,0.75,0.0,0.707067742,0.0,0.416763636,False,,5ecbb58e19906d745d70c399,,1856104,124,,evan-feature22,full_pf_a,,1
99,42572,125,,,,2,2,0.0,0.0,0.0,-1.0,,0.0-127.0,,0.0,533.635,0.0,0.38741613799999997,1.0,0.7177369570000001,0.0,0.734902455,0.0,0.49438664299999996,False,,5ecbb58e19906d745d70c399,,1866413,125,,evan-feature22,full_pf_a,,0
100,42573,126,,,,1,1,0.0,0.0,1.0,0.0,,0.0-128.0,,0.0,505.065,0.0,0.405255252,0.0,0.7300466640000001,1.0,0.7027748070000001,1.0,0.504359668,False,,5ecbb58e19906d745d70c399,,1876681,126,,evan-feature22,full_pf_a,,1
101,42574,127,,,,2,2,0.0,0.0,1.0,0.0,,0.0-129.0,,0.0,512.585,0.0,0.40697073,0.0,0.7260142190000001,0.0,0.724461982,0.0,0.522779179,False,,5ecbb58e19906d745d70c399,,1886959,127,,evan-feature22,full_pf_a,,1
102,42575,128,,,,2,2,1.0,1.0,1.0,0.0,,0.0-130.0,,1.0,566.82,1.0,0.43906215299999996,1.0,0.7252802340000001,1.0,0.719079934,1.0,0.5712990579999999,False,,5ecbb58e19906d745d70c399,,1897288,128,,evan-feature22,full_pf_a,,0
103,42576,129,,,,2,2,1.0,0.0,0.0,-1.0,,0.0-131.0,,0.0,470.675,0.0,0.4076705,0.0,0.73280499,1.0,0.681313127,0.0,0.523891346,False,,5ecbb58e19906d745d70c399,,1907520,129,,evan-feature22,full_pf_a,,0
104,42577,130,,,,2,2,1.0,0.0,0.0,-1.0,,0.0-132.0,,0.0,772.58,0.0,0.399102911,0.0,0.730498344,1.0,0.661080239,0.0,0.46742603,False,,5ecbb58e19906d745d70c399,,1918063,130,,evan-feature22,full_pf_a,,0
105,42578,131,,,,2,2,0.0,1.0,0.0,-1.0,,0.0-133.0,,-1.0,1048.41,1.0,0.356477282,1.0,0.712296395,0.0,0.641812684,1.0,0.44868414,False,,5ecbb58e19906d745d70c399,,1928872,131,,evan-feature22,full_pf_a,,0
106,42579,132,,,,2,2,1.0,1.0,1.0,0.0,,0.0-134.0,,1.0,3701.62,0.0,0.462760722,1.0,0.692349322,1.0,0.700947931,1.0,0.394680266,False,,5ecbb58e19906d745d70c399,,1942337,132,,evan-feature22,full_pf_a,,0
107,42580,133,,,,2,2,1.0,1.0,1.0,0.0,,0.0-135.0,,1.0,612.03,0.0,0.422306413,1.0,0.718375916,1.0,0.706340917,1.0,0.367787185,False,,5ecbb58e19906d745d70c399,,1952711,133,,evan-feature22,full_pf_a,,0
108,42582,135,,,,2,2,0.0,1.0,1.0,0.0,,0.0-137.0,,0.0,1693.225,0.0,0.4582233,1.0,0.643834117,0.0,0.75,1.0,0.39615823299999997,False,,5ecbb58e19906d745d70c399,,1972817,135,,evan-feature22,full_pf_a,,0
109,42583,136,,,,2,2,1.0,0.0,1.0,0.0,,0.0-138.0,,1.0,694.41,1.0,0.43813437899999996,0.0,0.651283804,1.0,0.729674191,0.0,0.37711048,False,,5ecbb58e19906d745d70c399,,1983272,136,,evan-feature22,full_pf_a,,0
110,42584,137,,,,1,1,1.0,0.0,1.0,0.0,,0.0-139.0,,1.0,206.0,1.0,0.471199094,0.0,0.6470010979999999,0.0,0.715008097,1.0,0.410656191,False,,5ecbb58e19906d745d70c399,,1993240,137,,evan-feature22,full_pf_a,,1
111,42585,138,,,,1,1,1.0,1.0,1.0,0.0,,0.0-140.0,,1.0,1051.59,1.0,0.42486406,1.0,0.629771829,0.0,0.6550939960000001,0.0,0.459093873,False,,5ecbb58e19906d745d70c399,,2004056,138,,evan-feature22,full_pf_a,,0
112,42586,139,,,,1,1,0.0,1.0,1.0,0.0,,0.0-141.0,,0.0,654.53,0.0,0.4803197,1.0,0.645842715,1.0,0.6421749920000001,1.0,0.443092151,False,,5ecbb58e19906d745d70c399,,2014474,139,,evan-feature22,full_pf_a,,0
113,42587,140,,,,2,2,0.0,1.0,0.0,-1.0,,0.0-142.0,,-1.0,486.81,0.0,0.521848997,1.0,0.735801074,0.0,0.6691348460000001,1.0,0.45259351600000003,False,,5ecbb58e19906d745d70c399,,2024729,140,,evan-feature22,full_pf_a,,1
114,42588,141,,,,1,1,1.0,1.0,1.0,0.0,,0.0-143.0,,1.0,669.1,1.0,0.49565621299999996,1.0,0.742400847,1.0,0.661512553,0.0,0.483110831,False,,5ecbb58e19906d745d70c399,,2035161,141,,evan-feature22,full_pf_a,,1
115,42589,142,,,,2,2,1.0,1.0,1.0,0.0,,0.0-144.0,,1.0,333.855,0.0,0.521564361,1.0,0.731078632,1.0,0.6774886809999999,1.0,0.483263956,False,,5ecbb58e19906d745d70c399,,2045259,142,,evan-feature22,full_pf_a,,1
116,42590,143,,,,1,1,0.0,1.0,1.0,0.0,,0.0-145.0,,0.0,476.575,0.0,0.558893102,1.0,0.719810023,0.0,0.67461031,0.0,0.499349834,False,,5ecbb58e19906d745d70c399,,2055497,143,,evan-feature22,full_pf_a,,1
117,42591,144,,,,1,1,0.0,1.0,1.0,0.0,,0.0-146.0,,0.0,796.075,0.0,0.611031046,1.0,0.75,1.0,0.688072995,1.0,0.5321422729999999,False,,5ecbb58e19906d745d70c399,,2066059,144,,evan-feature22,full_pf_a,,0
118,42592,145,,,,2,2,1.0,1.0,0.0,-1.0,,0.0-147.0,,-1.0,618.19,0.0,0.633223941,1.0,0.713567728,1.0,0.75,1.0,0.48185314700000004,False,,5ecbb58e19906d745d70c399,,2076442,145,,evan-feature22,full_pf_a,,1
119,42593,146,,,,2,2,1.0,0.0,1.0,0.0,,0.0-148.0,,1.0,798.24,0.0,0.664001694,1.0,0.705509768,1.0,0.75,0.0,0.500211065,False,,5ecbb58e19906d745d70c399,,2087006,146,,evan-feature22,full_pf_a,,0
120,42594,147,,,,1,1,0.0,1.0,1.0,0.0,,0.0-149.0,,0.0,671.905,0.0,0.664001694,1.0,0.705509768,1.0,0.75,1.0,0.500211065,False,,5ecbb58e19906d745d70c399,,2097443,147,,evan-feature22,full_pf_a,,1
121,42595,148,,,,2,2,1.0,1.0,1.0,0.0,,0.0-150.0,,1.0,3746.945,1.0,0.696508041,1.0,0.71066027,1.0,0.717028709,1.0,0.49792991,False,,5ecbb58e19906d745d70c399,,2110960,148,,evan-feature22,full_pf_a,,1
122,42596,149,,,,1,1,1.0,0.0,0.0,-1.0,,0.0-151.0,,0.0,325.76,1.0,0.699883272,0.0,0.75,0.0,0.713543895,1.0,0.496962643,False,,5ecbb58e19906d745d70c399,,2121046,149,,evan-feature22,full_pf_a,,1
123,42597,150,,,,1,1,0.0,1.0,0.0,-1.0,,0.0-152.0,,-1.0,1864.725,0.0,0.741163419,1.0,0.75,1.0,0.64691024,1.0,0.513858197,False,,5ecbb58e19906d745d70c399,,2132673,150,,evan-feature22,full_pf_a,,0
124,42598,151,,,,2,2,1.0,1.0,0.0,-1.0,,0.0-153.0,,-1.0,1479.52,1.0,0.75,1.0,0.70816558,1.0,0.594499079,1.0,0.48502124,False,,5ecbb58e19906d745d70c399,,2143919,151,,evan-feature22,full_pf_a,,1
125,42599,152,,,,1,1,1.0,1.0,1.0,0.0,,0.0-154.0,,1.0,350.745,1.0,0.75,1.0,0.721848901,1.0,0.62197249,0.0,0.48263586399999997,False,,5ecbb58e19906d745d70c399,,2154040,152,,evan-feature22,full_pf_a,,1
126,42600,153,,,,1,1,0.0,1.0,1.0,0.0,,0.0-155.0,,0.0,486.39,0.0,0.75,1.0,0.74813071,1.0,0.584357161,0.0,0.411477782,False,,5ecbb58e19906d745d70c399,,2164289,153,,evan-feature22,full_pf_a,,0
127,42601,154,,,,2,2,0.0,0.0,1.0,0.0,,0.0-156.0,,0.0,1479.58,1.0,0.75,1.0,0.75,0.0,0.52287236,0.0,0.488290656,False,,5ecbb58e19906d745d70c399,,2175535,154,,evan-feature22,full_pf_a,,1
128,42602,155,,,,1,1,1.0,0.0,1.0,0.0,,0.0-157.0,,1.0,478.73,1.0,0.75,0.0,0.75,0.0,0.544321581,1.0,0.53143059,False,,5ecbb58e19906d745d70c399,,2185775,155,,evan-feature22,full_pf_a,,1
129,42603,156,,,,2,2,1.0,0.0,1.0,0.0,,0.0-158.0,,1.0,350.805,0.0,0.726754564,0.0,0.75,1.0,0.5129306370000001,0.0,0.530592445,False,,5ecbb58e19906d745d70c399,,2195892,156,,evan-feature22,full_pf_a,,1
130,42604,157,,,,1,1,1.0,1.0,0.0,-1.0,,0.0-159.0,,-1.0,1559.51,1.0,0.75,1.0,0.7392590729999999,1.0,0.479875835,1.0,0.547007051,False,,5ecbb58e19906d745d70c399,,2207215,157,,evan-feature22,full_pf_a,,1
131,42605,158,,,,2,2,1.0,1.0,0.0,-1.0,,0.0-160.0,,-1.0,1925.495,0.0,0.75,0.0,0.7393376979999999,1.0,0.546045419,1.0,0.541267353,False,,5ecbb58e19906d745d70c399,,2218903,158,,evan-feature22,full_pf_a,,1
132,42606,159,,,,1,1,1.0,1.0,1.0,0.0,,0.0-161.0,,1.0,479.67,1.0,0.75,1.0,0.75,0.0,0.485725895,1.0,0.527625395,False,,5ecbb58e19906d745d70c399,,2229148,159,,evan-feature22,full_pf_a,,1
133,42607,160,,,,1,1,1.0,0.0,0.0,-1.0,,0.0-162.0,,0.0,1120.615,1.0,0.75,0.0,0.725087974,0.0,0.488603595,0.0,0.504019206,False,,5ecbb58e19906d745d70c399,,2240029,160,,evan-feature22,full_pf_a,,0
134,42608,161,,,,2,2,0.0,1.0,1.0,0.0,,0.0-163.0,,0.0,576.12,1.0,0.745504295,0.0,0.75,0.0,0.452379914,1.0,0.50131194,False,,5ecbb58e19906d745d70c399,,2250369,161,,evan-feature22,full_pf_a,,1
135,42609,162,,,,1,1,1.0,0.0,0.0,-1.0,,0.0-164.0,,0.0,396.625,1.0,0.728513874,0.0,0.75,1.0,0.44125567200000004,0.0,0.531454591,False,,5ecbb58e19906d745d70c399,,2260529,162,,evan-feature22,full_pf_a,,1
136,42610,163,,,,2,2,0.0,0.0,1.0,0.0,,0.0-165.0,,0.0,501.8049999,1.0,0.73790804,1.0,0.75,0.0,0.413036656,0.0,0.524619035,False,,5ecbb58e19906d745d70c399,,2270791,163,,evan-feature22,full_pf_a,,1
137,42611,164,,,,1,1,1.0,1.0,1.0,0.0,,0.0-166.0,,1.0,633.675,1.0,0.7080961309999999,1.0,0.708666865,1.0,0.431915581,0.0,0.481819489,False,,5ecbb58e19906d745d70c399,,2281188,164,,evan-feature22,full_pf_a,,1
138,42612,165,,,,2,2,1.0,0.0,1.0,0.0,,0.0-167.0,,1.0,1627.415,0.0,0.721378003,0.0,0.71605913,1.0,0.36642387,0.0,0.5036739929999999,False,,5ecbb58e19906d745d70c399,,2292579,165,,evan-feature22,full_pf_a,,1
139,42613,166,,,,1,1,1.0,1.0,0.0,-1.0,,0.0-168.0,,-1.0,764.855,1.0,0.7340618959999999,1.0,0.699323252,0.0,0.35298046299999997,0.0,0.511241692,False,,5ecbb58e19906d745d70c399,,2303106,166,,evan-feature22,full_pf_a,,1
140,42614,167,,,,2,2,1.0,1.0,0.0,-1.0,,0.0-169.0,,-1.0,845.45,1.0,0.75,0.0,0.70412698,1.0,0.380734814,1.0,0.529580116,False,,5ecbb58e19906d745d70c399,,2313716,167,,evan-feature22,full_pf_a,,1
141,42615,168,,,,1,1,0.0,1.0,0.0,-1.0,,0.0-170.0,,-1.0,876.83,0.0,0.7436654909999999,1.0,0.711182751,1.0,0.41125331,0.0,0.49554405,False,,5ecbb58e19906d745d70c399,,2324357,168,,evan-feature22,full_pf_a,,1
142,42616,169,,,,1,1,1.0,1.0,1.0,0.0,,0.0-171.0,,1.0,1426.145,1.0,0.731607915,1.0,0.651774583,0.0,0.35688023,0.0,0.45194491600000003,False,,5ecbb58e19906d745d70c399,,2335544,169,,evan-feature22,full_pf_a,,0
143,42617,170,,,,2,2,0.0,1.0,0.0,-1.0,,0.0-172.0,,-1.0,1101.87,1.0,0.75,1.0,0.75,0.0,0.283145374,1.0,0.528608005,False,,5ecbb58e19906d745d70c399,,2346409,170,,evan-feature22,full_pf_a,,1
144,42618,171,,,,1,1,1.0,1.0,1.0,0.0,,0.0-173.0,,1.0,428.215,1.0,0.7491416890000001,1.0,0.7423785959999999,1.0,0.29135870399999997,1.0,0.498888318,False,,5ecbb58e19906d745d70c399,,2356600,171,,evan-feature22,full_pf_a,,1
145,42619,172,,,,2,2,0.0,1.0,0.0,-1.0,,0.0-174.0,,-1.0,414.525,1.0,0.708569387,1.0,0.717682277,0.0,0.294421699,1.0,0.493838163,False,,5ecbb58e19906d745d70c399,,2366776,172,,evan-feature22,full_pf_a,,1
146,42620,173,,,,1,1,1.0,1.0,1.0,0.0,,0.0-175.0,,1.0,1310.165,1.0,0.75,1.0,0.7383382159999999,1.0,0.356098707,1.0,0.442533405,False,,5ecbb58e19906d745d70c399,,2377849,173,,evan-feature22,full_pf_a,,1
147,42621,174,,,,2,2,0.0,1.0,1.0,0.0,,0.0-176.0,,0.0,2725.46,1.0,0.744527075,1.0,0.75,0.0,0.334127506,1.0,0.393165805,False,,5ecbb58e19906d745d70c399,,2390337,174,,evan-feature22,full_pf_a,,1
148,42622,175,,,,2,2,1.0,0.0,1.0,0.0,,0.0-177.0,,1.0,573.805,1.0,0.75,1.0,0.75,1.0,0.33571021799999995,0.0,0.350393962,False,,5ecbb58e19906d745d70c399,,2400673,175,,evan-feature22,full_pf_a,,0
149,42623,176,,,,SLOW,SLOW,,,0.0,-1.0,,0.0-178.0,,-3.0,,1.0,0.75,1.0,0.75,1.0,0.313628297,1.0,0.36349657399999996,False,,5ecbb58e19906d745d70c399,,2406479,176,,evan-feature22,full_pf_a,,1
150,42624,177,,,,1,1,0.0,0.0,1.0,0.0,,0.0-179.0,,0.0,1687.97,0.0,0.75,0.0,0.734284182,1.0,0.262667667,1.0,0.380199119,False,,5ecbb58e19906d745d70c399,,2417930,177,,evan-feature22,full_pf_a,,1
151,42625,178,,,,2,2,1.0,0.0,1.0,0.0,,0.0-180.0,,1.0,1866.895,1.0,0.75,1.0,0.75,1.0,0.25,0.0,0.394494013,False,,5ecbb58e19906d745d70c399,,2429563,178,,evan-feature22,full_pf_a,,1
152,42626,179,,,,1,1,0.0,1.0,1.0,0.0,,0.0-181.0,,0.0,1842.835,0.0,0.722298145,1.0,0.7357822340000001,0.0,0.25,0.0,0.319142121,False,,5ecbb58e19906d745d70c399,,2441172,179,,evan-feature22,full_pf_a,,1
153,42627,180,,,,1,1,0.0,0.0,1.0,0.0,,0.0-182.0,,0.0,1755.015,0.0,0.73149275,0.0,0.724276446,0.0,0.305856907,0.0,0.281315057,False,,5ecbb58e19906d745d70c399,,2452686,180,,evan-feature22,full_pf_a,,0
154,42628,181,,,,1,1,0.0,1.0,1.0,0.0,,0.0-183.0,,0.0,704.445,0.0,0.7458732690000001,1.0,0.7336382459999999,0.0,0.272571964,0.0,0.266021999,False,,5ecbb58e19906d745d70c399,,2463151,181,,evan-feature22,full_pf_a,,0
155,42629,182,,,,2,2,1.0,0.0,0.0,-1.0,,0.0-184.0,,0.0,523.17,0.0,0.705579037,1.0,0.720778292,1.0,0.320238144,0.0,0.30971744,False,,5ecbb58e19906d745d70c399,,2473441,182,,evan-feature22,full_pf_a,,1
156,42630,183,,,,1,1,1.0,0.0,0.0,-1.0,,0.0-185.0,,0.0,1107.845,1.0,0.700425648,0.0,0.7198784009999999,0.0,0.272590393,1.0,0.304182931,False,,5ecbb58e19906d745d70c399,,2484311,183,,evan-feature22,full_pf_a,,1
157,42631,184,,,,SLOW,SLOW,,,0.0,-1.0,,0.0-186.0,,-3.0,,1.0,0.735590785,1.0,0.722714973,0.0,0.25,0.0,0.323421091,False,,5ecbb58e19906d745d70c399,,2490117,184,,evan-feature22,full_pf_a,,1
158,42632,185,,,,1,1,0.0,1.0,0.0,-1.0,,0.0-187.0,,-1.0,702.06,0.0,0.724807662,1.0,0.63146213,0.0,0.36836492600000004,0.0,0.34592153299999995,False,,5ecbb58e19906d745d70c399,,2500583,185,,evan-feature22,full_pf_a,,1
159,42633,186,,,,2,2,0.0,1.0,1.0,0.0,,0.0-188.0,,0.0,420.57,1.0,0.7352796909999999,0.0,0.555111392,0.0,0.36003922,1.0,0.31433779999999995,False,,5ecbb58e19906d745d70c399,,2510773,186,,evan-feature22,full_pf_a,,1
160,42634,187,notice,,,,,,,,,,0.0-189.0,"{""Q0"":""No""}",,7838.0,,,,,,,,,False,,5ecbb58e19906d745d70c399,,2518617,187,Q,survey-text,full_pf_a,,1
161,42635,188,track1,,[1],,,,,,,,0.0-190.0,"{""Q0"":""no""}",,5653.0,,,,,,,,,False,,5ecbb58e19906d745d70c399,,2524274,188,Q,evan-quiz,full_pf_a,,1
162,42636,189,track2,,[0],,,,,,,,0.0-191.0,"{""Q0"":""yes""}",,5004.0,,,,,,,,,False,,5ecbb58e19906d745d70c399,,2529281,189,Q,evan-quiz,full_pf_a,,1
163,42637,190,strat,,,,,,,,,,0.0-192.0,"{""Q0"":""It was random at first then i started noticing a pattern and tried to follow the pattern""}",,28043.0,,,,,,,,,False,,5ecbb58e19906d745d70c399,,2557329,190,Q,survey-text,full_pf_a,,1
