,index,Unnamed: 0,Q_name,button_pressed,choice_idxs,chosen_pos,chosen_state,chosen_state_f_1_outcome,chosen_state_f_2_outcome,f_1_reward,f_2_reward,incor_questions,internal_node_id,responses,reward_received,rt,s_1_f_1_outcome,s_1_f_1_prob,s_1_f_2_outcome,s_1_f_2_prob,s_2_f_1_outcome,s_2_f_1_prob,s_2_f_2_outcome,s_2_f_2_prob,safe_first,stimulus,subjectID,success,time_elapsed,trial_index,trial_num,trial_type,version,view_history,switching
0,14587,25,,,,2,2,0.0,0.0,1.0,0.0,,0.0-27.0,,0.0,660.0,1.0,0.6,1.0,0.6,0.0,0.4,0.0,0.4,True,,5ec57b52306f25563b4a11c5,,359716,25,,evan-feature22,full_rf_a,,0
1,14588,26,,,,1,1,1.0,0.0,1.0,0.0,,0.0-28.0,,1.0,893.0,1.0,0.608053294,0.0,0.63424552,0.0,0.397152172,0.0,0.347069101,True,,5ec57b52306f25563b4a11c5,,370372,26,,evan-feature22,full_rf_a,,1
2,14589,27,,,,1,1,1.0,0.0,1.0,0.0,,0.0-29.0,,1.0,758.0,1.0,0.642237155,0.0,0.648566321,0.0,0.389407674,1.0,0.285525717,True,,5ec57b52306f25563b4a11c5,,380895,27,,evan-feature22,full_rf_a,,0
3,14590,28,,,,1,1,1.0,1.0,1.0,0.0,,0.0-30.0,,1.0,794.0,1.0,0.661086576,1.0,0.630492543,1.0,0.399058924,0.0,0.25,True,,5ec57b52306f25563b4a11c5,,391455,28,,evan-feature22,full_rf_a,,0
4,14591,29,,,,1,1,1.0,1.0,0.0,-1.0,,0.0-31.0,,-1.0,1429.0,1.0,0.631324137,1.0,0.6269842929999999,0.0,0.38734784299999997,0.0,0.25,True,,5ec57b52306f25563b4a11c5,,402649,29,,evan-feature22,full_rf_a,,0
5,14592,30,,,,2,2,1.0,0.0,0.0,-1.0,,0.0-32.0,,0.0,545.0,0.0,0.6381991370000001,1.0,0.68987999,1.0,0.384107265,0.0,0.271332943,True,,5ec57b52306f25563b4a11c5,,412957,30,,evan-feature22,full_rf_a,,1
6,14593,31,,,,2,2,1.0,1.0,1.0,0.0,,0.0-33.0,,1.0,225.0,1.0,0.66034901,1.0,0.742641349,1.0,0.360225629,1.0,0.25,True,,5ec57b52306f25563b4a11c5,,422948,31,,evan-feature22,full_rf_a,,0
7,14594,32,,,,2,2,0.0,1.0,1.0,0.0,,0.0-34.0,,0.0,545.0,1.0,0.638612418,0.0,0.75,0.0,0.367273939,1.0,0.25,True,,5ec57b52306f25563b4a11c5,,433257,32,,evan-feature22,full_rf_a,,0
8,14595,33,,,,2,2,1.0,1.0,0.0,-1.0,,0.0-35.0,,-1.0,26.0,1.0,0.624340629,0.0,0.75,1.0,0.425829545,1.0,0.25,True,,5ec57b52306f25563b4a11c5,,443047,33,,evan-feature22,full_rf_a,,0
9,14596,34,,,,2,2,0.0,0.0,0.0,-1.0,,0.0-36.0,,0.0,66.0,0.0,0.621999804,1.0,0.75,0.0,0.368609357,0.0,0.25,True,,5ec57b52306f25563b4a11c5,,452878,34,,evan-feature22,full_rf_a,,0
10,14597,35,,,,2,2,1.0,0.0,1.0,0.0,,0.0-37.0,,1.0,1265.0,1.0,0.62666403,1.0,0.75,1.0,0.311151498,0.0,0.25,True,,5ec57b52306f25563b4a11c5,,463907,35,,evan-feature22,full_rf_a,,0
11,14598,36,,,,2,2,0.0,0.0,0.0,-1.0,,0.0-38.0,,0.0,320.0,0.0,0.6819650009999999,1.0,0.75,0.0,0.310763048,0.0,0.25,True,,5ec57b52306f25563b4a11c5,,473991,36,,evan-feature22,full_rf_a,,0
12,14599,37,,,,2,2,1.0,0.0,1.0,0.0,,0.0-39.0,,1.0,3493.0,1.0,0.740626951,1.0,0.75,1.0,0.25,0.0,0.25,True,,5ec57b52306f25563b4a11c5,,487249,37,,evan-feature22,full_rf_a,,0
13,14600,38,,,,2,2,0.0,0.0,1.0,0.0,,0.0-40.0,,0.0,3047.0,1.0,0.739599242,1.0,0.742034978,0.0,0.25397114600000004,0.0,0.25,True,,5ec57b52306f25563b4a11c5,,500060,38,,evan-feature22,full_rf_a,,0
14,14601,39,,,,SLOW,SLOW,,,1.0,0.0,,0.0-41.0,,-3.0,,0.0,0.732341315,0.0,0.72735643,1.0,0.25,0.0,0.25,True,,5ec57b52306f25563b4a11c5,,505867,39,,evan-feature22,full_rf_a,,1
15,14602,40,,,,SLOW,SLOW,,,1.0,0.0,,0.0-42.0,,-3.0,,1.0,0.7062287770000001,1.0,0.75,0.0,0.29002151,0.0,0.288256649,True,,5ec57b52306f25563b4a11c5,,511674,40,,evan-feature22,full_rf_a,,0
16,14603,41,,,,SLOW,SLOW,,,1.0,0.0,,0.0-43.0,,-3.0,,0.0,0.7086029209999999,1.0,0.75,0.0,0.274129113,0.0,0.262851608,True,,5ec57b52306f25563b4a11c5,,517480,41,,evan-feature22,full_rf_a,,0
17,14604,42,,,,2,2,1.0,0.0,1.0,0.0,,0.0-44.0,,1.0,831.0,1.0,0.669189651,0.0,0.727614338,1.0,0.298444036,0.0,0.296944518,True,,5ec57b52306f25563b4a11c5,,528075,42,,evan-feature22,full_rf_a,,1
18,14605,43,,,,2,2,0.0,0.0,1.0,0.0,,0.0-45.0,,0.0,2680.0,1.0,0.6819912929999999,0.0,0.7179434290000001,0.0,0.265003961,0.0,0.28157921199999997,True,,5ec57b52306f25563b4a11c5,,540519,43,,evan-feature22,full_rf_a,,0
19,14606,44,,,,SLOW,SLOW,,,0.0,-1.0,,0.0-46.0,,-3.0,,1.0,0.665275002,1.0,0.723065271,0.0,0.260414971,1.0,0.30973870000000003,True,,5ec57b52306f25563b4a11c5,,546324,44,,evan-feature22,full_rf_a,,1
20,14607,45,,,,2,2,0.0,0.0,1.0,0.0,,0.0-47.0,,0.0,302.0,1.0,0.6660593260000001,1.0,0.728032907,0.0,0.30922817,0.0,0.338778608,True,,5ec57b52306f25563b4a11c5,,556387,45,,evan-feature22,full_rf_a,,1
21,14608,46,,,,2,2,1.0,0.0,1.0,0.0,,0.0-48.0,,1.0,3803.0,0.0,0.702068785,0.0,0.6528750879999999,1.0,0.287329608,0.0,0.35789613200000003,True,,5ec57b52306f25563b4a11c5,,569953,46,,evan-feature22,full_rf_a,,0
22,14609,47,,,,2,2,1.0,1.0,1.0,0.0,,0.0-49.0,,1.0,1899.0,0.0,0.651939787,1.0,0.636725589,1.0,0.284834488,1.0,0.358563756,True,,5ec57b52306f25563b4a11c5,,581617,47,,evan-feature22,full_rf_a,,0
23,14610,48,,,,2,2,1.0,0.0,0.0,-1.0,,0.0-50.0,,0.0,1132.0,1.0,0.67573929,1.0,0.612550049,1.0,0.37130387600000003,0.0,0.383542402,True,,5ec57b52306f25563b4a11c5,,592513,48,,evan-feature22,full_rf_a,,0
24,14611,49,,,,2,2,0.0,0.0,0.0,-1.0,,0.0-51.0,,0.0,636.0,0.0,0.620753801,1.0,0.60513644,0.0,0.385529434,0.0,0.340361743,True,,5ec57b52306f25563b4a11c5,,602912,49,,evan-feature22,full_rf_a,,0
25,14612,50,,,,2,2,1.0,1.0,0.0,-1.0,,0.0-52.0,,-1.0,2483.0,1.0,0.673564893,1.0,0.672437924,1.0,0.292955382,1.0,0.337633795,True,,5ec57b52306f25563b4a11c5,,615160,50,,evan-feature22,full_rf_a,,0
26,14613,51,,,,2,2,1.0,0.0,1.0,0.0,,0.0-53.0,,1.0,418.0,1.0,0.6749427,1.0,0.724197502,1.0,0.32391132100000003,0.0,0.350995264,True,,5ec57b52306f25563b4a11c5,,625340,51,,evan-feature22,full_rf_a,,0
27,14614,52,,,,2,2,1.0,0.0,1.0,0.0,,0.0-54.0,,1.0,1608.0,0.0,0.6940159379999999,1.0,0.75,1.0,0.31710554399999996,0.0,0.413450341,True,,5ec57b52306f25563b4a11c5,,636713,52,,evan-feature22,full_rf_a,,0
28,14615,53,,,,2,2,0.0,1.0,1.0,0.0,,0.0-55.0,,0.0,508.0,1.0,0.6916018270000001,1.0,0.69001187,0.0,0.261817804,1.0,0.40038635,True,,5ec57b52306f25563b4a11c5,,646986,53,,evan-feature22,full_rf_a,,0
29,14616,54,,,,2,2,0.0,1.0,1.0,0.0,,0.0-56.0,,0.0,85.0,1.0,0.641061544,1.0,0.71337992,0.0,0.277296461,1.0,0.47372791700000005,True,,5ec57b52306f25563b4a11c5,,656837,54,,evan-feature22,full_rf_a,,0
30,14617,55,,,,2,2,0.0,0.0,1.0,0.0,,0.0-57.0,,0.0,756.0,0.0,0.6082438520000001,1.0,0.708471106,0.0,0.28745137,0.0,0.564174476,True,,5ec57b52306f25563b4a11c5,,667356,55,,evan-feature22,full_rf_a,,0
31,14618,56,,,,2,2,0.0,1.0,1.0,0.0,,0.0-58.0,,0.0,324.0,0.0,0.6051112120000001,1.0,0.7118147229999999,0.0,0.272390611,1.0,0.5595149939999999,True,,5ec57b52306f25563b4a11c5,,677443,56,,evan-feature22,full_rf_a,,0
32,14619,57,,,,2,2,0.0,0.0,1.0,0.0,,0.0-59.0,,0.0,251.0,1.0,0.582420852,1.0,0.635867583,0.0,0.31089574,0.0,0.5227206520000001,True,,5ec57b52306f25563b4a11c5,,687457,57,,evan-feature22,full_rf_a,,0
33,14620,58,,,,2,2,0.0,1.0,0.0,-1.0,,0.0-60.0,,-1.0,319.0,1.0,0.623195575,1.0,0.655026044,0.0,0.25,1.0,0.560387538,True,,5ec57b52306f25563b4a11c5,,697537,58,,evan-feature22,full_rf_a,,0
34,14621,59,,,,2,2,0.0,1.0,1.0,0.0,,0.0-61.0,,0.0,345.0,0.0,0.601889598,0.0,0.678198724,0.0,0.25,1.0,0.559922936,True,,5ec57b52306f25563b4a11c5,,707645,59,,evan-feature22,full_rf_a,,0
35,14622,60,,,,2,2,0.0,1.0,1.0,0.0,,0.0-62.0,,0.0,580.0,1.0,0.601259914,1.0,0.704681482,0.0,0.33908969299999997,1.0,0.505003715,True,,5ec57b52306f25563b4a11c5,,717987,60,,evan-feature22,full_rf_a,,0
36,14623,61,,,,2,2,0.0,1.0,1.0,0.0,,0.0-63.0,,0.0,289.0,0.0,0.59645454,1.0,0.710437172,0.0,0.327441879,1.0,0.391749613,True,,5ec57b52306f25563b4a11c5,,728039,61,,evan-feature22,full_rf_a,,0
37,14624,62,,,,2,2,0.0,0.0,1.0,0.0,,0.0-64.0,,0.0,218.0,1.0,0.529473,1.0,0.636758527,0.0,0.301338063,0.0,0.365661481,True,,5ec57b52306f25563b4a11c5,,738021,62,,evan-feature22,full_rf_a,,0
38,14625,63,,,,2,2,0.0,0.0,0.0,-1.0,,0.0-65.0,,0.0,557.0,1.0,0.541657162,1.0,0.634541962,0.0,0.343535366,0.0,0.371763742,True,,5ec57b52306f25563b4a11c5,,748339,63,,evan-feature22,full_rf_a,,0
39,14626,64,,,,2,2,1.0,1.0,1.0,0.0,,0.0-66.0,,1.0,721.0,0.0,0.5707533260000001,1.0,0.589121171,1.0,0.326428396,1.0,0.43961622899999997,True,,5ec57b52306f25563b4a11c5,,758824,64,,evan-feature22,full_rf_a,,0
40,14627,65,,,,2,2,0.0,0.0,1.0,0.0,,0.0-67.0,,0.0,1264.0,1.0,0.5707533260000001,0.0,0.589121171,0.0,0.326428396,0.0,0.43961622899999997,True,,5ec57b52306f25563b4a11c5,,769850,65,,evan-feature22,full_rf_a,,0
41,14628,66,,,,2,2,1.0,1.0,1.0,0.0,,0.0-68.0,,1.0,32.0,1.0,0.506271295,1.0,0.641775594,1.0,0.37149690700000004,1.0,0.404330166,True,,5ec57b52306f25563b4a11c5,,779647,66,,evan-feature22,full_rf_a,,0
42,14629,67,,,,2,2,1.0,0.0,0.0,-1.0,,0.0-69.0,,0.0,121.0,1.0,0.455642565,1.0,0.623605825,1.0,0.358753011,0.0,0.346174041,True,,5ec57b52306f25563b4a11c5,,789532,67,,evan-feature22,full_rf_a,,0
43,14630,68,,,,2,2,0.0,1.0,0.0,-1.0,,0.0-70.0,,-1.0,332.0,0.0,0.483677308,1.0,0.5904681070000001,0.0,0.402218411,1.0,0.35344697,True,,5ec57b52306f25563b4a11c5,,799626,68,,evan-feature22,full_rf_a,,0
44,14631,69,,,,2,2,1.0,0.0,0.0,-1.0,,0.0-71.0,,0.0,3543.0,0.0,0.394210977,0.0,0.558925494,1.0,0.540052017,0.0,0.35182128700000004,True,,5ec57b52306f25563b4a11c5,,812930,69,,evan-feature22,full_rf_a,,0
45,14632,70,,,,2,2,1.0,0.0,1.0,0.0,,0.0-72.0,,1.0,508.0,0.0,0.382300414,1.0,0.577670603,1.0,0.607608448,0.0,0.378261578,True,,5ec57b52306f25563b4a11c5,,823201,70,,evan-feature22,full_rf_a,,0
46,14633,71,,,,2,2,1.0,0.0,1.0,0.0,,0.0-73.0,,1.0,413.0,0.0,0.357596762,1.0,0.5929076529999999,1.0,0.6579790010000001,0.0,0.401326777,True,,5ec57b52306f25563b4a11c5,,833377,71,,evan-feature22,full_rf_a,,0
47,14634,72,,,,2,2,1.0,1.0,1.0,0.0,,0.0-74.0,,1.0,720.0,0.0,0.362033495,1.0,0.582308608,1.0,0.649195052,1.0,0.355158505,True,,5ec57b52306f25563b4a11c5,,843860,72,,evan-feature22,full_rf_a,,0
48,14635,73,,,,2,2,1.0,0.0,1.0,0.0,,0.0-75.0,,1.0,1011.0,0.0,0.369620635,0.0,0.669100864,1.0,0.706059111,0.0,0.362516241,True,,5ec57b52306f25563b4a11c5,,854633,73,,evan-feature22,full_rf_a,,0
49,14636,74,,,,2,2,1.0,1.0,1.0,0.0,,0.0-76.0,,1.0,1067.0,0.0,0.41477751399999996,1.0,0.7284416779999999,1.0,0.7182656940000001,1.0,0.36228040899999997,True,,5ec57b52306f25563b4a11c5,,865462,74,,evan-feature22,full_rf_a,,0
50,14637,75,,,,2,2,0.0,0.0,0.0,-1.0,,0.0-77.0,,0.0,277.0,1.0,0.37675460299999997,1.0,0.703250285,0.0,0.75,0.0,0.461979164,True,,5ec57b52306f25563b4a11c5,,875501,75,,evan-feature22,full_rf_a,,0
51,14638,76,,,,2,2,0.0,1.0,0.0,-1.0,,0.0-78.0,,-1.0,559.0,1.0,0.398716075,1.0,0.6723864890000001,0.0,0.674153818,1.0,0.519029516,True,,5ec57b52306f25563b4a11c5,,885826,76,,evan-feature22,full_rf_a,,0
52,14639,77,,,,2,2,1.0,0.0,1.0,0.0,,0.0-79.0,,1.0,391.0,0.0,0.34677856700000004,1.0,0.69057175,1.0,0.6822438540000001,0.0,0.477292237,True,,5ec57b52306f25563b4a11c5,,895981,77,,evan-feature22,full_rf_a,,0
53,14640,78,,,,2,2,1.0,0.0,0.0,-1.0,,0.0-80.0,,0.0,1007.0,1.0,0.28580469199999997,0.0,0.68408818,1.0,0.684207565,0.0,0.49780448299999996,True,,5ec57b52306f25563b4a11c5,,906753,78,,evan-feature22,full_rf_a,,0
54,14642,80,,,,2,2,1.0,0.0,1.0,0.0,,0.0-82.0,,1.0,520.0,0.0,0.25,0.0,0.7405808970000001,1.0,0.679614108,0.0,0.436436964,True,,5ec57b52306f25563b4a11c5,,919959,80,,evan-feature22,full_rf_a,,0
55,14643,81,,,,2,2,0.0,1.0,0.0,-1.0,,0.0-83.0,,-1.0,381.0,1.0,0.29890393,1.0,0.730505706,0.0,0.7328203320000001,1.0,0.439256938,True,,5ec57b52306f25563b4a11c5,,930103,81,,evan-feature22,full_rf_a,,0
56,14644,82,,,,2,2,0.0,1.0,1.0,0.0,,0.0-84.0,,0.0,207.0,0.0,0.326762398,0.0,0.7148059609999999,0.0,0.75,1.0,0.44389608799999997,True,,5ec57b52306f25563b4a11c5,,940073,82,,evan-feature22,full_rf_a,,0
57,14645,83,,,,2,2,1.0,0.0,1.0,0.0,,0.0-85.0,,1.0,473.0,1.0,0.295168515,1.0,0.739760854,1.0,0.719947008,0.0,0.35277284600000003,True,,5ec57b52306f25563b4a11c5,,950309,83,,evan-feature22,full_rf_a,,0
58,14646,84,,,,2,2,1.0,1.0,1.0,0.0,,0.0-86.0,,1.0,396.0,1.0,0.25,1.0,0.70781482,1.0,0.75,1.0,0.286095925,True,,5ec57b52306f25563b4a11c5,,960470,84,,evan-feature22,full_rf_a,,0
59,14647,85,,,,2,2,1.0,0.0,0.0,-1.0,,0.0-87.0,,0.0,401.0,1.0,0.25638190899999996,1.0,0.704088163,1.0,0.75,0.0,0.26872601399999996,True,,5ec57b52306f25563b4a11c5,,970634,85,,evan-feature22,full_rf_a,,0
60,14648,86,,,,2,2,1.0,0.0,0.0,-1.0,,0.0-88.0,,0.0,79.0,1.0,0.271581126,0.0,0.669760107,1.0,0.733896663,0.0,0.273244572,True,,5ec57b52306f25563b4a11c5,,980477,86,,evan-feature22,full_rf_a,,0
61,14649,87,,,,2,2,1.0,0.0,0.0,-1.0,,0.0-89.0,,0.0,326.0,0.0,0.257144401,1.0,0.600575706,1.0,0.74488122,0.0,0.25,True,,5ec57b52306f25563b4a11c5,,990568,87,,evan-feature22,full_rf_a,,0
62,14650,88,,,,2,2,1.0,0.0,1.0,0.0,,0.0-90.0,,1.0,306.0,0.0,0.25,1.0,0.616870026,1.0,0.723610234,0.0,0.25,True,,5ec57b52306f25563b4a11c5,,1000638,88,,evan-feature22,full_rf_a,,0
63,14651,89,,,,2,2,0.0,0.0,0.0,-1.0,,0.0-91.0,,0.0,571.0,0.0,0.25,0.0,0.583540187,0.0,0.7041042559999999,0.0,0.285961995,True,,5ec57b52306f25563b4a11c5,,1010974,89,,evan-feature22,full_rf_a,,0
64,14652,90,,,,2,2,1.0,0.0,1.0,0.0,,0.0-92.0,,1.0,129.0,0.0,0.27254536,0.0,0.53875765,1.0,0.693783448,0.0,0.284961652,True,,5ec57b52306f25563b4a11c5,,1020866,90,,evan-feature22,full_rf_a,,0
65,14653,91,,,,2,2,0.0,1.0,0.0,-1.0,,0.0-93.0,,-1.0,88.0,0.0,0.25,1.0,0.548431252,0.0,0.734221895,1.0,0.279445214,True,,5ec57b52306f25563b4a11c5,,1030719,91,,evan-feature22,full_rf_a,,0
66,14654,92,,,,2,2,1.0,0.0,1.0,0.0,,0.0-94.0,,1.0,433.0,0.0,0.258640684,1.0,0.545878066,1.0,0.725245965,0.0,0.31487537,True,,5ec57b52306f25563b4a11c5,,1040916,92,,evan-feature22,full_rf_a,,0
67,14655,93,,,,2,2,1.0,0.0,1.0,0.0,,0.0-95.0,,1.0,532.0,1.0,0.251103711,0.0,0.5776290629999999,1.0,0.696320133,0.0,0.317831047,True,,5ec57b52306f25563b4a11c5,,1051213,93,,evan-feature22,full_rf_a,,0
68,14656,94,,,,2,2,1.0,0.0,1.0,0.0,,0.0-96.0,,1.0,553.0,0.0,0.276630292,1.0,0.617329858,1.0,0.73838088,0.0,0.261471582,True,,5ec57b52306f25563b4a11c5,,1061531,94,,evan-feature22,full_rf_a,,0
69,14657,95,,,,2,2,1.0,1.0,0.0,-1.0,,0.0-97.0,,-1.0,348.0,1.0,0.297716424,1.0,0.618863717,1.0,0.7402358259999999,1.0,0.262600834,True,,5ec57b52306f25563b4a11c5,,1071643,95,,evan-feature22,full_rf_a,,0
70,14658,96,,,,2,2,1.0,0.0,1.0,0.0,,0.0-98.0,,1.0,570.0,0.0,0.290935512,1.0,0.695370945,1.0,0.706570507,0.0,0.280030553,True,,5ec57b52306f25563b4a11c5,,1081976,96,,evan-feature22,full_rf_a,,0
71,14659,97,,,,2,2,1.0,0.0,1.0,0.0,,0.0-99.0,,1.0,540.0,0.0,0.25,0.0,0.6465277079999999,1.0,0.67766682,0.0,0.25,True,,5ec57b52306f25563b4a11c5,,1092282,97,,evan-feature22,full_rf_a,,0
72,14660,98,,,,2,2,1.0,1.0,1.0,0.0,,0.0-100.0,,1.0,604.0,0.0,0.26463816,1.0,0.636100213,1.0,0.646048507,1.0,0.265607101,True,,5ec57b52306f25563b4a11c5,,1102650,98,,evan-feature22,full_rf_a,,0
73,14661,99,,,,2,2,1.0,0.0,1.0,0.0,,0.0-101.0,,1.0,463.0,0.0,0.314340707,1.0,0.667795927,1.0,0.613630805,0.0,0.25,True,,5ec57b52306f25563b4a11c5,,1112878,99,,evan-feature22,full_rf_a,,0
74,14662,100,,,,2,2,1.0,0.0,1.0,0.0,,0.0-102.0,,1.0,333.0,0.0,0.28685784,1.0,0.6622549529999999,1.0,0.652154117,0.0,0.25,True,,5ec57b52306f25563b4a11c5,,1122975,100,,evan-feature22,full_rf_a,,0
75,14663,101,,,,2,2,0.0,0.0,0.0,-1.0,,0.0-103.0,,0.0,535.0,0.0,0.304106554,0.0,0.631289538,0.0,0.707041942,0.0,0.29314237,True,,5ec57b52306f25563b4a11c5,,1133274,101,,evan-feature22,full_rf_a,,0
76,14664,102,,,,2,2,1.0,0.0,0.0,-1.0,,0.0-104.0,,0.0,515.0,1.0,0.304806932,1.0,0.571167718,1.0,0.680472346,0.0,0.25,True,,5ec57b52306f25563b4a11c5,,1143553,102,,evan-feature22,full_rf_a,,0
77,14665,103,,,,2,2,1.0,1.0,0.0,-1.0,,0.0-105.0,,-1.0,466.0,0.0,0.37919861,0.0,0.5724849710000001,1.0,0.705638003,1.0,0.30179300600000003,True,,5ec57b52306f25563b4a11c5,,1153783,103,,evan-feature22,full_rf_a,,0
78,14666,104,,,,2,2,1.0,0.0,0.0,-1.0,,0.0-106.0,,0.0,503.0,1.0,0.464277969,0.0,0.554034373,1.0,0.7372627340000001,0.0,0.264699741,True,,5ec57b52306f25563b4a11c5,,1164049,104,,evan-feature22,full_rf_a,,0
79,14667,105,,,,2,2,0.0,0.0,1.0,0.0,,0.0-107.0,,0.0,441.0,0.0,0.465104323,0.0,0.530793115,0.0,0.75,0.0,0.31683071,True,,5ec57b52306f25563b4a11c5,,1174253,105,,evan-feature22,full_rf_a,,0
80,14668,106,,,,2,2,0.0,0.0,0.0,-1.0,,0.0-108.0,,0.0,339.0,0.0,0.465104323,0.0,0.530793115,0.0,0.75,0.0,0.31683071,True,,5ec57b52306f25563b4a11c5,,1184355,106,,evan-feature22,full_rf_a,,0
81,14669,107,,,,2,2,1.0,0.0,0.0,-1.0,,0.0-109.0,,0.0,333.0,0.0,0.46833986,1.0,0.570249239,1.0,0.7244472590000001,0.0,0.364114163,True,,5ec57b52306f25563b4a11c5,,1194454,107,,evan-feature22,full_rf_a,,0
82,14670,108,,,,2,2,0.0,0.0,0.0,-1.0,,0.0-110.0,,0.0,877.0,1.0,0.445444024,1.0,0.649673355,0.0,0.6845441290000001,0.0,0.300660449,True,,5ec57b52306f25563b4a11c5,,1205092,108,,evan-feature22,full_rf_a,,0
83,14671,109,,,,2,2,1.0,0.0,0.0,-1.0,,0.0-111.0,,0.0,660.0,1.0,0.39909721299999995,1.0,0.6715179509999999,1.0,0.742310028,0.0,0.35496088299999995,True,,5ec57b52306f25563b4a11c5,,1215516,109,,evan-feature22,full_rf_a,,0
84,14672,110,,,,2,2,1.0,1.0,0.0,-1.0,,0.0-112.0,,-1.0,649.0,0.0,0.37956104799999996,0.0,0.694725302,1.0,0.7181651309999999,1.0,0.38726906299999997,True,,5ec57b52306f25563b4a11c5,,1225929,110,,evan-feature22,full_rf_a,,0
85,14673,111,,,,2,2,1.0,0.0,0.0,-1.0,,0.0-113.0,,0.0,367.0,1.0,0.404995034,1.0,0.724375412,1.0,0.6910946859999999,0.0,0.387187347,True,,5ec57b52306f25563b4a11c5,,1236058,111,,evan-feature22,full_rf_a,,0
86,14674,112,,,,2,2,1.0,0.0,0.0,-1.0,,0.0-114.0,,0.0,678.0,1.0,0.461740803,0.0,0.75,1.0,0.75,0.0,0.34872038200000005,True,,5ec57b52306f25563b4a11c5,,1246500,112,,evan-feature22,full_rf_a,,0
87,14675,113,,,,2,2,1.0,0.0,1.0,0.0,,0.0-115.0,,1.0,638.0,0.0,0.43821380600000004,0.0,0.738833273,1.0,0.728286963,0.0,0.399538128,True,,5ec57b52306f25563b4a11c5,,1256900,113,,evan-feature22,full_rf_a,,0
88,14676,114,,,,2,2,0.0,0.0,0.0,-1.0,,0.0-116.0,,0.0,442.0,1.0,0.41709882,1.0,0.736666736,0.0,0.75,0.0,0.389095584,True,,5ec57b52306f25563b4a11c5,,1267107,114,,evan-feature22,full_rf_a,,0
89,14677,115,,,,2,2,1.0,0.0,0.0,-1.0,,0.0-117.0,,0.0,289.0,0.0,0.39749009799999996,0.0,0.744320029,1.0,0.75,0.0,0.363848678,True,,5ec57b52306f25563b4a11c5,,1277160,115,,evan-feature22,full_rf_a,,0
90,14678,116,,,,2,2,1.0,0.0,1.0,0.0,,0.0-118.0,,1.0,274.0,0.0,0.392653706,1.0,0.75,1.0,0.75,0.0,0.384386976,True,,5ec57b52306f25563b4a11c5,,1287198,116,,evan-feature22,full_rf_a,,0
91,14679,117,,,,2,2,1.0,1.0,1.0,0.0,,0.0-119.0,,1.0,439.0,0.0,0.31190902600000003,0.0,0.75,1.0,0.732413819,1.0,0.413082932,True,,5ec57b52306f25563b4a11c5,,1297402,117,,evan-feature22,full_rf_a,,0
92,14680,118,,,,2,2,1.0,0.0,0.0,-1.0,,0.0-120.0,,0.0,465.0,0.0,0.366917648,1.0,0.740073855,1.0,0.75,0.0,0.352861979,True,,5ec57b52306f25563b4a11c5,,1307631,118,,evan-feature22,full_rf_a,,0
93,14681,119,,,,SLOW,SLOW,,,0.0,-1.0,,0.0-121.0,,-3.0,,1.0,0.3645172,1.0,0.721770713,1.0,0.75,0.0,0.404074511,True,,5ec57b52306f25563b4a11c5,,1313438,119,,evan-feature22,full_rf_a,,1
94,14682,120,,,,2,2,1.0,0.0,0.0,-1.0,,0.0-122.0,,0.0,640.0,0.0,0.35205600299999995,1.0,0.68983859,1.0,0.739735447,0.0,0.366895945,True,,5ec57b52306f25563b4a11c5,,1323842,120,,evan-feature22,full_rf_a,,1
95,14683,121,,,,2,2,1.0,0.0,0.0,-1.0,,0.0-123.0,,0.0,581.0,1.0,0.40998722600000004,0.0,0.720859127,1.0,0.673854955,0.0,0.368528541,True,,5ec57b52306f25563b4a11c5,,1334188,121,,evan-feature22,full_rf_a,,0
96,14684,122,,,,2,2,1.0,1.0,1.0,0.0,,0.0-124.0,,1.0,525.0,1.0,0.353625316,0.0,0.75,1.0,0.695605473,1.0,0.38303674200000004,True,,5ec57b52306f25563b4a11c5,,1344477,122,,evan-feature22,full_rf_a,,0
97,14685,123,,,,2,2,0.0,0.0,0.0,-1.0,,0.0-125.0,,0.0,91.0,0.0,0.359216989,1.0,0.75,0.0,0.6987915090000001,0.0,0.35169046200000004,True,,5ec57b52306f25563b4a11c5,,1354330,123,,evan-feature22,full_rf_a,,0
98,14686,124,,,,SLOW,SLOW,,,1.0,0.0,,0.0-126.0,,-3.0,,0.0,0.35834496899999996,1.0,0.75,1.0,0.707067742,0.0,0.416763636,True,,5ec57b52306f25563b4a11c5,,1360136,124,,evan-feature22,full_rf_a,,1
99,14687,125,,,,2,2,0.0,1.0,1.0,0.0,,0.0-127.0,,0.0,330.0,0.0,0.38741613799999997,1.0,0.7177369570000001,0.0,0.734902455,1.0,0.49438664299999996,True,,5ec57b52306f25563b4a11c5,,1370230,125,,evan-feature22,full_rf_a,,1
100,14688,126,,,,2,2,1.0,0.0,0.0,-1.0,,0.0-128.0,,0.0,2451.0,0.0,0.405255252,1.0,0.7300466640000001,1.0,0.7027748070000001,0.0,0.504359668,True,,5ec57b52306f25563b4a11c5,,1382446,126,,evan-feature22,full_rf_a,,0
101,14689,127,,,,2,2,1.0,1.0,0.0,-1.0,,0.0-129.0,,-1.0,972.0,0.0,0.40697073,1.0,0.7260142190000001,1.0,0.724461982,1.0,0.522779179,True,,5ec57b52306f25563b4a11c5,,1393185,127,,evan-feature22,full_rf_a,,0
102,14690,128,,,,2,2,1.0,1.0,0.0,-1.0,,0.0-130.0,,-1.0,126.0,0.0,0.43906215299999996,0.0,0.7252802340000001,1.0,0.719079934,1.0,0.5712990579999999,True,,5ec57b52306f25563b4a11c5,,1403075,128,,evan-feature22,full_rf_a,,0
103,14691,129,,,,2,2,1.0,1.0,0.0,-1.0,,0.0-131.0,,-1.0,3400.0,0.0,0.4076705,1.0,0.73280499,1.0,0.681313127,1.0,0.523891346,True,,5ec57b52306f25563b4a11c5,,1416238,129,,evan-feature22,full_rf_a,,0
104,14692,130,,,,2,2,0.0,1.0,0.0,-1.0,,0.0-132.0,,-1.0,1780.0,0.0,0.399102911,1.0,0.730498344,0.0,0.661080239,1.0,0.46742603,True,,5ec57b52306f25563b4a11c5,,1427782,130,,evan-feature22,full_rf_a,,0
105,14693,131,,,,2,2,0.0,0.0,1.0,0.0,,0.0-133.0,,0.0,541.0,0.0,0.356477282,1.0,0.712296395,0.0,0.641812684,0.0,0.44868414,True,,5ec57b52306f25563b4a11c5,,1438089,131,,evan-feature22,full_rf_a,,0
106,14694,132,,,,2,2,1.0,1.0,0.0,-1.0,,0.0-134.0,,-1.0,486.0,0.0,0.462760722,0.0,0.692349322,1.0,0.700947931,1.0,0.394680266,True,,5ec57b52306f25563b4a11c5,,1448341,132,,evan-feature22,full_rf_a,,0
107,14695,133,,,,2,2,1.0,0.0,0.0,-1.0,,0.0-135.0,,0.0,1342.0,1.0,0.422306413,0.0,0.718375916,1.0,0.706340917,0.0,0.367787185,True,,5ec57b52306f25563b4a11c5,,1459447,133,,evan-feature22,full_rf_a,,0
108,14697,135,,,,2,2,0.0,0.0,0.0,-1.0,,0.0-137.0,,0.0,239.0,0.0,0.4582233,1.0,0.643834117,0.0,0.75,0.0,0.39615823299999997,True,,5ec57b52306f25563b4a11c5,,1471836,135,,evan-feature22,full_rf_a,,0
109,14698,136,,,,2,2,1.0,0.0,0.0,-1.0,,0.0-138.0,,0.0,570.0,1.0,0.43813437899999996,1.0,0.651283804,1.0,0.729674191,0.0,0.37711048,True,,5ec57b52306f25563b4a11c5,,1482170,136,,evan-feature22,full_rf_a,,0
110,14699,137,,,,2,2,0.0,1.0,0.0,-1.0,,0.0-139.0,,-1.0,522.0,0.0,0.471199094,1.0,0.6470010979999999,0.0,0.715008097,1.0,0.410656191,True,,5ec57b52306f25563b4a11c5,,1492457,137,,evan-feature22,full_rf_a,,0
111,14700,138,,,,2,2,1.0,0.0,1.0,0.0,,0.0-140.0,,1.0,24.0,1.0,0.42486406,1.0,0.629771829,1.0,0.6550939960000001,0.0,0.459093873,True,,5ec57b52306f25563b4a11c5,,1502249,138,,evan-feature22,full_rf_a,,0
112,14701,139,,,,2,2,0.0,0.0,1.0,0.0,,0.0-141.0,,0.0,2423.0,0.0,0.4803197,0.0,0.645842715,0.0,0.6421749920000001,0.0,0.443092151,True,,5ec57b52306f25563b4a11c5,,1514435,139,,evan-feature22,full_rf_a,,0
113,14702,140,,,,2,2,0.0,0.0,1.0,0.0,,0.0-142.0,,0.0,841.0,1.0,0.521848997,1.0,0.735801074,0.0,0.6691348460000001,0.0,0.45259351600000003,True,,5ec57b52306f25563b4a11c5,,1525040,140,,evan-feature22,full_rf_a,,0
114,14703,141,,,,2,2,1.0,0.0,0.0,-1.0,,0.0-143.0,,0.0,465.0,0.0,0.49565621299999996,0.0,0.742400847,1.0,0.661512553,0.0,0.483110831,True,,5ec57b52306f25563b4a11c5,,1535271,141,,evan-feature22,full_rf_a,,0
115,14704,142,,,,2,2,0.0,1.0,1.0,0.0,,0.0-144.0,,0.0,724.0,0.0,0.521564361,1.0,0.731078632,0.0,0.6774886809999999,1.0,0.483263956,True,,5ec57b52306f25563b4a11c5,,1545759,142,,evan-feature22,full_rf_a,,0
116,14705,143,,,,2,2,0.0,1.0,1.0,0.0,,0.0-145.0,,0.0,506.0,1.0,0.558893102,1.0,0.719810023,0.0,0.67461031,1.0,0.499349834,True,,5ec57b52306f25563b4a11c5,,1556029,143,,evan-feature22,full_rf_a,,0
117,14706,144,,,,2,2,1.0,1.0,0.0,-1.0,,0.0-146.0,,-1.0,663.0,1.0,0.611031046,0.0,0.75,1.0,0.688072995,1.0,0.5321422729999999,True,,5ec57b52306f25563b4a11c5,,1566455,144,,evan-feature22,full_rf_a,,0
118,14707,145,,,,2,2,1.0,0.0,1.0,0.0,,0.0-147.0,,1.0,3971.0,1.0,0.633223941,0.0,0.713567728,1.0,0.75,0.0,0.48185314700000004,True,,5ec57b52306f25563b4a11c5,,1580192,145,,evan-feature22,full_rf_a,,0
119,14708,146,,,,2,2,0.0,1.0,1.0,0.0,,0.0-148.0,,0.0,180.0,1.0,0.664001694,1.0,0.705509768,0.0,0.75,1.0,0.500211065,True,,5ec57b52306f25563b4a11c5,,1590136,146,,evan-feature22,full_rf_a,,0
120,14709,147,,,,2,2,1.0,0.0,0.0,-1.0,,0.0-149.0,,0.0,1238.0,1.0,0.664001694,0.0,0.705509768,1.0,0.75,0.0,0.500211065,True,,5ec57b52306f25563b4a11c5,,1601137,147,,evan-feature22,full_rf_a,,0
121,14710,148,,,,2,2,0.0,1.0,0.0,-1.0,,0.0-150.0,,-1.0,189.0,0.0,0.696508041,1.0,0.71066027,0.0,0.717028709,1.0,0.49792991,True,,5ec57b52306f25563b4a11c5,,1611094,148,,evan-feature22,full_rf_a,,0
122,14711,149,,,,2,2,1.0,0.0,1.0,0.0,,0.0-151.0,,1.0,441.0,1.0,0.699883272,0.0,0.75,1.0,0.713543895,0.0,0.496962643,True,,5ec57b52306f25563b4a11c5,,1621298,149,,evan-feature22,full_rf_a,,0
123,14712,150,,,,2,2,1.0,0.0,0.0,-1.0,,0.0-152.0,,0.0,813.0,1.0,0.741163419,1.0,0.75,1.0,0.64691024,0.0,0.513858197,True,,5ec57b52306f25563b4a11c5,,1631875,150,,evan-feature22,full_rf_a,,0
124,14713,151,,,,2,2,1.0,1.0,1.0,0.0,,0.0-153.0,,1.0,580.0,1.0,0.75,1.0,0.70816558,1.0,0.594499079,1.0,0.48502124,True,,5ec57b52306f25563b4a11c5,,1642221,151,,evan-feature22,full_rf_a,,0
125,14714,152,,,,2,2,0.0,1.0,0.0,-1.0,,0.0-154.0,,-1.0,278.0,1.0,0.75,1.0,0.721848901,0.0,0.62197249,1.0,0.48263586399999997,True,,5ec57b52306f25563b4a11c5,,1652262,152,,evan-feature22,full_rf_a,,0
126,14715,153,,,,2,2,1.0,0.0,1.0,0.0,,0.0-155.0,,1.0,925.0,1.0,0.75,1.0,0.74813071,1.0,0.584357161,0.0,0.411477782,True,,5ec57b52306f25563b4a11c5,,1662951,153,,evan-feature22,full_rf_a,,0
127,14716,154,,,,2,2,1.0,1.0,0.0,-1.0,,0.0-156.0,,-1.0,394.0,1.0,0.75,1.0,0.75,1.0,0.52287236,1.0,0.488290656,True,,5ec57b52306f25563b4a11c5,,1673108,154,,evan-feature22,full_rf_a,,0
128,14717,155,,,,2,2,1.0,1.0,0.0,-1.0,,0.0-157.0,,-1.0,3847.0,1.0,0.75,0.0,0.75,1.0,0.544321581,1.0,0.53143059,True,,5ec57b52306f25563b4a11c5,,1686720,155,,evan-feature22,full_rf_a,,0
129,14718,156,,,,2,2,0.0,1.0,0.0,-1.0,,0.0-158.0,,-1.0,1573.0,1.0,0.726754564,1.0,0.75,0.0,0.5129306370000001,1.0,0.530592445,True,,5ec57b52306f25563b4a11c5,,1698057,156,,evan-feature22,full_rf_a,,0
130,14719,157,,,,2,2,0.0,1.0,1.0,0.0,,0.0-159.0,,0.0,524.0,0.0,0.75,1.0,0.7392590729999999,0.0,0.479875835,1.0,0.547007051,True,,5ec57b52306f25563b4a11c5,,1708346,157,,evan-feature22,full_rf_a,,0
131,14720,158,,,,2,2,0.0,0.0,1.0,0.0,,0.0-160.0,,0.0,1050.0,1.0,0.75,1.0,0.7393376979999999,0.0,0.546045419,0.0,0.541267353,True,,5ec57b52306f25563b4a11c5,,1719161,158,,evan-feature22,full_rf_a,,0
132,14721,159,,,,2,2,1.0,0.0,1.0,0.0,,0.0-161.0,,1.0,566.0,0.0,0.75,1.0,0.75,1.0,0.485725895,0.0,0.527625395,True,,5ec57b52306f25563b4a11c5,,1729491,159,,evan-feature22,full_rf_a,,0
133,14722,160,,,,2,2,0.0,0.0,0.0,-1.0,,0.0-162.0,,0.0,704.0,1.0,0.75,0.0,0.725087974,0.0,0.488603595,0.0,0.504019206,True,,5ec57b52306f25563b4a11c5,,1739960,160,,evan-feature22,full_rf_a,,0
134,14723,161,,,,2,2,1.0,1.0,0.0,-1.0,,0.0-163.0,,-1.0,125.0,1.0,0.745504295,0.0,0.75,1.0,0.452379914,1.0,0.50131194,True,,5ec57b52306f25563b4a11c5,,1749847,161,,evan-feature22,full_rf_a,,0
135,14724,162,,,,2,2,0.0,1.0,0.0,-1.0,,0.0-164.0,,-1.0,1529.0,1.0,0.728513874,0.0,0.75,0.0,0.44125567200000004,1.0,0.531454591,True,,5ec57b52306f25563b4a11c5,,1761142,162,,evan-feature22,full_rf_a,,0
136,14725,163,,,,2,2,1.0,0.0,1.0,0.0,,0.0-165.0,,1.0,419.0,0.0,0.73790804,1.0,0.75,1.0,0.413036656,0.0,0.524619035,True,,5ec57b52306f25563b4a11c5,,1771325,163,,evan-feature22,full_rf_a,,0
137,14726,164,,,,2,2,1.0,0.0,0.0,-1.0,,0.0-166.0,,0.0,443.0,1.0,0.7080961309999999,1.0,0.708666865,1.0,0.431915581,0.0,0.481819489,True,,5ec57b52306f25563b4a11c5,,1781533,164,,evan-feature22,full_rf_a,,0
138,14727,165,,,,2,2,0.0,0.0,0.0,-1.0,,0.0-167.0,,0.0,365.0,1.0,0.721378003,1.0,0.71605913,0.0,0.36642387,0.0,0.5036739929999999,True,,5ec57b52306f25563b4a11c5,,1791662,165,,evan-feature22,full_rf_a,,0
139,14728,166,,,,2,2,0.0,1.0,0.0,-1.0,,0.0-168.0,,-1.0,645.0,1.0,0.7340618959999999,1.0,0.699323252,0.0,0.35298046299999997,1.0,0.511241692,True,,5ec57b52306f25563b4a11c5,,1802072,166,,evan-feature22,full_rf_a,,0
140,14729,167,,,,2,2,0.0,1.0,1.0,0.0,,0.0-169.0,,0.0,407.0,1.0,0.75,1.0,0.70412698,0.0,0.380734814,1.0,0.529580116,True,,5ec57b52306f25563b4a11c5,,1812245,167,,evan-feature22,full_rf_a,,0
141,14730,168,,,,2,2,1.0,0.0,0.0,-1.0,,0.0-170.0,,0.0,393.0,1.0,0.7436654909999999,1.0,0.711182751,1.0,0.41125331,0.0,0.49554405,True,,5ec57b52306f25563b4a11c5,,1822406,168,,evan-feature22,full_rf_a,,0
142,14731,169,,,,2,2,0.0,0.0,0.0,-1.0,,0.0-171.0,,0.0,261.0,1.0,0.731607915,1.0,0.651774583,0.0,0.35688023,0.0,0.45194491600000003,True,,5ec57b52306f25563b4a11c5,,1832432,169,,evan-feature22,full_rf_a,,0
143,14732,170,,,,SLOW,SLOW,,,1.0,0.0,,0.0-172.0,,-3.0,,0.0,0.75,0.0,0.75,0.0,0.283145374,0.0,0.528608005,True,,5ec57b52306f25563b4a11c5,,1838239,170,,evan-feature22,full_rf_a,,1
144,14733,171,,,,2,2,0.0,0.0,1.0,0.0,,0.0-173.0,,0.0,381.0,1.0,0.7491416890000001,1.0,0.7423785959999999,0.0,0.29135870399999997,0.0,0.498888318,True,,5ec57b52306f25563b4a11c5,,1848384,171,,evan-feature22,full_rf_a,,1
145,14734,172,,,,2,2,0.0,1.0,1.0,0.0,,0.0-174.0,,0.0,501.0,1.0,0.708569387,1.0,0.717682277,0.0,0.294421699,1.0,0.493838163,True,,5ec57b52306f25563b4a11c5,,1858650,172,,evan-feature22,full_rf_a,,0
146,14735,173,,,,2,2,0.0,0.0,0.0,-1.0,,0.0-175.0,,0.0,406.0,1.0,0.75,0.0,0.7383382159999999,0.0,0.356098707,0.0,0.442533405,True,,5ec57b52306f25563b4a11c5,,1868820,173,,evan-feature22,full_rf_a,,0
147,14736,174,,,,2,2,0.0,1.0,0.0,-1.0,,0.0-176.0,,-1.0,291.0,1.0,0.744527075,1.0,0.75,0.0,0.334127506,1.0,0.393165805,True,,5ec57b52306f25563b4a11c5,,1878876,174,,evan-feature22,full_rf_a,,0
148,14737,175,,,,2,2,1.0,0.0,0.0,-1.0,,0.0-177.0,,0.0,3.0,1.0,0.75,0.0,0.75,1.0,0.33571021799999995,0.0,0.350393962,True,,5ec57b52306f25563b4a11c5,,1888644,175,,evan-feature22,full_rf_a,,0
149,14738,176,,,,2,2,0.0,0.0,0.0,-1.0,,0.0-178.0,,0.0,555.0,0.0,0.75,0.0,0.75,0.0,0.313628297,0.0,0.36349657399999996,True,,5ec57b52306f25563b4a11c5,,1898964,176,,evan-feature22,full_rf_a,,0
150,14739,177,,,,2,2,0.0,0.0,1.0,0.0,,0.0-179.0,,0.0,1308.0,1.0,0.75,1.0,0.734284182,0.0,0.262667667,0.0,0.380199119,True,,5ec57b52306f25563b4a11c5,,1910038,177,,evan-feature22,full_rf_a,,0
151,14740,178,,,,2,2,0.0,0.0,0.0,-1.0,,0.0-180.0,,0.0,767.0,1.0,0.75,1.0,0.75,0.0,0.25,0.0,0.394494013,True,,5ec57b52306f25563b4a11c5,,1920570,178,,evan-feature22,full_rf_a,,0
152,14741,179,,,,2,2,0.0,1.0,1.0,0.0,,0.0-181.0,,0.0,992.0,1.0,0.722298145,0.0,0.7357822340000001,0.0,0.25,1.0,0.319142121,True,,5ec57b52306f25563b4a11c5,,1931326,179,,evan-feature22,full_rf_a,,0
153,14742,180,,,,2,2,0.0,1.0,1.0,0.0,,0.0-182.0,,0.0,210.0,0.0,0.73149275,1.0,0.724276446,0.0,0.305856907,1.0,0.281315057,True,,5ec57b52306f25563b4a11c5,,1941300,180,,evan-feature22,full_rf_a,,0
154,14743,181,,,,2,2,0.0,0.0,0.0,-1.0,,0.0-183.0,,0.0,372.0,1.0,0.7458732690000001,0.0,0.7336382459999999,0.0,0.272571964,0.0,0.266021999,True,,5ec57b52306f25563b4a11c5,,1951437,181,,evan-feature22,full_rf_a,,0
155,14744,182,,,,2,2,1.0,0.0,0.0,-1.0,,0.0-184.0,,0.0,2118.0,1.0,0.705579037,1.0,0.720778292,1.0,0.320238144,0.0,0.30971744,True,,5ec57b52306f25563b4a11c5,,1963319,182,,evan-feature22,full_rf_a,,0
156,14745,183,,,,2,2,0.0,0.0,0.0,-1.0,,0.0-185.0,,0.0,423.0,1.0,0.700425648,1.0,0.7198784009999999,0.0,0.272590393,0.0,0.304182931,True,,5ec57b52306f25563b4a11c5,,1973507,183,,evan-feature22,full_rf_a,,0
157,14746,184,,,,2,2,0.0,0.0,0.0,-1.0,,0.0-186.0,,0.0,994.0,1.0,0.735590785,1.0,0.722714973,0.0,0.25,0.0,0.323421091,True,,5ec57b52306f25563b4a11c5,,1984266,184,,evan-feature22,full_rf_a,,0
158,14747,185,,,,2,2,0.0,0.0,0.0,-1.0,,0.0-187.0,,0.0,248.0,1.0,0.724807662,0.0,0.63146213,0.0,0.36836492600000004,0.0,0.34592153299999995,True,,5ec57b52306f25563b4a11c5,,1994278,185,,evan-feature22,full_rf_a,,0
159,14748,186,,,,2,2,0.0,0.0,0.0,-1.0,,0.0-188.0,,0.0,327.0,0.0,0.7352796909999999,1.0,0.555111392,0.0,0.36003922,0.0,0.31433779999999995,True,,5ec57b52306f25563b4a11c5,,2004370,186,,evan-feature22,full_rf_a,,0
160,14749,187,notice,,,,,,,,,,0.0-189.0,"{""Q0"":""No""}",,15265.0,,,,,,,,,True,,5ec57b52306f25563b4a11c5,,2019636,187,Q,survey-text,full_rf_a,,1
161,14750,188,track1,,[1],,,,,,,,0.0-190.0,"{""Q0"":""no""}",,3439.0,,,,,,,,,True,,5ec57b52306f25563b4a11c5,,2023082,188,Q,evan-quiz,full_rf_a,,1
162,14751,189,track2,,[0],,,,,,,,0.0-191.0,"{""Q0"":""yes""}",,4159.0,,,,,,,,,True,,5ec57b52306f25563b4a11c5,,2027244,189,Q,evan-quiz,full_rf_a,,1
163,14752,190,strat,,,,,,,,,,0.0-192.0,"{""Q0"":""I thought that if I clicked the same door every time then I would even my chances""}",,17026.0,,,,,,,,,True,,5ec57b52306f25563b4a11c5,,2044274,190,Q,survey-text,full_rf_a,,1
