,index,Unnamed: 0,Q_name,button_pressed,choice_idxs,chosen_pos,chosen_state,chosen_state_f_1_outcome,chosen_state_f_2_outcome,f_1_reward,f_2_reward,incor_questions,internal_node_id,responses,reward_received,rt,s_1_f_1_outcome,s_1_f_1_prob,s_1_f_2_outcome,s_1_f_2_prob,s_2_f_1_outcome,s_2_f_1_prob,s_2_f_2_outcome,s_2_f_2_prob,safe_first,stimulus,subjectID,success,time_elapsed,trial_index,trial_num,trial_type,version,view_history,switching
0,15758,25,,,,1,1,1.0,0.0,0.0,-1.0,,0.0-27.0,,0.0,1387.7,1.0,0.6,0.0,0.6,1.0,0.4,0.0,0.4,False,,597fc43e413c2300012916f1,,659151,25,,evan-feature22,full_pf_a,,0
1,15759,26,,,,2,2,0.0,0.0,0.0,-1.0,,0.0-28.0,,0.0,502.355,1.0,0.608053294,1.0,0.63424552,0.0,0.397152172,0.0,0.347069101,False,,597fc43e413c2300012916f1,,669421,26,,evan-feature22,full_pf_a,,1
2,15760,27,,,,1,1,1.0,1.0,0.0,-1.0,,0.0-29.0,,-1.0,467.34,1.0,0.642237155,1.0,0.648566321,0.0,0.389407674,0.0,0.285525717,False,,597fc43e413c2300012916f1,,679649,27,,evan-feature22,full_pf_a,,1
3,15761,28,,,,2,2,1.0,0.0,0.0,-1.0,,0.0-30.0,,0.0,760.985,1.0,0.661086576,1.0,0.630492543,1.0,0.399058924,0.0,0.25,False,,597fc43e413c2300012916f1,,690172,28,,evan-feature22,full_pf_a,,1
4,15762,29,,,,1,1,1.0,1.0,0.0,-1.0,,0.0-31.0,,-1.0,448.68,1.0,0.631324137,1.0,0.6269842929999999,0.0,0.38734784299999997,1.0,0.25,False,,597fc43e413c2300012916f1,,700384,29,,evan-feature22,full_pf_a,,1
5,15763,30,,,,2,2,0.0,0.0,0.0,-1.0,,0.0-32.0,,0.0,427.01,0.0,0.6381991370000001,0.0,0.68987999,0.0,0.384107265,0.0,0.271332943,False,,597fc43e413c2300012916f1,,710572,30,,evan-feature22,full_pf_a,,1
6,15764,31,,,,2,2,1.0,0.0,0.0,-1.0,,0.0-33.0,,0.0,346.35,0.0,0.66034901,1.0,0.742641349,1.0,0.360225629,0.0,0.25,False,,597fc43e413c2300012916f1,,720682,31,,evan-feature22,full_pf_a,,0
7,15765,32,,,,2,2,0.0,1.0,1.0,0.0,,0.0-34.0,,0.0,628.58,1.0,0.638612418,1.0,0.75,0.0,0.367273939,1.0,0.25,False,,597fc43e413c2300012916f1,,731072,32,,evan-feature22,full_pf_a,,0
8,15766,33,,,,1,1,0.0,1.0,0.0,-1.0,,0.0-35.0,,-1.0,754.65,0.0,0.624340629,1.0,0.75,0.0,0.425829545,0.0,0.25,False,,597fc43e413c2300012916f1,,741588,33,,evan-feature22,full_pf_a,,1
9,15767,34,,,,2,2,1.0,0.0,0.0,-1.0,,0.0-36.0,,0.0,1256.565,1.0,0.621999804,1.0,0.75,1.0,0.368609357,0.0,0.25,False,,597fc43e413c2300012916f1,,752613,34,,evan-feature22,full_pf_a,,1
10,15768,35,,,,2,2,0.0,0.0,1.0,0.0,,0.0-37.0,,0.0,488.76,1.0,0.62666403,1.0,0.75,0.0,0.311151498,0.0,0.25,False,,597fc43e413c2300012916f1,,762864,35,,evan-feature22,full_pf_a,,0
11,15769,36,,,,1,1,1.0,1.0,1.0,0.0,,0.0-38.0,,1.0,721.2,1.0,0.6819650009999999,1.0,0.75,1.0,0.310763048,0.0,0.25,False,,597fc43e413c2300012916f1,,773351,36,,evan-feature22,full_pf_a,,1
12,15770,37,,,,2,2,0.0,0.0,0.0,-1.0,,0.0-39.0,,0.0,1313.31,0.0,0.740626951,1.0,0.75,0.0,0.25,0.0,0.25,False,,597fc43e413c2300012916f1,,784426,37,,evan-feature22,full_pf_a,,1
13,15771,38,,,,1,1,1.0,0.0,0.0,-1.0,,0.0-40.0,,0.0,1112.93,1.0,0.739599242,0.0,0.742034978,0.0,0.25397114600000004,0.0,0.25,False,,597fc43e413c2300012916f1,,795298,38,,evan-feature22,full_pf_a,,1
14,15772,39,,,,1,1,1.0,1.0,0.0,-1.0,,0.0-41.0,,-1.0,1093.345,1.0,0.732341315,1.0,0.72735643,1.0,0.25,0.0,0.25,False,,597fc43e413c2300012916f1,,806163,39,,evan-feature22,full_pf_a,,0
15,15773,40,,,,2,2,0.0,0.0,0.0,-1.0,,0.0-42.0,,0.0,709.98,1.0,0.7062287770000001,1.0,0.75,0.0,0.29002151,0.0,0.288256649,False,,597fc43e413c2300012916f1,,816634,40,,evan-feature22,full_pf_a,,1
16,15774,41,,,,2,2,0.0,0.0,1.0,0.0,,0.0-43.0,,0.0,790.335,1.0,0.7086029209999999,0.0,0.75,0.0,0.274129113,0.0,0.262851608,False,,597fc43e413c2300012916f1,,827185,41,,evan-feature22,full_pf_a,,0
17,15775,42,,,,1,1,1.0,1.0,0.0,-1.0,,0.0-44.0,,-1.0,1723.89,1.0,0.669189651,1.0,0.727614338,1.0,0.298444036,1.0,0.296944518,False,,597fc43e413c2300012916f1,,838673,42,,evan-feature22,full_pf_a,,1
18,15776,43,,,,2,2,0.0,0.0,1.0,0.0,,0.0-45.0,,0.0,679.865,1.0,0.6819912929999999,1.0,0.7179434290000001,0.0,0.265003961,0.0,0.28157921199999997,False,,597fc43e413c2300012916f1,,849114,43,,evan-feature22,full_pf_a,,1
19,15777,44,,,,1,1,0.0,0.0,1.0,0.0,,0.0-46.0,,0.0,546.36,0.0,0.665275002,0.0,0.723065271,0.0,0.260414971,1.0,0.30973870000000003,False,,597fc43e413c2300012916f1,,859421,44,,evan-feature22,full_pf_a,,1
20,15778,45,,,,2,2,0.0,0.0,0.0,-1.0,,0.0-47.0,,0.0,992.83,1.0,0.6660593260000001,0.0,0.728032907,0.0,0.30922817,0.0,0.338778608,False,,597fc43e413c2300012916f1,,870173,45,,evan-feature22,full_pf_a,,1
21,15779,46,,,,1,1,1.0,1.0,0.0,-1.0,,0.0-48.0,,-1.0,956.235,1.0,0.702068785,1.0,0.6528750879999999,0.0,0.287329608,0.0,0.35789613200000003,False,,597fc43e413c2300012916f1,,880891,46,,evan-feature22,full_pf_a,,1
22,15780,47,,,,2,2,0.0,0.0,0.0,-1.0,,0.0-49.0,,0.0,458.65,0.0,0.651939787,1.0,0.636725589,0.0,0.284834488,0.0,0.358563756,False,,597fc43e413c2300012916f1,,891110,47,,evan-feature22,full_pf_a,,1
23,15781,48,,,,1,1,1.0,1.0,0.0,-1.0,,0.0-50.0,,-1.0,590.3,1.0,0.67573929,1.0,0.612550049,0.0,0.37130387600000003,1.0,0.383542402,False,,597fc43e413c2300012916f1,,901465,48,,evan-feature22,full_pf_a,,1
24,15782,49,,,,1,1,0.0,1.0,0.0,-1.0,,0.0-51.0,,-1.0,795.86,0.0,0.620753801,1.0,0.60513644,0.0,0.385529434,0.0,0.340361743,False,,597fc43e413c2300012916f1,,912023,49,,evan-feature22,full_pf_a,,0
25,15783,50,,,,2,2,1.0,0.0,1.0,0.0,,0.0-52.0,,1.0,835.95,1.0,0.673564893,1.0,0.672437924,1.0,0.292955382,0.0,0.337633795,False,,597fc43e413c2300012916f1,,922624,50,,evan-feature22,full_pf_a,,1
26,15784,51,,,,2,2,0.0,1.0,0.0,-1.0,,0.0-53.0,,-1.0,1612.325,1.0,0.6749427,1.0,0.724197502,0.0,0.32391132100000003,1.0,0.350995264,False,,597fc43e413c2300012916f1,,933997,51,,evan-feature22,full_pf_a,,0
27,15785,52,,,,1,1,1.0,1.0,0.0,-1.0,,0.0-54.0,,-1.0,1663.845,1.0,0.6940159379999999,1.0,0.75,1.0,0.31710554399999996,1.0,0.413450341,False,,597fc43e413c2300012916f1,,945422,52,,evan-feature22,full_pf_a,,1
28,15786,53,,,,2,2,0.0,0.0,0.0,-1.0,,0.0-55.0,,0.0,1638.555,1.0,0.6916018270000001,0.0,0.69001187,0.0,0.261817804,0.0,0.40038635,False,,597fc43e413c2300012916f1,,956821,53,,evan-feature22,full_pf_a,,1
29,15787,54,,,,2,2,0.0,0.0,0.0,-1.0,,0.0-56.0,,0.0,1323.635,1.0,0.641061544,1.0,0.71337992,0.0,0.277296461,0.0,0.47372791700000005,False,,597fc43e413c2300012916f1,,967905,54,,evan-feature22,full_pf_a,,0
30,15788,55,,,,2,2,1.0,0.0,0.0,-1.0,,0.0-57.0,,0.0,1097.43,0.0,0.6082438520000001,1.0,0.708471106,1.0,0.28745137,0.0,0.564174476,False,,597fc43e413c2300012916f1,,978768,55,,evan-feature22,full_pf_a,,0
31,15789,56,,,,2,2,0.0,0.0,1.0,0.0,,0.0-58.0,,0.0,1259.74,0.0,0.6051112120000001,1.0,0.7118147229999999,0.0,0.272390611,0.0,0.5595149939999999,False,,597fc43e413c2300012916f1,,989793,56,,evan-feature22,full_pf_a,,0
32,15790,57,,,,2,2,0.0,0.0,1.0,0.0,,0.0-59.0,,0.0,891.675,0.0,0.582420852,1.0,0.635867583,0.0,0.31089574,0.0,0.5227206520000001,False,,597fc43e413c2300012916f1,,1000445,57,,evan-feature22,full_pf_a,,0
33,15791,58,,,,1,1,1.0,1.0,1.0,0.0,,0.0-60.0,,1.0,780.76,1.0,0.623195575,1.0,0.655026044,0.0,0.25,0.0,0.560387538,False,,597fc43e413c2300012916f1,,1010991,58,,evan-feature22,full_pf_a,,1
34,15792,59,,,,2,2,0.0,1.0,0.0,-1.0,,0.0-61.0,,-1.0,1022.4,0.0,0.601889598,0.0,0.678198724,0.0,0.25,1.0,0.559922936,False,,597fc43e413c2300012916f1,,1021777,59,,evan-feature22,full_pf_a,,1
35,15793,60,,,,1,1,1.0,1.0,1.0,0.0,,0.0-62.0,,1.0,868.455,1.0,0.601259914,1.0,0.704681482,0.0,0.33908969299999997,0.0,0.505003715,False,,597fc43e413c2300012916f1,,1032407,60,,evan-feature22,full_pf_a,,1
36,15794,61,,,,1,1,0.0,1.0,1.0,0.0,,0.0-63.0,,0.0,567.72,0.0,0.59645454,1.0,0.710437172,1.0,0.327441879,0.0,0.391749613,False,,597fc43e413c2300012916f1,,1042735,61,,evan-feature22,full_pf_a,,0
37,15795,62,,,,2,2,0.0,0.0,0.0,-1.0,,0.0-64.0,,0.0,1418.505,0.0,0.529473,0.0,0.636758527,0.0,0.301338063,0.0,0.365661481,False,,597fc43e413c2300012916f1,,1053914,62,,evan-feature22,full_pf_a,,1
38,15796,63,,,,1,1,0.0,1.0,1.0,0.0,,0.0-65.0,,0.0,992.965,0.0,0.541657162,1.0,0.634541962,1.0,0.343535366,0.0,0.371763742,False,,597fc43e413c2300012916f1,,1064667,63,,evan-feature22,full_pf_a,,1
39,15797,64,,,,1,1,1.0,0.0,1.0,0.0,,0.0-66.0,,1.0,765.355,1.0,0.5707533260000001,0.0,0.589121171,0.0,0.326428396,0.0,0.43961622899999997,False,,597fc43e413c2300012916f1,,1075193,64,,evan-feature22,full_pf_a,,0
40,15798,65,,,,1,1,1.0,1.0,0.0,-1.0,,0.0-67.0,,-1.0,1348.89,1.0,0.5707533260000001,1.0,0.589121171,0.0,0.326428396,0.0,0.43961622899999997,False,,597fc43e413c2300012916f1,,1086304,65,,evan-feature22,full_pf_a,,0
41,15799,66,,,,2,2,1.0,0.0,0.0,-1.0,,0.0-68.0,,0.0,1033.855,0.0,0.506271295,1.0,0.641775594,1.0,0.37149690700000004,0.0,0.404330166,False,,597fc43e413c2300012916f1,,1097103,66,,evan-feature22,full_pf_a,,1
42,15800,67,,,,1,1,1.0,1.0,1.0,0.0,,0.0-69.0,,1.0,877.615,1.0,0.455642565,1.0,0.623605825,0.0,0.358753011,1.0,0.346174041,False,,597fc43e413c2300012916f1,,1107741,67,,evan-feature22,full_pf_a,,1
43,15801,68,,,,2,2,1.0,0.0,0.0,-1.0,,0.0-70.0,,0.0,1441.06,0.0,0.483677308,1.0,0.5904681070000001,1.0,0.402218411,0.0,0.35344697,False,,597fc43e413c2300012916f1,,1118943,68,,evan-feature22,full_pf_a,,1
44,15802,69,,,,1,1,0.0,0.0,1.0,0.0,,0.0-71.0,,0.0,599.27,0.0,0.394210977,0.0,0.558925494,1.0,0.540052017,1.0,0.35182128700000004,False,,597fc43e413c2300012916f1,,1129303,69,,evan-feature22,full_pf_a,,1
45,15803,70,,,,1,1,0.0,1.0,0.0,-1.0,,0.0-72.0,,-1.0,1301.85,0.0,0.382300414,1.0,0.577670603,1.0,0.607608448,1.0,0.378261578,False,,597fc43e413c2300012916f1,,1140370,70,,evan-feature22,full_pf_a,,0
46,15804,71,,,,1,1,0.0,1.0,1.0,0.0,,0.0-73.0,,0.0,578.07,0.0,0.357596762,1.0,0.5929076529999999,1.0,0.6579790010000001,1.0,0.401326777,False,,597fc43e413c2300012916f1,,1150709,71,,evan-feature22,full_pf_a,,0
47,15805,72,,,,1,1,1.0,1.0,0.0,-1.0,,0.0-74.0,,-1.0,1299.405,1.0,0.362033495,1.0,0.582308608,0.0,0.649195052,0.0,0.355158505,False,,597fc43e413c2300012916f1,,1161774,72,,evan-feature22,full_pf_a,,0
48,15806,73,,,,2,2,0.0,0.0,0.0,-1.0,,0.0-75.0,,0.0,1401.855,0.0,0.369620635,0.0,0.669100864,0.0,0.706059111,0.0,0.362516241,False,,597fc43e413c2300012916f1,,1172937,73,,evan-feature22,full_pf_a,,1
49,15807,74,,,,2,2,1.0,0.0,0.0,-1.0,,0.0-76.0,,0.0,1067.25,0.0,0.41477751399999996,1.0,0.7284416779999999,1.0,0.7182656940000001,0.0,0.36228040899999997,False,,597fc43e413c2300012916f1,,1183764,74,,evan-feature22,full_pf_a,,0
50,15808,75,,,,1,1,1.0,1.0,1.0,0.0,,0.0-77.0,,1.0,704.875,1.0,0.37675460299999997,1.0,0.703250285,1.0,0.75,1.0,0.461979164,False,,597fc43e413c2300012916f1,,1194234,75,,evan-feature22,full_pf_a,,1
51,15809,76,,,,2,2,0.0,0.0,1.0,0.0,,0.0-78.0,,0.0,715.2,0.0,0.398716075,1.0,0.6723864890000001,0.0,0.674153818,0.0,0.519029516,False,,597fc43e413c2300012916f1,,1204709,76,,evan-feature22,full_pf_a,,1
52,15810,77,,,,2,2,1.0,0.0,1.0,0.0,,0.0-79.0,,1.0,697.14,0.0,0.34677856700000004,0.0,0.69057175,1.0,0.6822438540000001,0.0,0.477292237,False,,597fc43e413c2300012916f1,,1215165,77,,evan-feature22,full_pf_a,,0
53,15811,78,,,,1,1,0.0,0.0,0.0,-1.0,,0.0-80.0,,0.0,1331.985,0.0,0.28580469199999997,0.0,0.68408818,0.0,0.684207565,0.0,0.49780448299999996,False,,597fc43e413c2300012916f1,,1226257,78,,evan-feature22,full_pf_a,,1
54,15813,80,,,,1,1,0.0,1.0,0.0,-1.0,,0.0-82.0,,-1.0,2112.495,0.0,0.25,1.0,0.7405808970000001,1.0,0.679614108,0.0,0.436436964,False,,597fc43e413c2300012916f1,,1242486,80,,evan-feature22,full_pf_a,,0
55,15814,81,,,,1,1,1.0,0.0,0.0,-1.0,,0.0-83.0,,0.0,1277.32,1.0,0.29890393,0.0,0.730505706,1.0,0.7328203320000001,0.0,0.439256938,False,,597fc43e413c2300012916f1,,1253529,81,,evan-feature22,full_pf_a,,0
56,15815,82,,,,2,2,1.0,1.0,1.0,0.0,,0.0-84.0,,1.0,764.91,0.0,0.326762398,1.0,0.7148059609999999,1.0,0.75,1.0,0.44389608799999997,False,,597fc43e413c2300012916f1,,1264055,82,,evan-feature22,full_pf_a,,1
57,15816,83,,,,2,2,0.0,1.0,0.0,-1.0,,0.0-85.0,,-1.0,1207.525,0.0,0.295168515,1.0,0.739760854,0.0,0.719947008,1.0,0.35277284600000003,False,,597fc43e413c2300012916f1,,1275023,83,,evan-feature22,full_pf_a,,0
58,15817,84,,,,1,1,1.0,0.0,0.0,-1.0,,0.0-86.0,,0.0,1275.16,1.0,0.25,0.0,0.70781482,1.0,0.75,1.0,0.286095925,False,,597fc43e413c2300012916f1,,1286059,84,,evan-feature22,full_pf_a,,1
59,15818,85,,,,1,1,1.0,1.0,0.0,-1.0,,0.0-87.0,,-1.0,1012.76,1.0,0.25638190899999996,1.0,0.704088163,0.0,0.75,0.0,0.26872601399999996,False,,597fc43e413c2300012916f1,,1296837,85,,evan-feature22,full_pf_a,,0
60,15819,86,,,,2,2,1.0,0.0,1.0,0.0,,0.0-88.0,,1.0,890.975,0.0,0.271581126,0.0,0.669760107,1.0,0.733896663,0.0,0.273244572,False,,597fc43e413c2300012916f1,,1307496,86,,evan-feature22,full_pf_a,,1
61,15820,87,,,,2,2,1.0,0.0,0.0,-1.0,,0.0-89.0,,0.0,1394.335,0.0,0.257144401,1.0,0.600575706,1.0,0.74488122,0.0,0.25,False,,597fc43e413c2300012916f1,,1318654,87,,evan-feature22,full_pf_a,,0
62,15821,88,,,,1,1,1.0,1.0,0.0,-1.0,,0.0-90.0,,-1.0,1472.975,1.0,0.25,1.0,0.616870026,1.0,0.723610234,0.0,0.25,False,,597fc43e413c2300012916f1,,1329888,88,,evan-feature22,full_pf_a,,1
63,15822,89,,,,2,2,1.0,0.0,1.0,0.0,,0.0-91.0,,1.0,668.975,0.0,0.25,0.0,0.583540187,1.0,0.7041042559999999,0.0,0.285961995,False,,597fc43e413c2300012916f1,,1340320,89,,evan-feature22,full_pf_a,,1
64,15823,90,,,,2,2,0.0,0.0,1.0,0.0,,0.0-92.0,,0.0,640.275,0.0,0.27254536,1.0,0.53875765,0.0,0.693783448,0.0,0.284961652,False,,597fc43e413c2300012916f1,,1350721,90,,evan-feature22,full_pf_a,,0
65,15824,91,,,,1,1,1.0,0.0,1.0,0.0,,0.0-93.0,,1.0,713.565,1.0,0.25,0.0,0.548431252,1.0,0.734221895,1.0,0.279445214,False,,597fc43e413c2300012916f1,,1361199,91,,evan-feature22,full_pf_a,,1
66,15825,92,,,,1,1,0.0,0.0,0.0,-1.0,,0.0-94.0,,0.0,1228.55,0.0,0.258640684,0.0,0.545878066,1.0,0.725245965,0.0,0.31487537,False,,597fc43e413c2300012916f1,,1372188,92,,evan-feature22,full_pf_a,,0
67,15826,93,,,,2,2,1.0,0.0,0.0,-1.0,,0.0-95.0,,0.0,933.135,0.0,0.251103711,1.0,0.5776290629999999,1.0,0.696320133,0.0,0.317831047,False,,597fc43e413c2300012916f1,,1382883,93,,evan-feature22,full_pf_a,,1
68,15827,94,,,,1,1,0.0,1.0,0.0,-1.0,,0.0-96.0,,-1.0,1156.31,0.0,0.276630292,1.0,0.617329858,0.0,0.73838088,1.0,0.261471582,False,,597fc43e413c2300012916f1,,1393805,94,,evan-feature22,full_pf_a,,1
69,15828,95,,,,1,1,0.0,0.0,0.0,-1.0,,0.0-97.0,,0.0,1168.78,0.0,0.297716424,0.0,0.618863717,0.0,0.7402358259999999,1.0,0.262600834,False,,597fc43e413c2300012916f1,,1404733,95,,evan-feature22,full_pf_a,,0
70,15829,96,,,,1,1,0.0,1.0,1.0,0.0,,0.0-98.0,,0.0,696.96,0.0,0.290935512,1.0,0.695370945,1.0,0.706570507,0.0,0.280030553,False,,597fc43e413c2300012916f1,,1415191,96,,evan-feature22,full_pf_a,,0
71,15830,97,,,,1,1,0.0,1.0,0.0,-1.0,,0.0-99.0,,-1.0,1000.935,0.0,0.25,1.0,0.6465277079999999,1.0,0.67766682,0.0,0.25,False,,597fc43e413c2300012916f1,,1425954,97,,evan-feature22,full_pf_a,,0
72,15831,98,,,,2,2,1.0,0.0,1.0,0.0,,0.0-100.0,,1.0,597.65,0.0,0.26463816,1.0,0.636100213,1.0,0.646048507,0.0,0.265607101,False,,597fc43e413c2300012916f1,,1436313,98,,evan-feature22,full_pf_a,,1
73,15832,99,,,,2,2,1.0,0.0,1.0,0.0,,0.0-101.0,,1.0,683.71,0.0,0.314340707,0.0,0.667795927,1.0,0.613630805,0.0,0.25,False,,597fc43e413c2300012916f1,,1446757,99,,evan-feature22,full_pf_a,,0
74,15833,100,,,,1,1,0.0,1.0,0.0,-1.0,,0.0-102.0,,-1.0,1480.045,0.0,0.28685784,1.0,0.6622549529999999,1.0,0.652154117,0.0,0.25,False,,597fc43e413c2300012916f1,,1457998,100,,evan-feature22,full_pf_a,,1
75,15834,101,,,,2,2,1.0,1.0,0.0,-1.0,,0.0-103.0,,-1.0,1098.745,0.0,0.304106554,0.0,0.631289538,1.0,0.707041942,1.0,0.29314237,False,,597fc43e413c2300012916f1,,1468859,101,,evan-feature22,full_pf_a,,1
76,15835,102,,,,1,1,0.0,1.0,0.0,-1.0,,0.0-104.0,,-1.0,1218.44,0.0,0.304806932,1.0,0.571167718,1.0,0.680472346,0.0,0.25,False,,597fc43e413c2300012916f1,,1479840,102,,evan-feature22,full_pf_a,,1
77,15836,103,,,,2,2,1.0,0.0,0.0,-1.0,,0.0-105.0,,0.0,1286.685,1.0,0.37919861,1.0,0.5724849710000001,1.0,0.705638003,0.0,0.30179300600000003,False,,597fc43e413c2300012916f1,,1490891,103,,evan-feature22,full_pf_a,,1
78,15837,104,,,,2,2,1.0,0.0,0.0,-1.0,,0.0-106.0,,0.0,1189.98,1.0,0.464277969,1.0,0.554034373,1.0,0.7372627340000001,0.0,0.264699741,False,,597fc43e413c2300012916f1,,1501843,104,,evan-feature22,full_pf_a,,0
79,15838,105,,,,2,2,1.0,1.0,0.0,-1.0,,0.0-107.0,,-1.0,797.92,0.0,0.465104323,1.0,0.530793115,1.0,0.75,1.0,0.31683071,False,,597fc43e413c2300012916f1,,1512404,105,,evan-feature22,full_pf_a,,0
80,15839,106,,,,2,2,1.0,0.0,1.0,0.0,,0.0-108.0,,1.0,784.84,1.0,0.465104323,0.0,0.530793115,1.0,0.75,0.0,0.31683071,False,,597fc43e413c2300012916f1,,1522954,106,,evan-feature22,full_pf_a,,0
81,15840,107,,,,1,1,0.0,1.0,1.0,0.0,,0.0-109.0,,0.0,800.24,0.0,0.46833986,1.0,0.570249239,1.0,0.7244472590000001,0.0,0.364114163,False,,597fc43e413c2300012916f1,,1533519,107,,evan-feature22,full_pf_a,,1
82,15841,108,,,,2,2,0.0,0.0,1.0,0.0,,0.0-110.0,,0.0,604.905,1.0,0.445444024,1.0,0.649673355,0.0,0.6845441290000001,0.0,0.300660449,False,,597fc43e413c2300012916f1,,1543884,108,,evan-feature22,full_pf_a,,1
83,15842,109,,,,2,2,0.0,0.0,1.0,0.0,,0.0-111.0,,0.0,394.795,0.0,0.39909721299999995,0.0,0.6715179509999999,0.0,0.742310028,0.0,0.35496088299999995,False,,597fc43e413c2300012916f1,,1554038,109,,evan-feature22,full_pf_a,,0
84,15843,110,,,,2,2,0.0,1.0,0.0,-1.0,,0.0-112.0,,-1.0,1164.84,0.0,0.37956104799999996,1.0,0.694725302,0.0,0.7181651309999999,1.0,0.38726906299999997,False,,597fc43e413c2300012916f1,,1564964,110,,evan-feature22,full_pf_a,,0
85,15844,111,,,,1,1,1.0,1.0,0.0,-1.0,,0.0-113.0,,-1.0,1429.905,1.0,0.404995034,1.0,0.724375412,1.0,0.6910946859999999,0.0,0.387187347,False,,597fc43e413c2300012916f1,,1576159,111,,evan-feature22,full_pf_a,,1
86,15845,112,,,,2,2,1.0,0.0,1.0,0.0,,0.0-114.0,,1.0,356.7,0.0,0.461740803,1.0,0.75,1.0,0.75,0.0,0.34872038200000005,False,,597fc43e413c2300012916f1,,1586279,112,,evan-feature22,full_pf_a,,1
87,15846,113,,,,2,2,0.0,0.0,1.0,0.0,,0.0-115.0,,0.0,389.725,0.0,0.43821380600000004,1.0,0.738833273,0.0,0.728286963,0.0,0.399538128,False,,597fc43e413c2300012916f1,,1596430,113,,evan-feature22,full_pf_a,,0
88,15847,114,,,,2,2,1.0,0.0,0.0,-1.0,,0.0-116.0,,0.0,1292.19,1.0,0.41709882,1.0,0.736666736,1.0,0.75,0.0,0.389095584,False,,597fc43e413c2300012916f1,,1607486,114,,evan-feature22,full_pf_a,,0
89,15848,115,,,,2,2,1.0,1.0,0.0,-1.0,,0.0-117.0,,-1.0,944.475,1.0,0.39749009799999996,1.0,0.744320029,1.0,0.75,1.0,0.363848678,False,,597fc43e413c2300012916f1,,1618196,115,,evan-feature22,full_pf_a,,0
90,15849,116,,,,2,2,1.0,0.0,1.0,0.0,,0.0-118.0,,1.0,419.025,1.0,0.392653706,1.0,0.75,1.0,0.75,0.0,0.384386976,False,,597fc43e413c2300012916f1,,1628380,116,,evan-feature22,full_pf_a,,0
91,15850,117,,,,2,2,1.0,1.0,0.0,-1.0,,0.0-119.0,,-1.0,874.23,1.0,0.31190902600000003,1.0,0.75,1.0,0.732413819,1.0,0.413082932,False,,597fc43e413c2300012916f1,,1639023,117,,evan-feature22,full_pf_a,,0
92,15851,118,,,,2,2,1.0,0.0,1.0,0.0,,0.0-120.0,,1.0,411.255,0.0,0.366917648,1.0,0.740073855,1.0,0.75,0.0,0.352861979,False,,597fc43e413c2300012916f1,,1649196,118,,evan-feature22,full_pf_a,,0
93,15852,119,,,,2,2,1.0,0.0,1.0,0.0,,0.0-121.0,,1.0,511.27,0.0,0.3645172,0.0,0.721770713,1.0,0.75,0.0,0.404074511,False,,597fc43e413c2300012916f1,,1659473,119,,evan-feature22,full_pf_a,,0
94,15853,120,,,,2,2,1.0,0.0,1.0,0.0,,0.0-122.0,,1.0,534.995,1.0,0.35205600299999995,1.0,0.68983859,1.0,0.739735447,0.0,0.366895945,False,,597fc43e413c2300012916f1,,1669770,120,,evan-feature22,full_pf_a,,0
95,15854,121,,,,2,2,1.0,0.0,1.0,0.0,,0.0-123.0,,1.0,535.865,0.0,0.40998722600000004,1.0,0.720859127,1.0,0.673854955,0.0,0.368528541,False,,597fc43e413c2300012916f1,,1680066,121,,evan-feature22,full_pf_a,,0
96,15855,122,,,,2,2,0.0,0.0,1.0,0.0,,0.0-124.0,,0.0,930.23,1.0,0.353625316,1.0,0.75,0.0,0.695605473,0.0,0.38303674200000004,False,,597fc43e413c2300012916f1,,1690756,122,,evan-feature22,full_pf_a,,0
97,15856,123,,,,2,2,1.0,1.0,1.0,0.0,,0.0-125.0,,1.0,450.98,1.0,0.359216989,1.0,0.75,1.0,0.6987915090000001,1.0,0.35169046200000004,False,,597fc43e413c2300012916f1,,1700969,123,,evan-feature22,full_pf_a,,0
98,15857,124,,,,2,2,1.0,0.0,1.0,0.0,,0.0-126.0,,1.0,510.2,0.0,0.35834496899999996,1.0,0.75,1.0,0.707067742,0.0,0.416763636,False,,597fc43e413c2300012916f1,,1711243,124,,evan-feature22,full_pf_a,,0
99,15858,125,,,,1,1,1.0,0.0,0.0,-1.0,,0.0-127.0,,0.0,1063.46,1.0,0.38741613799999997,0.0,0.7177369570000001,1.0,0.734902455,1.0,0.49438664299999996,False,,597fc43e413c2300012916f1,,1722068,125,,evan-feature22,full_pf_a,,1
100,15859,126,,,,2,2,0.0,0.0,1.0,0.0,,0.0-128.0,,0.0,826.7,0.0,0.405255252,0.0,0.7300466640000001,0.0,0.7027748070000001,0.0,0.504359668,False,,597fc43e413c2300012916f1,,1732655,126,,evan-feature22,full_pf_a,,1
101,15860,127,,,,2,2,1.0,1.0,1.0,0.0,,0.0-129.0,,1.0,454.095,0.0,0.40697073,0.0,0.7260142190000001,1.0,0.724461982,1.0,0.522779179,False,,597fc43e413c2300012916f1,,1742878,127,,evan-feature22,full_pf_a,,0
102,15861,128,,,,2,2,1.0,1.0,1.0,0.0,,0.0-130.0,,1.0,661.87,1.0,0.43906215299999996,0.0,0.7252802340000001,1.0,0.719079934,1.0,0.5712990579999999,False,,597fc43e413c2300012916f1,,1753303,128,,evan-feature22,full_pf_a,,0
103,15862,129,,,,1,1,0.0,0.0,0.0,-1.0,,0.0-131.0,,0.0,901.02,0.0,0.4076705,0.0,0.73280499,1.0,0.681313127,1.0,0.523891346,False,,597fc43e413c2300012916f1,,1763964,129,,evan-feature22,full_pf_a,,1
104,15863,130,,,,1,1,0.0,0.0,0.0,-1.0,,0.0-132.0,,0.0,1187.78,0.0,0.399102911,0.0,0.730498344,0.0,0.661080239,0.0,0.46742603,False,,597fc43e413c2300012916f1,,1774912,130,,evan-feature22,full_pf_a,,0
105,15864,131,,,,1,1,1.0,1.0,0.0,-1.0,,0.0-133.0,,-1.0,590.9,1.0,0.356477282,1.0,0.712296395,0.0,0.641812684,1.0,0.44868414,False,,597fc43e413c2300012916f1,,1785265,131,,evan-feature22,full_pf_a,,0
106,15865,132,,,,2,2,1.0,1.0,1.0,0.0,,0.0-134.0,,1.0,679.155,1.0,0.462760722,1.0,0.692349322,1.0,0.700947931,1.0,0.394680266,False,,597fc43e413c2300012916f1,,1795713,132,,evan-feature22,full_pf_a,,1
107,15866,133,,,,2,2,1.0,1.0,1.0,0.0,,0.0-135.0,,1.0,476.385,0.0,0.422306413,1.0,0.718375916,1.0,0.706340917,1.0,0.367787185,False,,597fc43e413c2300012916f1,,1805956,133,,evan-feature22,full_pf_a,,0
108,15868,135,,,,2,2,1.0,1.0,1.0,0.0,,0.0-137.0,,1.0,1365.975,0.0,0.4582233,1.0,0.643834117,1.0,0.75,1.0,0.39615823299999997,False,,597fc43e413c2300012916f1,,1822398,135,,evan-feature22,full_pf_a,,0
109,15869,136,,,,2,2,1.0,0.0,1.0,0.0,,0.0-138.0,,1.0,784.86,0.0,0.43813437899999996,0.0,0.651283804,1.0,0.729674191,0.0,0.37711048,False,,597fc43e413c2300012916f1,,1832943,136,,evan-feature22,full_pf_a,,0
110,15870,137,,,,2,2,1.0,0.0,1.0,0.0,,0.0-139.0,,1.0,482.39,1.0,0.471199094,1.0,0.6470010979999999,1.0,0.715008097,0.0,0.410656191,False,,597fc43e413c2300012916f1,,1843189,137,,evan-feature22,full_pf_a,,0
111,15871,138,,,,2,2,0.0,0.0,1.0,0.0,,0.0-140.0,,0.0,510.35,0.0,0.42486406,1.0,0.629771829,0.0,0.6550939960000001,0.0,0.459093873,False,,597fc43e413c2300012916f1,,1853461,138,,evan-feature22,full_pf_a,,0
112,15872,139,,,,2,2,1.0,0.0,1.0,0.0,,0.0-141.0,,1.0,564.315,1.0,0.4803197,0.0,0.645842715,1.0,0.6421749920000001,0.0,0.443092151,False,,597fc43e413c2300012916f1,,1863785,139,,evan-feature22,full_pf_a,,0
113,15873,140,,,,1,1,1.0,0.0,0.0,-1.0,,0.0-142.0,,0.0,901.195,1.0,0.521848997,0.0,0.735801074,1.0,0.6691348460000001,1.0,0.45259351600000003,False,,597fc43e413c2300012916f1,,1874450,140,,evan-feature22,full_pf_a,,1
114,15874,141,,,,2,2,0.0,1.0,1.0,0.0,,0.0-143.0,,0.0,583.65,1.0,0.49565621299999996,1.0,0.742400847,0.0,0.661512553,1.0,0.483110831,False,,597fc43e413c2300012916f1,,1884795,141,,evan-feature22,full_pf_a,,1
115,15875,142,,,,2,2,0.0,0.0,1.0,0.0,,0.0-144.0,,0.0,529.48,0.0,0.521564361,0.0,0.731078632,0.0,0.6774886809999999,0.0,0.483263956,False,,597fc43e413c2300012916f1,,1895085,142,,evan-feature22,full_pf_a,,0
116,15876,143,,,,2,2,1.0,0.0,1.0,0.0,,0.0-145.0,,1.0,402.25,0.0,0.558893102,0.0,0.719810023,1.0,0.67461031,0.0,0.499349834,False,,597fc43e413c2300012916f1,,1905249,143,,evan-feature22,full_pf_a,,0
117,15877,144,,,,2,2,1.0,1.0,1.0,0.0,,0.0-146.0,,1.0,538.57,1.0,0.611031046,1.0,0.75,1.0,0.688072995,1.0,0.5321422729999999,False,,597fc43e413c2300012916f1,,1915551,144,,evan-feature22,full_pf_a,,0
118,15878,145,,,,1,1,1.0,1.0,0.0,-1.0,,0.0-147.0,,-1.0,853.525,1.0,0.633223941,1.0,0.713567728,1.0,0.75,0.0,0.48185314700000004,False,,597fc43e413c2300012916f1,,1926173,145,,evan-feature22,full_pf_a,,1
119,15879,146,,,,2,2,1.0,0.0,1.0,0.0,,0.0-148.0,,1.0,494.295,1.0,0.664001694,1.0,0.705509768,1.0,0.75,0.0,0.500211065,False,,597fc43e413c2300012916f1,,1936428,146,,evan-feature22,full_pf_a,,1
120,15880,147,,,,2,2,1.0,0.0,1.0,0.0,,0.0-149.0,,1.0,633.79,0.0,0.664001694,1.0,0.705509768,1.0,0.75,0.0,0.500211065,False,,597fc43e413c2300012916f1,,1946826,147,,evan-feature22,full_pf_a,,0
121,15881,148,,,,2,2,1.0,0.0,1.0,0.0,,0.0-150.0,,1.0,646.51,1.0,0.696508041,0.0,0.71066027,1.0,0.717028709,0.0,0.49792991,False,,597fc43e413c2300012916f1,,1957235,148,,evan-feature22,full_pf_a,,0
122,15882,149,,,,2,2,1.0,1.0,0.0,-1.0,,0.0-151.0,,-1.0,570.365,1.0,0.699883272,1.0,0.75,1.0,0.713543895,1.0,0.496962643,False,,597fc43e413c2300012916f1,,1967566,149,,evan-feature22,full_pf_a,,0
123,15883,150,,,,2,2,0.0,1.0,0.0,-1.0,,0.0-152.0,,-1.0,1272.925,0.0,0.741163419,1.0,0.75,0.0,0.64691024,1.0,0.513858197,False,,597fc43e413c2300012916f1,,1978605,150,,evan-feature22,full_pf_a,,0
124,15884,151,,,,1,1,0.0,1.0,0.0,-1.0,,0.0-153.0,,-1.0,1087.985,0.0,0.75,1.0,0.70816558,0.0,0.594499079,1.0,0.48502124,False,,597fc43e413c2300012916f1,,1989454,151,,evan-feature22,full_pf_a,,1
125,15885,152,,,,2,2,0.0,1.0,1.0,0.0,,0.0-154.0,,0.0,880.96,0.0,0.75,1.0,0.721848901,0.0,0.62197249,1.0,0.48263586399999997,False,,597fc43e413c2300012916f1,,2000095,152,,evan-feature22,full_pf_a,,1
126,15886,153,,,,2,2,1.0,0.0,1.0,0.0,,0.0-155.0,,1.0,408.19,1.0,0.75,1.0,0.74813071,1.0,0.584357161,0.0,0.411477782,False,,597fc43e413c2300012916f1,,2010268,153,,evan-feature22,full_pf_a,,0
127,15887,154,,,,2,2,1.0,1.0,1.0,0.0,,0.0-156.0,,1.0,410.21,1.0,0.75,1.0,0.75,1.0,0.52287236,1.0,0.488290656,False,,597fc43e413c2300012916f1,,2020439,154,,evan-feature22,full_pf_a,,0
128,15888,155,,,,2,2,0.0,1.0,1.0,0.0,,0.0-157.0,,0.0,586.04,1.0,0.75,1.0,0.75,0.0,0.544321581,1.0,0.53143059,False,,597fc43e413c2300012916f1,,2030786,155,,evan-feature22,full_pf_a,,0
129,15889,156,,,,2,2,1.0,0.0,1.0,0.0,,0.0-158.0,,1.0,532.255,1.0,0.726754564,1.0,0.75,1.0,0.5129306370000001,0.0,0.530592445,False,,597fc43e413c2300012916f1,,2041079,156,,evan-feature22,full_pf_a,,0
130,15890,157,,,,2,2,1.0,1.0,0.0,-1.0,,0.0-159.0,,-1.0,850.505,1.0,0.75,0.0,0.7392590729999999,1.0,0.479875835,1.0,0.547007051,False,,597fc43e413c2300012916f1,,2051694,157,,evan-feature22,full_pf_a,,0
131,15891,158,,,,1,1,1.0,1.0,0.0,-1.0,,0.0-160.0,,-1.0,505.035,1.0,0.75,1.0,0.7393376979999999,1.0,0.546045419,0.0,0.541267353,False,,597fc43e413c2300012916f1,,2061964,158,,evan-feature22,full_pf_a,,1
132,15892,159,,,,2,2,1.0,1.0,1.0,0.0,,0.0-161.0,,1.0,687.875,1.0,0.75,1.0,0.75,1.0,0.485725895,1.0,0.527625395,False,,597fc43e413c2300012916f1,,2072413,159,,evan-feature22,full_pf_a,,1
133,15893,160,,,,2,2,0.0,1.0,0.0,-1.0,,0.0-162.0,,-1.0,1049.07,1.0,0.75,1.0,0.725087974,0.0,0.488603595,1.0,0.504019206,False,,597fc43e413c2300012916f1,,2083227,160,,evan-feature22,full_pf_a,,0
134,15894,161,,,,2,2,1.0,0.0,1.0,0.0,,0.0-163.0,,1.0,796.395,1.0,0.745504295,0.0,0.75,1.0,0.452379914,0.0,0.50131194,False,,597fc43e413c2300012916f1,,2093784,161,,evan-feature22,full_pf_a,,0
135,15895,162,,,,1,1,1.0,0.0,0.0,-1.0,,0.0-164.0,,0.0,1170.375,1.0,0.728513874,0.0,0.75,0.0,0.44125567200000004,1.0,0.531454591,False,,597fc43e413c2300012916f1,,2104715,162,,evan-feature22,full_pf_a,,1
136,15896,163,,,,2,2,0.0,0.0,1.0,0.0,,0.0-165.0,,0.0,678.39,1.0,0.73790804,1.0,0.75,0.0,0.413036656,0.0,0.524619035,False,,597fc43e413c2300012916f1,,2115153,163,,evan-feature22,full_pf_a,,1
137,15897,164,,,,2,2,1.0,1.0,1.0,0.0,,0.0-166.0,,1.0,467.375,1.0,0.7080961309999999,1.0,0.708666865,1.0,0.431915581,1.0,0.481819489,False,,597fc43e413c2300012916f1,,2125384,164,,evan-feature22,full_pf_a,,0
138,15898,165,,,,2,2,1.0,1.0,1.0,0.0,,0.0-167.0,,1.0,553.685,1.0,0.721378003,1.0,0.71605913,1.0,0.36642387,1.0,0.5036739929999999,False,,597fc43e413c2300012916f1,,2135698,165,,evan-feature22,full_pf_a,,0
139,15899,166,,,,1,1,1.0,1.0,0.0,-1.0,,0.0-168.0,,-1.0,955.29,1.0,0.7340618959999999,1.0,0.699323252,1.0,0.35298046299999997,1.0,0.511241692,False,,597fc43e413c2300012916f1,,2146413,166,,evan-feature22,full_pf_a,,1
140,15900,167,,,,1,1,1.0,0.0,0.0,-1.0,,0.0-169.0,,0.0,1103.81,1.0,0.75,0.0,0.70412698,0.0,0.380734814,1.0,0.529580116,False,,597fc43e413c2300012916f1,,2157280,167,,evan-feature22,full_pf_a,,0
141,15901,168,,,,1,1,1.0,0.0,0.0,-1.0,,0.0-170.0,,0.0,564.675,1.0,0.7436654909999999,0.0,0.711182751,0.0,0.41125331,1.0,0.49554405,False,,597fc43e413c2300012916f1,,2167607,168,,evan-feature22,full_pf_a,,0
142,15902,169,,,,2,2,0.0,1.0,1.0,0.0,,0.0-171.0,,0.0,714.685,1.0,0.731607915,0.0,0.651774583,0.0,0.35688023,1.0,0.45194491600000003,False,,597fc43e413c2300012916f1,,2178082,169,,evan-feature22,full_pf_a,,1
143,15903,170,,,,1,1,1.0,1.0,0.0,-1.0,,0.0-172.0,,-1.0,1016.62,1.0,0.75,1.0,0.75,0.0,0.283145374,1.0,0.528608005,False,,597fc43e413c2300012916f1,,2188859,170,,evan-feature22,full_pf_a,,1
144,15904,171,,,,2,2,0.0,0.0,1.0,0.0,,0.0-173.0,,0.0,628.05,0.0,0.7491416890000001,1.0,0.7423785959999999,0.0,0.29135870399999997,0.0,0.498888318,False,,597fc43e413c2300012916f1,,2199248,171,,evan-feature22,full_pf_a,,1
145,15905,172,,,,1,1,1.0,1.0,0.0,-1.0,,0.0-174.0,,-1.0,992.395,1.0,0.708569387,1.0,0.717682277,1.0,0.294421699,0.0,0.493838163,False,,597fc43e413c2300012916f1,,2210001,172,,evan-feature22,full_pf_a,,1
146,15906,173,,,,2,2,1.0,0.0,1.0,0.0,,0.0-175.0,,1.0,411.13,1.0,0.75,0.0,0.7383382159999999,1.0,0.356098707,0.0,0.442533405,False,,597fc43e413c2300012916f1,,2220172,173,,evan-feature22,full_pf_a,,1
147,15907,174,,,,2,2,1.0,0.0,1.0,0.0,,0.0-176.0,,1.0,584.71,1.0,0.744527075,1.0,0.75,1.0,0.334127506,0.0,0.393165805,False,,597fc43e413c2300012916f1,,2230519,174,,evan-feature22,full_pf_a,,0
148,15908,175,,,,2,2,0.0,0.0,1.0,0.0,,0.0-177.0,,0.0,856.3,1.0,0.75,1.0,0.75,0.0,0.33571021799999995,0.0,0.350393962,False,,597fc43e413c2300012916f1,,2241137,175,,evan-feature22,full_pf_a,,0
149,15909,176,,,,1,1,1.0,1.0,0.0,-1.0,,0.0-178.0,,-1.0,1101.55,1.0,0.75,1.0,0.75,0.0,0.313628297,0.0,0.36349657399999996,False,,597fc43e413c2300012916f1,,2252003,176,,evan-feature22,full_pf_a,,1
150,15910,177,,,,2,2,0.0,1.0,1.0,0.0,,0.0-179.0,,0.0,669.49,0.0,0.75,0.0,0.734284182,0.0,0.262667667,1.0,0.380199119,False,,597fc43e413c2300012916f1,,2262433,177,,evan-feature22,full_pf_a,,1
151,15911,178,,,,2,2,0.0,0.0,1.0,0.0,,0.0-180.0,,0.0,481.59,1.0,0.75,1.0,0.75,0.0,0.25,0.0,0.394494013,False,,597fc43e413c2300012916f1,,2272677,178,,evan-feature22,full_pf_a,,0
152,15912,179,,,,2,2,0.0,1.0,1.0,0.0,,0.0-181.0,,0.0,436.365,1.0,0.722298145,1.0,0.7357822340000001,0.0,0.25,1.0,0.319142121,False,,597fc43e413c2300012916f1,,2282874,179,,evan-feature22,full_pf_a,,0
153,15913,180,,,,2,2,1.0,1.0,1.0,0.0,,0.0-182.0,,1.0,425.9,1.0,0.73149275,1.0,0.724276446,1.0,0.305856907,1.0,0.281315057,False,,597fc43e413c2300012916f1,,2293061,180,,evan-feature22,full_pf_a,,0
154,15914,181,,,,2,2,0.0,1.0,1.0,0.0,,0.0-183.0,,0.0,716.895,0.0,0.7458732690000001,1.0,0.7336382459999999,0.0,0.272571964,1.0,0.266021999,False,,597fc43e413c2300012916f1,,2303538,181,,evan-feature22,full_pf_a,,0
155,15915,182,,,,2,2,0.0,1.0,0.0,-1.0,,0.0-184.0,,-1.0,1332.925,0.0,0.705579037,1.0,0.720778292,0.0,0.320238144,1.0,0.30971744,False,,597fc43e413c2300012916f1,,2314635,182,,evan-feature22,full_pf_a,,0
156,15916,183,,,,2,2,0.0,1.0,0.0,-1.0,,0.0-185.0,,-1.0,521.44,0.0,0.700425648,1.0,0.7198784009999999,0.0,0.272590393,1.0,0.304182931,False,,597fc43e413c2300012916f1,,2324919,183,,evan-feature22,full_pf_a,,0
157,15917,184,,,,2,2,0.0,0.0,0.0,-1.0,,0.0-186.0,,0.0,983.42,0.0,0.735590785,1.0,0.722714973,0.0,0.25,0.0,0.323421091,False,,597fc43e413c2300012916f1,,2335662,184,,evan-feature22,full_pf_a,,0
158,15918,185,,,,2,2,0.0,1.0,0.0,-1.0,,0.0-187.0,,-1.0,881.315,1.0,0.724807662,1.0,0.63146213,0.0,0.36836492600000004,1.0,0.34592153299999995,False,,597fc43e413c2300012916f1,,2346304,185,,evan-feature22,full_pf_a,,0
159,15919,186,,,,2,2,1.0,0.0,1.0,0.0,,0.0-188.0,,1.0,748.255,0.0,0.7352796909999999,1.0,0.555111392,1.0,0.36003922,0.0,0.31433779999999995,False,,597fc43e413c2300012916f1,,2356813,186,,evan-feature22,full_pf_a,,0
160,15920,187,notice,,,,,,,,,,0.0-189.0,"{""Q0"":""the second i felt was more positive""}",,22352.0,,,,,,,,,False,,597fc43e413c2300012916f1,,2379168,187,Q,survey-text,full_pf_a,,1
161,15921,188,track1,,[0],,,,,,,,0.0-190.0,"{""Q0"":""yes""}",,5513.0,,,,,,,,,False,,597fc43e413c2300012916f1,,2384692,188,Q,evan-quiz,full_pf_a,,1
162,15922,189,track2,,[2],,,,,,,,0.0-191.0,"{""Q0"":""N/A""}",,8919.0,,,,,,,,,False,,597fc43e413c2300012916f1,,2393619,189,Q,evan-quiz,full_pf_a,,1
163,15923,190,strat,,,,,,,,,,0.0-192.0,"{""Q0"":""i tried to focus on where i won more""}",,20982.0,,,,,,,,,False,,597fc43e413c2300012916f1,,2414606,190,Q,survey-text,full_pf_a,,1
