,index,Unnamed: 0,Q_name,button_pressed,choice_idxs,chosen_pos,chosen_state,chosen_state_f_1_outcome,chosen_state_f_2_outcome,f_1_reward,f_2_reward,incor_questions,internal_node_id,responses,reward_received,rt,s_1_f_1_outcome,s_1_f_1_prob,s_1_f_2_outcome,s_1_f_2_prob,s_2_f_1_outcome,s_2_f_1_prob,s_2_f_2_outcome,s_2_f_2_prob,safe_first,stimulus,subjectID,success,time_elapsed,trial_index,trial_num,trial_type,version,view_history,switching
0,1186,35,,,,1,1,1.0,1.0,1.0,0.0,,0.0-27.0,,1.0,770.18,1.0,0.6,1.0,0.6,1.0,0.4,0.0,0.4,True,,5f02f1d7afde3746b6ce5117,,842135,35,,evan-feature22,full_rf_a,,0
1,1187,36,,,,1,1,1.0,1.0,1.0,0.0,,0.0-28.0,,1.0,575.415,1.0,0.608053294,1.0,0.63424552,1.0,0.397152172,1.0,0.347069101,True,,5f02f1d7afde3746b6ce5117,,852472,36,,evan-feature22,full_rf_a,,0
2,1188,37,,,,1,1,0.0,1.0,1.0,0.0,,0.0-29.0,,0.0,1035.555,0.0,0.642237155,1.0,0.648566321,1.0,0.389407674,0.0,0.285525717,True,,5f02f1d7afde3746b6ce5117,,863266,37,,evan-feature22,full_rf_a,,0
3,1189,38,,,,1,1,1.0,1.0,1.0,0.0,,0.0-30.0,,1.0,847.575,1.0,0.661086576,1.0,0.630492543,1.0,0.399058924,0.0,0.25,True,,5f02f1d7afde3746b6ce5117,,873875,38,,evan-feature22,full_rf_a,,0
4,1190,39,,,,2,2,0.0,1.0,0.0,-1.0,,0.0-31.0,,-1.0,506.845,1.0,0.631324137,1.0,0.6269842929999999,0.0,0.38734784299999997,1.0,0.25,True,,5f02f1d7afde3746b6ce5117,,884141,39,,evan-feature22,full_rf_a,,1
5,1191,40,,,,1,1,0.0,1.0,0.0,-1.0,,0.0-32.0,,-1.0,645.1,0.0,0.6381991370000001,1.0,0.68987999,1.0,0.384107265,0.0,0.271332943,True,,5f02f1d7afde3746b6ce5117,,894545,40,,evan-feature22,full_rf_a,,1
6,1192,41,,,,2,2,0.0,1.0,1.0,0.0,,0.0-33.0,,0.0,685.43,1.0,0.66034901,1.0,0.742641349,0.0,0.360225629,1.0,0.25,True,,5f02f1d7afde3746b6ce5117,,904989,41,,evan-feature22,full_rf_a,,1
7,1193,42,,,,2,2,0.0,0.0,1.0,0.0,,0.0-34.0,,0.0,592.42,1.0,0.638612418,1.0,0.75,0.0,0.367273939,0.0,0.25,True,,5f02f1d7afde3746b6ce5117,,915340,42,,evan-feature22,full_rf_a,,0
8,1194,43,,,,1,1,0.0,0.0,0.0,-1.0,,0.0-35.0,,0.0,1283.89,0.0,0.624340629,0.0,0.75,0.0,0.425829545,0.0,0.25,True,,5f02f1d7afde3746b6ce5117,,926382,43,,evan-feature22,full_rf_a,,1
9,1195,44,,,,1,1,1.0,1.0,0.0,-1.0,,0.0-36.0,,-1.0,1861.105,1.0,0.621999804,1.0,0.75,0.0,0.368609357,0.0,0.25,True,,5f02f1d7afde3746b6ce5117,,938005,44,,evan-feature22,full_rf_a,,0
10,1196,45,,,,1,1,1.0,1.0,1.0,0.0,,0.0-37.0,,1.0,1026.22,1.0,0.62666403,1.0,0.75,1.0,0.311151498,0.0,0.25,True,,5f02f1d7afde3746b6ce5117,,948793,45,,evan-feature22,full_rf_a,,0
11,1197,46,,,,SLOW,SLOW,,,0.0,-1.0,,0.0-38.0,,-3.0,,1.0,0.6819650009999999,1.0,0.75,1.0,0.310763048,0.0,0.25,True,,5f02f1d7afde3746b6ce5117,,954598,46,,evan-feature22,full_rf_a,,1
12,1198,47,,,,1,1,1.0,0.0,1.0,0.0,,0.0-39.0,,1.0,782.8,1.0,0.740626951,0.0,0.75,1.0,0.25,1.0,0.25,True,,5f02f1d7afde3746b6ce5117,,965140,47,,evan-feature22,full_rf_a,,1
13,1199,48,,,,1,1,1.0,1.0,1.0,0.0,,0.0-40.0,,1.0,617.435,1.0,0.739599242,1.0,0.742034978,0.0,0.25397114600000004,1.0,0.25,True,,5f02f1d7afde3746b6ce5117,,975519,48,,evan-feature22,full_rf_a,,0
14,1200,49,,,,1,1,1.0,1.0,1.0,0.0,,0.0-41.0,,1.0,3384.52,1.0,0.732341315,1.0,0.72735643,0.0,0.25,0.0,0.25,True,,5f02f1d7afde3746b6ce5117,,988665,49,,evan-feature22,full_rf_a,,0
15,1201,50,,,,1,1,0.0,1.0,1.0,0.0,,0.0-42.0,,0.0,227.78,0.0,0.7062287770000001,1.0,0.75,0.0,0.29002151,0.0,0.288256649,True,,5f02f1d7afde3746b6ce5117,,998653,50,,evan-feature22,full_rf_a,,0
16,1202,51,,,,1,1,0.0,1.0,1.0,0.0,,0.0-43.0,,0.0,164.86,0.0,0.7086029209999999,1.0,0.75,0.0,0.274129113,0.0,0.262851608,True,,5f02f1d7afde3746b6ce5117,,1008577,51,,evan-feature22,full_rf_a,,0
17,1203,52,,,,1,1,1.0,1.0,1.0,0.0,,0.0-44.0,,1.0,1097.525,1.0,0.669189651,1.0,0.727614338,0.0,0.298444036,1.0,0.296944518,True,,5f02f1d7afde3746b6ce5117,,1019437,52,,evan-feature22,full_rf_a,,0
18,1204,53,,,,1,1,0.0,0.0,1.0,0.0,,0.0-45.0,,0.0,2044.38,0.0,0.6819912929999999,0.0,0.7179434290000001,0.0,0.265003961,1.0,0.28157921199999997,True,,5f02f1d7afde3746b6ce5117,,1031241,53,,evan-feature22,full_rf_a,,0
19,1205,54,,,,SLOW,SLOW,,,0.0,-1.0,,0.0-46.0,,-3.0,,0.0,0.665275002,1.0,0.723065271,1.0,0.260414971,1.0,0.30973870000000003,True,,5f02f1d7afde3746b6ce5117,,1037045,54,,evan-feature22,full_rf_a,,1
20,1206,55,,,,1,1,1.0,0.0,1.0,0.0,,0.0-47.0,,1.0,404.585,1.0,0.6660593260000001,0.0,0.728032907,0.0,0.30922817,0.0,0.338778608,True,,5f02f1d7afde3746b6ce5117,,1047209,55,,evan-feature22,full_rf_a,,1
21,1207,56,,,,1,1,1.0,1.0,1.0,0.0,,0.0-48.0,,1.0,1016.665,1.0,0.702068785,1.0,0.6528750879999999,1.0,0.287329608,0.0,0.35789613200000003,True,,5f02f1d7afde3746b6ce5117,,1057988,56,,evan-feature22,full_rf_a,,0
22,1208,57,,,,1,1,1.0,0.0,1.0,0.0,,0.0-49.0,,1.0,534.435,1.0,0.651939787,0.0,0.636725589,0.0,0.284834488,0.0,0.358563756,True,,5f02f1d7afde3746b6ce5117,,1068282,57,,evan-feature22,full_rf_a,,0
23,1209,58,,,,1,1,1.0,1.0,0.0,-1.0,,0.0-50.0,,-1.0,755.755,1.0,0.67573929,1.0,0.612550049,1.0,0.37130387600000003,1.0,0.383542402,True,,5f02f1d7afde3746b6ce5117,,1078802,58,,evan-feature22,full_rf_a,,0
24,1210,59,,,,1,1,0.0,1.0,0.0,-1.0,,0.0-51.0,,-1.0,102.735,0.0,0.620753801,1.0,0.60513644,0.0,0.385529434,1.0,0.340361743,True,,5f02f1d7afde3746b6ce5117,,1088662,59,,evan-feature22,full_rf_a,,0
25,1211,60,,,,1,1,1.0,1.0,0.0,-1.0,,0.0-52.0,,-1.0,670.805,1.0,0.673564893,1.0,0.672437924,0.0,0.292955382,1.0,0.337633795,True,,5f02f1d7afde3746b6ce5117,,1099094,60,,evan-feature22,full_rf_a,,0
26,1212,61,,,,1,1,1.0,1.0,1.0,0.0,,0.0-53.0,,1.0,566.425,1.0,0.6749427,1.0,0.724197502,1.0,0.32391132100000003,0.0,0.350995264,True,,5f02f1d7afde3746b6ce5117,,1109422,61,,evan-feature22,full_rf_a,,0
27,1213,62,,,,1,1,1.0,1.0,1.0,0.0,,0.0-54.0,,1.0,3222.18,1.0,0.6940159379999999,1.0,0.75,0.0,0.31710554399999996,0.0,0.413450341,True,,5f02f1d7afde3746b6ce5117,,1122407,62,,evan-feature22,full_rf_a,,0
28,1214,63,,,,1,1,0.0,1.0,1.0,0.0,,0.0-55.0,,0.0,180.28,0.0,0.6916018270000001,1.0,0.69001187,0.0,0.261817804,0.0,0.40038635,True,,5f02f1d7afde3746b6ce5117,,1132347,63,,evan-feature22,full_rf_a,,0
29,1215,64,,,,1,1,1.0,1.0,1.0,0.0,,0.0-56.0,,1.0,1252.92,1.0,0.641061544,1.0,0.71337992,1.0,0.277296461,1.0,0.47372791700000005,True,,5f02f1d7afde3746b6ce5117,,1143360,64,,evan-feature22,full_rf_a,,0
30,1216,65,,,,1,1,1.0,1.0,1.0,0.0,,0.0-57.0,,1.0,694.475,1.0,0.6082438520000001,1.0,0.708471106,1.0,0.28745137,1.0,0.564174476,True,,5f02f1d7afde3746b6ce5117,,1153815,65,,evan-feature22,full_rf_a,,0
31,1217,66,,,,1,1,1.0,1.0,1.0,0.0,,0.0-58.0,,1.0,619.36,1.0,0.6051112120000001,1.0,0.7118147229999999,0.0,0.272390611,1.0,0.5595149939999999,True,,5f02f1d7afde3746b6ce5117,,1164196,66,,evan-feature22,full_rf_a,,0
32,1218,67,,,,1,1,1.0,0.0,1.0,0.0,,0.0-59.0,,1.0,148.485,1.0,0.582420852,0.0,0.635867583,0.0,0.31089574,1.0,0.5227206520000001,True,,5f02f1d7afde3746b6ce5117,,1174104,67,,evan-feature22,full_rf_a,,0
33,1219,68,,,,SLOW,SLOW,,,0.0,-1.0,,0.0-60.0,,-3.0,,0.0,0.623195575,0.0,0.655026044,1.0,0.25,0.0,0.560387538,True,,5f02f1d7afde3746b6ce5117,,1179908,68,,evan-feature22,full_rf_a,,1
34,1220,69,,,,1,1,1.0,1.0,1.0,0.0,,0.0-61.0,,1.0,1794.585,1.0,0.601889598,1.0,0.678198724,0.0,0.25,1.0,0.559922936,True,,5f02f1d7afde3746b6ce5117,,1191465,69,,evan-feature22,full_rf_a,,1
35,1221,70,,,,SLOW,SLOW,,,1.0,0.0,,0.0-62.0,,-3.0,,1.0,0.601259914,1.0,0.704681482,0.0,0.33908969299999997,1.0,0.505003715,True,,5f02f1d7afde3746b6ce5117,,1197269,70,,evan-feature22,full_rf_a,,1
36,1222,71,,,,1,1,1.0,1.0,1.0,0.0,,0.0-63.0,,1.0,383.195,1.0,0.59645454,1.0,0.710437172,1.0,0.327441879,0.0,0.391749613,True,,5f02f1d7afde3746b6ce5117,,1207416,71,,evan-feature22,full_rf_a,,1
37,1223,72,,,,1,1,0.0,1.0,1.0,0.0,,0.0-64.0,,0.0,410.115,0.0,0.529473,1.0,0.636758527,0.0,0.301338063,0.0,0.365661481,True,,5f02f1d7afde3746b6ce5117,,1217586,72,,evan-feature22,full_rf_a,,0
38,1224,73,,,,1,1,1.0,0.0,0.0,-1.0,,0.0-65.0,,0.0,1313.83,1.0,0.541657162,0.0,0.634541962,1.0,0.343535366,0.0,0.371763742,True,,5f02f1d7afde3746b6ce5117,,1228661,73,,evan-feature22,full_rf_a,,0
39,1225,74,,,,1,1,0.0,0.0,1.0,0.0,,0.0-66.0,,0.0,914.485,0.0,0.5707533260000001,0.0,0.589121171,1.0,0.326428396,0.0,0.43961622899999997,True,,5f02f1d7afde3746b6ce5117,,1239335,74,,evan-feature22,full_rf_a,,0
40,1226,75,,,,1,1,0.0,1.0,1.0,0.0,,0.0-67.0,,0.0,1349.3,0.0,0.5707533260000001,1.0,0.589121171,0.0,0.326428396,0.0,0.43961622899999997,True,,5f02f1d7afde3746b6ce5117,,1250443,75,,evan-feature22,full_rf_a,,0
41,1227,76,,,,1,1,1.0,0.0,1.0,0.0,,0.0-68.0,,1.0,900.535,1.0,0.506271295,0.0,0.641775594,0.0,0.37149690700000004,0.0,0.404330166,True,,5f02f1d7afde3746b6ce5117,,1261103,76,,evan-feature22,full_rf_a,,0
42,1228,77,,,,1,1,1.0,0.0,0.0,-1.0,,0.0-69.0,,0.0,2218.725,1.0,0.455642565,0.0,0.623605825,1.0,0.358753011,0.0,0.346174041,True,,5f02f1d7afde3746b6ce5117,,1273080,77,,evan-feature22,full_rf_a,,0
43,1229,78,,,,1,1,1.0,1.0,0.0,-1.0,,0.0-70.0,,-1.0,651.935,1.0,0.483677308,1.0,0.5904681070000001,1.0,0.402218411,0.0,0.35344697,True,,5f02f1d7afde3746b6ce5117,,1283493,78,,evan-feature22,full_rf_a,,0
44,1230,79,,,,1,1,1.0,1.0,0.0,-1.0,,0.0-71.0,,-1.0,2335.535,1.0,0.394210977,1.0,0.558925494,1.0,0.540052017,0.0,0.35182128700000004,True,,5f02f1d7afde3746b6ce5117,,1295588,79,,evan-feature22,full_rf_a,,0
45,1231,80,,,,1,1,0.0,1.0,1.0,0.0,,0.0-72.0,,0.0,815.43,0.0,0.382300414,1.0,0.577670603,0.0,0.607608448,0.0,0.378261578,True,,5f02f1d7afde3746b6ce5117,,1306165,80,,evan-feature22,full_rf_a,,0
46,1232,81,,,,1,1,1.0,1.0,1.0,0.0,,0.0-73.0,,1.0,1784.93,1.0,0.357596762,1.0,0.5929076529999999,1.0,0.6579790010000001,0.0,0.401326777,True,,5f02f1d7afde3746b6ce5117,,1317711,81,,evan-feature22,full_rf_a,,0
47,1233,82,,,,1,1,1.0,1.0,1.0,0.0,,0.0-74.0,,1.0,693.59,1.0,0.362033495,1.0,0.582308608,1.0,0.649195052,1.0,0.355158505,True,,5f02f1d7afde3746b6ce5117,,1328165,82,,evan-feature22,full_rf_a,,0
48,1234,83,,,,1,1,1.0,1.0,1.0,0.0,,0.0-75.0,,1.0,2884.215,1.0,0.369620635,1.0,0.669100864,1.0,0.706059111,0.0,0.362516241,True,,5f02f1d7afde3746b6ce5117,,1340808,83,,evan-feature22,full_rf_a,,0
49,1235,84,,,,1,1,0.0,1.0,1.0,0.0,,0.0-76.0,,0.0,585.41,0.0,0.41477751399999996,1.0,0.7284416779999999,1.0,0.7182656940000001,1.0,0.36228040899999997,True,,5f02f1d7afde3746b6ce5117,,1351152,84,,evan-feature22,full_rf_a,,0
50,1236,85,,,,1,1,1.0,0.0,0.0,-1.0,,0.0-77.0,,0.0,273.045,1.0,0.37675460299999997,0.0,0.703250285,1.0,0.75,1.0,0.461979164,True,,5f02f1d7afde3746b6ce5117,,1361185,85,,evan-feature22,full_rf_a,,0
51,1237,86,,,,2,2,1.0,1.0,0.0,-1.0,,0.0-78.0,,-1.0,1822.9,0.0,0.398716075,1.0,0.6723864890000001,1.0,0.674153818,1.0,0.519029516,True,,5f02f1d7afde3746b6ce5117,,1372773,86,,evan-feature22,full_rf_a,,1
52,1238,87,,,,2,2,0.0,0.0,1.0,0.0,,0.0-79.0,,0.0,445.58,0.0,0.34677856700000004,0.0,0.69057175,0.0,0.6822438540000001,0.0,0.477292237,True,,5f02f1d7afde3746b6ce5117,,1382978,87,,evan-feature22,full_rf_a,,0
53,1239,88,,,,1,1,0.0,0.0,0.0,-1.0,,0.0-80.0,,0.0,421.63,0.0,0.28580469199999997,0.0,0.68408818,0.0,0.684207565,0.0,0.49780448299999996,True,,5f02f1d7afde3746b6ce5117,,1393158,88,,evan-feature22,full_rf_a,,1
54,1241,90,,,,1,1,0.0,0.0,1.0,0.0,,0.0-82.0,,0.0,120.405,0.0,0.25,0.0,0.7405808970000001,0.0,0.679614108,0.0,0.436436964,True,,5f02f1d7afde3746b6ce5117,,1416373,90,,evan-feature22,full_rf_a,,0
55,1242,91,,,,2,2,1.0,1.0,0.0,-1.0,,0.0-83.0,,-1.0,465.89,1.0,0.29890393,1.0,0.730505706,1.0,0.7328203320000001,1.0,0.439256938,True,,5f02f1d7afde3746b6ce5117,,1426600,91,,evan-feature22,full_rf_a,,1
56,1243,92,,,,1,1,1.0,1.0,1.0,0.0,,0.0-84.0,,1.0,536.505,1.0,0.326762398,1.0,0.7148059609999999,1.0,0.75,0.0,0.44389608799999997,True,,5f02f1d7afde3746b6ce5117,,1436896,92,,evan-feature22,full_rf_a,,1
57,1244,93,,,,1,1,0.0,1.0,1.0,0.0,,0.0-85.0,,0.0,150.34,0.0,0.295168515,1.0,0.739760854,1.0,0.719947008,0.0,0.35277284600000003,True,,5f02f1d7afde3746b6ce5117,,1446807,93,,evan-feature22,full_rf_a,,0
58,1245,94,,,,1,1,0.0,1.0,1.0,0.0,,0.0-86.0,,0.0,431.72,0.0,0.25,1.0,0.70781482,1.0,0.75,1.0,0.286095925,True,,5f02f1d7afde3746b6ce5117,,1457000,94,,evan-feature22,full_rf_a,,0
59,1246,95,,,,2,2,1.0,0.0,0.0,-1.0,,0.0-87.0,,0.0,1902.865,1.0,0.25638190899999996,1.0,0.704088163,1.0,0.75,0.0,0.26872601399999996,True,,5f02f1d7afde3746b6ce5117,,1468663,95,,evan-feature22,full_rf_a,,1
60,1247,96,,,,2,2,1.0,0.0,0.0,-1.0,,0.0-88.0,,0.0,642.02,0.0,0.271581126,1.0,0.669760107,1.0,0.733896663,0.0,0.273244572,True,,5f02f1d7afde3746b6ce5117,,1479064,96,,evan-feature22,full_rf_a,,0
61,1248,97,,,,2,2,1.0,1.0,0.0,-1.0,,0.0-89.0,,-1.0,576.335,0.0,0.257144401,1.0,0.600575706,1.0,0.74488122,1.0,0.25,True,,5f02f1d7afde3746b6ce5117,,1489404,97,,evan-feature22,full_rf_a,,0
62,1249,98,,,,1,1,0.0,0.0,1.0,0.0,,0.0-90.0,,0.0,78.53,0.0,0.25,0.0,0.616870026,1.0,0.723610234,0.0,0.25,True,,5f02f1d7afde3746b6ce5117,,1499241,98,,evan-feature22,full_rf_a,,1
63,1250,99,,,,1,1,0.0,0.0,0.0,-1.0,,0.0-91.0,,0.0,809.575,0.0,0.25,0.0,0.583540187,0.0,0.7041042559999999,0.0,0.285961995,True,,5f02f1d7afde3746b6ce5117,,1509808,99,,evan-feature22,full_rf_a,,0
64,1251,100,,,,2,2,1.0,1.0,1.0,0.0,,0.0-92.0,,1.0,72.46,0.0,0.27254536,0.0,0.53875765,1.0,0.693783448,1.0,0.284961652,True,,5f02f1d7afde3746b6ce5117,,1519641,100,,evan-feature22,full_rf_a,,1
65,1252,101,,,,1,1,0.0,1.0,0.0,-1.0,,0.0-93.0,,-1.0,390.585,0.0,0.25,1.0,0.548431252,0.0,0.734221895,1.0,0.279445214,True,,5f02f1d7afde3746b6ce5117,,1529791,101,,evan-feature22,full_rf_a,,1
66,1253,102,,,,1,1,0.0,1.0,1.0,0.0,,0.0-94.0,,0.0,689.94,0.0,0.258640684,1.0,0.545878066,1.0,0.725245965,0.0,0.31487537,True,,5f02f1d7afde3746b6ce5117,,1540242,102,,evan-feature22,full_rf_a,,0
67,1254,103,,,,1,1,0.0,1.0,1.0,0.0,,0.0-95.0,,0.0,211.355,0.0,0.251103711,1.0,0.5776290629999999,1.0,0.696320133,1.0,0.317831047,True,,5f02f1d7afde3746b6ce5117,,1550212,103,,evan-feature22,full_rf_a,,0
68,1255,104,,,,2,2,0.0,0.0,1.0,0.0,,0.0-96.0,,0.0,54.03,1.0,0.276630292,1.0,0.617329858,0.0,0.73838088,0.0,0.261471582,True,,5f02f1d7afde3746b6ce5117,,1560026,104,,evan-feature22,full_rf_a,,1
69,1256,105,,,,2,2,1.0,1.0,0.0,-1.0,,0.0-97.0,,-1.0,195.885,0.0,0.297716424,1.0,0.618863717,1.0,0.7402358259999999,1.0,0.262600834,True,,5f02f1d7afde3746b6ce5117,,1569984,105,,evan-feature22,full_rf_a,,0
70,1257,106,,,,2,2,1.0,0.0,1.0,0.0,,0.0-98.0,,1.0,923.055,0.0,0.290935512,1.0,0.695370945,1.0,0.706570507,0.0,0.280030553,True,,5f02f1d7afde3746b6ce5117,,1580667,106,,evan-feature22,full_rf_a,,0
71,1258,107,,,,2,2,1.0,1.0,1.0,0.0,,0.0-99.0,,1.0,1428.065,0.0,0.25,1.0,0.6465277079999999,1.0,0.67766682,1.0,0.25,True,,5f02f1d7afde3746b6ce5117,,1591854,107,,evan-feature22,full_rf_a,,0
72,1259,108,,,,2,2,0.0,0.0,1.0,0.0,,0.0-100.0,,0.0,391.9,0.0,0.26463816,0.0,0.636100213,0.0,0.646048507,0.0,0.265607101,True,,5f02f1d7afde3746b6ce5117,,1602005,108,,evan-feature22,full_rf_a,,0
73,1260,109,,,,1,1,0.0,0.0,1.0,0.0,,0.0-101.0,,0.0,519.59,0.0,0.314340707,0.0,0.667795927,1.0,0.613630805,1.0,0.25,True,,5f02f1d7afde3746b6ce5117,,1612284,109,,evan-feature22,full_rf_a,,1
74,1261,110,,,,1,1,0.0,1.0,1.0,0.0,,0.0-102.0,,0.0,558.65,0.0,0.28685784,1.0,0.6622549529999999,0.0,0.652154117,1.0,0.25,True,,5f02f1d7afde3746b6ce5117,,1622603,110,,evan-feature22,full_rf_a,,0
75,1262,111,,,,1,1,0.0,1.0,0.0,-1.0,,0.0-103.0,,-1.0,359.105,0.0,0.304106554,1.0,0.631289538,1.0,0.707041942,1.0,0.29314237,True,,5f02f1d7afde3746b6ce5117,,1632721,111,,evan-feature22,full_rf_a,,0
76,1263,112,,,,1,1,1.0,0.0,0.0,-1.0,,0.0-104.0,,0.0,1396.21,1.0,0.304806932,0.0,0.571167718,1.0,0.680472346,0.0,0.25,True,,5f02f1d7afde3746b6ce5117,,1643878,112,,evan-feature22,full_rf_a,,0
77,1264,113,,,,1,1,1.0,0.0,0.0,-1.0,,0.0-105.0,,0.0,1325.07,1.0,0.37919861,0.0,0.5724849710000001,1.0,0.705638003,0.0,0.30179300600000003,True,,5f02f1d7afde3746b6ce5117,,1654963,113,,evan-feature22,full_rf_a,,0
78,1265,114,,,,1,1,0.0,1.0,0.0,-1.0,,0.0-106.0,,-1.0,771.68,0.0,0.464277969,1.0,0.554034373,1.0,0.7372627340000001,0.0,0.264699741,True,,5f02f1d7afde3746b6ce5117,,1665494,114,,evan-feature22,full_rf_a,,0
79,1266,115,,,,SLOW,SLOW,,,1.0,0.0,,0.0-107.0,,-3.0,,0.0,0.465104323,0.0,0.530793115,0.0,0.75,0.0,0.31683071,True,,5f02f1d7afde3746b6ce5117,,1671299,115,,evan-feature22,full_rf_a,,1
80,1267,116,,,,1,1,1.0,1.0,0.0,-1.0,,0.0-108.0,,-1.0,171.74,1.0,0.465104323,1.0,0.530793115,1.0,0.75,0.0,0.31683071,True,,5f02f1d7afde3746b6ce5117,,1681232,116,,evan-feature22,full_rf_a,,1
81,1268,117,,,,2,2,1.0,0.0,0.0,-1.0,,0.0-109.0,,0.0,566.965,1.0,0.46833986,0.0,0.570249239,1.0,0.7244472590000001,0.0,0.364114163,True,,5f02f1d7afde3746b6ce5117,,1691559,117,,evan-feature22,full_rf_a,,1
82,1269,118,,,,2,2,0.0,0.0,0.0,-1.0,,0.0-110.0,,0.0,93.62999999,0.0,0.445444024,1.0,0.649673355,0.0,0.6845441290000001,0.0,0.300660449,True,,5f02f1d7afde3746b6ce5117,,1701412,118,,evan-feature22,full_rf_a,,0
83,1270,119,,,,1,1,1.0,1.0,0.0,-1.0,,0.0-111.0,,-1.0,6.120000005,1.0,0.39909721299999995,1.0,0.6715179509999999,1.0,0.742310028,1.0,0.35496088299999995,True,,5f02f1d7afde3746b6ce5117,,1711180,119,,evan-feature22,full_rf_a,,1
84,1271,120,,,,2,2,1.0,0.0,0.0,-1.0,,0.0-112.0,,0.0,562.86,1.0,0.37956104799999996,1.0,0.694725302,1.0,0.7181651309999999,0.0,0.38726906299999997,True,,5f02f1d7afde3746b6ce5117,,1721504,120,,evan-feature22,full_rf_a,,1
85,1272,121,,,,2,2,1.0,0.0,0.0,-1.0,,0.0-113.0,,0.0,513.735,1.0,0.404995034,0.0,0.724375412,1.0,0.6910946859999999,0.0,0.387187347,True,,5f02f1d7afde3746b6ce5117,,1731779,121,,evan-feature22,full_rf_a,,0
86,1273,122,,,,1,1,1.0,0.0,0.0,-1.0,,0.0-114.0,,0.0,150.02,1.0,0.461740803,0.0,0.75,1.0,0.75,0.0,0.34872038200000005,True,,5f02f1d7afde3746b6ce5117,,1741687,122,,evan-feature22,full_rf_a,,1
87,1274,123,,,,1,1,0.0,0.0,1.0,0.0,,0.0-115.0,,0.0,159.57,0.0,0.43821380600000004,0.0,0.738833273,1.0,0.728286963,1.0,0.399538128,True,,5f02f1d7afde3746b6ce5117,,1751605,123,,evan-feature22,full_rf_a,,0
88,1275,124,,,,1,1,0.0,0.0,0.0,-1.0,,0.0-116.0,,0.0,259.97,0.0,0.41709882,0.0,0.736666736,1.0,0.75,1.0,0.389095584,True,,5f02f1d7afde3746b6ce5117,,1761626,124,,evan-feature22,full_rf_a,,0
89,1276,125,,,,1,1,0.0,1.0,0.0,-1.0,,0.0-117.0,,-1.0,100.075,0.0,0.39749009799999996,1.0,0.744320029,0.0,0.75,1.0,0.363848678,True,,5f02f1d7afde3746b6ce5117,,1771485,125,,evan-feature22,full_rf_a,,0
90,1277,126,,,,2,2,1.0,0.0,1.0,0.0,,0.0-118.0,,1.0,632.3,0.0,0.392653706,1.0,0.75,1.0,0.75,0.0,0.384386976,True,,5f02f1d7afde3746b6ce5117,,1781878,126,,evan-feature22,full_rf_a,,1
91,1278,127,,,,2,2,1.0,1.0,1.0,0.0,,0.0-119.0,,1.0,151.295,0.0,0.31190902600000003,1.0,0.75,1.0,0.732413819,1.0,0.413082932,True,,5f02f1d7afde3746b6ce5117,,1791795,127,,evan-feature22,full_rf_a,,0
92,1279,128,,,,1,1,0.0,1.0,0.0,-1.0,,0.0-120.0,,-1.0,287.335,0.0,0.366917648,1.0,0.740073855,1.0,0.75,0.0,0.352861979,True,,5f02f1d7afde3746b6ce5117,,1801843,128,,evan-feature22,full_rf_a,,1
93,1280,129,,,,2,2,0.0,1.0,0.0,-1.0,,0.0-121.0,,-1.0,642.44,1.0,0.3645172,1.0,0.721770713,0.0,0.75,1.0,0.404074511,True,,5f02f1d7afde3746b6ce5117,,1812246,129,,evan-feature22,full_rf_a,,1
94,1281,130,,,,1,1,0.0,1.0,0.0,-1.0,,0.0-122.0,,-1.0,1660.36,0.0,0.35205600299999995,1.0,0.68983859,1.0,0.739735447,0.0,0.366895945,True,,5f02f1d7afde3746b6ce5117,,1823665,130,,evan-feature22,full_rf_a,,1
95,1282,131,,,,1,1,1.0,1.0,0.0,-1.0,,0.0-123.0,,-1.0,786.99,1.0,0.40998722600000004,1.0,0.720859127,1.0,0.673854955,0.0,0.368528541,True,,5f02f1d7afde3746b6ce5117,,1834212,131,,evan-feature22,full_rf_a,,0
96,1283,132,,,,1,1,1.0,1.0,1.0,0.0,,0.0-124.0,,1.0,2020.925,1.0,0.353625316,1.0,0.75,0.0,0.695605473,1.0,0.38303674200000004,True,,5f02f1d7afde3746b6ce5117,,1845993,132,,evan-feature22,full_rf_a,,0
97,1284,133,,,,1,1,0.0,1.0,0.0,-1.0,,0.0-125.0,,-1.0,3525.08,0.0,0.359216989,1.0,0.75,1.0,0.6987915090000001,1.0,0.35169046200000004,True,,5f02f1d7afde3746b6ce5117,,1859277,133,,evan-feature22,full_rf_a,,0
98,1285,134,,,,1,1,0.0,0.0,1.0,0.0,,0.0-126.0,,0.0,1704.18,0.0,0.35834496899999996,0.0,0.75,1.0,0.707067742,0.0,0.416763636,True,,5f02f1d7afde3746b6ce5117,,1870742,134,,evan-feature22,full_rf_a,,0
99,1286,135,,,,1,1,0.0,1.0,1.0,0.0,,0.0-127.0,,0.0,472.99,0.0,0.38741613799999997,1.0,0.7177369570000001,1.0,0.734902455,0.0,0.49438664299999996,True,,5f02f1d7afde3746b6ce5117,,1880976,135,,evan-feature22,full_rf_a,,0
100,1287,136,,,,1,1,0.0,1.0,0.0,-1.0,,0.0-128.0,,-1.0,2119.165,0.0,0.405255252,1.0,0.7300466640000001,1.0,0.7027748070000001,0.0,0.504359668,True,,5f02f1d7afde3746b6ce5117,,1892854,136,,evan-feature22,full_rf_a,,0
101,1288,137,,,,1,1,1.0,1.0,0.0,-1.0,,0.0-129.0,,-1.0,675.605,1.0,0.40697073,1.0,0.7260142190000001,1.0,0.724461982,0.0,0.522779179,True,,5f02f1d7afde3746b6ce5117,,1903291,137,,evan-feature22,full_rf_a,,0
102,1289,138,,,,1,1,0.0,1.0,0.0,-1.0,,0.0-130.0,,-1.0,774.92,0.0,0.43906215299999996,1.0,0.7252802340000001,0.0,0.719079934,0.0,0.5712990579999999,True,,5f02f1d7afde3746b6ce5117,,1913826,138,,evan-feature22,full_rf_a,,0
103,1290,139,,,,1,1,0.0,1.0,0.0,-1.0,,0.0-131.0,,-1.0,580.76,0.0,0.4076705,1.0,0.73280499,1.0,0.681313127,1.0,0.523891346,True,,5f02f1d7afde3746b6ce5117,,1924167,139,,evan-feature22,full_rf_a,,0
104,1291,140,,,,1,1,0.0,1.0,0.0,-1.0,,0.0-132.0,,-1.0,576.48,0.0,0.399102911,1.0,0.730498344,1.0,0.661080239,0.0,0.46742603,True,,5f02f1d7afde3746b6ce5117,,1934504,140,,evan-feature22,full_rf_a,,0
105,1292,141,,,,2,2,0.0,1.0,1.0,0.0,,0.0-133.0,,0.0,110.495,0.0,0.356477282,1.0,0.712296395,0.0,0.641812684,1.0,0.44868414,True,,5f02f1d7afde3746b6ce5117,,1944374,141,,evan-feature22,full_rf_a,,1
106,1293,142,,,,2,2,1.0,0.0,0.0,-1.0,,0.0-134.0,,0.0,85.14000001,0.0,0.462760722,0.0,0.692349322,1.0,0.700947931,0.0,0.394680266,True,,5f02f1d7afde3746b6ce5117,,1954219,142,,evan-feature22,full_rf_a,,0
107,1294,143,,,,1,1,1.0,0.0,0.0,-1.0,,0.0-135.0,,0.0,557.015,1.0,0.422306413,0.0,0.718375916,1.0,0.706340917,0.0,0.367787185,True,,5f02f1d7afde3746b6ce5117,,1964536,143,,evan-feature22,full_rf_a,,1
108,1296,145,,,,1,1,0.0,1.0,0.0,-1.0,,0.0-137.0,,-1.0,371.705,0.0,0.4582233,1.0,0.643834117,1.0,0.75,0.0,0.39615823299999997,True,,5f02f1d7afde3746b6ce5117,,1979277,145,,evan-feature22,full_rf_a,,0
109,1297,146,,,,2,2,0.0,1.0,0.0,-1.0,,0.0-138.0,,-1.0,3.649999999,1.0,0.43813437899999996,1.0,0.651283804,0.0,0.729674191,1.0,0.37711048,True,,5f02f1d7afde3746b6ce5117,,1989041,146,,evan-feature22,full_rf_a,,1
110,1298,147,,,,2,2,1.0,0.0,0.0,-1.0,,0.0-139.0,,0.0,555.785,0.0,0.471199094,1.0,0.6470010979999999,1.0,0.715008097,0.0,0.410656191,True,,5f02f1d7afde3746b6ce5117,,1999360,147,,evan-feature22,full_rf_a,,0
111,1299,148,,,,1,1,0.0,1.0,1.0,0.0,,0.0-140.0,,0.0,403.33,0.0,0.42486406,1.0,0.629771829,1.0,0.6550939960000001,0.0,0.459093873,True,,5f02f1d7afde3746b6ce5117,,2009526,148,,evan-feature22,full_rf_a,,1
112,1300,149,,,,1,1,1.0,1.0,1.0,0.0,,0.0-141.0,,1.0,817.275,1.0,0.4803197,1.0,0.645842715,0.0,0.6421749920000001,0.0,0.443092151,True,,5f02f1d7afde3746b6ce5117,,2020103,149,,evan-feature22,full_rf_a,,0
113,1301,150,,,,1,1,0.0,1.0,1.0,0.0,,0.0-142.0,,0.0,414.67,0.0,0.521848997,1.0,0.735801074,0.0,0.6691348460000001,0.0,0.45259351600000003,True,,5f02f1d7afde3746b6ce5117,,2030280,150,,evan-feature22,full_rf_a,,0
114,1302,151,,,,2,2,0.0,1.0,0.0,-1.0,,0.0-143.0,,-1.0,52.31999999,0.0,0.49565621299999996,1.0,0.742400847,0.0,0.661512553,1.0,0.483110831,True,,5f02f1d7afde3746b6ce5117,,2040092,151,,evan-feature22,full_rf_a,,1
115,1303,152,,,,2,2,1.0,0.0,1.0,0.0,,0.0-144.0,,1.0,144.61,0.0,0.521564361,1.0,0.731078632,1.0,0.6774886809999999,0.0,0.483263956,True,,5f02f1d7afde3746b6ce5117,,2049998,152,,evan-feature22,full_rf_a,,0
116,1304,153,,,,2,2,0.0,1.0,1.0,0.0,,0.0-145.0,,0.0,106.61,0.0,0.558893102,1.0,0.719810023,0.0,0.67461031,1.0,0.499349834,True,,5f02f1d7afde3746b6ce5117,,2059864,153,,evan-feature22,full_rf_a,,0
117,1305,154,,,,1,1,0.0,1.0,0.0,-1.0,,0.0-146.0,,-1.0,1059.275,0.0,0.611031046,1.0,0.75,1.0,0.688072995,0.0,0.5321422729999999,True,,5f02f1d7afde3746b6ce5117,,2070682,154,,evan-feature22,full_rf_a,,1
118,1306,155,,,,1,1,1.0,1.0,1.0,0.0,,0.0-147.0,,1.0,962.955,1.0,0.633223941,1.0,0.713567728,1.0,0.75,1.0,0.48185314700000004,True,,5f02f1d7afde3746b6ce5117,,2081408,155,,evan-feature22,full_rf_a,,0
119,1307,156,,,,1,1,0.0,0.0,1.0,0.0,,0.0-148.0,,0.0,836.38,0.0,0.664001694,0.0,0.705509768,1.0,0.75,1.0,0.500211065,True,,5f02f1d7afde3746b6ce5117,,2092004,156,,evan-feature22,full_rf_a,,0
120,1308,157,,,,1,1,1.0,0.0,0.0,-1.0,,0.0-149.0,,0.0,341.5,1.0,0.664001694,0.0,0.705509768,1.0,0.75,1.0,0.500211065,True,,5f02f1d7afde3746b6ce5117,,2102106,157,,evan-feature22,full_rf_a,,0
121,1309,158,,,,1,1,1.0,1.0,0.0,-1.0,,0.0-150.0,,-1.0,759.035,1.0,0.696508041,1.0,0.71066027,1.0,0.717028709,1.0,0.49792991,True,,5f02f1d7afde3746b6ce5117,,2112628,158,,evan-feature22,full_rf_a,,0
122,1310,159,,,,1,1,1.0,1.0,1.0,0.0,,0.0-151.0,,1.0,2112.89,1.0,0.699883272,1.0,0.75,1.0,0.713543895,1.0,0.496962643,True,,5f02f1d7afde3746b6ce5117,,2124501,159,,evan-feature22,full_rf_a,,0
123,1311,160,,,,1,1,0.0,1.0,0.0,-1.0,,0.0-152.0,,-1.0,481.515,0.0,0.741163419,1.0,0.75,1.0,0.64691024,1.0,0.513858197,True,,5f02f1d7afde3746b6ce5117,,2134742,160,,evan-feature22,full_rf_a,,0
124,1312,161,,,,1,1,1.0,1.0,1.0,0.0,,0.0-153.0,,1.0,2270.15,1.0,0.75,1.0,0.70816558,0.0,0.594499079,1.0,0.48502124,True,,5f02f1d7afde3746b6ce5117,,2146771,161,,evan-feature22,full_rf_a,,0
125,1313,162,,,,1,1,1.0,1.0,0.0,-1.0,,0.0-154.0,,-1.0,642.125,1.0,0.75,1.0,0.721848901,1.0,0.62197249,1.0,0.48263586399999997,True,,5f02f1d7afde3746b6ce5117,,2157173,162,,evan-feature22,full_rf_a,,0
126,1314,163,,,,1,1,1.0,0.0,1.0,0.0,,0.0-155.0,,1.0,440.91,1.0,0.75,0.0,0.74813071,0.0,0.584357161,0.0,0.411477782,True,,5f02f1d7afde3746b6ce5117,,2167374,163,,evan-feature22,full_rf_a,,0
127,1315,164,,,,1,1,0.0,1.0,0.0,-1.0,,0.0-156.0,,-1.0,1347.74,0.0,0.75,1.0,0.75,0.0,0.52287236,1.0,0.488290656,True,,5f02f1d7afde3746b6ce5117,,2178482,164,,evan-feature22,full_rf_a,,0
128,1316,165,,,,1,1,1.0,0.0,0.0,-1.0,,0.0-157.0,,0.0,380.475,1.0,0.75,0.0,0.75,1.0,0.544321581,1.0,0.53143059,True,,5f02f1d7afde3746b6ce5117,,2188623,165,,evan-feature22,full_rf_a,,0
129,1317,166,,,,1,1,1.0,1.0,0.0,-1.0,,0.0-158.0,,-1.0,326.14,1.0,0.726754564,1.0,0.75,0.0,0.5129306370000001,0.0,0.530592445,True,,5f02f1d7afde3746b6ce5117,,2198710,166,,evan-feature22,full_rf_a,,0
130,1318,167,,,,1,1,1.0,0.0,1.0,0.0,,0.0-159.0,,1.0,385.275,1.0,0.75,0.0,0.7392590729999999,0.0,0.479875835,0.0,0.547007051,True,,5f02f1d7afde3746b6ce5117,,2208857,167,,evan-feature22,full_rf_a,,0
131,1319,168,,,,1,1,1.0,1.0,1.0,0.0,,0.0-160.0,,1.0,368.425,1.0,0.75,1.0,0.7393376979999999,0.0,0.546045419,1.0,0.541267353,True,,5f02f1d7afde3746b6ce5117,,2218987,168,,evan-feature22,full_rf_a,,0
132,1320,169,,,,1,1,0.0,1.0,1.0,0.0,,0.0-161.0,,0.0,660.665,0.0,0.75,1.0,0.75,1.0,0.485725895,0.0,0.527625395,True,,5f02f1d7afde3746b6ce5117,,2229408,169,,evan-feature22,full_rf_a,,0
133,1321,170,,,,1,1,1.0,1.0,0.0,-1.0,,0.0-162.0,,-1.0,1396.535,1.0,0.75,1.0,0.725087974,0.0,0.488603595,0.0,0.504019206,True,,5f02f1d7afde3746b6ce5117,,2240563,170,,evan-feature22,full_rf_a,,0
134,1322,171,,,,2,2,0.0,1.0,0.0,-1.0,,0.0-163.0,,-1.0,5.245000008,0.0,0.745504295,1.0,0.75,0.0,0.452379914,1.0,0.50131194,True,,5f02f1d7afde3746b6ce5117,,2250330,171,,evan-feature22,full_rf_a,,1
135,1323,172,,,,1,1,1.0,1.0,0.0,-1.0,,0.0-164.0,,-1.0,1603.895,1.0,0.728513874,1.0,0.75,0.0,0.44125567200000004,0.0,0.531454591,True,,5f02f1d7afde3746b6ce5117,,2261694,172,,evan-feature22,full_rf_a,,1
136,1324,173,,,,1,1,0.0,0.0,1.0,0.0,,0.0-165.0,,0.0,1129.87,0.0,0.73790804,0.0,0.75,0.0,0.413036656,0.0,0.524619035,True,,5f02f1d7afde3746b6ce5117,,2272584,173,,evan-feature22,full_rf_a,,0
137,1325,174,,,,1,1,1.0,1.0,0.0,-1.0,,0.0-166.0,,-1.0,464.36,1.0,0.7080961309999999,1.0,0.708666865,1.0,0.431915581,1.0,0.481819489,True,,5f02f1d7afde3746b6ce5117,,2282809,174,,evan-feature22,full_rf_a,,0
138,1326,175,,,,1,1,1.0,0.0,0.0,-1.0,,0.0-167.0,,0.0,569.905,1.0,0.721378003,0.0,0.71605913,0.0,0.36642387,0.0,0.5036739929999999,True,,5f02f1d7afde3746b6ce5117,,2293138,175,,evan-feature22,full_rf_a,,0
139,1327,176,,,,1,1,1.0,0.0,0.0,-1.0,,0.0-168.0,,0.0,2317.615,1.0,0.7340618959999999,0.0,0.699323252,1.0,0.35298046299999997,1.0,0.511241692,True,,5f02f1d7afde3746b6ce5117,,2305215,176,,evan-feature22,full_rf_a,,0
140,1328,177,,,,1,1,0.0,1.0,1.0,0.0,,0.0-169.0,,0.0,670.06,0.0,0.75,1.0,0.70412698,1.0,0.380734814,0.0,0.529580116,True,,5f02f1d7afde3746b6ce5117,,2315647,177,,evan-feature22,full_rf_a,,0
141,1329,178,,,,1,1,1.0,1.0,0.0,-1.0,,0.0-170.0,,-1.0,204.035,1.0,0.7436654909999999,1.0,0.711182751,0.0,0.41125331,1.0,0.49554405,True,,5f02f1d7afde3746b6ce5117,,2325610,178,,evan-feature22,full_rf_a,,0
142,1330,179,,,,1,1,1.0,0.0,0.0,-1.0,,0.0-171.0,,0.0,439.125,1.0,0.731607915,0.0,0.651774583,1.0,0.35688023,0.0,0.45194491600000003,True,,5f02f1d7afde3746b6ce5117,,2335808,179,,evan-feature22,full_rf_a,,0
143,1331,180,,,,2,2,0.0,1.0,1.0,0.0,,0.0-172.0,,0.0,43.52000001,1.0,0.75,1.0,0.75,0.0,0.283145374,1.0,0.528608005,True,,5f02f1d7afde3746b6ce5117,,2345611,180,,evan-feature22,full_rf_a,,1
144,1332,181,,,,1,1,1.0,1.0,1.0,0.0,,0.0-173.0,,1.0,768.42,1.0,0.7491416890000001,1.0,0.7423785959999999,0.0,0.29135870399999997,1.0,0.498888318,True,,5f02f1d7afde3746b6ce5117,,2356142,181,,evan-feature22,full_rf_a,,1
145,1333,182,,,,1,1,1.0,1.0,1.0,0.0,,0.0-174.0,,1.0,793.435,1.0,0.708569387,1.0,0.717682277,1.0,0.294421699,0.0,0.493838163,True,,5f02f1d7afde3746b6ce5117,,2366696,182,,evan-feature22,full_rf_a,,0
146,1334,183,,,,1,1,1.0,1.0,0.0,-1.0,,0.0-175.0,,-1.0,1056.335,1.0,0.75,1.0,0.7383382159999999,1.0,0.356098707,0.0,0.442533405,True,,5f02f1d7afde3746b6ce5117,,2377515,183,,evan-feature22,full_rf_a,,0
147,1335,184,,,,1,1,1.0,1.0,0.0,-1.0,,0.0-176.0,,-1.0,768.71,1.0,0.744527075,1.0,0.75,0.0,0.334127506,0.0,0.393165805,True,,5f02f1d7afde3746b6ce5117,,2388043,184,,evan-feature22,full_rf_a,,0
148,1336,185,,,,1,1,0.0,1.0,0.0,-1.0,,0.0-177.0,,-1.0,67.34000001,0.0,0.75,1.0,0.75,0.0,0.33571021799999995,0.0,0.350393962,True,,5f02f1d7afde3746b6ce5117,,2397871,185,,evan-feature22,full_rf_a,,0
149,1337,186,,,,1,1,1.0,0.0,0.0,-1.0,,0.0-178.0,,0.0,508.395,1.0,0.75,0.0,0.75,0.0,0.313628297,0.0,0.36349657399999996,True,,5f02f1d7afde3746b6ce5117,,2408138,186,,evan-feature22,full_rf_a,,0
150,1338,187,,,,1,1,1.0,1.0,1.0,0.0,,0.0-179.0,,1.0,753.655,1.0,0.75,1.0,0.734284182,0.0,0.262667667,1.0,0.380199119,True,,5f02f1d7afde3746b6ce5117,,2418653,187,,evan-feature22,full_rf_a,,0
151,1339,188,,,,1,1,0.0,1.0,0.0,-1.0,,0.0-180.0,,-1.0,786.125,0.0,0.75,1.0,0.75,0.0,0.25,0.0,0.394494013,True,,5f02f1d7afde3746b6ce5117,,2429200,188,,evan-feature22,full_rf_a,,0
152,1340,189,,,,1,1,1.0,1.0,1.0,0.0,,0.0-181.0,,1.0,3155.555,1.0,0.722298145,1.0,0.7357822340000001,0.0,0.25,1.0,0.319142121,True,,5f02f1d7afde3746b6ce5117,,2442117,189,,evan-feature22,full_rf_a,,0
153,1341,190,,,,1,1,1.0,1.0,1.0,0.0,,0.0-182.0,,1.0,277.185,1.0,0.73149275,1.0,0.724276446,0.0,0.305856907,0.0,0.281315057,True,,5f02f1d7afde3746b6ce5117,,2452154,190,,evan-feature22,full_rf_a,,0
154,1342,191,,,,1,1,1.0,1.0,0.0,-1.0,,0.0-183.0,,-1.0,82.06499999,1.0,0.7458732690000001,1.0,0.7336382459999999,1.0,0.272571964,0.0,0.266021999,True,,5f02f1d7afde3746b6ce5117,,2461995,191,,evan-feature22,full_rf_a,,0
155,1343,192,,,,1,1,1.0,1.0,0.0,-1.0,,0.0-184.0,,-1.0,757.9,1.0,0.705579037,1.0,0.720778292,1.0,0.320238144,0.0,0.30971744,True,,5f02f1d7afde3746b6ce5117,,2472512,192,,evan-feature22,full_rf_a,,0
156,1344,193,,,,2,2,0.0,0.0,0.0,-1.0,,0.0-185.0,,0.0,115.03,0.0,0.700425648,0.0,0.7198784009999999,0.0,0.272590393,0.0,0.304182931,True,,5f02f1d7afde3746b6ce5117,,2482385,193,,evan-feature22,full_rf_a,,1
157,1345,194,,,,1,1,1.0,1.0,0.0,-1.0,,0.0-186.0,,-1.0,2077.185,1.0,0.735590785,1.0,0.722714973,0.0,0.25,1.0,0.323421091,True,,5f02f1d7afde3746b6ce5117,,2494227,194,,evan-feature22,full_rf_a,,1
158,1346,195,,,,1,1,1.0,1.0,0.0,-1.0,,0.0-187.0,,-1.0,1189.935,1.0,0.724807662,1.0,0.63146213,0.0,0.36836492600000004,1.0,0.34592153299999995,True,,5f02f1d7afde3746b6ce5117,,2505179,195,,evan-feature22,full_rf_a,,0
159,1347,196,,,,2,2,0.0,0.0,0.0,-1.0,,0.0-188.0,,0.0,793.375,0.0,0.7352796909999999,1.0,0.555111392,0.0,0.36003922,0.0,0.31433779999999995,True,,5f02f1d7afde3746b6ce5117,,2515733,196,,evan-feature22,full_rf_a,,1
160,1348,197,notice,,,,,,,,,,0.0-189.0,"{""Q0"":""""}",,6589.0,,,,,,,,,True,,5f02f1d7afde3746b6ce5117,,2522323,197,Q,survey-text,full_rf_a,,1
161,1349,198,track1,,[1],,,,,,,,0.0-190.0,"{""Q0"":""no""}",,4289.0,,,,,,,,,True,,5f02f1d7afde3746b6ce5117,,2526616,198,Q,evan-quiz,full_rf_a,,1
162,1350,199,track2,,[0],,,,,,,,0.0-191.0,"{""Q0"":""yes""}",,4123.0,,,,,,,,,True,,5f02f1d7afde3746b6ce5117,,2530742,199,Q,evan-quiz,full_rf_a,,1
163,1351,200,strat,,,,,,,,,,0.0-192.0,"{""Q0"":""Started off by repeating picking the colour door that was usually the best but then my brain lost track so it ended up with mostly being random with only avoiding what always seemed to gave me minus minerals""}",,52290.0,,,,,,,,,True,,5f02f1d7afde3746b6ce5117,,2583035,200,Q,survey-text,full_rf_a,,1
