,index,Unnamed: 0,Q_name,button_pressed,choice_idxs,chosen_pos,chosen_state,chosen_state_f_1_outcome,chosen_state_f_2_outcome,f_1_reward,f_2_reward,incor_questions,internal_node_id,responses,reward_received,rt,s_1_f_1_outcome,s_1_f_1_prob,s_1_f_2_outcome,s_1_f_2_prob,s_2_f_1_outcome,s_2_f_1_prob,s_2_f_2_outcome,s_2_f_2_prob,safe_first,stimulus,subjectID,success,time_elapsed,trial_index,trial_num,trial_type,version,view_history,switching
0,24431,25,,,,1,1,0.0,0.0,0.0,-1.0,,0.0-27.0,,0.0,981.3550002999999,0.0,0.6,0.0,0.6,1.0,0.4,1.0,0.4,False,,5f78b933f653f2489f86469b,,910239,25,,evan-feature22,full_pf_a,,0
1,24432,26,,,,1,1,0.0,1.0,0.0,-1.0,,0.0-28.0,,-1.0,858.9350004,0.0,0.608053294,1.0,0.63424552,1.0,0.397152172,1.0,0.347069101,False,,5f78b933f653f2489f86469b,,920863,26,,evan-feature22,full_pf_a,,0
2,24433,27,,,,2,2,0.0,1.0,0.0,-1.0,,0.0-29.0,,-1.0,643.790001,1.0,0.642237155,1.0,0.648566321,0.0,0.389407674,1.0,0.285525717,False,,5f78b933f653f2489f86469b,,931277,27,,evan-feature22,full_pf_a,,1
3,24434,28,,,,1,1,1.0,0.0,0.0,-1.0,,0.0-30.0,,0.0,1797.1100010000002,1.0,0.661086576,0.0,0.630492543,1.0,0.399058924,0.0,0.25,False,,5f78b933f653f2489f86469b,,942844,28,,evan-feature22,full_pf_a,,1
4,24435,29,,,,1,1,1.0,0.0,0.0,-1.0,,0.0-31.0,,0.0,1406.664999,1.0,0.631324137,0.0,0.6269842929999999,1.0,0.38734784299999997,1.0,0.25,False,,5f78b933f653f2489f86469b,,954021,29,,evan-feature22,full_pf_a,,0
5,24436,30,,,,1,1,1.0,1.0,0.0,-1.0,,0.0-32.0,,-1.0,1536.3749990000001,1.0,0.6381991370000001,1.0,0.68987999,0.0,0.384107265,0.0,0.271332943,False,,5f78b933f653f2489f86469b,,965325,30,,evan-feature22,full_pf_a,,0
6,24437,31,,,,2,2,0.0,0.0,0.0,-1.0,,0.0-33.0,,0.0,1761.185002,0.0,0.66034901,1.0,0.742641349,0.0,0.360225629,0.0,0.25,False,,5f78b933f653f2489f86469b,,976854,31,,evan-feature22,full_pf_a,,1
7,24438,32,,,,2,2,0.0,0.0,1.0,0.0,,0.0-34.0,,0.0,1220.425,1.0,0.638612418,1.0,0.75,0.0,0.367273939,0.0,0.25,False,,5f78b933f653f2489f86469b,,987840,32,,evan-feature22,full_pf_a,,0
8,24439,33,,,,1,1,0.0,1.0,0.0,-1.0,,0.0-35.0,,-1.0,1720.3799989999998,0.0,0.624340629,1.0,0.75,1.0,0.425829545,0.0,0.25,False,,5f78b933f653f2489f86469b,,999330,33,,evan-feature22,full_pf_a,,1
9,24440,34,,,,2,2,0.0,1.0,0.0,-1.0,,0.0-36.0,,-1.0,1575.77,0.0,0.621999804,1.0,0.75,0.0,0.368609357,1.0,0.25,False,,5f78b933f653f2489f86469b,,1010668,34,,evan-feature22,full_pf_a,,1
10,24441,35,,,,2,2,0.0,0.0,1.0,0.0,,0.0-37.0,,0.0,1239.69,0.0,0.62666403,1.0,0.75,0.0,0.311151498,0.0,0.25,False,,5f78b933f653f2489f86469b,,1021676,35,,evan-feature22,full_pf_a,,0
11,24442,36,,,,1,1,0.0,0.0,1.0,0.0,,0.0-38.0,,0.0,1104.929999,0.0,0.6819650009999999,0.0,0.75,1.0,0.310763048,0.0,0.25,False,,5f78b933f653f2489f86469b,,1032550,36,,evan-feature22,full_pf_a,,1
12,24443,37,,,,1,1,1.0,1.0,0.0,-1.0,,0.0-39.0,,-1.0,2052.5249989999998,1.0,0.740626951,1.0,0.75,0.0,0.25,1.0,0.25,False,,5f78b933f653f2489f86469b,,1044374,37,,evan-feature22,full_pf_a,,0
13,24444,38,,,,2,2,0.0,0.0,0.0,-1.0,,0.0-40.0,,0.0,1130.39,0.0,0.739599242,1.0,0.742034978,0.0,0.25397114600000004,0.0,0.25,False,,5f78b933f653f2489f86469b,,1055269,38,,evan-feature22,full_pf_a,,1
14,24445,39,,,,2,2,1.0,0.0,0.0,-1.0,,0.0-41.0,,0.0,1359.844999,0.0,0.732341315,0.0,0.72735643,1.0,0.25,0.0,0.25,False,,5f78b933f653f2489f86469b,,1066394,39,,evan-feature22,full_pf_a,,0
15,24446,40,,,,2,2,1.0,1.0,0.0,-1.0,,0.0-42.0,,-1.0,1145.855,1.0,0.7062287770000001,0.0,0.75,1.0,0.29002151,1.0,0.288256649,False,,5f78b933f653f2489f86469b,,1077306,40,,evan-feature22,full_pf_a,,0
16,24447,41,,,,2,2,0.0,1.0,1.0,0.0,,0.0-43.0,,0.0,1854.9000010000002,1.0,0.7086029209999999,1.0,0.75,0.0,0.274129113,1.0,0.262851608,False,,5f78b933f653f2489f86469b,,1088928,41,,evan-feature22,full_pf_a,,0
17,24448,42,,,,2,2,1.0,0.0,0.0,-1.0,,0.0-44.0,,0.0,1194.894999,1.0,0.669189651,1.0,0.727614338,1.0,0.298444036,0.0,0.296944518,False,,5f78b933f653f2489f86469b,,1099890,42,,evan-feature22,full_pf_a,,0
18,24449,43,,,,1,1,1.0,0.0,1.0,0.0,,0.0-45.0,,1.0,1036.404999,1.0,0.6819912929999999,0.0,0.7179434290000001,1.0,0.265003961,0.0,0.28157921199999997,False,,5f78b933f653f2489f86469b,,1110694,43,,evan-feature22,full_pf_a,,1
19,24450,44,,,,1,1,1.0,0.0,1.0,0.0,,0.0-46.0,,1.0,686.1749999,1.0,0.665275002,0.0,0.723065271,0.0,0.260414971,0.0,0.30973870000000003,False,,5f78b933f653f2489f86469b,,1121149,44,,evan-feature22,full_pf_a,,0
20,24451,45,,,,1,1,1.0,1.0,0.0,-1.0,,0.0-47.0,,-1.0,1257.300001,1.0,0.6660593260000001,1.0,0.728032907,0.0,0.30922817,0.0,0.338778608,False,,5f78b933f653f2489f86469b,,1132171,45,,evan-feature22,full_pf_a,,0
21,24452,46,,,,2,2,0.0,1.0,0.0,-1.0,,0.0-48.0,,-1.0,785.149999,0.0,0.702068785,1.0,0.6528750879999999,0.0,0.287329608,1.0,0.35789613200000003,False,,5f78b933f653f2489f86469b,,1142724,46,,evan-feature22,full_pf_a,,1
22,24453,47,,,,2,2,1.0,0.0,0.0,-1.0,,0.0-49.0,,0.0,1117.685001,0.0,0.651939787,1.0,0.636725589,1.0,0.284834488,0.0,0.358563756,False,,5f78b933f653f2489f86469b,,1153609,47,,evan-feature22,full_pf_a,,0
23,24454,48,,,,2,2,0.0,0.0,0.0,-1.0,,0.0-50.0,,0.0,1430.785,1.0,0.67573929,1.0,0.612550049,0.0,0.37130387600000003,0.0,0.383542402,False,,5f78b933f653f2489f86469b,,1164809,48,,evan-feature22,full_pf_a,,0
24,24455,49,,,,2,2,0.0,0.0,0.0,-1.0,,0.0-51.0,,0.0,860.4249991,0.0,0.620753801,1.0,0.60513644,0.0,0.385529434,0.0,0.340361743,False,,5f78b933f653f2489f86469b,,1175434,49,,evan-feature22,full_pf_a,,0
25,24456,50,,,,1,1,0.0,1.0,1.0,0.0,,0.0-52.0,,0.0,587.0599989,0.0,0.673564893,1.0,0.672437924,0.0,0.292955382,0.0,0.337633795,False,,5f78b933f653f2489f86469b,,1185785,50,,evan-feature22,full_pf_a,,1
26,24457,51,,,,2,2,0.0,0.0,0.0,-1.0,,0.0-53.0,,0.0,1093.555,1.0,0.6749427,0.0,0.724197502,0.0,0.32391132100000003,0.0,0.350995264,False,,5f78b933f653f2489f86469b,,1196647,51,,evan-feature22,full_pf_a,,1
27,24458,52,,,,1,1,0.0,1.0,0.0,-1.0,,0.0-54.0,,-1.0,1404.11,0.0,0.6940159379999999,1.0,0.75,1.0,0.31710554399999996,1.0,0.413450341,False,,5f78b933f653f2489f86469b,,1207824,52,,evan-feature22,full_pf_a,,1
28,24459,53,,,,2,2,0.0,0.0,0.0,-1.0,,0.0-55.0,,0.0,958.7699993999998,0.0,0.6916018270000001,0.0,0.69001187,0.0,0.261817804,0.0,0.40038635,False,,5f78b933f653f2489f86469b,,1218550,53,,evan-feature22,full_pf_a,,1
29,24460,54,,,,2,2,0.0,0.0,0.0,-1.0,,0.0-56.0,,0.0,925.5550001,0.0,0.641061544,1.0,0.71337992,0.0,0.277296461,0.0,0.47372791700000005,False,,5f78b933f653f2489f86469b,,1229239,54,,evan-feature22,full_pf_a,,0
30,24461,55,,,,2,2,0.0,1.0,0.0,-1.0,,0.0-57.0,,-1.0,862.0200007999999,1.0,0.6082438520000001,1.0,0.708471106,0.0,0.28745137,1.0,0.564174476,False,,5f78b933f653f2489f86469b,,1239870,55,,evan-feature22,full_pf_a,,0
31,24462,56,,,,1,1,0.0,0.0,1.0,0.0,,0.0-58.0,,0.0,788.5699999,0.0,0.6051112120000001,0.0,0.7118147229999999,0.0,0.272390611,1.0,0.5595149939999999,False,,5f78b933f653f2489f86469b,,1250426,56,,evan-feature22,full_pf_a,,1
32,24463,57,,,,2,2,0.0,0.0,1.0,0.0,,0.0-59.0,,0.0,814.94,0.0,0.582420852,1.0,0.635867583,0.0,0.31089574,0.0,0.5227206520000001,False,,5f78b933f653f2489f86469b,,1261003,57,,evan-feature22,full_pf_a,,1
33,24464,58,,,,1,1,0.0,0.0,1.0,0.0,,0.0-60.0,,0.0,763.9550008,0.0,0.623195575,0.0,0.655026044,1.0,0.25,0.0,0.560387538,False,,5f78b933f653f2489f86469b,,1271533,58,,evan-feature22,full_pf_a,,1
34,24465,59,,,,1,1,0.0,1.0,0.0,-1.0,,0.0-61.0,,-1.0,997.1700013000001,0.0,0.601889598,1.0,0.678198724,1.0,0.25,1.0,0.559922936,False,,5f78b933f653f2489f86469b,,1282298,59,,evan-feature22,full_pf_a,,0
35,24466,60,,,,2,2,1.0,1.0,1.0,0.0,,0.0-62.0,,1.0,1088.265,1.0,0.601259914,1.0,0.704681482,1.0,0.33908969299999997,1.0,0.505003715,False,,5f78b933f653f2489f86469b,,1293151,60,,evan-feature22,full_pf_a,,1
36,24467,61,,,,2,2,0.0,0.0,1.0,0.0,,0.0-63.0,,0.0,657.2149992000001,1.0,0.59645454,1.0,0.710437172,0.0,0.327441879,0.0,0.391749613,False,,5f78b933f653f2489f86469b,,1303570,61,,evan-feature22,full_pf_a,,0
37,24468,62,,,,2,2,1.0,0.0,0.0,-1.0,,0.0-64.0,,0.0,1285.65,0.0,0.529473,1.0,0.636758527,1.0,0.301338063,0.0,0.365661481,False,,5f78b933f653f2489f86469b,,1314624,62,,evan-feature22,full_pf_a,,0
38,24469,63,,,,2,2,0.0,0.0,1.0,0.0,,0.0-65.0,,0.0,967.8500015000001,1.0,0.541657162,1.0,0.634541962,0.0,0.343535366,0.0,0.371763742,False,,5f78b933f653f2489f86469b,,1325357,63,,evan-feature22,full_pf_a,,0
39,24470,64,,,,1,1,1.0,0.0,1.0,0.0,,0.0-66.0,,1.0,740.2450014,1.0,0.5707533260000001,0.0,0.589121171,1.0,0.326428396,1.0,0.43961622899999997,False,,5f78b933f653f2489f86469b,,1335866,64,,evan-feature22,full_pf_a,,1
40,24471,65,,,,1,1,0.0,1.0,0.0,-1.0,,0.0-67.0,,-1.0,1096.799999,0.0,0.5707533260000001,1.0,0.589121171,0.0,0.326428396,1.0,0.43961622899999997,False,,5f78b933f653f2489f86469b,,1346730,65,,evan-feature22,full_pf_a,,0
41,24472,66,,,,2,2,0.0,0.0,0.0,-1.0,,0.0-68.0,,0.0,1297.78,0.0,0.506271295,1.0,0.641775594,0.0,0.37149690700000004,0.0,0.404330166,False,,5f78b933f653f2489f86469b,,1357798,66,,evan-feature22,full_pf_a,,1
42,24473,67,,,,1,1,1.0,0.0,1.0,0.0,,0.0-69.0,,1.0,724.5049998,1.0,0.455642565,0.0,0.623605825,0.0,0.358753011,1.0,0.346174041,False,,5f78b933f653f2489f86469b,,1368290,67,,evan-feature22,full_pf_a,,1
43,24474,68,,,,1,1,1.0,0.0,0.0,-1.0,,0.0-70.0,,0.0,1697.865,1.0,0.483677308,0.0,0.5904681070000001,1.0,0.402218411,0.0,0.35344697,False,,5f78b933f653f2489f86469b,,1379755,68,,evan-feature22,full_pf_a,,0
44,24475,69,,,,1,1,0.0,0.0,1.0,0.0,,0.0-71.0,,0.0,1487.0,0.0,0.394210977,0.0,0.558925494,0.0,0.540052017,1.0,0.35182128700000004,False,,5f78b933f653f2489f86469b,,1391009,69,,evan-feature22,full_pf_a,,0
45,24476,70,,,,2,2,1.0,0.0,0.0,-1.0,,0.0-72.0,,0.0,1219.740001,1.0,0.382300414,0.0,0.577670603,1.0,0.607608448,0.0,0.378261578,False,,5f78b933f653f2489f86469b,,1401996,70,,evan-feature22,full_pf_a,,1
46,24477,71,,,,2,2,1.0,0.0,1.0,0.0,,0.0-73.0,,1.0,722.4349994,0.0,0.357596762,0.0,0.5929076529999999,1.0,0.6579790010000001,0.0,0.401326777,False,,5f78b933f653f2489f86469b,,1412486,71,,evan-feature22,full_pf_a,,0
47,24478,72,,,,1,1,1.0,0.0,0.0,-1.0,,0.0-74.0,,0.0,874.259999,1.0,0.362033495,0.0,0.582308608,1.0,0.649195052,0.0,0.355158505,False,,5f78b933f653f2489f86469b,,1423131,72,,evan-feature22,full_pf_a,,1
48,24479,73,,,,1,1,0.0,0.0,0.0,-1.0,,0.0-75.0,,0.0,860.8100004,0.0,0.369620635,0.0,0.669100864,0.0,0.706059111,1.0,0.362516241,False,,5f78b933f653f2489f86469b,,1433760,73,,evan-feature22,full_pf_a,,0
49,24480,74,,,,1,1,0.0,1.0,0.0,-1.0,,0.0-76.0,,-1.0,822.2849984000001,0.0,0.41477751399999996,1.0,0.7284416779999999,0.0,0.7182656940000001,0.0,0.36228040899999997,False,,5f78b933f653f2489f86469b,,1444349,74,,evan-feature22,full_pf_a,,0
50,24481,75,,,,2,2,1.0,1.0,1.0,0.0,,0.0-77.0,,1.0,503.4599993,0.0,0.37675460299999997,0.0,0.703250285,1.0,0.75,1.0,0.461979164,False,,5f78b933f653f2489f86469b,,1454622,75,,evan-feature22,full_pf_a,,1
51,24482,76,,,,2,2,1.0,0.0,1.0,0.0,,0.0-78.0,,1.0,690.5200016,1.0,0.398716075,1.0,0.6723864890000001,1.0,0.674153818,0.0,0.519029516,False,,5f78b933f653f2489f86469b,,1465081,76,,evan-feature22,full_pf_a,,0
52,24483,77,,,,2,2,1.0,1.0,1.0,0.0,,0.0-79.0,,1.0,452.91999910000004,1.0,0.34677856700000004,1.0,0.69057175,1.0,0.6822438540000001,1.0,0.477292237,False,,5f78b933f653f2489f86469b,,1475303,77,,evan-feature22,full_pf_a,,0
53,24484,78,,,,1,1,0.0,0.0,0.0,-1.0,,0.0-80.0,,0.0,907.2850011,0.0,0.28580469199999997,0.0,0.68408818,1.0,0.684207565,1.0,0.49780448299999996,False,,5f78b933f653f2489f86469b,,1485977,78,,evan-feature22,full_pf_a,,1
54,24486,80,,,,1,1,0.0,1.0,0.0,-1.0,,0.0-82.0,,-1.0,1306.17,0.0,0.25,1.0,0.7405808970000001,1.0,0.679614108,0.0,0.436436964,False,,5f78b933f653f2489f86469b,,1500446,80,,evan-feature22,full_pf_a,,0
55,24487,81,,,,2,2,1.0,1.0,0.0,-1.0,,0.0-83.0,,-1.0,1271.050001,1.0,0.29890393,1.0,0.730505706,1.0,0.7328203320000001,1.0,0.439256938,False,,5f78b933f653f2489f86469b,,1511489,81,,evan-feature22,full_pf_a,,1
56,24488,82,,,,2,2,1.0,0.0,1.0,0.0,,0.0-84.0,,1.0,1328.090001,1.0,0.326762398,1.0,0.7148059609999999,1.0,0.75,0.0,0.44389608799999997,False,,5f78b933f653f2489f86469b,,1522585,82,,evan-feature22,full_pf_a,,0
57,24489,83,,,,2,2,1.0,0.0,0.0,-1.0,,0.0-85.0,,0.0,1222.005,0.0,0.295168515,1.0,0.739760854,1.0,0.719947008,0.0,0.35277284600000003,False,,5f78b933f653f2489f86469b,,1533575,83,,evan-feature22,full_pf_a,,0
58,24490,84,,,,2,2,1.0,0.0,0.0,-1.0,,0.0-86.0,,0.0,1186.965,0.0,0.25,1.0,0.70781482,1.0,0.75,0.0,0.286095925,False,,5f78b933f653f2489f86469b,,1544532,84,,evan-feature22,full_pf_a,,0
59,24491,85,,,,2,2,1.0,1.0,0.0,-1.0,,0.0-87.0,,-1.0,953.0549999,1.0,0.25638190899999996,0.0,0.704088163,1.0,0.75,1.0,0.26872601399999996,False,,5f78b933f653f2489f86469b,,1555258,85,,evan-feature22,full_pf_a,,0
60,24492,86,,,,1,1,1.0,1.0,1.0,0.0,,0.0-88.0,,1.0,852.9599998,1.0,0.271581126,1.0,0.669760107,0.0,0.733896663,0.0,0.273244572,False,,5f78b933f653f2489f86469b,,1565879,86,,evan-feature22,full_pf_a,,1
61,24493,87,,,,1,1,0.0,1.0,0.0,-1.0,,0.0-89.0,,-1.0,1707.175,0.0,0.257144401,1.0,0.600575706,0.0,0.74488122,1.0,0.25,False,,5f78b933f653f2489f86469b,,1577356,87,,evan-feature22,full_pf_a,,0
62,24494,88,,,,1,1,0.0,1.0,0.0,-1.0,,0.0-90.0,,-1.0,1304.53,0.0,0.25,1.0,0.616870026,1.0,0.723610234,1.0,0.25,False,,5f78b933f653f2489f86469b,,1588429,88,,evan-feature22,full_pf_a,,0
63,24495,89,,,,1,1,0.0,1.0,1.0,0.0,,0.0-91.0,,0.0,1168.3549990000001,0.0,0.25,1.0,0.583540187,1.0,0.7041042559999999,0.0,0.285961995,False,,5f78b933f653f2489f86469b,,1599364,89,,evan-feature22,full_pf_a,,0
64,24496,90,,,,2,2,1.0,0.0,1.0,0.0,,0.0-92.0,,1.0,428.2200001,0.0,0.27254536,0.0,0.53875765,1.0,0.693783448,0.0,0.284961652,False,,5f78b933f653f2489f86469b,,1609558,90,,evan-feature22,full_pf_a,,1
65,24497,91,,,,2,2,0.0,1.0,1.0,0.0,,0.0-93.0,,0.0,574.7950003,0.0,0.25,0.0,0.548431252,0.0,0.734221895,1.0,0.279445214,False,,5f78b933f653f2489f86469b,,1619898,91,,evan-feature22,full_pf_a,,0
66,24498,92,,,,1,1,0.0,0.0,0.0,-1.0,,0.0-94.0,,0.0,1665.859999,0.0,0.258640684,0.0,0.545878066,0.0,0.725245965,1.0,0.31487537,False,,5f78b933f653f2489f86469b,,1631328,92,,evan-feature22,full_pf_a,,1
67,24499,93,,,,1,1,1.0,1.0,0.0,-1.0,,0.0-95.0,,-1.0,975.5300004000001,1.0,0.251103711,1.0,0.5776290629999999,1.0,0.696320133,1.0,0.317831047,False,,5f78b933f653f2489f86469b,,1642070,93,,evan-feature22,full_pf_a,,0
68,24500,94,,,,2,2,1.0,0.0,0.0,-1.0,,0.0-96.0,,0.0,1159.525,0.0,0.276630292,1.0,0.617329858,1.0,0.73838088,0.0,0.261471582,False,,5f78b933f653f2489f86469b,,1652997,94,,evan-feature22,full_pf_a,,1
69,24501,95,,,,2,2,1.0,0.0,0.0,-1.0,,0.0-97.0,,0.0,1196.544999,1.0,0.297716424,1.0,0.618863717,1.0,0.7402358259999999,0.0,0.262600834,False,,5f78b933f653f2489f86469b,,1663958,95,,evan-feature22,full_pf_a,,0
70,24502,96,,,,1,1,0.0,1.0,1.0,0.0,,0.0-98.0,,0.0,886.9699985,0.0,0.290935512,1.0,0.695370945,0.0,0.706570507,0.0,0.280030553,False,,5f78b933f653f2489f86469b,,1674615,96,,evan-feature22,full_pf_a,,1
71,24503,97,,,,2,2,1.0,0.0,0.0,-1.0,,0.0-99.0,,0.0,1506.625,1.0,0.25,1.0,0.6465277079999999,1.0,0.67766682,0.0,0.25,False,,5f78b933f653f2489f86469b,,1685888,97,,evan-feature22,full_pf_a,,1
72,24504,98,,,,2,2,1.0,1.0,1.0,0.0,,0.0-100.0,,1.0,885.9550002999998,0.0,0.26463816,0.0,0.636100213,1.0,0.646048507,1.0,0.265607101,False,,5f78b933f653f2489f86469b,,1696541,98,,evan-feature22,full_pf_a,,0
73,24505,99,,,,2,2,1.0,0.0,1.0,0.0,,0.0-101.0,,1.0,499.4750004,1.0,0.314340707,0.0,0.667795927,1.0,0.613630805,0.0,0.25,False,,5f78b933f653f2489f86469b,,1706808,99,,evan-feature22,full_pf_a,,0
74,24506,100,,,,1,1,0.0,1.0,0.0,-1.0,,0.0-102.0,,-1.0,885.4249994999999,0.0,0.28685784,1.0,0.6622549529999999,1.0,0.652154117,0.0,0.25,False,,5f78b933f653f2489f86469b,,1717464,100,,evan-feature22,full_pf_a,,1
75,24507,101,,,,2,2,1.0,1.0,0.0,-1.0,,0.0-103.0,,-1.0,1369.365001,0.0,0.304106554,0.0,0.631289538,1.0,0.707041942,1.0,0.29314237,False,,5f78b933f653f2489f86469b,,1728602,101,,evan-feature22,full_pf_a,,1
76,24508,102,,,,2,2,0.0,0.0,0.0,-1.0,,0.0-104.0,,0.0,1459.209999,1.0,0.304806932,0.0,0.571167718,0.0,0.680472346,0.0,0.25,False,,5f78b933f653f2489f86469b,,1739827,102,,evan-feature22,full_pf_a,,0
77,24509,103,,,,2,2,1.0,0.0,0.0,-1.0,,0.0-105.0,,0.0,1166.835001,1.0,0.37919861,0.0,0.5724849710000001,1.0,0.705638003,0.0,0.30179300600000003,False,,5f78b933f653f2489f86469b,,1750770,103,,evan-feature22,full_pf_a,,0
78,24510,104,,,,1,1,0.0,0.0,0.0,-1.0,,0.0-106.0,,0.0,911.2350008999999,0.0,0.464277969,0.0,0.554034373,1.0,0.7372627340000001,0.0,0.264699741,False,,5f78b933f653f2489f86469b,,1761449,104,,evan-feature22,full_pf_a,,1
79,24511,105,,,,2,2,1.0,1.0,0.0,-1.0,,0.0-107.0,,-1.0,1188.595001,0.0,0.465104323,1.0,0.530793115,1.0,0.75,1.0,0.31683071,False,,5f78b933f653f2489f86469b,,1772404,105,,evan-feature22,full_pf_a,,1
80,24512,106,,,,2,2,1.0,1.0,1.0,0.0,,0.0-108.0,,1.0,942.1899989,1.0,0.465104323,1.0,0.530793115,1.0,0.75,1.0,0.31683071,False,,5f78b933f653f2489f86469b,,1783111,106,,evan-feature22,full_pf_a,,0
81,24513,107,,,,1,1,1.0,0.0,1.0,0.0,,0.0-109.0,,1.0,444.45999900000004,1.0,0.46833986,0.0,0.570249239,1.0,0.7244472590000001,0.0,0.364114163,False,,5f78b933f653f2489f86469b,,1793327,107,,evan-feature22,full_pf_a,,1
82,24514,108,,,,1,1,1.0,1.0,1.0,0.0,,0.0-110.0,,1.0,800.8199986000001,1.0,0.445444024,1.0,0.649673355,1.0,0.6845441290000001,0.0,0.300660449,False,,5f78b933f653f2489f86469b,,1803895,108,,evan-feature22,full_pf_a,,0
83,24515,109,,,,1,1,0.0,1.0,1.0,0.0,,0.0-111.0,,0.0,780.2600004,0.0,0.39909721299999995,1.0,0.6715179509999999,1.0,0.742310028,0.0,0.35496088299999995,False,,5f78b933f653f2489f86469b,,1814444,109,,evan-feature22,full_pf_a,,0
84,24516,110,,,,1,1,1.0,1.0,0.0,-1.0,,0.0-112.0,,-1.0,1332.115,1.0,0.37956104799999996,1.0,0.694725302,1.0,0.7181651309999999,0.0,0.38726906299999997,False,,5f78b933f653f2489f86469b,,1825547,110,,evan-feature22,full_pf_a,,0
85,24517,111,,,,2,2,0.0,0.0,0.0,-1.0,,0.0-113.0,,0.0,715.8300001,0.0,0.404995034,1.0,0.724375412,0.0,0.6910946859999999,0.0,0.387187347,False,,5f78b933f653f2489f86469b,,1836027,111,,evan-feature22,full_pf_a,,1
86,24518,112,,,,2,2,0.0,1.0,1.0,0.0,,0.0-114.0,,0.0,653.3849984,0.0,0.461740803,1.0,0.75,0.0,0.75,1.0,0.34872038200000005,False,,5f78b933f653f2489f86469b,,1846447,112,,evan-feature22,full_pf_a,,0
87,24519,113,,,,2,2,1.0,1.0,1.0,0.0,,0.0-115.0,,1.0,981.7299992000001,1.0,0.43821380600000004,1.0,0.738833273,1.0,0.728286963,1.0,0.399538128,False,,5f78b933f653f2489f86469b,,1857200,113,,evan-feature22,full_pf_a,,0
88,24520,114,,,,1,1,1.0,1.0,0.0,-1.0,,0.0-116.0,,-1.0,1384.459998,1.0,0.41709882,1.0,0.736666736,1.0,0.75,1.0,0.389095584,False,,5f78b933f653f2489f86469b,,1868355,114,,evan-feature22,full_pf_a,,1
89,24521,115,,,,1,1,1.0,0.0,0.0,-1.0,,0.0-117.0,,0.0,1167.705001,1.0,0.39749009799999996,0.0,0.744320029,1.0,0.75,0.0,0.363848678,False,,5f78b933f653f2489f86469b,,1879291,115,,evan-feature22,full_pf_a,,0
90,24522,116,,,,2,2,0.0,1.0,1.0,0.0,,0.0-118.0,,0.0,609.9149995,0.0,0.392653706,1.0,0.75,0.0,0.75,1.0,0.384386976,False,,5f78b933f653f2489f86469b,,1889669,116,,evan-feature22,full_pf_a,,1
91,24523,117,,,,2,2,1.0,1.0,0.0,-1.0,,0.0-119.0,,-1.0,950.53,0.0,0.31190902600000003,1.0,0.75,1.0,0.732413819,1.0,0.413082932,False,,5f78b933f653f2489f86469b,,1900387,117,,evan-feature22,full_pf_a,,0
92,24524,118,,,,2,2,1.0,0.0,1.0,0.0,,0.0-120.0,,1.0,701.3349999,1.0,0.366917648,1.0,0.740073855,1.0,0.75,0.0,0.352861979,False,,5f78b933f653f2489f86469b,,1910852,118,,evan-feature22,full_pf_a,,0
93,24525,119,,,,2,2,1.0,1.0,1.0,0.0,,0.0-121.0,,1.0,571.5599991,1.0,0.3645172,1.0,0.721770713,1.0,0.75,1.0,0.404074511,False,,5f78b933f653f2489f86469b,,1921194,119,,evan-feature22,full_pf_a,,0
94,24526,120,,,,2,2,1.0,0.0,1.0,0.0,,0.0-122.0,,1.0,711.1600004,0.0,0.35205600299999995,1.0,0.68983859,1.0,0.739735447,0.0,0.366895945,False,,5f78b933f653f2489f86469b,,1931675,120,,evan-feature22,full_pf_a,,0
95,24527,121,,,,2,2,0.0,1.0,1.0,0.0,,0.0-123.0,,0.0,684.8000009,0.0,0.40998722600000004,1.0,0.720859127,0.0,0.673854955,1.0,0.368528541,False,,5f78b933f653f2489f86469b,,1942130,121,,evan-feature22,full_pf_a,,0
96,24528,122,,,,2,2,1.0,1.0,1.0,0.0,,0.0-124.0,,1.0,720.7199987,0.0,0.353625316,0.0,0.75,1.0,0.695605473,1.0,0.38303674200000004,False,,5f78b933f653f2489f86469b,,1952621,122,,evan-feature22,full_pf_a,,0
97,24529,123,,,,2,2,1.0,0.0,1.0,0.0,,0.0-125.0,,1.0,554.8199993,0.0,0.359216989,1.0,0.75,1.0,0.6987915090000001,0.0,0.35169046200000004,False,,5f78b933f653f2489f86469b,,1962941,123,,evan-feature22,full_pf_a,,0
98,24530,124,,,,2,2,1.0,1.0,1.0,0.0,,0.0-126.0,,1.0,714.4300006,0.0,0.35834496899999996,0.0,0.75,1.0,0.707067742,1.0,0.416763636,False,,5f78b933f653f2489f86469b,,1973426,124,,evan-feature22,full_pf_a,,0
99,24531,125,,,,2,2,1.0,0.0,0.0,-1.0,,0.0-127.0,,0.0,1025.55,1.0,0.38741613799999997,1.0,0.7177369570000001,1.0,0.734902455,0.0,0.49438664299999996,False,,5f78b933f653f2489f86469b,,1984217,125,,evan-feature22,full_pf_a,,0
100,24532,126,,,,2,2,1.0,1.0,1.0,0.0,,0.0-128.0,,1.0,669.9200012,1.0,0.405255252,0.0,0.7300466640000001,1.0,0.7027748070000001,1.0,0.504359668,False,,5f78b933f653f2489f86469b,,1994656,126,,evan-feature22,full_pf_a,,0
101,24533,127,,,,1,1,0.0,0.0,1.0,0.0,,0.0-129.0,,0.0,588.6000004,0.0,0.40697073,0.0,0.7260142190000001,1.0,0.724461982,0.0,0.522779179,False,,5f78b933f653f2489f86469b,,2005010,127,,evan-feature22,full_pf_a,,1
102,24534,128,,,,2,2,1.0,0.0,1.0,0.0,,0.0-130.0,,1.0,496.6100007,1.0,0.43906215299999996,1.0,0.7252802340000001,1.0,0.719079934,0.0,0.5712990579999999,False,,5f78b933f653f2489f86469b,,2015277,128,,evan-feature22,full_pf_a,,1
103,24535,129,,,,2,2,0.0,0.0,0.0,-1.0,,0.0-131.0,,0.0,816.2799999,0.0,0.4076705,1.0,0.73280499,0.0,0.681313127,0.0,0.523891346,False,,5f78b933f653f2489f86469b,,2025861,129,,evan-feature22,full_pf_a,,0
104,24536,130,,,,2,2,1.0,0.0,0.0,-1.0,,0.0-132.0,,0.0,908.5399992999999,0.0,0.399102911,1.0,0.730498344,1.0,0.661080239,0.0,0.46742603,False,,5f78b933f653f2489f86469b,,2036537,130,,evan-feature22,full_pf_a,,0
105,24537,131,,,,2,2,0.0,1.0,0.0,-1.0,,0.0-133.0,,-1.0,880.0749983999999,0.0,0.356477282,1.0,0.712296395,0.0,0.641812684,1.0,0.44868414,False,,5f78b933f653f2489f86469b,,2047185,131,,evan-feature22,full_pf_a,,0
106,24538,132,,,,2,2,1.0,1.0,1.0,0.0,,0.0-134.0,,1.0,598.6850001,1.0,0.462760722,1.0,0.692349322,1.0,0.700947931,1.0,0.394680266,False,,5f78b933f653f2489f86469b,,2057555,132,,evan-feature22,full_pf_a,,0
107,24539,133,,,,2,2,0.0,0.0,1.0,0.0,,0.0-135.0,,0.0,670.0100004999999,0.0,0.422306413,1.0,0.718375916,0.0,0.706340917,0.0,0.367787185,False,,5f78b933f653f2489f86469b,,2067988,133,,evan-feature22,full_pf_a,,0
108,24541,135,,,,2,2,0.0,1.0,1.0,0.0,,0.0-137.0,,0.0,758.25,1.0,0.4582233,1.0,0.643834117,0.0,0.75,1.0,0.39615823299999997,False,,5f78b933f653f2489f86469b,,2081281,135,,evan-feature22,full_pf_a,,0
109,24542,136,,,,1,1,1.0,0.0,1.0,0.0,,0.0-138.0,,1.0,454.66000030000004,1.0,0.43813437899999996,0.0,0.651283804,1.0,0.729674191,1.0,0.37711048,False,,5f78b933f653f2489f86469b,,2091503,136,,evan-feature22,full_pf_a,,1
110,24543,137,,,,1,1,1.0,1.0,1.0,0.0,,0.0-139.0,,1.0,368.900001,1.0,0.471199094,1.0,0.6470010979999999,0.0,0.715008097,0.0,0.410656191,False,,5f78b933f653f2489f86469b,,2101646,137,,evan-feature22,full_pf_a,,0
111,24544,138,,,,1,1,0.0,1.0,1.0,0.0,,0.0-140.0,,0.0,513.8349999,0.0,0.42486406,1.0,0.629771829,1.0,0.6550939960000001,0.0,0.459093873,False,,5f78b933f653f2489f86469b,,2111927,138,,evan-feature22,full_pf_a,,0
112,24545,139,,,,2,2,0.0,1.0,1.0,0.0,,0.0-141.0,,0.0,546.8099993,1.0,0.4803197,0.0,0.645842715,0.0,0.6421749920000001,1.0,0.443092151,False,,5f78b933f653f2489f86469b,,2122241,139,,evan-feature22,full_pf_a,,1
113,24546,140,,,,2,2,1.0,1.0,0.0,-1.0,,0.0-142.0,,-1.0,1086.019998,0.0,0.521848997,1.0,0.735801074,1.0,0.6691348460000001,1.0,0.45259351600000003,False,,5f78b933f653f2489f86469b,,2133097,140,,evan-feature22,full_pf_a,,0
114,24547,141,,,,2,2,1.0,0.0,1.0,0.0,,0.0-143.0,,1.0,841.895001,1.0,0.49565621299999996,0.0,0.742400847,1.0,0.661512553,0.0,0.483110831,False,,5f78b933f653f2489f86469b,,2143711,141,,evan-feature22,full_pf_a,,0
115,24548,142,,,,2,2,1.0,1.0,1.0,0.0,,0.0-144.0,,1.0,522.9099989,1.0,0.521564361,1.0,0.731078632,1.0,0.6774886809999999,1.0,0.483263956,False,,5f78b933f653f2489f86469b,,2154005,142,,evan-feature22,full_pf_a,,0
116,24549,143,,,,2,2,1.0,1.0,1.0,0.0,,0.0-145.0,,1.0,675.4449997,1.0,0.558893102,0.0,0.719810023,1.0,0.67461031,1.0,0.499349834,False,,5f78b933f653f2489f86469b,,2164449,143,,evan-feature22,full_pf_a,,0
117,24550,144,,,,1,1,1.0,1.0,1.0,0.0,,0.0-146.0,,1.0,618.7449992,1.0,0.611031046,1.0,0.75,0.0,0.688072995,0.0,0.5321422729999999,False,,5f78b933f653f2489f86469b,,2174836,144,,evan-feature22,full_pf_a,,1
118,24551,145,,,,2,2,1.0,1.0,0.0,-1.0,,0.0-147.0,,-1.0,783.0200009,1.0,0.633223941,1.0,0.713567728,1.0,0.75,1.0,0.48185314700000004,False,,5f78b933f653f2489f86469b,,2185387,145,,evan-feature22,full_pf_a,,1
119,24552,146,,,,1,1,0.0,1.0,1.0,0.0,,0.0-148.0,,0.0,399.1249986,0.0,0.664001694,1.0,0.705509768,1.0,0.75,0.0,0.500211065,False,,5f78b933f653f2489f86469b,,2195550,146,,evan-feature22,full_pf_a,,1
120,24553,147,,,,2,2,1.0,1.0,1.0,0.0,,0.0-149.0,,1.0,465.02500030000004,1.0,0.664001694,1.0,0.705509768,1.0,0.75,1.0,0.500211065,False,,5f78b933f653f2489f86469b,,2205783,147,,evan-feature22,full_pf_a,,1
121,24554,148,,,,2,2,1.0,1.0,1.0,0.0,,0.0-150.0,,1.0,542.56,1.0,0.696508041,1.0,0.71066027,1.0,0.717028709,1.0,0.49792991,False,,5f78b933f653f2489f86469b,,2216103,148,,evan-feature22,full_pf_a,,0
122,24555,149,,,,1,1,1.0,1.0,0.0,-1.0,,0.0-151.0,,-1.0,888.7900002,1.0,0.699883272,1.0,0.75,0.0,0.713543895,1.0,0.496962643,False,,5f78b933f653f2489f86469b,,2226762,149,,evan-feature22,full_pf_a,,1
123,24556,150,,,,1,1,1.0,1.0,0.0,-1.0,,0.0-152.0,,-1.0,991.6399997000001,1.0,0.741163419,1.0,0.75,1.0,0.64691024,0.0,0.513858197,False,,5f78b933f653f2489f86469b,,2237522,150,,evan-feature22,full_pf_a,,0
124,24557,151,,,,2,2,1.0,0.0,0.0,-1.0,,0.0-153.0,,0.0,639.6500003,1.0,0.75,0.0,0.70816558,1.0,0.594499079,0.0,0.48502124,False,,5f78b933f653f2489f86469b,,2247931,151,,evan-feature22,full_pf_a,,1
125,24558,152,,,,2,2,1.0,0.0,1.0,0.0,,0.0-154.0,,1.0,961.0050004000001,1.0,0.75,0.0,0.721848901,1.0,0.62197249,0.0,0.48263586399999997,False,,5f78b933f653f2489f86469b,,2258660,152,,evan-feature22,full_pf_a,,0
126,24559,153,,,,2,2,1.0,0.0,1.0,0.0,,0.0-155.0,,1.0,755.0300006,0.0,0.75,0.0,0.74813071,1.0,0.584357161,0.0,0.411477782,False,,5f78b933f653f2489f86469b,,2269181,153,,evan-feature22,full_pf_a,,0
127,24560,154,,,,2,2,1.0,1.0,1.0,0.0,,0.0-156.0,,1.0,691.4349999,0.0,0.75,1.0,0.75,1.0,0.52287236,1.0,0.488290656,False,,5f78b933f653f2489f86469b,,2279642,154,,evan-feature22,full_pf_a,,0
128,24561,155,,,,2,2,1.0,0.0,1.0,0.0,,0.0-157.0,,1.0,770.4649996,1.0,0.75,1.0,0.75,1.0,0.544321581,0.0,0.53143059,False,,5f78b933f653f2489f86469b,,2290180,155,,evan-feature22,full_pf_a,,0
129,24562,156,,,,2,2,1.0,0.0,1.0,0.0,,0.0-158.0,,1.0,610.3549991,1.0,0.726754564,1.0,0.75,1.0,0.5129306370000001,0.0,0.530592445,False,,5f78b933f653f2489f86469b,,2300556,156,,evan-feature22,full_pf_a,,0
130,24563,157,,,,2,2,0.0,1.0,0.0,-1.0,,0.0-159.0,,-1.0,842.1299998,1.0,0.75,0.0,0.7392590729999999,0.0,0.479875835,1.0,0.547007051,False,,5f78b933f653f2489f86469b,,2311166,157,,evan-feature22,full_pf_a,,0
131,24564,158,,,,1,1,1.0,0.0,0.0,-1.0,,0.0-160.0,,0.0,450.59000139999995,1.0,0.75,0.0,0.7393376979999999,0.0,0.546045419,0.0,0.541267353,False,,5f78b933f653f2489f86469b,,2321388,158,,evan-feature22,full_pf_a,,1
132,24565,159,,,,2,2,1.0,0.0,1.0,0.0,,0.0-161.0,,1.0,780.3300004,1.0,0.75,1.0,0.75,1.0,0.485725895,0.0,0.527625395,False,,5f78b933f653f2489f86469b,,2331930,159,,evan-feature22,full_pf_a,,1
133,24566,160,,,,1,1,1.0,1.0,0.0,-1.0,,0.0-162.0,,-1.0,719.1250008,1.0,0.75,1.0,0.725087974,1.0,0.488603595,1.0,0.504019206,False,,5f78b933f653f2489f86469b,,2342414,160,,evan-feature22,full_pf_a,,1
134,24567,161,,,,2,2,0.0,1.0,1.0,0.0,,0.0-163.0,,0.0,579.6050001,0.0,0.745504295,1.0,0.75,0.0,0.452379914,1.0,0.50131194,False,,5f78b933f653f2489f86469b,,2352762,161,,evan-feature22,full_pf_a,,1
135,24568,162,,,,1,1,1.0,1.0,0.0,-1.0,,0.0-164.0,,-1.0,1102.275001,1.0,0.728513874,1.0,0.75,1.0,0.44125567200000004,1.0,0.531454591,False,,5f78b933f653f2489f86469b,,2363633,162,,evan-feature22,full_pf_a,,1
136,24569,163,,,,2,2,1.0,0.0,1.0,0.0,,0.0-165.0,,1.0,587.7700001000001,1.0,0.73790804,1.0,0.75,1.0,0.413036656,0.0,0.524619035,False,,5f78b933f653f2489f86469b,,2373988,163,,evan-feature22,full_pf_a,,1
137,24570,164,,,,2,2,0.0,1.0,1.0,0.0,,0.0-166.0,,0.0,900.9249992999999,0.0,0.7080961309999999,1.0,0.708666865,0.0,0.431915581,1.0,0.481819489,False,,5f78b933f653f2489f86469b,,2384658,164,,evan-feature22,full_pf_a,,0
138,24571,165,,,,2,2,0.0,1.0,1.0,0.0,,0.0-167.0,,0.0,524.9799993,1.0,0.721378003,1.0,0.71605913,0.0,0.36642387,1.0,0.5036739929999999,False,,5f78b933f653f2489f86469b,,2394950,165,,evan-feature22,full_pf_a,,0
139,24572,166,,,,2,2,1.0,1.0,0.0,-1.0,,0.0-168.0,,-1.0,897.0950004000001,1.0,0.7340618959999999,0.0,0.699323252,1.0,0.35298046299999997,1.0,0.511241692,False,,5f78b933f653f2489f86469b,,2405614,166,,evan-feature22,full_pf_a,,0
140,24573,167,,,,1,1,1.0,0.0,0.0,-1.0,,0.0-169.0,,0.0,588.885,1.0,0.75,0.0,0.70412698,0.0,0.380734814,0.0,0.529580116,False,,5f78b933f653f2489f86469b,,2415969,167,,evan-feature22,full_pf_a,,1
141,24574,168,,,,1,1,0.0,0.0,0.0,-1.0,,0.0-170.0,,0.0,1219.675001,0.0,0.7436654909999999,0.0,0.711182751,1.0,0.41125331,0.0,0.49554405,False,,5f78b933f653f2489f86469b,,2426957,168,,evan-feature22,full_pf_a,,0
142,24575,169,,,,2,2,0.0,0.0,1.0,0.0,,0.0-171.0,,0.0,408.42499960000004,1.0,0.731607915,1.0,0.651774583,0.0,0.35688023,0.0,0.45194491600000003,False,,5f78b933f653f2489f86469b,,2437131,169,,evan-feature22,full_pf_a,,1
143,24576,170,,,,2,2,0.0,1.0,0.0,-1.0,,0.0-172.0,,-1.0,1216.395,1.0,0.75,1.0,0.75,0.0,0.283145374,1.0,0.528608005,False,,5f78b933f653f2489f86469b,,2448116,170,,evan-feature22,full_pf_a,,0
144,24577,171,,,,1,1,1.0,1.0,1.0,0.0,,0.0-173.0,,1.0,1120.865,1.0,0.7491416890000001,1.0,0.7423785959999999,0.0,0.29135870399999997,0.0,0.498888318,False,,5f78b933f653f2489f86469b,,2459005,171,,evan-feature22,full_pf_a,,1
145,24578,172,,,,1,1,1.0,1.0,0.0,-1.0,,0.0-174.0,,-1.0,938.7400001,1.0,0.708569387,1.0,0.717682277,1.0,0.294421699,0.0,0.493838163,False,,5f78b933f653f2489f86469b,,2469713,172,,evan-feature22,full_pf_a,,0
146,24579,173,,,,2,2,1.0,1.0,1.0,0.0,,0.0-175.0,,1.0,1086.889999,1.0,0.75,1.0,0.7383382159999999,1.0,0.356098707,1.0,0.442533405,False,,5f78b933f653f2489f86469b,,2480570,173,,evan-feature22,full_pf_a,,1
147,24580,174,,,,2,2,0.0,0.0,1.0,0.0,,0.0-176.0,,0.0,665.0599986000001,1.0,0.744527075,1.0,0.75,0.0,0.334127506,0.0,0.393165805,False,,5f78b933f653f2489f86469b,,2491000,174,,evan-feature22,full_pf_a,,0
148,24581,175,,,,1,1,1.0,1.0,1.0,0.0,,0.0-177.0,,1.0,414.05499910000003,1.0,0.75,1.0,0.75,0.0,0.33571021799999995,1.0,0.350393962,False,,5f78b933f653f2489f86469b,,2501184,175,,evan-feature22,full_pf_a,,1
149,24582,176,,,,1,1,1.0,1.0,0.0,-1.0,,0.0-178.0,,-1.0,1149.17,1.0,0.75,1.0,0.75,0.0,0.313628297,1.0,0.36349657399999996,False,,5f78b933f653f2489f86469b,,2512107,176,,evan-feature22,full_pf_a,,0
150,24583,177,,,,1,1,1.0,1.0,1.0,0.0,,0.0-179.0,,1.0,442.104999,1.0,0.75,1.0,0.734284182,0.0,0.262667667,1.0,0.380199119,False,,5f78b933f653f2489f86469b,,2522315,177,,evan-feature22,full_pf_a,,0
151,24584,178,,,,1,1,1.0,1.0,1.0,0.0,,0.0-180.0,,1.0,433.7450005,1.0,0.75,1.0,0.75,0.0,0.25,0.0,0.394494013,False,,5f78b933f653f2489f86469b,,2532522,178,,evan-feature22,full_pf_a,,0
152,24585,179,,,,1,1,1.0,1.0,1.0,0.0,,0.0-181.0,,1.0,721.1100012,1.0,0.722298145,1.0,0.7357822340000001,0.0,0.25,1.0,0.319142121,False,,5f78b933f653f2489f86469b,,2543011,179,,evan-feature22,full_pf_a,,0
153,24586,180,,,,1,1,0.0,1.0,1.0,0.0,,0.0-182.0,,0.0,558.1149998999999,0.0,0.73149275,1.0,0.724276446,0.0,0.305856907,0.0,0.281315057,False,,5f78b933f653f2489f86469b,,2553336,180,,evan-feature22,full_pf_a,,0
154,24587,181,,,,1,1,1.0,1.0,1.0,0.0,,0.0-183.0,,1.0,453.56000030000007,1.0,0.7458732690000001,1.0,0.7336382459999999,0.0,0.272571964,0.0,0.266021999,False,,5f78b933f653f2489f86469b,,2563558,181,,evan-feature22,full_pf_a,,0
155,24588,182,,,,2,2,0.0,1.0,0.0,-1.0,,0.0-184.0,,-1.0,1010.6850009999999,1.0,0.705579037,1.0,0.720778292,0.0,0.320238144,1.0,0.30971744,False,,5f78b933f653f2489f86469b,,2574336,182,,evan-feature22,full_pf_a,,1
156,24589,183,,,,1,1,0.0,1.0,0.0,-1.0,,0.0-185.0,,-1.0,1067.185,0.0,0.700425648,1.0,0.7198784009999999,0.0,0.272590393,0.0,0.304182931,False,,5f78b933f653f2489f86469b,,2585172,183,,evan-feature22,full_pf_a,,1
157,24590,184,,,,2,2,0.0,1.0,0.0,-1.0,,0.0-186.0,,-1.0,975.4499998,1.0,0.735590785,1.0,0.722714973,0.0,0.25,1.0,0.323421091,False,,5f78b933f653f2489f86469b,,2595913,184,,evan-feature22,full_pf_a,,1
158,24591,185,,,,2,2,0.0,0.0,0.0,-1.0,,0.0-187.0,,0.0,566.5549990000001,1.0,0.724807662,0.0,0.63146213,0.0,0.36836492600000004,0.0,0.34592153299999995,False,,5f78b933f653f2489f86469b,,2606244,185,,evan-feature22,full_pf_a,,0
159,24592,186,,,,1,1,0.0,0.0,1.0,0.0,,0.0-188.0,,0.0,541.9449992000001,0.0,0.7352796909999999,0.0,0.555111392,1.0,0.36003922,0.0,0.31433779999999995,False,,5f78b933f653f2489f86469b,,2616556,186,,evan-feature22,full_pf_a,,1
160,24593,187,notice,,,,,,,,,,0.0-189.0,"{""Q0"":""No""}",,31402.0,,,,,,,,,False,,5f78b933f653f2489f86469b,,2647961,187,Q,survey-text,full_pf_a,,1
161,24594,188,track1,,[0],,,,,,,,0.0-190.0,"{""Q0"":""yes""}",,8171.0,,,,,,,,,False,,5f78b933f653f2489f86469b,,2656136,188,Q,evan-quiz,full_pf_a,,1
162,24595,189,track2,,[2],,,,,,,,0.0-191.0,"{""Q0"":""N/A""}",,18920.0,,,,,,,,,False,,5f78b933f653f2489f86469b,,2675060,189,Q,evan-quiz,full_pf_a,,1
163,24596,190,strat,,,,,,,,,,0.0-192.0,"{""Q0"":""Focus on where the yellow alien was appearing even when trying to avoid the black alien.""}",,53057.0,,,,,,,,,False,,5f78b933f653f2489f86469b,,2728121,190,Q,survey-text,full_pf_a,,1
