,index,Unnamed: 0,Q_name,button_pressed,choice_idxs,chosen_pos,chosen_state,chosen_state_f_1_outcome,chosen_state_f_2_outcome,f_1_reward,f_2_reward,incor_questions,internal_node_id,responses,reward_received,rt,s_1_f_1_outcome,s_1_f_1_prob,s_1_f_2_outcome,s_1_f_2_prob,s_2_f_1_outcome,s_2_f_1_prob,s_2_f_2_outcome,s_2_f_2_prob,safe_first,stimulus,subjectID,success,time_elapsed,trial_index,trial_num,trial_type,version,view_history,switching
0,33033,30,,,,2,2,1.0,1.0,1.0,0.0,,0.0-27.0,,1.0,1515.0,1.0,0.6,0.0,0.6,1.0,0.4,1.0,0.4,True,,5f7631d94ba6c90aec43c7f4,,641245,30,,evan-feature22,full_rf_a,,0
1,33034,31,,,,1,1,0.0,0.0,1.0,0.0,,0.0-28.0,,0.0,1498.0,0.0,0.608053294,0.0,0.63424552,1.0,0.397152172,1.0,0.347069101,True,,5f7631d94ba6c90aec43c7f4,,652594,31,,evan-feature22,full_rf_a,,1
2,33035,32,,,,1,1,0.0,1.0,1.0,0.0,,0.0-29.0,,0.0,1211.0,0.0,0.642237155,1.0,0.648566321,0.0,0.389407674,0.0,0.285525717,True,,5f7631d94ba6c90aec43c7f4,,663675,32,,evan-feature22,full_rf_a,,0
3,33036,33,,,,2,2,1.0,0.0,1.0,0.0,,0.0-30.0,,1.0,953.0,0.0,0.661086576,0.0,0.630492543,1.0,0.399058924,0.0,0.25,True,,5f7631d94ba6c90aec43c7f4,,674455,33,,evan-feature22,full_rf_a,,1
4,33037,34,,,,1,1,1.0,1.0,0.0,-1.0,,0.0-31.0,,-1.0,1555.0,1.0,0.631324137,1.0,0.6269842929999999,1.0,0.38734784299999997,0.0,0.25,True,,5f7631d94ba6c90aec43c7f4,,685855,34,,evan-feature22,full_rf_a,,1
5,33038,35,,,,2,2,1.0,0.0,0.0,-1.0,,0.0-32.0,,0.0,1610.0,1.0,0.6381991370000001,1.0,0.68987999,1.0,0.384107265,0.0,0.271332943,True,,5f7631d94ba6c90aec43c7f4,,697325,35,,evan-feature22,full_rf_a,,1
6,33039,36,,,,1,1,1.0,0.0,1.0,0.0,,0.0-33.0,,1.0,1530.0,1.0,0.66034901,0.0,0.742641349,0.0,0.360225629,0.0,0.25,True,,5f7631d94ba6c90aec43c7f4,,708680,36,,evan-feature22,full_rf_a,,1
7,33040,37,,,,2,2,1.0,0.0,1.0,0.0,,0.0-34.0,,1.0,1597.0,0.0,0.638612418,0.0,0.75,1.0,0.367273939,0.0,0.25,True,,5f7631d94ba6c90aec43c7f4,,720135,37,,evan-feature22,full_rf_a,,1
8,33041,38,,,,1,1,0.0,0.0,0.0,-1.0,,0.0-35.0,,0.0,1286.0,0.0,0.624340629,0.0,0.75,1.0,0.425829545,0.0,0.25,True,,5f7631d94ba6c90aec43c7f4,,731275,38,,evan-feature22,full_rf_a,,1
9,33042,39,,,,2,2,1.0,1.0,0.0,-1.0,,0.0-36.0,,-1.0,1184.0,1.0,0.621999804,1.0,0.75,1.0,0.368609357,1.0,0.25,True,,5f7631d94ba6c90aec43c7f4,,742305,39,,evan-feature22,full_rf_a,,1
10,33043,40,,,,2,2,0.0,0.0,1.0,0.0,,0.0-37.0,,0.0,1269.0,0.0,0.62666403,1.0,0.75,0.0,0.311151498,0.0,0.25,True,,5f7631d94ba6c90aec43c7f4,,753415,40,,evan-feature22,full_rf_a,,0
11,33044,41,,,,1,1,1.0,0.0,0.0,-1.0,,0.0-38.0,,0.0,1232.0,1.0,0.6819650009999999,0.0,0.75,1.0,0.310763048,0.0,0.25,True,,5f7631d94ba6c90aec43c7f4,,764495,41,,evan-feature22,full_rf_a,,1
12,33045,42,,,,2,2,0.0,0.0,1.0,0.0,,0.0-39.0,,0.0,803.0,1.0,0.740626951,1.0,0.75,0.0,0.25,0.0,0.25,True,,5f7631d94ba6c90aec43c7f4,,775126,42,,evan-feature22,full_rf_a,,1
13,33046,43,,,,1,1,1.0,0.0,1.0,0.0,,0.0-40.0,,1.0,834.0,1.0,0.739599242,0.0,0.742034978,0.0,0.25397114600000004,0.0,0.25,True,,5f7631d94ba6c90aec43c7f4,,785824,43,,evan-feature22,full_rf_a,,1
14,33047,44,,,,2,2,0.0,1.0,1.0,0.0,,0.0-41.0,,0.0,1043.0,1.0,0.732341315,1.0,0.72735643,0.0,0.25,1.0,0.25,True,,5f7631d94ba6c90aec43c7f4,,796706,44,,evan-feature22,full_rf_a,,1
15,33048,45,,,,1,1,1.0,0.0,1.0,0.0,,0.0-42.0,,1.0,804.0,1.0,0.7062287770000001,0.0,0.75,1.0,0.29002151,1.0,0.288256649,True,,5f7631d94ba6c90aec43c7f4,,807335,45,,evan-feature22,full_rf_a,,1
16,33049,46,,,,2,2,0.0,0.0,1.0,0.0,,0.0-43.0,,0.0,664.0,1.0,0.7086029209999999,1.0,0.75,0.0,0.274129113,0.0,0.262851608,True,,5f7631d94ba6c90aec43c7f4,,817814,46,,evan-feature22,full_rf_a,,1
17,33050,47,,,,1,1,1.0,1.0,1.0,0.0,,0.0-44.0,,1.0,786.0,1.0,0.669189651,1.0,0.727614338,0.0,0.298444036,1.0,0.296944518,True,,5f7631d94ba6c90aec43c7f4,,828424,47,,evan-feature22,full_rf_a,,1
18,33051,48,,,,2,2,0.0,0.0,1.0,0.0,,0.0-45.0,,0.0,743.0,1.0,0.6819912929999999,1.0,0.7179434290000001,0.0,0.265003961,0.0,0.28157921199999997,True,,5f7631d94ba6c90aec43c7f4,,839015,48,,evan-feature22,full_rf_a,,1
19,33052,49,,,,1,1,1.0,1.0,0.0,-1.0,,0.0-46.0,,-1.0,563.0,1.0,0.665275002,1.0,0.723065271,0.0,0.260414971,0.0,0.30973870000000003,True,,5f7631d94ba6c90aec43c7f4,,849395,49,,evan-feature22,full_rf_a,,1
20,33053,50,,,,2,2,0.0,0.0,1.0,0.0,,0.0-47.0,,0.0,1272.0,1.0,0.6660593260000001,1.0,0.728032907,0.0,0.30922817,0.0,0.338778608,True,,5f7631d94ba6c90aec43c7f4,,860535,50,,evan-feature22,full_rf_a,,1
21,33054,51,,,,1,1,0.0,1.0,1.0,0.0,,0.0-48.0,,0.0,821.0,0.0,0.702068785,1.0,0.6528750879999999,0.0,0.287329608,0.0,0.35789613200000003,True,,5f7631d94ba6c90aec43c7f4,,871215,51,,evan-feature22,full_rf_a,,1
22,33055,52,,,,2,2,0.0,0.0,1.0,0.0,,0.0-49.0,,0.0,1207.0,1.0,0.651939787,0.0,0.636725589,0.0,0.284834488,0.0,0.358563756,True,,5f7631d94ba6c90aec43c7f4,,882265,52,,evan-feature22,full_rf_a,,1
23,33056,53,,,,2,2,1.0,1.0,0.0,-1.0,,0.0-50.0,,-1.0,1599.0,0.0,0.67573929,1.0,0.612550049,1.0,0.37130387600000003,1.0,0.383542402,True,,5f7631d94ba6c90aec43c7f4,,893725,53,,evan-feature22,full_rf_a,,0
24,33057,54,,,,1,1,0.0,1.0,0.0,-1.0,,0.0-51.0,,-1.0,1361.0,0.0,0.620753801,1.0,0.60513644,0.0,0.385529434,1.0,0.340361743,True,,5f7631d94ba6c90aec43c7f4,,904944,54,,evan-feature22,full_rf_a,,1
25,33058,55,,,,1,1,1.0,1.0,0.0,-1.0,,0.0-52.0,,-1.0,1020.0,1.0,0.673564893,1.0,0.672437924,1.0,0.292955382,0.0,0.337633795,True,,5f7631d94ba6c90aec43c7f4,,915805,55,,evan-feature22,full_rf_a,,0
26,33059,56,,,,1,1,1.0,1.0,1.0,0.0,,0.0-53.0,,1.0,1304.0,1.0,0.6749427,1.0,0.724197502,1.0,0.32391132100000003,1.0,0.350995264,True,,5f7631d94ba6c90aec43c7f4,,926945,56,,evan-feature22,full_rf_a,,0
27,33060,57,,,,2,2,0.0,1.0,1.0,0.0,,0.0-54.0,,0.0,809.0,0.0,0.6940159379999999,1.0,0.75,0.0,0.31710554399999996,1.0,0.413450341,True,,5f7631d94ba6c90aec43c7f4,,937605,57,,evan-feature22,full_rf_a,,1
28,33061,58,,,,2,2,0.0,0.0,1.0,0.0,,0.0-55.0,,0.0,870.0,1.0,0.6916018270000001,1.0,0.69001187,0.0,0.261817804,0.0,0.40038635,True,,5f7631d94ba6c90aec43c7f4,,948315,58,,evan-feature22,full_rf_a,,0
29,33062,59,,,,1,1,0.0,0.0,1.0,0.0,,0.0-56.0,,0.0,751.0,0.0,0.641061544,0.0,0.71337992,0.0,0.277296461,0.0,0.47372791700000005,True,,5f7631d94ba6c90aec43c7f4,,958915,59,,evan-feature22,full_rf_a,,1
30,33063,60,,,,1,1,0.0,1.0,1.0,0.0,,0.0-57.0,,0.0,743.0,0.0,0.6082438520000001,1.0,0.708471106,0.0,0.28745137,1.0,0.564174476,True,,5f7631d94ba6c90aec43c7f4,,969514,60,,evan-feature22,full_rf_a,,0
31,33064,61,,,,2,2,0.0,0.0,1.0,0.0,,0.0-58.0,,0.0,691.0,1.0,0.6051112120000001,1.0,0.7118147229999999,0.0,0.272390611,0.0,0.5595149939999999,True,,5f7631d94ba6c90aec43c7f4,,980065,61,,evan-feature22,full_rf_a,,1
32,33065,62,,,,1,1,0.0,1.0,1.0,0.0,,0.0-59.0,,0.0,727.0,0.0,0.582420852,1.0,0.635867583,1.0,0.31089574,0.0,0.5227206520000001,True,,5f7631d94ba6c90aec43c7f4,,990665,62,,evan-feature22,full_rf_a,,1
33,33066,63,,,,1,1,1.0,0.0,0.0,-1.0,,0.0-60.0,,0.0,1561.0,1.0,0.623195575,0.0,0.655026044,0.0,0.25,1.0,0.560387538,True,,5f7631d94ba6c90aec43c7f4,,1002075,63,,evan-feature22,full_rf_a,,0
34,33067,64,,,,2,2,0.0,0.0,1.0,0.0,,0.0-61.0,,0.0,1510.0,1.0,0.601889598,1.0,0.678198724,0.0,0.25,0.0,0.559922936,True,,5f7631d94ba6c90aec43c7f4,,1013444,64,,evan-feature22,full_rf_a,,1
35,33068,65,,,,1,1,1.0,1.0,1.0,0.0,,0.0-62.0,,1.0,1032.0,1.0,0.601259914,1.0,0.704681482,0.0,0.33908969299999997,0.0,0.505003715,True,,5f7631d94ba6c90aec43c7f4,,1024315,65,,evan-feature22,full_rf_a,,1
36,33069,66,,,,1,1,0.0,1.0,1.0,0.0,,0.0-63.0,,0.0,1026.0,0.0,0.59645454,1.0,0.710437172,1.0,0.327441879,0.0,0.391749613,True,,5f7631d94ba6c90aec43c7f4,,1035195,66,,evan-feature22,full_rf_a,,0
37,33070,67,,,,2,2,0.0,1.0,1.0,0.0,,0.0-64.0,,0.0,605.0,1.0,0.529473,1.0,0.636758527,0.0,0.301338063,1.0,0.365661481,True,,5f7631d94ba6c90aec43c7f4,,1045634,67,,evan-feature22,full_rf_a,,1
38,33071,68,,,,2,2,0.0,0.0,0.0,-1.0,,0.0-65.0,,0.0,1500.0,0.0,0.541657162,1.0,0.634541962,0.0,0.343535366,0.0,0.371763742,True,,5f7631d94ba6c90aec43c7f4,,1056986,68,,evan-feature22,full_rf_a,,0
39,33072,69,,,,2,2,0.0,0.0,1.0,0.0,,0.0-66.0,,0.0,1340.0,1.0,0.5707533260000001,1.0,0.589121171,0.0,0.326428396,0.0,0.43961622899999997,True,,5f7631d94ba6c90aec43c7f4,,1068166,69,,evan-feature22,full_rf_a,,0
40,33073,70,,,,1,1,1.0,1.0,1.0,0.0,,0.0-67.0,,1.0,763.0,1.0,0.5707533260000001,1.0,0.589121171,0.0,0.326428396,1.0,0.43961622899999997,True,,5f7631d94ba6c90aec43c7f4,,1078785,70,,evan-feature22,full_rf_a,,1
41,33074,71,,,,1,1,0.0,0.0,1.0,0.0,,0.0-68.0,,0.0,1188.0,0.0,0.506271295,0.0,0.641775594,1.0,0.37149690700000004,1.0,0.404330166,True,,5f7631d94ba6c90aec43c7f4,,1089814,71,,evan-feature22,full_rf_a,,0
42,33075,72,,,,2,2,1.0,0.0,0.0,-1.0,,0.0-69.0,,0.0,1448.0,1.0,0.455642565,1.0,0.623605825,1.0,0.358753011,0.0,0.346174041,True,,5f7631d94ba6c90aec43c7f4,,1101105,72,,evan-feature22,full_rf_a,,1
43,33076,73,,,,2,2,0.0,1.0,0.0,-1.0,,0.0-70.0,,-1.0,1304.0,0.0,0.483677308,1.0,0.5904681070000001,0.0,0.402218411,1.0,0.35344697,True,,5f7631d94ba6c90aec43c7f4,,1112270,73,,evan-feature22,full_rf_a,,0
44,33077,74,,,,1,1,1.0,1.0,0.0,-1.0,,0.0-71.0,,-1.0,936.0,1.0,0.394210977,1.0,0.558925494,0.0,0.540052017,0.0,0.35182128700000004,True,,5f7631d94ba6c90aec43c7f4,,1123040,74,,evan-feature22,full_rf_a,,1
45,33078,75,,,,2,2,1.0,0.0,1.0,0.0,,0.0-72.0,,1.0,797.0,0.0,0.382300414,0.0,0.577670603,1.0,0.607608448,0.0,0.378261578,True,,5f7631d94ba6c90aec43c7f4,,1133695,75,,evan-feature22,full_rf_a,,1
46,33079,76,,,,2,2,1.0,1.0,1.0,0.0,,0.0-73.0,,1.0,939.0,1.0,0.357596762,0.0,0.5929076529999999,1.0,0.6579790010000001,1.0,0.401326777,True,,5f7631d94ba6c90aec43c7f4,,1144455,76,,evan-feature22,full_rf_a,,0
47,33080,77,,,,2,2,1.0,0.0,1.0,0.0,,0.0-74.0,,1.0,1330.0,0.0,0.362033495,0.0,0.582308608,1.0,0.649195052,0.0,0.355158505,True,,5f7631d94ba6c90aec43c7f4,,1155625,77,,evan-feature22,full_rf_a,,0
48,33081,78,,,,2,2,1.0,0.0,1.0,0.0,,0.0-75.0,,1.0,1104.0,0.0,0.369620635,0.0,0.669100864,1.0,0.706059111,0.0,0.362516241,True,,5f7631d94ba6c90aec43c7f4,,1166555,78,,evan-feature22,full_rf_a,,0
49,33082,79,,,,2,2,1.0,0.0,1.0,0.0,,0.0-76.0,,1.0,1251.0,0.0,0.41477751399999996,1.0,0.7284416779999999,1.0,0.7182656940000001,0.0,0.36228040899999997,True,,5f7631d94ba6c90aec43c7f4,,1177645,79,,evan-feature22,full_rf_a,,0
50,33083,80,,,,1,1,0.0,0.0,0.0,-1.0,,0.0-77.0,,0.0,1541.0,0.0,0.37675460299999997,0.0,0.703250285,1.0,0.75,1.0,0.461979164,True,,5f7631d94ba6c90aec43c7f4,,1189005,80,,evan-feature22,full_rf_a,,1
51,33084,81,,,,1,1,1.0,1.0,0.0,-1.0,,0.0-78.0,,-1.0,1073.0,1.0,0.398716075,1.0,0.6723864890000001,0.0,0.674153818,1.0,0.519029516,True,,5f7631d94ba6c90aec43c7f4,,1199915,81,,evan-feature22,full_rf_a,,0
52,33085,82,,,,1,1,0.0,0.0,1.0,0.0,,0.0-79.0,,0.0,978.0,0.0,0.34677856700000004,0.0,0.69057175,1.0,0.6822438540000001,0.0,0.477292237,True,,5f7631d94ba6c90aec43c7f4,,1210744,82,,evan-feature22,full_rf_a,,0
53,33086,83,,,,1,1,0.0,0.0,0.0,-1.0,,0.0-80.0,,0.0,1288.0,0.0,0.28580469199999997,0.0,0.68408818,0.0,0.684207565,0.0,0.49780448299999996,True,,5f7631d94ba6c90aec43c7f4,,1221873,83,,evan-feature22,full_rf_a,,0
54,33088,85,,,,1,1,0.0,1.0,1.0,0.0,,0.0-82.0,,0.0,2415.0,0.0,0.25,1.0,0.7405808970000001,1.0,0.679614108,0.0,0.436436964,True,,5f7631d94ba6c90aec43c7f4,,1236525,85,,evan-feature22,full_rf_a,,0
55,33089,86,,,,2,2,1.0,1.0,0.0,-1.0,,0.0-83.0,,-1.0,1384.0,1.0,0.29890393,0.0,0.730505706,1.0,0.7328203320000001,1.0,0.439256938,True,,5f7631d94ba6c90aec43c7f4,,1247725,86,,evan-feature22,full_rf_a,,1
56,33090,87,,,,2,2,1.0,0.0,1.0,0.0,,0.0-84.0,,1.0,1601.0,0.0,0.326762398,1.0,0.7148059609999999,1.0,0.75,0.0,0.44389608799999997,True,,5f7631d94ba6c90aec43c7f4,,1259165,87,,evan-feature22,full_rf_a,,0
57,33091,88,,,,2,2,1.0,0.0,1.0,0.0,,0.0-85.0,,1.0,901.0,0.0,0.295168515,1.0,0.739760854,1.0,0.719947008,0.0,0.35277284600000003,True,,5f7631d94ba6c90aec43c7f4,,1269915,88,,evan-feature22,full_rf_a,,0
58,33092,89,,,,2,2,1.0,0.0,1.0,0.0,,0.0-86.0,,1.0,2154.0,0.0,0.25,0.0,0.70781482,1.0,0.75,0.0,0.286095925,True,,5f7631d94ba6c90aec43c7f4,,1281935,89,,evan-feature22,full_rf_a,,0
59,33093,90,,,,1,1,1.0,0.0,0.0,-1.0,,0.0-87.0,,0.0,1328.0,1.0,0.25638190899999996,0.0,0.704088163,1.0,0.75,0.0,0.26872601399999996,True,,5f7631d94ba6c90aec43c7f4,,1293134,90,,evan-feature22,full_rf_a,,1
60,33094,91,,,,1,1,0.0,1.0,0.0,-1.0,,0.0-88.0,,-1.0,1259.0,0.0,0.271581126,1.0,0.669760107,1.0,0.733896663,0.0,0.273244572,True,,5f7631d94ba6c90aec43c7f4,,1304225,91,,evan-feature22,full_rf_a,,0
61,33095,92,,,,2,2,0.0,0.0,0.0,-1.0,,0.0-89.0,,0.0,971.0,0.0,0.257144401,1.0,0.600575706,0.0,0.74488122,0.0,0.25,True,,5f7631d94ba6c90aec43c7f4,,1315054,92,,evan-feature22,full_rf_a,,1
62,33096,93,,,,2,2,1.0,0.0,1.0,0.0,,0.0-90.0,,1.0,1562.0,0.0,0.25,1.0,0.616870026,1.0,0.723610234,0.0,0.25,True,,5f7631d94ba6c90aec43c7f4,,1326475,93,,evan-feature22,full_rf_a,,0
63,33097,94,,,,1,1,1.0,1.0,0.0,-1.0,,0.0-91.0,,-1.0,1537.0,1.0,0.25,1.0,0.583540187,0.0,0.7041042559999999,1.0,0.285961995,True,,5f7631d94ba6c90aec43c7f4,,1337885,94,,evan-feature22,full_rf_a,,1
64,33098,95,,,,2,2,1.0,0.0,1.0,0.0,,0.0-92.0,,1.0,1264.0,0.0,0.27254536,1.0,0.53875765,1.0,0.693783448,0.0,0.284961652,True,,5f7631d94ba6c90aec43c7f4,,1348984,95,,evan-feature22,full_rf_a,,1
65,33099,96,,,,1,1,0.0,1.0,0.0,-1.0,,0.0-93.0,,-1.0,1179.0,0.0,0.25,1.0,0.548431252,0.0,0.734221895,1.0,0.279445214,True,,5f7631d94ba6c90aec43c7f4,,1360005,96,,evan-feature22,full_rf_a,,1
66,33100,97,,,,1,1,0.0,1.0,1.0,0.0,,0.0-94.0,,0.0,1399.0,0.0,0.258640684,1.0,0.545878066,0.0,0.725245965,0.0,0.31487537,True,,5f7631d94ba6c90aec43c7f4,,1371294,97,,evan-feature22,full_rf_a,,0
67,33101,98,,,,2,2,0.0,0.0,1.0,0.0,,0.0-95.0,,0.0,954.0,0.0,0.251103711,1.0,0.5776290629999999,0.0,0.696320133,0.0,0.317831047,True,,5f7631d94ba6c90aec43c7f4,,1382124,98,,evan-feature22,full_rf_a,,1
68,33102,99,,,,1,1,1.0,1.0,1.0,0.0,,0.0-96.0,,1.0,613.0,1.0,0.276630292,1.0,0.617329858,1.0,0.73838088,0.0,0.261471582,True,,5f7631d94ba6c90aec43c7f4,,1392605,99,,evan-feature22,full_rf_a,,1
69,33103,100,,,,2,2,0.0,0.0,0.0,-1.0,,0.0-97.0,,0.0,2194.0,0.0,0.297716424,1.0,0.618863717,0.0,0.7402358259999999,0.0,0.262600834,True,,5f7631d94ba6c90aec43c7f4,,1404645,100,,evan-feature22,full_rf_a,,1
70,33104,101,,,,1,1,0.0,1.0,1.0,0.0,,0.0-98.0,,0.0,862.0,0.0,0.290935512,1.0,0.695370945,1.0,0.706570507,1.0,0.280030553,True,,5f7631d94ba6c90aec43c7f4,,1415346,101,,evan-feature22,full_rf_a,,1
71,33105,102,,,,2,2,1.0,1.0,1.0,0.0,,0.0-99.0,,1.0,1162.0,1.0,0.25,1.0,0.6465277079999999,1.0,0.67766682,1.0,0.25,True,,5f7631d94ba6c90aec43c7f4,,1426365,102,,evan-feature22,full_rf_a,,1
72,33106,103,,,,2,2,1.0,0.0,1.0,0.0,,0.0-100.0,,1.0,1029.0,0.0,0.26463816,0.0,0.636100213,1.0,0.646048507,0.0,0.265607101,True,,5f7631d94ba6c90aec43c7f4,,1437235,103,,evan-feature22,full_rf_a,,0
73,33107,104,,,,2,2,1.0,0.0,1.0,0.0,,0.0-101.0,,1.0,784.0,0.0,0.314340707,1.0,0.667795927,1.0,0.613630805,0.0,0.25,True,,5f7631d94ba6c90aec43c7f4,,1447894,104,,evan-feature22,full_rf_a,,0
74,33108,105,,,,2,2,0.0,0.0,1.0,0.0,,0.0-102.0,,0.0,694.0,0.0,0.28685784,1.0,0.6622549529999999,0.0,0.652154117,0.0,0.25,True,,5f7631d94ba6c90aec43c7f4,,1458435,105,,evan-feature22,full_rf_a,,0
75,33109,106,,,,SLOW,SLOW,,,0.0,-1.0,,0.0-103.0,,-3.0,,0.0,0.304106554,1.0,0.631289538,1.0,0.707041942,0.0,0.29314237,True,,5f7631d94ba6c90aec43c7f4,,1464275,106,,evan-feature22,full_rf_a,,1
76,33110,107,,,,1,1,0.0,0.0,0.0,-1.0,,0.0-104.0,,0.0,877.0,0.0,0.304806932,0.0,0.571167718,0.0,0.680472346,0.0,0.25,True,,5f7631d94ba6c90aec43c7f4,,1474985,107,,evan-feature22,full_rf_a,,1
77,33111,108,,,,1,1,0.0,1.0,0.0,-1.0,,0.0-105.0,,-1.0,1099.0,0.0,0.37919861,1.0,0.5724849710000001,1.0,0.705638003,1.0,0.30179300600000003,True,,5f7631d94ba6c90aec43c7f4,,1485965,108,,evan-feature22,full_rf_a,,0
78,33112,109,,,,2,2,1.0,1.0,0.0,-1.0,,0.0-106.0,,-1.0,1208.0,0.0,0.464277969,0.0,0.554034373,1.0,0.7372627340000001,1.0,0.264699741,True,,5f7631d94ba6c90aec43c7f4,,1497024,109,,evan-feature22,full_rf_a,,1
79,33113,110,,,,1,1,1.0,0.0,1.0,0.0,,0.0-107.0,,1.0,712.0,1.0,0.465104323,0.0,0.530793115,0.0,0.75,0.0,0.31683071,True,,5f7631d94ba6c90aec43c7f4,,1507624,110,,evan-feature22,full_rf_a,,1
80,33114,111,,,,2,2,1.0,1.0,0.0,-1.0,,0.0-108.0,,-1.0,1037.0,0.0,0.465104323,0.0,0.530793115,1.0,0.75,1.0,0.31683071,True,,5f7631d94ba6c90aec43c7f4,,1518504,111,,evan-feature22,full_rf_a,,1
81,33115,112,,,,1,1,0.0,0.0,0.0,-1.0,,0.0-109.0,,0.0,1079.0,0.0,0.46833986,0.0,0.570249239,1.0,0.7244472590000001,0.0,0.364114163,True,,5f7631d94ba6c90aec43c7f4,,1529435,112,,evan-feature22,full_rf_a,,1
82,33116,113,,,,1,1,1.0,0.0,0.0,-1.0,,0.0-110.0,,0.0,886.0,1.0,0.445444024,0.0,0.649673355,1.0,0.6845441290000001,1.0,0.300660449,True,,5f7631d94ba6c90aec43c7f4,,1540174,113,,evan-feature22,full_rf_a,,0
83,33117,114,,,,1,1,1.0,1.0,0.0,-1.0,,0.0-111.0,,-1.0,1501.0,1.0,0.39909721299999995,1.0,0.6715179509999999,0.0,0.742310028,1.0,0.35496088299999995,True,,5f7631d94ba6c90aec43c7f4,,1551544,114,,evan-feature22,full_rf_a,,0
84,33118,115,,,,1,1,1.0,1.0,0.0,-1.0,,0.0-112.0,,-1.0,1449.0,1.0,0.37956104799999996,1.0,0.694725302,0.0,0.7181651309999999,0.0,0.38726906299999997,True,,5f7631d94ba6c90aec43c7f4,,1562834,115,,evan-feature22,full_rf_a,,0
85,33119,116,,,,1,1,0.0,1.0,0.0,-1.0,,0.0-113.0,,-1.0,978.0,0.0,0.404995034,1.0,0.724375412,1.0,0.6910946859999999,1.0,0.387187347,True,,5f7631d94ba6c90aec43c7f4,,1573675,116,,evan-feature22,full_rf_a,,0
86,33120,117,,,,2,2,1.0,0.0,0.0,-1.0,,0.0-114.0,,0.0,1156.0,1.0,0.461740803,0.0,0.75,1.0,0.75,0.0,0.34872038200000005,True,,5f7631d94ba6c90aec43c7f4,,1584675,117,,evan-feature22,full_rf_a,,1
87,33121,118,,,,2,2,0.0,0.0,1.0,0.0,,0.0-115.0,,0.0,847.0,1.0,0.43821380600000004,0.0,0.738833273,0.0,0.728286963,0.0,0.399538128,True,,5f7631d94ba6c90aec43c7f4,,1595335,118,,evan-feature22,full_rf_a,,0
88,33122,119,,,,2,2,1.0,1.0,0.0,-1.0,,0.0-116.0,,-1.0,1262.0,1.0,0.41709882,1.0,0.736666736,1.0,0.75,1.0,0.389095584,True,,5f7631d94ba6c90aec43c7f4,,1606455,119,,evan-feature22,full_rf_a,,0
89,33123,120,,,,2,2,0.0,0.0,0.0,-1.0,,0.0-117.0,,0.0,854.0,1.0,0.39749009799999996,0.0,0.744320029,0.0,0.75,0.0,0.363848678,True,,5f7631d94ba6c90aec43c7f4,,1617145,120,,evan-feature22,full_rf_a,,0
90,33124,121,,,,2,2,1.0,0.0,1.0,0.0,,0.0-118.0,,1.0,803.0,0.0,0.392653706,0.0,0.75,1.0,0.75,0.0,0.384386976,True,,5f7631d94ba6c90aec43c7f4,,1627804,121,,evan-feature22,full_rf_a,,0
91,33125,122,,,,2,2,1.0,0.0,1.0,0.0,,0.0-119.0,,1.0,606.0,1.0,0.31190902600000003,1.0,0.75,1.0,0.732413819,0.0,0.413082932,True,,5f7631d94ba6c90aec43c7f4,,1638284,122,,evan-feature22,full_rf_a,,0
92,33126,123,,,,1,1,1.0,1.0,0.0,-1.0,,0.0-120.0,,-1.0,1025.0,1.0,0.366917648,1.0,0.740073855,1.0,0.75,1.0,0.352861979,True,,5f7631d94ba6c90aec43c7f4,,1649155,123,,evan-feature22,full_rf_a,,1
93,33127,124,,,,1,1,1.0,1.0,0.0,-1.0,,0.0-121.0,,-1.0,1083.0,1.0,0.3645172,1.0,0.721770713,0.0,0.75,0.0,0.404074511,True,,5f7631d94ba6c90aec43c7f4,,1660105,124,,evan-feature22,full_rf_a,,0
94,33128,125,,,,2,2,0.0,0.0,0.0,-1.0,,0.0-122.0,,0.0,675.0,0.0,0.35205600299999995,1.0,0.68983859,0.0,0.739735447,0.0,0.366895945,True,,5f7631d94ba6c90aec43c7f4,,1670654,125,,evan-feature22,full_rf_a,,1
95,33129,126,,,,1,1,1.0,1.0,0.0,-1.0,,0.0-123.0,,-1.0,833.0,1.0,0.40998722600000004,1.0,0.720859127,1.0,0.673854955,1.0,0.368528541,True,,5f7631d94ba6c90aec43c7f4,,1681354,126,,evan-feature22,full_rf_a,,1
96,33130,127,,,,2,2,1.0,0.0,1.0,0.0,,0.0-124.0,,1.0,692.0,0.0,0.353625316,1.0,0.75,1.0,0.695605473,0.0,0.38303674200000004,True,,5f7631d94ba6c90aec43c7f4,,1691915,127,,evan-feature22,full_rf_a,,1
97,33131,128,,,,1,1,1.0,1.0,0.0,-1.0,,0.0-125.0,,-1.0,708.0,1.0,0.359216989,1.0,0.75,1.0,0.6987915090000001,0.0,0.35169046200000004,True,,5f7631d94ba6c90aec43c7f4,,1702495,128,,evan-feature22,full_rf_a,,1
98,33132,129,,,,2,2,1.0,0.0,1.0,0.0,,0.0-126.0,,1.0,629.0,0.0,0.35834496899999996,1.0,0.75,1.0,0.707067742,0.0,0.416763636,True,,5f7631d94ba6c90aec43c7f4,,1712995,129,,evan-feature22,full_rf_a,,1
99,33133,130,,,,1,1,1.0,0.0,1.0,0.0,,0.0-127.0,,1.0,574.0,1.0,0.38741613799999997,0.0,0.7177369570000001,1.0,0.734902455,1.0,0.49438664299999996,True,,5f7631d94ba6c90aec43c7f4,,1723434,130,,evan-feature22,full_rf_a,,1
100,33134,131,,,,2,2,1.0,0.0,0.0,-1.0,,0.0-128.0,,0.0,843.0,1.0,0.405255252,1.0,0.7300466640000001,1.0,0.7027748070000001,0.0,0.504359668,True,,5f7631d94ba6c90aec43c7f4,,1734114,131,,evan-feature22,full_rf_a,,1
101,33135,132,,,,1,1,1.0,1.0,0.0,-1.0,,0.0-129.0,,-1.0,921.0,1.0,0.40697073,1.0,0.7260142190000001,0.0,0.724461982,0.0,0.522779179,True,,5f7631d94ba6c90aec43c7f4,,1744905,132,,evan-feature22,full_rf_a,,1
102,33136,133,,,,2,2,0.0,0.0,0.0,-1.0,,0.0-130.0,,0.0,1083.0,0.0,0.43906215299999996,1.0,0.7252802340000001,0.0,0.719079934,0.0,0.5712990579999999,True,,5f7631d94ba6c90aec43c7f4,,1755865,133,,evan-feature22,full_rf_a,,1
103,33137,134,,,,1,1,0.0,1.0,0.0,-1.0,,0.0-131.0,,-1.0,668.0,0.0,0.4076705,1.0,0.73280499,1.0,0.681313127,0.0,0.523891346,True,,5f7631d94ba6c90aec43c7f4,,1766374,134,,evan-feature22,full_rf_a,,1
104,33138,135,,,,2,2,1.0,0.0,0.0,-1.0,,0.0-132.0,,0.0,982.0,0.0,0.399102911,1.0,0.730498344,1.0,0.661080239,0.0,0.46742603,True,,5f7631d94ba6c90aec43c7f4,,1777195,135,,evan-feature22,full_rf_a,,1
105,33139,136,,,,2,2,1.0,0.0,1.0,0.0,,0.0-133.0,,1.0,1163.0,0.0,0.356477282,1.0,0.712296395,1.0,0.641812684,0.0,0.44868414,True,,5f7631d94ba6c90aec43c7f4,,1788215,136,,evan-feature22,full_rf_a,,0
106,33140,137,,,,1,1,1.0,1.0,0.0,-1.0,,0.0-134.0,,-1.0,1059.0,1.0,0.462760722,1.0,0.692349322,1.0,0.700947931,0.0,0.394680266,True,,5f7631d94ba6c90aec43c7f4,,1799125,137,,evan-feature22,full_rf_a,,1
107,33141,138,,,,2,2,1.0,0.0,0.0,-1.0,,0.0-135.0,,0.0,711.0,1.0,0.422306413,0.0,0.718375916,1.0,0.706340917,0.0,0.367787185,True,,5f7631d94ba6c90aec43c7f4,,1809674,138,,evan-feature22,full_rf_a,,1
108,33143,140,,,,2,2,0.0,1.0,0.0,-1.0,,0.0-137.0,,-1.0,1731.0,0.0,0.4582233,0.0,0.643834117,0.0,0.75,1.0,0.39615823299999997,True,,5f7631d94ba6c90aec43c7f4,,1823714,140,,evan-feature22,full_rf_a,,0
109,33144,141,,,,1,1,1.0,1.0,0.0,-1.0,,0.0-138.0,,-1.0,438.0,1.0,0.43813437899999996,1.0,0.651283804,0.0,0.729674191,1.0,0.37711048,True,,5f7631d94ba6c90aec43c7f4,,1834015,141,,evan-feature22,full_rf_a,,1
110,33145,142,,,,1,1,0.0,0.0,0.0,-1.0,,0.0-139.0,,0.0,574.0,0.0,0.471199094,0.0,0.6470010979999999,0.0,0.715008097,1.0,0.410656191,True,,5f7631d94ba6c90aec43c7f4,,1844435,142,,evan-feature22,full_rf_a,,0
111,33146,143,,,,2,2,0.0,1.0,1.0,0.0,,0.0-140.0,,0.0,705.0,1.0,0.42486406,0.0,0.629771829,0.0,0.6550939960000001,1.0,0.459093873,True,,5f7631d94ba6c90aec43c7f4,,1855004,143,,evan-feature22,full_rf_a,,1
112,33147,144,,,,1,1,0.0,1.0,1.0,0.0,,0.0-141.0,,0.0,541.0,0.0,0.4803197,1.0,0.645842715,1.0,0.6421749920000001,1.0,0.443092151,True,,5f7631d94ba6c90aec43c7f4,,1865404,144,,evan-feature22,full_rf_a,,1
113,33148,145,,,,2,2,1.0,1.0,1.0,0.0,,0.0-142.0,,1.0,645.0,0.0,0.521848997,0.0,0.735801074,1.0,0.6691348460000001,1.0,0.45259351600000003,True,,5f7631d94ba6c90aec43c7f4,,1875905,145,,evan-feature22,full_rf_a,,1
114,33149,146,,,,1,1,0.0,1.0,0.0,-1.0,,0.0-143.0,,-1.0,863.0,0.0,0.49565621299999996,1.0,0.742400847,0.0,0.661512553,0.0,0.483110831,True,,5f7631d94ba6c90aec43c7f4,,1886624,146,,evan-feature22,full_rf_a,,1
115,33150,147,,,,2,2,0.0,0.0,1.0,0.0,,0.0-144.0,,0.0,674.0,1.0,0.521564361,0.0,0.731078632,0.0,0.6774886809999999,0.0,0.483263956,True,,5f7631d94ba6c90aec43c7f4,,1897135,147,,evan-feature22,full_rf_a,,1
116,33151,148,,,,1,1,1.0,1.0,1.0,0.0,,0.0-145.0,,1.0,638.0,1.0,0.558893102,1.0,0.719810023,1.0,0.67461031,1.0,0.499349834,True,,5f7631d94ba6c90aec43c7f4,,1907644,148,,evan-feature22,full_rf_a,,1
117,33152,149,,,,2,2,1.0,1.0,0.0,-1.0,,0.0-146.0,,-1.0,1233.0,0.0,0.611031046,1.0,0.75,1.0,0.688072995,1.0,0.5321422729999999,True,,5f7631d94ba6c90aec43c7f4,,1918725,149,,evan-feature22,full_rf_a,,1
118,33153,150,,,,2,2,1.0,0.0,1.0,0.0,,0.0-147.0,,1.0,1095.0,0.0,0.633223941,0.0,0.713567728,1.0,0.75,0.0,0.48185314700000004,True,,5f7631d94ba6c90aec43c7f4,,1929674,150,,evan-feature22,full_rf_a,,0
119,33154,151,,,,1,1,1.0,1.0,1.0,0.0,,0.0-148.0,,1.0,1076.0,1.0,0.664001694,1.0,0.705509768,0.0,0.75,0.0,0.500211065,True,,5f7631d94ba6c90aec43c7f4,,1940575,151,,evan-feature22,full_rf_a,,1
120,33155,152,,,,2,2,1.0,0.0,0.0,-1.0,,0.0-149.0,,0.0,808.0,1.0,0.664001694,1.0,0.705509768,1.0,0.75,0.0,0.500211065,True,,5f7631d94ba6c90aec43c7f4,,1951255,152,,evan-feature22,full_rf_a,,1
121,33156,153,,,,2,2,1.0,0.0,0.0,-1.0,,0.0-150.0,,0.0,993.0,0.0,0.696508041,1.0,0.71066027,1.0,0.717028709,0.0,0.49792991,True,,5f7631d94ba6c90aec43c7f4,,1962114,153,,evan-feature22,full_rf_a,,0
122,33157,154,,,,2,2,1.0,0.0,1.0,0.0,,0.0-151.0,,1.0,1413.0,1.0,0.699883272,0.0,0.75,1.0,0.713543895,0.0,0.496962643,True,,5f7631d94ba6c90aec43c7f4,,1973365,154,,evan-feature22,full_rf_a,,0
123,33158,155,,,,1,1,1.0,1.0,0.0,-1.0,,0.0-152.0,,-1.0,724.0,1.0,0.741163419,1.0,0.75,1.0,0.64691024,0.0,0.513858197,True,,5f7631d94ba6c90aec43c7f4,,1983924,155,,evan-feature22,full_rf_a,,1
124,33159,156,,,,2,2,1.0,1.0,1.0,0.0,,0.0-153.0,,1.0,1473.0,1.0,0.75,0.0,0.70816558,1.0,0.594499079,1.0,0.48502124,True,,5f7631d94ba6c90aec43c7f4,,1995255,156,,evan-feature22,full_rf_a,,1
125,33160,157,,,,1,1,1.0,1.0,0.0,-1.0,,0.0-154.0,,-1.0,1007.0,1.0,0.75,1.0,0.721848901,0.0,0.62197249,0.0,0.48263586399999997,True,,5f7631d94ba6c90aec43c7f4,,2006064,157,,evan-feature22,full_rf_a,,1
126,33161,158,,,,2,2,1.0,1.0,1.0,0.0,,0.0-155.0,,1.0,1113.0,0.0,0.75,1.0,0.74813071,1.0,0.584357161,1.0,0.411477782,True,,5f7631d94ba6c90aec43c7f4,,2017025,158,,evan-feature22,full_rf_a,,1
127,33162,159,,,,1,1,0.0,0.0,0.0,-1.0,,0.0-156.0,,0.0,951.0,0.0,0.75,0.0,0.75,1.0,0.52287236,0.0,0.488290656,True,,5f7631d94ba6c90aec43c7f4,,2027805,159,,evan-feature22,full_rf_a,,1
128,33163,160,,,,1,1,1.0,1.0,0.0,-1.0,,0.0-157.0,,-1.0,1148.0,1.0,0.75,1.0,0.75,0.0,0.544321581,0.0,0.53143059,True,,5f7631d94ba6c90aec43c7f4,,2038802,160,,evan-feature22,full_rf_a,,0
129,33164,161,,,,1,1,0.0,0.0,0.0,-1.0,,0.0-158.0,,0.0,965.0,0.0,0.726754564,0.0,0.75,0.0,0.5129306370000001,0.0,0.530592445,True,,5f7631d94ba6c90aec43c7f4,,2049584,161,,evan-feature22,full_rf_a,,0
130,33165,162,,,,2,2,0.0,1.0,1.0,0.0,,0.0-159.0,,0.0,1101.0,1.0,0.75,1.0,0.7392590729999999,0.0,0.479875835,1.0,0.547007051,True,,5f7631d94ba6c90aec43c7f4,,2060554,162,,evan-feature22,full_rf_a,,1
131,33166,163,,,,2,2,1.0,0.0,1.0,0.0,,0.0-160.0,,1.0,1025.0,0.0,0.75,1.0,0.7393376979999999,1.0,0.546045419,0.0,0.541267353,True,,5f7631d94ba6c90aec43c7f4,,2071414,163,,evan-feature22,full_rf_a,,0
132,33167,164,,,,2,2,0.0,1.0,1.0,0.0,,0.0-161.0,,0.0,730.0,1.0,0.75,1.0,0.75,0.0,0.485725895,1.0,0.527625395,True,,5f7631d94ba6c90aec43c7f4,,2081995,164,,evan-feature22,full_rf_a,,0
133,33168,165,,,,2,2,0.0,1.0,0.0,-1.0,,0.0-162.0,,-1.0,2087.0,1.0,0.75,1.0,0.725087974,0.0,0.488603595,1.0,0.504019206,True,,5f7631d94ba6c90aec43c7f4,,2093924,165,,evan-feature22,full_rf_a,,0
134,33169,166,,,,1,1,0.0,0.0,0.0,-1.0,,0.0-163.0,,0.0,563.0,0.0,0.745504295,0.0,0.75,1.0,0.452379914,0.0,0.50131194,True,,5f7631d94ba6c90aec43c7f4,,2104315,166,,evan-feature22,full_rf_a,,1
135,33170,167,,,,1,1,0.0,0.0,0.0,-1.0,,0.0-164.0,,0.0,750.0,0.0,0.728513874,0.0,0.75,0.0,0.44125567200000004,1.0,0.531454591,True,,5f7631d94ba6c90aec43c7f4,,2114924,167,,evan-feature22,full_rf_a,,0
136,33171,168,,,,1,1,1.0,0.0,1.0,0.0,,0.0-165.0,,1.0,630.0,1.0,0.73790804,0.0,0.75,1.0,0.413036656,1.0,0.524619035,True,,5f7631d94ba6c90aec43c7f4,,2125395,168,,evan-feature22,full_rf_a,,0
137,33172,169,,,,2,2,0.0,0.0,0.0,-1.0,,0.0-166.0,,0.0,1846.0,1.0,0.7080961309999999,1.0,0.708666865,0.0,0.431915581,0.0,0.481819489,True,,5f7631d94ba6c90aec43c7f4,,2137065,169,,evan-feature22,full_rf_a,,1
138,33173,170,,,,1,1,1.0,1.0,0.0,-1.0,,0.0-167.0,,-1.0,1080.0,1.0,0.721378003,1.0,0.71605913,0.0,0.36642387,0.0,0.5036739929999999,True,,5f7631d94ba6c90aec43c7f4,,2147984,170,,evan-feature22,full_rf_a,,1
139,33174,171,,,,2,2,0.0,0.0,0.0,-1.0,,0.0-168.0,,0.0,1138.0,1.0,0.7340618959999999,0.0,0.699323252,0.0,0.35298046299999997,0.0,0.511241692,True,,5f7631d94ba6c90aec43c7f4,,2159005,171,,evan-feature22,full_rf_a,,1
140,33175,172,,,,1,1,1.0,1.0,1.0,0.0,,0.0-169.0,,1.0,1704.0,1.0,0.75,1.0,0.70412698,1.0,0.380734814,0.0,0.529580116,True,,5f7631d94ba6c90aec43c7f4,,2170574,172,,evan-feature22,full_rf_a,,1
141,33176,173,,,,2,2,0.0,0.0,0.0,-1.0,,0.0-170.0,,0.0,1306.0,1.0,0.7436654909999999,1.0,0.711182751,0.0,0.41125331,0.0,0.49554405,True,,5f7631d94ba6c90aec43c7f4,,2181693,173,,evan-feature22,full_rf_a,,1
142,33177,174,,,,1,1,1.0,1.0,0.0,-1.0,,0.0-171.0,,-1.0,1606.0,1.0,0.731607915,1.0,0.651774583,0.0,0.35688023,0.0,0.45194491600000003,True,,5f7631d94ba6c90aec43c7f4,,2193144,174,,evan-feature22,full_rf_a,,1
143,33178,175,,,,2,2,0.0,0.0,1.0,0.0,,0.0-172.0,,0.0,593.0,1.0,0.75,1.0,0.75,0.0,0.283145374,0.0,0.528608005,True,,5f7631d94ba6c90aec43c7f4,,2203584,175,,evan-feature22,full_rf_a,,1
144,33179,176,,,,2,2,0.0,1.0,1.0,0.0,,0.0-173.0,,0.0,966.0,1.0,0.7491416890000001,1.0,0.7423785959999999,0.0,0.29135870399999997,1.0,0.498888318,True,,5f7631d94ba6c90aec43c7f4,,2214394,176,,evan-feature22,full_rf_a,,0
145,33180,177,,,,1,1,0.0,1.0,1.0,0.0,,0.0-174.0,,0.0,439.0,0.0,0.708569387,1.0,0.717682277,1.0,0.294421699,0.0,0.493838163,True,,5f7631d94ba6c90aec43c7f4,,2224665,177,,evan-feature22,full_rf_a,,1
146,33181,178,,,,2,2,1.0,1.0,0.0,-1.0,,0.0-175.0,,-1.0,1004.0,1.0,0.75,0.0,0.7383382159999999,1.0,0.356098707,1.0,0.442533405,True,,5f7631d94ba6c90aec43c7f4,,2235525,178,,evan-feature22,full_rf_a,,1
147,33182,179,,,,2,2,0.0,0.0,0.0,-1.0,,0.0-176.0,,0.0,1112.0,1.0,0.744527075,1.0,0.75,0.0,0.334127506,0.0,0.393165805,True,,5f7631d94ba6c90aec43c7f4,,2246495,179,,evan-feature22,full_rf_a,,0
148,33183,180,,,,2,2,0.0,0.0,0.0,-1.0,,0.0-177.0,,0.0,841.0,1.0,0.75,1.0,0.75,0.0,0.33571021799999995,0.0,0.350393962,True,,5f7631d94ba6c90aec43c7f4,,2257194,180,,evan-feature22,full_rf_a,,0
149,33184,181,,,,2,2,1.0,1.0,0.0,-1.0,,0.0-178.0,,-1.0,805.0,1.0,0.75,1.0,0.75,1.0,0.313628297,1.0,0.36349657399999996,True,,5f7631d94ba6c90aec43c7f4,,2267854,181,,evan-feature22,full_rf_a,,0
150,33185,182,,,,2,2,0.0,0.0,1.0,0.0,,0.0-179.0,,0.0,973.0,0.0,0.75,1.0,0.734284182,0.0,0.262667667,0.0,0.380199119,True,,5f7631d94ba6c90aec43c7f4,,2278665,182,,evan-feature22,full_rf_a,,0
151,33186,183,,,,2,2,0.0,0.0,0.0,-1.0,,0.0-180.0,,0.0,1305.0,1.0,0.75,1.0,0.75,0.0,0.25,0.0,0.394494013,True,,5f7631d94ba6c90aec43c7f4,,2289795,183,,evan-feature22,full_rf_a,,0
152,33187,184,,,,1,1,0.0,0.0,1.0,0.0,,0.0-181.0,,0.0,864.0,0.0,0.722298145,0.0,0.7357822340000001,0.0,0.25,1.0,0.319142121,True,,5f7631d94ba6c90aec43c7f4,,2300535,184,,evan-feature22,full_rf_a,,1
153,33188,185,,,,1,1,1.0,0.0,1.0,0.0,,0.0-182.0,,1.0,614.0,1.0,0.73149275,0.0,0.724276446,1.0,0.305856907,1.0,0.281315057,True,,5f7631d94ba6c90aec43c7f4,,2311015,185,,evan-feature22,full_rf_a,,0
154,33189,186,,,,1,1,1.0,1.0,0.0,-1.0,,0.0-183.0,,-1.0,1291.0,1.0,0.7458732690000001,1.0,0.7336382459999999,0.0,0.272571964,0.0,0.266021999,True,,5f7631d94ba6c90aec43c7f4,,2322145,186,,evan-feature22,full_rf_a,,0
155,33190,187,,,,2,2,0.0,1.0,0.0,-1.0,,0.0-184.0,,-1.0,1270.0,1.0,0.705579037,0.0,0.720778292,0.0,0.320238144,1.0,0.30971744,True,,5f7631d94ba6c90aec43c7f4,,2333275,187,,evan-feature22,full_rf_a,,1
156,33191,188,,,,1,1,1.0,0.0,0.0,-1.0,,0.0-185.0,,0.0,1118.0,1.0,0.700425648,0.0,0.7198784009999999,0.0,0.272590393,0.0,0.304182931,True,,5f7631d94ba6c90aec43c7f4,,2344234,188,,evan-feature22,full_rf_a,,1
157,33192,189,,,,1,1,1.0,1.0,0.0,-1.0,,0.0-186.0,,-1.0,924.0,1.0,0.735590785,1.0,0.722714973,1.0,0.25,0.0,0.323421091,True,,5f7631d94ba6c90aec43c7f4,,2355015,189,,evan-feature22,full_rf_a,,0
158,33193,190,,,,2,2,1.0,0.0,0.0,-1.0,,0.0-187.0,,0.0,814.0,1.0,0.724807662,1.0,0.63146213,1.0,0.36836492600000004,0.0,0.34592153299999995,True,,5f7631d94ba6c90aec43c7f4,,2365654,190,,evan-feature22,full_rf_a,,1
159,33194,191,,,,2,2,1.0,0.0,0.0,-1.0,,0.0-188.0,,0.0,939.0,1.0,0.7352796909999999,0.0,0.555111392,1.0,0.36003922,0.0,0.31433779999999995,True,,5f7631d94ba6c90aec43c7f4,,2376455,191,,evan-feature22,full_rf_a,,0
160,33195,192,notice,,,,,,,,,,0.0-189.0,"{""Q0"":""No""}",,9860.0,,,,,,,,,True,,5f7631d94ba6c90aec43c7f4,,2386318,192,Q,survey-text,full_rf_a,,1
161,33196,193,track1,,[1],,,,,,,,0.0-190.0,"{""Q0"":""no""}",,3776.0,,,,,,,,,True,,5f7631d94ba6c90aec43c7f4,,2390100,193,Q,evan-quiz,full_rf_a,,1
162,33197,194,track2,,[1],,,,,,,,0.0-191.0,"{""Q0"":""no""}",,9075.0,,,,,,,,,True,,5f7631d94ba6c90aec43c7f4,,2399180,194,Q,evan-quiz,full_rf_a,,1
163,33198,195,strat,,,,,,,,,,0.0-192.0,"{""Q0"":""I tried to look for patterns""}",,14079.0,,,,,,,,,True,,5f7631d94ba6c90aec43c7f4,,2413265,195,Q,survey-text,full_rf_a,,1
