,index,Unnamed: 0,Q_name,button_pressed,choice_idxs,chosen_pos,chosen_state,chosen_state_f_1_outcome,chosen_state_f_2_outcome,f_1_reward,f_2_reward,incor_questions,internal_node_id,responses,reward_received,rt,s_1_f_1_outcome,s_1_f_1_prob,s_1_f_2_outcome,s_1_f_2_prob,s_2_f_1_outcome,s_2_f_1_prob,s_2_f_2_outcome,s_2_f_2_prob,safe_first,stimulus,subjectID,success,time_elapsed,trial_index,trial_num,trial_type,version,view_history,switching
0,38748,25,,,,1,1,0.0,0.0,0.0,1.0,,0.0-27.0,,0.0,3407.175,0.0,0.6,0.0,0.6,1.0,0.4,0.0,0.4,True,,5d192aef6be726001a39d2f3,,583171,25,,evan-feature22,full_rf_b,,0
1,38749,26,,,,2,2,0.0,0.0,0.0,1.0,,0.0-28.0,,0.0,1495.665,1.0,0.608053294,1.0,0.63424552,0.0,0.397152172,0.0,0.347069101,True,,5d192aef6be726001a39d2f3,,594482,26,,evan-feature22,full_rf_b,,1
2,38750,27,,,,1,1,1.0,1.0,0.0,1.0,,0.0-29.0,,1.0,1994.735,1.0,0.642237155,1.0,0.648566321,0.0,0.389407674,1.0,0.285525717,True,,5d192aef6be726001a39d2f3,,606272,27,,evan-feature22,full_rf_b,,1
3,38751,28,,,,2,2,1.0,1.0,0.0,1.0,,0.0-30.0,,1.0,1254.34,1.0,0.661086576,1.0,0.630492543,1.0,0.399058924,1.0,0.25,True,,5d192aef6be726001a39d2f3,,617337,28,,evan-feature22,full_rf_b,,1
4,38752,29,,,,2,2,1.0,1.0,0.0,1.0,,0.0-31.0,,1.0,1479.71,0.0,0.631324137,1.0,0.6269842929999999,1.0,0.38734784299999997,1.0,0.25,True,,5d192aef6be726001a39d2f3,,628629,29,,evan-feature22,full_rf_b,,0
5,38753,30,,,,1,1,1.0,1.0,0.0,1.0,,0.0-32.0,,1.0,1164.005,1.0,0.6381991370000001,1.0,0.68987999,1.0,0.384107265,1.0,0.271332943,True,,5d192aef6be726001a39d2f3,,639612,30,,evan-feature22,full_rf_b,,1
6,38754,31,,,,1,1,1.0,1.0,0.0,1.0,,0.0-33.0,,1.0,1104.075,1.0,0.66034901,1.0,0.742641349,0.0,0.360225629,0.0,0.25,True,,5d192aef6be726001a39d2f3,,650536,31,,evan-feature22,full_rf_b,,0
7,38755,32,,,,2,2,0.0,1.0,-1.0,0.0,,0.0-34.0,,0.0,1356.765,1.0,0.638612418,1.0,0.75,0.0,0.367273939,1.0,0.25,True,,5d192aef6be726001a39d2f3,,661689,32,,evan-feature22,full_rf_b,,1
8,38756,33,,,,2,2,0.0,0.0,0.0,1.0,,0.0-35.0,,0.0,1375.725,1.0,0.624340629,1.0,0.75,0.0,0.425829545,0.0,0.25,True,,5d192aef6be726001a39d2f3,,672873,33,,evan-feature22,full_rf_b,,0
9,38757,34,,,,2,2,0.0,1.0,0.0,1.0,,0.0-36.0,,1.0,1188.74,1.0,0.621999804,1.0,0.75,0.0,0.368609357,1.0,0.25,True,,5d192aef6be726001a39d2f3,,683881,34,,evan-feature22,full_rf_b,,0
10,38758,35,,,,2,2,1.0,0.0,-1.0,0.0,,0.0-37.0,,-1.0,1640.775,0.0,0.62666403,1.0,0.75,1.0,0.311151498,0.0,0.25,True,,5d192aef6be726001a39d2f3,,695316,35,,evan-feature22,full_rf_b,,0
11,38759,36,,,,1,1,1.0,1.0,-1.0,0.0,,0.0-38.0,,-1.0,1975.42,1.0,0.6819650009999999,1.0,0.75,1.0,0.310763048,0.0,0.25,True,,5d192aef6be726001a39d2f3,,707123,36,,evan-feature22,full_rf_b,,1
12,38760,37,,,,2,2,1.0,0.0,0.0,1.0,,0.0-39.0,,0.0,1045.76,1.0,0.740626951,1.0,0.75,1.0,0.25,0.0,0.25,True,,5d192aef6be726001a39d2f3,,717969,37,,evan-feature22,full_rf_b,,1
13,38761,38,,,,2,2,0.0,0.0,0.0,1.0,,0.0-40.0,,0.0,1330.74,0.0,0.739599242,1.0,0.742034978,0.0,0.25397114600000004,0.0,0.25,True,,5d192aef6be726001a39d2f3,,729128,38,,evan-feature22,full_rf_b,,0
14,38762,39,,,,1,1,1.0,0.0,0.0,1.0,,0.0-41.0,,0.0,573.3650001,1.0,0.732341315,0.0,0.72735643,1.0,0.25,0.0,0.25,True,,5d192aef6be726001a39d2f3,,739503,39,,evan-feature22,full_rf_b,,1
15,38763,40,,,,1,1,1.0,1.0,0.0,1.0,,0.0-42.0,,1.0,509.23,1.0,0.7062287770000001,1.0,0.75,0.0,0.29002151,0.0,0.288256649,True,,5d192aef6be726001a39d2f3,,749841,40,,evan-feature22,full_rf_b,,0
16,38764,41,,,,2,2,0.0,0.0,-1.0,0.0,,0.0-43.0,,0.0,1307.085,1.0,0.7086029209999999,1.0,0.75,0.0,0.274129113,0.0,0.262851608,True,,5d192aef6be726001a39d2f3,,760944,41,,evan-feature22,full_rf_b,,1
17,38765,42,,,,2,2,0.0,0.0,0.0,1.0,,0.0-44.0,,0.0,1642.365,1.0,0.669189651,1.0,0.727614338,0.0,0.298444036,0.0,0.296944518,True,,5d192aef6be726001a39d2f3,,772408,42,,evan-feature22,full_rf_b,,0
18,38766,43,,,,1,1,0.0,0.0,-1.0,0.0,,0.0-45.0,,0.0,1101.94,0.0,0.6819912929999999,0.0,0.7179434290000001,1.0,0.265003961,1.0,0.28157921199999997,True,,5d192aef6be726001a39d2f3,,783316,43,,evan-feature22,full_rf_b,,1
19,38767,44,,,,1,1,0.0,1.0,-1.0,0.0,,0.0-46.0,,0.0,2276.245,0.0,0.665275002,1.0,0.723065271,0.0,0.260414971,0.0,0.30973870000000003,True,,5d192aef6be726001a39d2f3,,795395,44,,evan-feature22,full_rf_b,,0
20,38768,45,,,,2,2,0.0,0.0,0.0,1.0,,0.0-47.0,,0.0,1160.415,1.0,0.6660593260000001,1.0,0.728032907,0.0,0.30922817,0.0,0.338778608,True,,5d192aef6be726001a39d2f3,,806369,45,,evan-feature22,full_rf_b,,1
21,38769,46,,,,2,2,1.0,1.0,0.0,1.0,,0.0-48.0,,1.0,421.305,0.0,0.702068785,0.0,0.6528750879999999,1.0,0.287329608,1.0,0.35789613200000003,True,,5d192aef6be726001a39d2f3,,816599,46,,evan-feature22,full_rf_b,,0
22,38770,47,,,,2,2,0.0,0.0,0.0,1.0,,0.0-49.0,,0.0,1068.38,0.0,0.651939787,1.0,0.636725589,0.0,0.284834488,0.0,0.358563756,True,,5d192aef6be726001a39d2f3,,827507,47,,evan-feature22,full_rf_b,,0
23,38771,48,,,,2,2,1.0,1.0,0.0,1.0,,0.0-50.0,,1.0,2111.14,1.0,0.67573929,1.0,0.612550049,1.0,0.37130387600000003,1.0,0.383542402,True,,5d192aef6be726001a39d2f3,,839420,48,,evan-feature22,full_rf_b,,0
24,38772,49,,,,1,1,0.0,0.0,0.0,1.0,,0.0-51.0,,0.0,2406.17,0.0,0.620753801,0.0,0.60513644,0.0,0.385529434,0.0,0.340361743,True,,5d192aef6be726001a39d2f3,,851641,49,,evan-feature22,full_rf_b,,1
25,38773,50,,,,2,2,1.0,0.0,-1.0,0.0,,0.0-52.0,,-1.0,1449.19,1.0,0.673564893,1.0,0.672437924,1.0,0.292955382,0.0,0.337633795,True,,5d192aef6be726001a39d2f3,,862907,50,,evan-feature22,full_rf_b,,1
26,38774,51,,,,2,2,0.0,0.0,0.0,1.0,,0.0-53.0,,0.0,2146.04,1.0,0.6749427,0.0,0.724197502,0.0,0.32391132100000003,0.0,0.350995264,True,,5d192aef6be726001a39d2f3,,874842,51,,evan-feature22,full_rf_b,,0
27,38775,52,,,,1,1,1.0,0.0,0.0,1.0,,0.0-54.0,,0.0,584.5949999,1.0,0.6940159379999999,0.0,0.75,0.0,0.31710554399999996,0.0,0.413450341,True,,5d192aef6be726001a39d2f3,,885240,52,,evan-feature22,full_rf_b,,1
28,38776,53,,,,1,1,1.0,1.0,0.0,1.0,,0.0-55.0,,1.0,383.39,1.0,0.6916018270000001,1.0,0.69001187,1.0,0.261817804,0.0,0.40038635,True,,5d192aef6be726001a39d2f3,,895440,53,,evan-feature22,full_rf_b,,0
29,38777,54,,,,2,2,0.0,1.0,0.0,1.0,,0.0-56.0,,1.0,1327.39,0.0,0.641061544,1.0,0.71337992,0.0,0.277296461,1.0,0.47372791700000005,True,,5d192aef6be726001a39d2f3,,906564,54,,evan-feature22,full_rf_b,,1
30,38778,55,,,,2,2,1.0,0.0,0.0,1.0,,0.0-57.0,,0.0,983.1749999,1.0,0.6082438520000001,1.0,0.708471106,1.0,0.28745137,0.0,0.564174476,True,,5d192aef6be726001a39d2f3,,917361,55,,evan-feature22,full_rf_b,,0
31,38779,56,,,,1,1,1.0,1.0,-1.0,0.0,,0.0-58.0,,-1.0,1405.485,1.0,0.6051112120000001,1.0,0.7118147229999999,1.0,0.272390611,1.0,0.5595149939999999,True,,5d192aef6be726001a39d2f3,,928587,56,,evan-feature22,full_rf_b,,1
32,38780,57,,,,1,1,0.0,1.0,-1.0,0.0,,0.0-59.0,,0.0,2722.55,0.0,0.582420852,1.0,0.635867583,0.0,0.31089574,0.0,0.5227206520000001,True,,5d192aef6be726001a39d2f3,,941107,57,,evan-feature22,full_rf_b,,0
33,38781,58,,,,1,1,1.0,0.0,-1.0,0.0,,0.0-60.0,,-1.0,3051.995,1.0,0.623195575,0.0,0.655026044,0.0,0.25,1.0,0.560387538,True,,5d192aef6be726001a39d2f3,,953983,58,,evan-feature22,full_rf_b,,0
34,38782,59,,,,2,2,0.0,0.0,0.0,1.0,,0.0-61.0,,0.0,1475.395,1.0,0.601889598,0.0,0.678198724,0.0,0.25,0.0,0.559922936,True,,5d192aef6be726001a39d2f3,,965288,59,,evan-feature22,full_rf_b,,1
35,38783,60,,,,1,1,0.0,0.0,-1.0,0.0,,0.0-62.0,,0.0,1251.075,0.0,0.601259914,0.0,0.704681482,0.0,0.33908969299999997,0.0,0.505003715,True,,5d192aef6be726001a39d2f3,,976353,60,,evan-feature22,full_rf_b,,1
36,38784,61,,,,2,2,1.0,0.0,-1.0,0.0,,0.0-63.0,,-1.0,1134.17,1.0,0.59645454,1.0,0.710437172,1.0,0.327441879,0.0,0.391749613,True,,5d192aef6be726001a39d2f3,,987301,61,,evan-feature22,full_rf_b,,1
37,38785,62,,,,1,1,0.0,1.0,0.0,1.0,,0.0-64.0,,1.0,1303.635,0.0,0.529473,1.0,0.636758527,0.0,0.301338063,0.0,0.365661481,True,,5d192aef6be726001a39d2f3,,998429,62,,evan-feature22,full_rf_b,,1
38,38786,63,,,,1,1,1.0,0.0,-1.0,0.0,,0.0-65.0,,-1.0,1828.02,1.0,0.541657162,0.0,0.634541962,0.0,0.343535366,0.0,0.371763742,True,,5d192aef6be726001a39d2f3,,1010066,63,,evan-feature22,full_rf_b,,0
39,38787,64,,,,2,2,0.0,1.0,-1.0,0.0,,0.0-66.0,,0.0,1721.59,0.0,0.5707533260000001,0.0,0.589121171,0.0,0.326428396,1.0,0.43961622899999997,True,,5d192aef6be726001a39d2f3,,1021592,64,,evan-feature22,full_rf_b,,1
40,38788,65,,,,1,1,0.0,1.0,0.0,1.0,,0.0-67.0,,1.0,2020.255,0.0,0.5707533260000001,1.0,0.589121171,0.0,0.326428396,0.0,0.43961622899999997,True,,5d192aef6be726001a39d2f3,,1033430,65,,evan-feature22,full_rf_b,,1
41,38789,66,,,,1,1,0.0,0.0,0.0,1.0,,0.0-68.0,,0.0,3233.205,0.0,0.506271295,0.0,0.641775594,0.0,0.37149690700000004,0.0,0.404330166,True,,5d192aef6be726001a39d2f3,,1046475,66,,evan-feature22,full_rf_b,,0
42,38790,67,,,,1,1,1.0,1.0,-1.0,0.0,,0.0-69.0,,-1.0,2471.355,1.0,0.455642565,1.0,0.623605825,0.0,0.358753011,0.0,0.346174041,True,,5d192aef6be726001a39d2f3,,1058754,67,,evan-feature22,full_rf_b,,0
43,38791,68,,,,2,2,1.0,0.0,0.0,1.0,,0.0-70.0,,0.0,388.09,0.0,0.483677308,1.0,0.5904681070000001,1.0,0.402218411,0.0,0.35344697,True,,5d192aef6be726001a39d2f3,,1068931,68,,evan-feature22,full_rf_b,,1
44,38792,69,,,,1,1,1.0,0.0,-1.0,0.0,,0.0-71.0,,-1.0,3559.79,1.0,0.394210977,0.0,0.558925494,0.0,0.540052017,0.0,0.35182128700000004,True,,5d192aef6be726001a39d2f3,,1082305,69,,evan-feature22,full_rf_b,,1
45,38793,70,,,,2,2,1.0,0.0,0.0,1.0,,0.0-72.0,,0.0,1721.975,0.0,0.382300414,1.0,0.577670603,1.0,0.607608448,0.0,0.378261578,True,,5d192aef6be726001a39d2f3,,1093844,70,,evan-feature22,full_rf_b,,1
46,38794,71,,,,2,2,1.0,0.0,-1.0,0.0,,0.0-73.0,,-1.0,2097.18,1.0,0.357596762,1.0,0.5929076529999999,1.0,0.6579790010000001,0.0,0.401326777,True,,5d192aef6be726001a39d2f3,,1105776,71,,evan-feature22,full_rf_b,,0
47,38795,72,,,,1,1,0.0,1.0,0.0,1.0,,0.0-74.0,,1.0,1914.24,0.0,0.362033495,1.0,0.582308608,1.0,0.649195052,0.0,0.355158505,True,,5d192aef6be726001a39d2f3,,1117486,72,,evan-feature22,full_rf_b,,1
48,38796,73,,,,1,1,0.0,1.0,0.0,1.0,,0.0-75.0,,1.0,2267.215,0.0,0.369620635,1.0,0.669100864,1.0,0.706059111,0.0,0.362516241,True,,5d192aef6be726001a39d2f3,,1129552,73,,evan-feature22,full_rf_b,,0
49,38797,74,,,,1,1,0.0,1.0,0.0,1.0,,0.0-76.0,,1.0,2056.28,0.0,0.41477751399999996,1.0,0.7284416779999999,0.0,0.7182656940000001,0.0,0.36228040899999997,True,,5d192aef6be726001a39d2f3,,1141417,74,,evan-feature22,full_rf_b,,0
50,38798,75,,,,1,1,0.0,1.0,-1.0,0.0,,0.0-77.0,,0.0,2758.82,0.0,0.37675460299999997,1.0,0.703250285,0.0,0.75,0.0,0.461979164,True,,5d192aef6be726001a39d2f3,,1153979,75,,evan-feature22,full_rf_b,,0
51,38799,76,,,,1,1,0.0,1.0,-1.0,0.0,,0.0-78.0,,0.0,2313.185,0.0,0.398716075,1.0,0.6723864890000001,1.0,0.674153818,0.0,0.519029516,True,,5d192aef6be726001a39d2f3,,1166110,76,,evan-feature22,full_rf_b,,0
52,38800,77,,,,2,2,0.0,0.0,-1.0,0.0,,0.0-79.0,,0.0,1212.95,0.0,0.34677856700000004,1.0,0.69057175,0.0,0.6822438540000001,0.0,0.477292237,True,,5d192aef6be726001a39d2f3,,1177145,77,,evan-feature22,full_rf_b,,1
53,38801,78,,,,2,2,1.0,1.0,0.0,1.0,,0.0-80.0,,1.0,2089.93,1.0,0.28580469199999997,1.0,0.68408818,1.0,0.684207565,1.0,0.49780448299999996,True,,5d192aef6be726001a39d2f3,,1189050,78,,evan-feature22,full_rf_b,,0
54,38803,80,,,,1,1,0.0,0.0,0.0,1.0,,0.0-82.0,,0.0,3004.82,0.0,0.25,0.0,0.7405808970000001,0.0,0.679614108,0.0,0.436436964,True,,5d192aef6be726001a39d2f3,,1205557,80,,evan-feature22,full_rf_b,,1
55,38804,81,,,,1,1,0.0,1.0,0.0,1.0,,0.0-83.0,,1.0,2720.94,0.0,0.29890393,1.0,0.730505706,1.0,0.7328203320000001,1.0,0.439256938,True,,5d192aef6be726001a39d2f3,,1218084,81,,evan-feature22,full_rf_b,,0
56,38805,82,,,,1,1,1.0,1.0,-1.0,0.0,,0.0-84.0,,-1.0,2373.655,1.0,0.326762398,1.0,0.7148059609999999,1.0,0.75,0.0,0.44389608799999997,True,,5d192aef6be726001a39d2f3,,1230272,82,,evan-feature22,full_rf_b,,0
57,38806,83,,,,2,2,1.0,1.0,0.0,1.0,,0.0-85.0,,1.0,1236.215,1.0,0.295168515,1.0,0.739760854,1.0,0.719947008,1.0,0.35277284600000003,True,,5d192aef6be726001a39d2f3,,1241327,83,,evan-feature22,full_rf_b,,1
58,38807,84,,,,2,2,1.0,1.0,0.0,1.0,,0.0-86.0,,1.0,514.515,1.0,0.25,1.0,0.70781482,1.0,0.75,1.0,0.286095925,True,,5d192aef6be726001a39d2f3,,1251642,84,,evan-feature22,full_rf_b,,0
59,38808,85,,,,2,2,1.0,1.0,0.0,1.0,,0.0-87.0,,1.0,1668.06,0.0,0.25638190899999996,1.0,0.704088163,1.0,0.75,1.0,0.26872601399999996,True,,5d192aef6be726001a39d2f3,,1263102,85,,evan-feature22,full_rf_b,,0
60,38809,86,,,,2,2,1.0,1.0,-1.0,0.0,,0.0-88.0,,-1.0,2200.225,0.0,0.271581126,1.0,0.669760107,1.0,0.733896663,1.0,0.273244572,True,,5d192aef6be726001a39d2f3,,1275114,86,,evan-feature22,full_rf_b,,0
61,38810,87,,,,1,1,0.0,1.0,0.0,1.0,,0.0-89.0,,1.0,1607.12,0.0,0.257144401,1.0,0.600575706,1.0,0.74488122,0.0,0.25,True,,5d192aef6be726001a39d2f3,,1286544,87,,evan-feature22,full_rf_b,,1
62,38811,88,,,,1,1,1.0,1.0,0.0,1.0,,0.0-90.0,,1.0,816.57,1.0,0.25,1.0,0.616870026,1.0,0.723610234,0.0,0.25,True,,5d192aef6be726001a39d2f3,,1297170,88,,evan-feature22,full_rf_b,,0
63,38812,89,,,,1,1,1.0,1.0,-1.0,0.0,,0.0-91.0,,-1.0,3161.59,1.0,0.25,1.0,0.583540187,0.0,0.7041042559999999,0.0,0.285961995,True,,5d192aef6be726001a39d2f3,,1310146,89,,evan-feature22,full_rf_b,,0
64,38813,90,,,,1,1,0.0,1.0,-1.0,0.0,,0.0-92.0,,0.0,2221.105,0.0,0.27254536,1.0,0.53875765,1.0,0.693783448,0.0,0.284961652,True,,5d192aef6be726001a39d2f3,,1322177,90,,evan-feature22,full_rf_b,,0
65,38814,91,,,,1,1,0.0,1.0,-1.0,0.0,,0.0-93.0,,0.0,2322.335,0.0,0.25,1.0,0.548431252,1.0,0.734221895,1.0,0.279445214,True,,5d192aef6be726001a39d2f3,,1334291,91,,evan-feature22,full_rf_b,,0
66,38815,92,,,,2,2,0.0,1.0,0.0,1.0,,0.0-94.0,,1.0,1892.125,1.0,0.258640684,1.0,0.545878066,0.0,0.725245965,1.0,0.31487537,True,,5d192aef6be726001a39d2f3,,1345984,92,,evan-feature22,full_rf_b,,1
67,38816,93,,,,2,2,1.0,0.0,0.0,1.0,,0.0-95.0,,0.0,1555.475,0.0,0.251103711,1.0,0.5776290629999999,1.0,0.696320133,0.0,0.317831047,True,,5d192aef6be726001a39d2f3,,1357331,93,,evan-feature22,full_rf_b,,0
68,38817,94,,,,1,1,0.0,0.0,0.0,1.0,,0.0-96.0,,0.0,2218.765,0.0,0.276630292,0.0,0.617329858,1.0,0.73838088,0.0,0.261471582,True,,5d192aef6be726001a39d2f3,,1369350,94,,evan-feature22,full_rf_b,,1
69,38818,95,,,,1,1,1.0,1.0,0.0,1.0,,0.0-97.0,,1.0,2147.98,1.0,0.297716424,1.0,0.618863717,1.0,0.7402358259999999,1.0,0.262600834,True,,5d192aef6be726001a39d2f3,,1381322,95,,evan-feature22,full_rf_b,,0
70,38819,96,,,,1,1,1.0,0.0,-1.0,0.0,,0.0-98.0,,-1.0,1250.215,1.0,0.290935512,0.0,0.695370945,1.0,0.706570507,1.0,0.280030553,True,,5d192aef6be726001a39d2f3,,1392395,96,,evan-feature22,full_rf_b,,0
71,38820,97,,,,2,2,1.0,0.0,0.0,1.0,,0.0-99.0,,0.0,1035.84,0.0,0.25,0.0,0.6465277079999999,1.0,0.67766682,0.0,0.25,True,,5d192aef6be726001a39d2f3,,1403253,97,,evan-feature22,full_rf_b,,1
72,38821,98,,,,2,2,1.0,1.0,-1.0,0.0,,0.0-100.0,,-1.0,2394.06,0.0,0.26463816,0.0,0.636100213,1.0,0.646048507,1.0,0.265607101,True,,5d192aef6be726001a39d2f3,,1415452,98,,evan-feature22,full_rf_b,,0
73,38822,99,,,,1,1,0.0,1.0,-1.0,0.0,,0.0-101.0,,0.0,1439.31,0.0,0.314340707,1.0,0.667795927,0.0,0.613630805,0.0,0.25,True,,5d192aef6be726001a39d2f3,,1426742,99,,evan-feature22,full_rf_b,,1
74,38823,100,,,,2,2,1.0,0.0,0.0,1.0,,0.0-102.0,,0.0,1269.715,1.0,0.28685784,1.0,0.6622549529999999,1.0,0.652154117,0.0,0.25,True,,5d192aef6be726001a39d2f3,,1437815,100,,evan-feature22,full_rf_b,,1
75,38824,101,,,,2,2,1.0,0.0,0.0,1.0,,0.0-103.0,,0.0,2074.295,1.0,0.304106554,1.0,0.631289538,1.0,0.707041942,0.0,0.29314237,True,,5d192aef6be726001a39d2f3,,1449712,101,,evan-feature22,full_rf_b,,0
76,38825,102,,,,1,1,0.0,1.0,0.0,1.0,,0.0-104.0,,1.0,1421.025,0.0,0.304806932,1.0,0.571167718,0.0,0.680472346,1.0,0.25,True,,5d192aef6be726001a39d2f3,,1460945,102,,evan-feature22,full_rf_b,,1
77,38826,103,,,,2,2,0.0,1.0,0.0,1.0,,0.0-105.0,,1.0,2406.74,0.0,0.37919861,1.0,0.5724849710000001,0.0,0.705638003,1.0,0.30179300600000003,True,,5d192aef6be726001a39d2f3,,1473172,103,,evan-feature22,full_rf_b,,1
78,38827,104,,,,1,1,0.0,1.0,0.0,1.0,,0.0-106.0,,1.0,2588.88,0.0,0.464277969,1.0,0.554034373,1.0,0.7372627340000001,1.0,0.264699741,True,,5d192aef6be726001a39d2f3,,1485551,104,,evan-feature22,full_rf_b,,1
79,38828,105,,,,1,1,0.0,1.0,0.0,1.0,,0.0-107.0,,1.0,2094.27,0.0,0.465104323,1.0,0.530793115,1.0,0.75,1.0,0.31683071,True,,5d192aef6be726001a39d2f3,,1497457,105,,evan-feature22,full_rf_b,,0
80,38829,106,,,,1,1,0.0,0.0,-1.0,0.0,,0.0-108.0,,0.0,2382.69,0.0,0.465104323,0.0,0.530793115,1.0,0.75,0.0,0.31683071,True,,5d192aef6be726001a39d2f3,,1509644,106,,evan-feature22,full_rf_b,,0
81,38830,107,,,,1,1,0.0,0.0,-1.0,0.0,,0.0-109.0,,0.0,2159.065,0.0,0.46833986,0.0,0.570249239,1.0,0.7244472590000001,1.0,0.364114163,True,,5d192aef6be726001a39d2f3,,1521607,107,,evan-feature22,full_rf_b,,0
82,38831,108,,,,1,1,0.0,1.0,-1.0,0.0,,0.0-110.0,,0.0,1579.46,0.0,0.445444024,1.0,0.649673355,0.0,0.6845441290000001,0.0,0.300660449,True,,5d192aef6be726001a39d2f3,,1533002,108,,evan-feature22,full_rf_b,,0
83,38832,109,,,,2,2,1.0,0.0,-1.0,0.0,,0.0-111.0,,-1.0,2366.455,0.0,0.39909721299999995,1.0,0.6715179509999999,1.0,0.742310028,0.0,0.35496088299999995,True,,5d192aef6be726001a39d2f3,,1545179,109,,evan-feature22,full_rf_b,,1
84,38833,110,,,,1,1,1.0,0.0,0.0,1.0,,0.0-112.0,,0.0,2492.865,1.0,0.37956104799999996,0.0,0.694725302,1.0,0.7181651309999999,0.0,0.38726906299999997,True,,5d192aef6be726001a39d2f3,,1557494,110,,evan-feature22,full_rf_b,,1
85,38834,111,,,,1,1,0.0,0.0,0.0,1.0,,0.0-113.0,,0.0,2647.995,0.0,0.404995034,0.0,0.724375412,1.0,0.6910946859999999,1.0,0.387187347,True,,5d192aef6be726001a39d2f3,,1569956,111,,evan-feature22,full_rf_b,,0
86,38835,112,,,,2,2,1.0,0.0,-1.0,0.0,,0.0-114.0,,-1.0,1384.8,1.0,0.461740803,1.0,0.75,1.0,0.75,0.0,0.34872038200000005,True,,5d192aef6be726001a39d2f3,,1581148,112,,evan-feature22,full_rf_b,,1
87,38836,113,,,,1,1,1.0,1.0,-1.0,0.0,,0.0-115.0,,-1.0,1553.595,1.0,0.43821380600000004,1.0,0.738833273,1.0,0.728286963,0.0,0.399538128,True,,5d192aef6be726001a39d2f3,,1592545,113,,evan-feature22,full_rf_b,,1
88,38837,114,,,,2,2,0.0,0.0,0.0,1.0,,0.0-116.0,,0.0,2340.59,0.0,0.41709882,1.0,0.736666736,0.0,0.75,0.0,0.389095584,True,,5d192aef6be726001a39d2f3,,1604683,114,,evan-feature22,full_rf_b,,1
89,38838,115,,,,1,1,0.0,1.0,0.0,1.0,,0.0-117.0,,1.0,1405.845,0.0,0.39749009799999996,1.0,0.744320029,1.0,0.75,1.0,0.363848678,True,,5d192aef6be726001a39d2f3,,1615900,115,,evan-feature22,full_rf_b,,1
90,38839,116,,,,1,1,1.0,1.0,-1.0,0.0,,0.0-118.0,,-1.0,3668.265,1.0,0.392653706,1.0,0.75,1.0,0.75,1.0,0.384386976,True,,5d192aef6be726001a39d2f3,,1629397,116,,evan-feature22,full_rf_b,,0
91,38840,117,,,,1,1,0.0,0.0,0.0,1.0,,0.0-119.0,,0.0,1809.09,0.0,0.31190902600000003,0.0,0.75,1.0,0.732413819,1.0,0.413082932,True,,5d192aef6be726001a39d2f3,,1641017,117,,evan-feature22,full_rf_b,,0
92,38841,118,,,,1,1,0.0,0.0,-1.0,0.0,,0.0-120.0,,0.0,2150.405,0.0,0.366917648,0.0,0.740073855,1.0,0.75,0.0,0.352861979,True,,5d192aef6be726001a39d2f3,,1652982,118,,evan-feature22,full_rf_b,,0
93,38842,119,,,,1,1,1.0,0.0,-1.0,0.0,,0.0-121.0,,-1.0,2778.44,1.0,0.3645172,0.0,0.721770713,1.0,0.75,0.0,0.404074511,True,,5d192aef6be726001a39d2f3,,1665565,119,,evan-feature22,full_rf_b,,0
94,38843,120,,,,2,2,1.0,0.0,-1.0,0.0,,0.0-122.0,,-1.0,1779.73,0.0,0.35205600299999995,0.0,0.68983859,1.0,0.739735447,0.0,0.366895945,True,,5d192aef6be726001a39d2f3,,1677157,120,,evan-feature22,full_rf_b,,1
95,38844,121,,,,1,1,1.0,0.0,-1.0,0.0,,0.0-123.0,,-1.0,2543.36,1.0,0.40998722600000004,0.0,0.720859127,0.0,0.673854955,0.0,0.368528541,True,,5d192aef6be726001a39d2f3,,1689523,121,,evan-feature22,full_rf_b,,1
96,38845,122,,,,2,2,1.0,0.0,-1.0,0.0,,0.0-124.0,,-1.0,830.4549999,0.0,0.353625316,1.0,0.75,1.0,0.695605473,0.0,0.38303674200000004,True,,5d192aef6be726001a39d2f3,,1700162,122,,evan-feature22,full_rf_b,,1
97,38846,123,,,,2,2,1.0,1.0,-1.0,0.0,,0.0-125.0,,-1.0,1366.045,0.0,0.359216989,1.0,0.75,1.0,0.6987915090000001,1.0,0.35169046200000004,True,,5d192aef6be726001a39d2f3,,1711342,123,,evan-feature22,full_rf_b,,0
98,38847,124,,,,1,1,0.0,1.0,-1.0,0.0,,0.0-126.0,,0.0,972.655,0.0,0.35834496899999996,1.0,0.75,1.0,0.707067742,1.0,0.416763636,True,,5d192aef6be726001a39d2f3,,1722134,124,,evan-feature22,full_rf_b,,1
99,38848,125,,,,1,1,0.0,1.0,0.0,1.0,,0.0-127.0,,1.0,1489.97,0.0,0.38741613799999997,1.0,0.7177369570000001,1.0,0.734902455,0.0,0.49438664299999996,True,,5d192aef6be726001a39d2f3,,1733415,125,,evan-feature22,full_rf_b,,0
100,38849,126,,,,1,1,0.0,0.0,-1.0,0.0,,0.0-128.0,,0.0,2859.345,0.0,0.405255252,0.0,0.7300466640000001,0.0,0.7027748070000001,1.0,0.504359668,True,,5d192aef6be726001a39d2f3,,1746065,126,,evan-feature22,full_rf_b,,0
101,38850,127,,,,1,1,1.0,1.0,-1.0,0.0,,0.0-129.0,,-1.0,2700.115,1.0,0.40697073,1.0,0.7260142190000001,0.0,0.724461982,1.0,0.522779179,True,,5d192aef6be726001a39d2f3,,1758573,127,,evan-feature22,full_rf_b,,0
102,38851,128,,,,2,2,0.0,1.0,-1.0,0.0,,0.0-130.0,,0.0,2207.77,0.0,0.43906215299999996,0.0,0.7252802340000001,0.0,0.719079934,1.0,0.5712990579999999,True,,5d192aef6be726001a39d2f3,,1770596,128,,evan-feature22,full_rf_b,,1
103,38852,129,,,,1,1,0.0,1.0,0.0,1.0,,0.0-131.0,,1.0,2841.14,0.0,0.4076705,1.0,0.73280499,1.0,0.681313127,1.0,0.523891346,True,,5d192aef6be726001a39d2f3,,1783247,129,,evan-feature22,full_rf_b,,1
104,38853,130,,,,1,1,0.0,1.0,0.0,1.0,,0.0-132.0,,1.0,2324.78,0.0,0.399102911,1.0,0.730498344,1.0,0.661080239,1.0,0.46742603,True,,5d192aef6be726001a39d2f3,,1795380,130,,evan-feature22,full_rf_b,,0
105,38854,131,,,,1,1,0.0,1.0,0.0,1.0,,0.0-133.0,,1.0,1196.785,0.0,0.356477282,1.0,0.712296395,1.0,0.641812684,0.0,0.44868414,True,,5d192aef6be726001a39d2f3,,1806381,131,,evan-feature22,full_rf_b,,0
106,38855,132,,,,1,1,1.0,0.0,-1.0,0.0,,0.0-134.0,,-1.0,2240.89,1.0,0.462760722,0.0,0.692349322,1.0,0.700947931,0.0,0.394680266,True,,5d192aef6be726001a39d2f3,,1818431,132,,evan-feature22,full_rf_b,,0
107,38856,133,,,,1,1,0.0,0.0,-1.0,0.0,,0.0-135.0,,0.0,2612.1,0.0,0.422306413,0.0,0.718375916,0.0,0.706340917,1.0,0.367787185,True,,5d192aef6be726001a39d2f3,,1830875,133,,evan-feature22,full_rf_b,,0
108,38858,135,,,,1,1,0.0,0.0,-1.0,0.0,,0.0-137.0,,0.0,2663.195,0.0,0.4582233,0.0,0.643834117,1.0,0.75,1.0,0.39615823299999997,True,,5d192aef6be726001a39d2f3,,1846705,135,,evan-feature22,full_rf_b,,0
109,38859,136,,,,1,1,0.0,1.0,-1.0,0.0,,0.0-138.0,,0.0,3142.605,0.0,0.43813437899999996,1.0,0.651283804,0.0,0.729674191,0.0,0.37711048,True,,5d192aef6be726001a39d2f3,,1859654,136,,evan-feature22,full_rf_b,,0
110,38860,137,,,,1,1,0.0,1.0,-1.0,0.0,,0.0-139.0,,0.0,1516.69,0.0,0.471199094,1.0,0.6470010979999999,1.0,0.715008097,0.0,0.410656191,True,,5d192aef6be726001a39d2f3,,1870968,137,,evan-feature22,full_rf_b,,0
111,38861,138,,,,2,2,0.0,0.0,-1.0,0.0,,0.0-140.0,,0.0,2535.19,0.0,0.42486406,0.0,0.629771829,0.0,0.6550939960000001,0.0,0.459093873,True,,5d192aef6be726001a39d2f3,,1883311,138,,evan-feature22,full_rf_b,,1
112,38862,139,,,,1,1,1.0,1.0,-1.0,0.0,,0.0-141.0,,-1.0,2809.655,1.0,0.4803197,1.0,0.645842715,1.0,0.6421749920000001,0.0,0.443092151,True,,5d192aef6be726001a39d2f3,,1895936,139,,evan-feature22,full_rf_b,,1
113,38863,140,,,,1,1,0.0,1.0,0.0,1.0,,0.0-142.0,,1.0,2581.515,0.0,0.521848997,1.0,0.735801074,1.0,0.6691348460000001,1.0,0.45259351600000003,True,,5d192aef6be726001a39d2f3,,1908333,140,,evan-feature22,full_rf_b,,0
114,38864,141,,,,1,1,1.0,1.0,-1.0,0.0,,0.0-143.0,,-1.0,2010.65,1.0,0.49565621299999996,1.0,0.742400847,1.0,0.661512553,0.0,0.483110831,True,,5d192aef6be726001a39d2f3,,1920180,141,,evan-feature22,full_rf_b,,0
115,38865,142,,,,1,1,0.0,1.0,-1.0,0.0,,0.0-144.0,,0.0,3015.51,0.0,0.521564361,1.0,0.731078632,0.0,0.6774886809999999,1.0,0.483263956,True,,5d192aef6be726001a39d2f3,,1933000,142,,evan-feature22,full_rf_b,,0
116,38866,143,,,,1,1,0.0,1.0,-1.0,0.0,,0.0-145.0,,0.0,2116.535,0.0,0.558893102,1.0,0.719810023,0.0,0.67461031,0.0,0.499349834,True,,5d192aef6be726001a39d2f3,,1944918,143,,evan-feature22,full_rf_b,,0
117,38867,144,,,,2,2,1.0,1.0,-1.0,0.0,,0.0-146.0,,-1.0,1760.66,1.0,0.611031046,1.0,0.75,1.0,0.688072995,1.0,0.5321422729999999,True,,5d192aef6be726001a39d2f3,,1956483,144,,evan-feature22,full_rf_b,,1
118,38868,145,,,,1,1,0.0,0.0,0.0,1.0,,0.0-147.0,,0.0,1882.57,0.0,0.633223941,0.0,0.713567728,0.0,0.75,0.0,0.48185314700000004,True,,5d192aef6be726001a39d2f3,,1968189,145,,evan-feature22,full_rf_b,,1
119,38869,146,,,,1,1,1.0,0.0,-1.0,0.0,,0.0-148.0,,-1.0,1702.855,1.0,0.664001694,0.0,0.705509768,0.0,0.75,0.0,0.500211065,True,,5d192aef6be726001a39d2f3,,1979714,146,,evan-feature22,full_rf_b,,0
120,38870,147,,,,1,1,1.0,1.0,-1.0,0.0,,0.0-149.0,,-1.0,2201.085,1.0,0.664001694,1.0,0.705509768,1.0,0.75,1.0,0.500211065,True,,5d192aef6be726001a39d2f3,,1991760,147,,evan-feature22,full_rf_b,,0
121,38871,148,,,,2,2,1.0,0.0,-1.0,0.0,,0.0-150.0,,-1.0,928.8,1.0,0.696508041,0.0,0.71066027,1.0,0.717028709,0.0,0.49792991,True,,5d192aef6be726001a39d2f3,,2002495,148,,evan-feature22,full_rf_b,,1
122,38872,149,,,,1,1,1.0,1.0,0.0,1.0,,0.0-151.0,,1.0,1971.755,1.0,0.699883272,1.0,0.75,1.0,0.713543895,0.0,0.496962643,True,,5d192aef6be726001a39d2f3,,2014288,149,,evan-feature22,full_rf_b,,1
123,38873,150,,,,1,1,1.0,1.0,0.0,1.0,,0.0-152.0,,1.0,2229.565,1.0,0.741163419,1.0,0.75,0.0,0.64691024,1.0,0.513858197,True,,5d192aef6be726001a39d2f3,,2026349,150,,evan-feature22,full_rf_b,,0
124,38874,151,,,,2,2,1.0,0.0,0.0,1.0,,0.0-153.0,,0.0,2826.715,1.0,0.75,1.0,0.70816558,1.0,0.594499079,0.0,0.48502124,True,,5d192aef6be726001a39d2f3,,2038998,151,,evan-feature22,full_rf_b,,1
125,38875,152,,,,1,1,0.0,1.0,-1.0,0.0,,0.0-154.0,,0.0,2256.85,0.0,0.75,1.0,0.721848901,0.0,0.62197249,0.0,0.48263586399999997,True,,5d192aef6be726001a39d2f3,,2051043,152,,evan-feature22,full_rf_b,,1
126,38876,153,,,,1,1,0.0,1.0,-1.0,0.0,,0.0-155.0,,0.0,2094.205,0.0,0.75,1.0,0.74813071,0.0,0.584357161,0.0,0.411477782,True,,5d192aef6be726001a39d2f3,,2062952,153,,evan-feature22,full_rf_b,,0
127,38877,154,,,,2,2,0.0,1.0,-1.0,0.0,,0.0-156.0,,0.0,1626.84,1.0,0.75,0.0,0.75,0.0,0.52287236,1.0,0.488290656,True,,5d192aef6be726001a39d2f3,,2074397,154,,evan-feature22,full_rf_b,,1
128,38878,155,,,,2,2,1.0,1.0,-1.0,0.0,,0.0-157.0,,-1.0,2340.8,1.0,0.75,0.0,0.75,1.0,0.544321581,1.0,0.53143059,True,,5d192aef6be726001a39d2f3,,2086555,155,,evan-feature22,full_rf_b,,0
129,38879,156,,,,1,1,1.0,1.0,-1.0,0.0,,0.0-158.0,,-1.0,1826.145,1.0,0.726754564,1.0,0.75,1.0,0.5129306370000001,1.0,0.530592445,True,,5d192aef6be726001a39d2f3,,2098189,156,,evan-feature22,full_rf_b,,1
130,38880,157,,,,1,1,1.0,1.0,0.0,1.0,,0.0-159.0,,1.0,1626.12,1.0,0.75,1.0,0.7392590729999999,1.0,0.479875835,1.0,0.547007051,True,,5d192aef6be726001a39d2f3,,2109618,157,,evan-feature22,full_rf_b,,0
131,38881,158,,,,2,2,0.0,1.0,0.0,1.0,,0.0-160.0,,1.0,3154.095,0.0,0.75,1.0,0.7393376979999999,0.0,0.546045419,1.0,0.541267353,True,,5d192aef6be726001a39d2f3,,2122596,158,,evan-feature22,full_rf_b,,1
132,38882,159,,,,1,1,1.0,0.0,-1.0,0.0,,0.0-161.0,,-1.0,2889.63,1.0,0.75,0.0,0.75,0.0,0.485725895,1.0,0.527625395,True,,5d192aef6be726001a39d2f3,,2135306,159,,evan-feature22,full_rf_b,,1
133,38883,160,,,,2,2,1.0,0.0,0.0,1.0,,0.0-162.0,,0.0,761.42,1.0,0.75,0.0,0.725087974,1.0,0.488603595,0.0,0.504019206,True,,5d192aef6be726001a39d2f3,,2145894,160,,evan-feature22,full_rf_b,,1
134,38884,161,,,,1,1,1.0,1.0,-1.0,0.0,,0.0-163.0,,-1.0,2152.7,1.0,0.745504295,1.0,0.75,0.0,0.452379914,1.0,0.50131194,True,,5d192aef6be726001a39d2f3,,2157848,161,,evan-feature22,full_rf_b,,1
135,38885,162,,,,2,2,0.0,1.0,0.0,1.0,,0.0-164.0,,1.0,2936.545,1.0,0.728513874,1.0,0.75,0.0,0.44125567200000004,1.0,0.531454591,True,,5d192aef6be726001a39d2f3,,2170592,162,,evan-feature22,full_rf_b,,1
136,38886,163,,,,2,2,0.0,1.0,-1.0,0.0,,0.0-165.0,,0.0,1073.945,0.0,0.73790804,1.0,0.75,0.0,0.413036656,1.0,0.524619035,True,,5d192aef6be726001a39d2f3,,2181462,163,,evan-feature22,full_rf_b,,0
137,38887,164,,,,1,1,0.0,0.0,-1.0,0.0,,0.0-166.0,,0.0,2554.175,0.0,0.7080961309999999,0.0,0.708666865,0.0,0.431915581,0.0,0.481819489,True,,5d192aef6be726001a39d2f3,,2193830,164,,evan-feature22,full_rf_b,,1
138,38888,165,,,,1,1,0.0,1.0,-1.0,0.0,,0.0-167.0,,0.0,1957.69,0.0,0.721378003,1.0,0.71605913,0.0,0.36642387,1.0,0.5036739929999999,True,,5d192aef6be726001a39d2f3,,2205617,165,,evan-feature22,full_rf_b,,0
139,38889,166,,,,1,1,1.0,1.0,0.0,1.0,,0.0-168.0,,1.0,2863.195,1.0,0.7340618959999999,1.0,0.699323252,1.0,0.35298046299999997,0.0,0.511241692,True,,5d192aef6be726001a39d2f3,,2218292,166,,evan-feature22,full_rf_b,,0
140,38890,167,,,,1,1,1.0,0.0,0.0,1.0,,0.0-169.0,,0.0,3060.565,1.0,0.75,0.0,0.70412698,0.0,0.380734814,1.0,0.529580116,True,,5d192aef6be726001a39d2f3,,2231170,167,,evan-feature22,full_rf_b,,0
141,38891,168,,,,1,1,1.0,0.0,0.0,1.0,,0.0-170.0,,0.0,568.14,1.0,0.7436654909999999,0.0,0.711182751,0.0,0.41125331,1.0,0.49554405,True,,5d192aef6be726001a39d2f3,,2241560,168,,evan-feature22,full_rf_b,,0
142,38892,169,,,,1,1,1.0,1.0,-1.0,0.0,,0.0-171.0,,-1.0,3241.58,1.0,0.731607915,1.0,0.651774583,1.0,0.35688023,1.0,0.45194491600000003,True,,5d192aef6be726001a39d2f3,,2254635,169,,evan-feature22,full_rf_b,,0
143,38893,170,,,,2,2,0.0,0.0,0.0,1.0,,0.0-172.0,,0.0,2667.47,1.0,0.75,1.0,0.75,0.0,0.283145374,0.0,0.528608005,True,,5d192aef6be726001a39d2f3,,2267102,170,,evan-feature22,full_rf_b,,1
144,38894,171,,,,1,1,1.0,1.0,-1.0,0.0,,0.0-173.0,,-1.0,1798.235,1.0,0.7491416890000001,1.0,0.7423785959999999,0.0,0.29135870399999997,1.0,0.498888318,True,,5d192aef6be726001a39d2f3,,2278715,171,,evan-feature22,full_rf_b,,1
145,38895,172,,,,1,1,1.0,0.0,0.0,1.0,,0.0-174.0,,0.0,2116.68,1.0,0.708569387,0.0,0.717682277,0.0,0.294421699,0.0,0.493838163,True,,5d192aef6be726001a39d2f3,,2290610,172,,evan-feature22,full_rf_b,,0
146,38896,173,,,,1,1,1.0,1.0,-1.0,0.0,,0.0-175.0,,-1.0,1720.665,1.0,0.75,1.0,0.7383382159999999,0.0,0.356098707,1.0,0.442533405,True,,5d192aef6be726001a39d2f3,,2302162,173,,evan-feature22,full_rf_b,,0
147,38897,174,,,,2,2,0.0,0.0,-1.0,0.0,,0.0-176.0,,0.0,693.57,0.0,0.744527075,1.0,0.75,0.0,0.334127506,0.0,0.393165805,True,,5d192aef6be726001a39d2f3,,2312649,174,,evan-feature22,full_rf_b,,1
148,38898,175,,,,2,2,0.0,1.0,-1.0,0.0,,0.0-177.0,,0.0,410.03,1.0,0.75,1.0,0.75,0.0,0.33571021799999995,1.0,0.350393962,True,,5d192aef6be726001a39d2f3,,2322883,175,,evan-feature22,full_rf_b,,0
149,38899,176,,,,2,2,0.0,1.0,0.0,1.0,,0.0-178.0,,1.0,705.3350001,1.0,0.75,1.0,0.75,0.0,0.313628297,1.0,0.36349657399999996,True,,5d192aef6be726001a39d2f3,,2333380,176,,evan-feature22,full_rf_b,,0
150,38900,177,,,,1,1,0.0,0.0,-1.0,0.0,,0.0-179.0,,0.0,1818.125,0.0,0.75,0.0,0.734284182,0.0,0.262667667,1.0,0.380199119,True,,5d192aef6be726001a39d2f3,,2345011,177,,evan-feature22,full_rf_b,,1
151,38901,178,,,,1,1,1.0,1.0,-1.0,0.0,,0.0-180.0,,-1.0,2740.74,1.0,0.75,1.0,0.75,0.0,0.25,0.0,0.394494013,True,,5d192aef6be726001a39d2f3,,2357575,178,,evan-feature22,full_rf_b,,0
152,38902,179,,,,1,1,1.0,1.0,-1.0,0.0,,0.0-181.0,,-1.0,3259.33,1.0,0.722298145,1.0,0.7357822340000001,0.0,0.25,0.0,0.319142121,True,,5d192aef6be726001a39d2f3,,2370637,179,,evan-feature22,full_rf_b,,0
153,38903,180,,,,1,1,1.0,1.0,-1.0,0.0,,0.0-182.0,,-1.0,3143.16,1.0,0.73149275,1.0,0.724276446,1.0,0.305856907,0.0,0.281315057,True,,5d192aef6be726001a39d2f3,,2383606,180,,evan-feature22,full_rf_b,,0
154,38904,181,,,,2,2,0.0,0.0,-1.0,0.0,,0.0-183.0,,0.0,484.4000001,1.0,0.7458732690000001,1.0,0.7336382459999999,0.0,0.272571964,0.0,0.266021999,True,,5d192aef6be726001a39d2f3,,2393910,181,,evan-feature22,full_rf_b,,1
155,38905,182,,,,2,2,0.0,0.0,0.0,1.0,,0.0-184.0,,0.0,504.05,1.0,0.705579037,0.0,0.720778292,0.0,0.320238144,0.0,0.30971744,True,,5d192aef6be726001a39d2f3,,2404238,182,,evan-feature22,full_rf_b,,0
156,38906,183,,,,2,2,1.0,1.0,0.0,1.0,,0.0-185.0,,1.0,903.935,1.0,0.700425648,1.0,0.7198784009999999,1.0,0.272590393,1.0,0.304182931,True,,5d192aef6be726001a39d2f3,,2414962,183,,evan-feature22,full_rf_b,,0
157,38907,184,,,,2,2,0.0,0.0,0.0,1.0,,0.0-186.0,,0.0,1038.185,1.0,0.735590785,1.0,0.722714973,0.0,0.25,0.0,0.323421091,True,,5d192aef6be726001a39d2f3,,2425796,184,,evan-feature22,full_rf_b,,0
158,38908,185,,,,2,2,1.0,1.0,0.0,1.0,,0.0-187.0,,1.0,525.0649999,1.0,0.724807662,1.0,0.63146213,1.0,0.36836492600000004,1.0,0.34592153299999995,True,,5d192aef6be726001a39d2f3,,2436126,185,,evan-feature22,full_rf_b,,0
159,38909,186,,,,1,1,1.0,0.0,-1.0,0.0,,0.0-188.0,,-1.0,1119.115,1.0,0.7352796909999999,0.0,0.555111392,0.0,0.36003922,0.0,0.31433779999999995,True,,5d192aef6be726001a39d2f3,,2447055,186,,evan-feature22,full_rf_b,,1
160,38910,187,notice,,,,,,,,,,0.0-189.0,"{""Q0"":""No""}",,11963.0,,,,,,,,,True,,5d192aef6be726001a39d2f3,,2459021,187,Q,survey-text,full_rf_b,,1
161,38911,188,track1,,[1],,,,,,,,0.0-190.0,"{""Q0"":""no""}",,5198.0,,,,,,,,,True,,5d192aef6be726001a39d2f3,,2464221,188,Q,evan-quiz,full_rf_b,,1
162,38912,189,track2,,[2],,,,,,,,0.0-191.0,"{""Q0"":""N/A""}",,6767.0,,,,,,,,,True,,5d192aef6be726001a39d2f3,,2470989,189,Q,evan-quiz,full_rf_b,,1
163,38913,190,strat,,,,,,,,,,0.0-192.0,"{""Q0"":""Not really""}",,38957.0,,,,,,,,,True,,5d192aef6be726001a39d2f3,,2509949,190,Q,survey-text,full_rf_b,,1
