,index,Unnamed: 0,Q_name,button_pressed,choice_idxs,chosen_pos,chosen_state,chosen_state_f_1_outcome,chosen_state_f_2_outcome,f_1_reward,f_2_reward,incor_questions,internal_node_id,responses,reward_received,rt,s_1_f_1_outcome,s_1_f_1_prob,s_1_f_2_outcome,s_1_f_2_prob,s_2_f_1_outcome,s_2_f_1_prob,s_2_f_2_outcome,s_2_f_2_prob,safe_first,stimulus,subjectID,success,time_elapsed,trial_index,trial_num,trial_type,version,view_history,switching
0,15567,35,,,,1,1,1.0,0.0,1.0,0.0,,0.0-27.0,,1.0,3555.015,1.0,0.6,0.0,0.6,0.0,0.4,1.0,0.4,True,,5f5a4e1f3778490d3e6d1652,,1403627,35,,evan-feature22,full_rf_a,,0
1,15568,36,,,,2,2,0.0,1.0,1.0,0.0,,0.0-28.0,,0.0,1829.72,1.0,0.608053294,1.0,0.63424552,0.0,0.397152172,1.0,0.347069101,True,,5f5a4e1f3778490d3e6d1652,,1415218,36,,evan-feature22,full_rf_a,,1
2,15569,37,,,,1,1,1.0,1.0,1.0,0.0,,0.0-29.0,,1.0,2607.765,1.0,0.642237155,1.0,0.648566321,1.0,0.389407674,0.0,0.285525717,True,,5f5a4e1f3778490d3e6d1652,,1427587,37,,evan-feature22,full_rf_a,,1
3,15570,38,,,,2,2,1.0,0.0,1.0,0.0,,0.0-30.0,,1.0,3761.35,1.0,0.661086576,0.0,0.630492543,1.0,0.399058924,0.0,0.25,True,,5f5a4e1f3778490d3e6d1652,,1441109,38,,evan-feature22,full_rf_a,,1
4,15571,39,,,,SLOW,SLOW,,,0.0,-1.0,,0.0-31.0,,-3.0,,0.0,0.631324137,0.0,0.6269842929999999,1.0,0.38734784299999997,0.0,0.25,True,,5f5a4e1f3778490d3e6d1652,,1446913,39,,evan-feature22,full_rf_a,,1
5,15572,40,,,,2,2,0.0,0.0,0.0,-1.0,,0.0-32.0,,0.0,1995.915,1.0,0.6381991370000001,1.0,0.68987999,0.0,0.384107265,0.0,0.271332943,True,,5f5a4e1f3778490d3e6d1652,,1458668,40,,evan-feature22,full_rf_a,,1
6,15573,41,,,,2,2,0.0,0.0,1.0,0.0,,0.0-33.0,,0.0,3520.775,1.0,0.66034901,1.0,0.742641349,0.0,0.360225629,0.0,0.25,True,,5f5a4e1f3778490d3e6d1652,,1471947,41,,evan-feature22,full_rf_a,,0
7,15574,42,,,,1,1,1.0,1.0,1.0,0.0,,0.0-34.0,,1.0,2378.155,1.0,0.638612418,1.0,0.75,1.0,0.367273939,0.0,0.25,True,,5f5a4e1f3778490d3e6d1652,,1484087,42,,evan-feature22,full_rf_a,,1
8,15575,43,,,,2,2,0.0,1.0,0.0,-1.0,,0.0-35.0,,-1.0,3188.375,0.0,0.624340629,1.0,0.75,0.0,0.425829545,1.0,0.25,True,,5f5a4e1f3778490d3e6d1652,,1497035,43,,evan-feature22,full_rf_a,,1
9,15576,44,,,,SLOW,SLOW,,,0.0,-1.0,,0.0-36.0,,-3.0,,1.0,0.621999804,1.0,0.75,0.0,0.368609357,1.0,0.25,True,,5f5a4e1f3778490d3e6d1652,,1502839,44,,evan-feature22,full_rf_a,,1
10,15577,45,,,,2,2,0.0,0.0,1.0,0.0,,0.0-37.0,,0.0,1070.66,0.0,0.62666403,1.0,0.75,0.0,0.311151498,0.0,0.25,True,,5f5a4e1f3778490d3e6d1652,,1513671,45,,evan-feature22,full_rf_a,,1
11,15578,46,,,,2,2,0.0,0.0,0.0,-1.0,,0.0-38.0,,0.0,1963.775,0.0,0.6819650009999999,1.0,0.75,0.0,0.310763048,0.0,0.25,True,,5f5a4e1f3778490d3e6d1652,,1525394,46,,evan-feature22,full_rf_a,,0
12,15579,47,,,,2,2,0.0,0.0,1.0,0.0,,0.0-39.0,,0.0,1991.67,1.0,0.740626951,0.0,0.75,0.0,0.25,0.0,0.25,True,,5f5a4e1f3778490d3e6d1652,,1537146,47,,evan-feature22,full_rf_a,,0
13,15580,48,,,,1,1,1.0,1.0,1.0,0.0,,0.0-40.0,,1.0,2278.035,1.0,0.739599242,1.0,0.742034978,0.0,0.25397114600000004,1.0,0.25,True,,5f5a4e1f3778490d3e6d1652,,1549187,48,,evan-feature22,full_rf_a,,1
14,15581,49,,,,1,1,1.0,0.0,1.0,0.0,,0.0-41.0,,1.0,1976.06,1.0,0.732341315,0.0,0.72735643,0.0,0.25,0.0,0.25,True,,5f5a4e1f3778490d3e6d1652,,1560922,49,,evan-feature22,full_rf_a,,0
15,15582,50,,,,1,1,0.0,1.0,1.0,0.0,,0.0-42.0,,0.0,2262.585,0.0,0.7062287770000001,1.0,0.75,0.0,0.29002151,0.0,0.288256649,True,,5f5a4e1f3778490d3e6d1652,,1572945,50,,evan-feature22,full_rf_a,,0
16,15583,51,,,,1,1,1.0,1.0,1.0,0.0,,0.0-43.0,,1.0,2178.165,1.0,0.7086029209999999,1.0,0.75,1.0,0.274129113,0.0,0.262851608,True,,5f5a4e1f3778490d3e6d1652,,1584885,51,,evan-feature22,full_rf_a,,0
17,15584,52,,,,2,2,0.0,0.0,1.0,0.0,,0.0-44.0,,0.0,2147.745,1.0,0.669189651,0.0,0.727614338,0.0,0.298444036,0.0,0.296944518,True,,5f5a4e1f3778490d3e6d1652,,1596792,52,,evan-feature22,full_rf_a,,1
18,15585,53,,,,1,1,1.0,1.0,1.0,0.0,,0.0-45.0,,1.0,1349.19,1.0,0.6819912929999999,1.0,0.7179434290000001,0.0,0.265003961,0.0,0.28157921199999997,True,,5f5a4e1f3778490d3e6d1652,,1607900,53,,evan-feature22,full_rf_a,,1
19,15586,54,,,,1,1,1.0,1.0,0.0,-1.0,,0.0-46.0,,-1.0,2437.86,1.0,0.665275002,1.0,0.723065271,0.0,0.260414971,0.0,0.30973870000000003,True,,5f5a4e1f3778490d3e6d1652,,1620097,54,,evan-feature22,full_rf_a,,0
20,15587,55,,,,1,1,1.0,1.0,1.0,0.0,,0.0-47.0,,1.0,2484.315,1.0,0.6660593260000001,1.0,0.728032907,0.0,0.30922817,1.0,0.338778608,True,,5f5a4e1f3778490d3e6d1652,,1632341,55,,evan-feature22,full_rf_a,,0
21,15588,56,,,,1,1,1.0,1.0,1.0,0.0,,0.0-48.0,,1.0,1965.175,1.0,0.702068785,1.0,0.6528750879999999,1.0,0.287329608,1.0,0.35789613200000003,True,,5f5a4e1f3778490d3e6d1652,,1644068,56,,evan-feature22,full_rf_a,,0
22,15589,57,,,,2,2,0.0,1.0,1.0,0.0,,0.0-49.0,,0.0,2084.1,1.0,0.651939787,1.0,0.636725589,0.0,0.284834488,1.0,0.358563756,True,,5f5a4e1f3778490d3e6d1652,,1655913,57,,evan-feature22,full_rf_a,,1
23,15590,58,,,,1,1,1.0,1.0,0.0,-1.0,,0.0-50.0,,-1.0,2697.455,1.0,0.67573929,1.0,0.612550049,1.0,0.37130387600000003,0.0,0.383542402,True,,5f5a4e1f3778490d3e6d1652,,1668369,58,,evan-feature22,full_rf_a,,1
24,15591,59,,,,2,2,1.0,1.0,0.0,-1.0,,0.0-51.0,,-1.0,1744.625,1.0,0.620753801,1.0,0.60513644,1.0,0.385529434,1.0,0.340361743,True,,5f5a4e1f3778490d3e6d1652,,1679876,59,,evan-feature22,full_rf_a,,1
25,15592,60,,,,1,1,1.0,1.0,0.0,-1.0,,0.0-52.0,,-1.0,2165.74,1.0,0.673564893,1.0,0.672437924,1.0,0.292955382,0.0,0.337633795,True,,5f5a4e1f3778490d3e6d1652,,1691802,60,,evan-feature22,full_rf_a,,1
26,15593,61,,,,2,2,1.0,0.0,1.0,0.0,,0.0-53.0,,1.0,1666.63,1.0,0.6749427,1.0,0.724197502,1.0,0.32391132100000003,0.0,0.350995264,True,,5f5a4e1f3778490d3e6d1652,,1703230,61,,evan-feature22,full_rf_a,,1
27,15594,62,,,,2,2,1.0,0.0,1.0,0.0,,0.0-54.0,,1.0,2314.605,1.0,0.6940159379999999,0.0,0.75,1.0,0.31710554399999996,0.0,0.413450341,True,,5f5a4e1f3778490d3e6d1652,,1715305,62,,evan-feature22,full_rf_a,,0
28,15595,63,,,,2,2,0.0,1.0,1.0,0.0,,0.0-55.0,,0.0,2330.57,0.0,0.6916018270000001,0.0,0.69001187,0.0,0.261817804,1.0,0.40038635,True,,5f5a4e1f3778490d3e6d1652,,1727397,63,,evan-feature22,full_rf_a,,0
29,15596,64,,,,1,1,1.0,0.0,1.0,0.0,,0.0-56.0,,1.0,2711.85,1.0,0.641061544,0.0,0.71337992,0.0,0.277296461,1.0,0.47372791700000005,True,,5f5a4e1f3778490d3e6d1652,,1739871,64,,evan-feature22,full_rf_a,,1
30,15597,65,,,,1,1,1.0,1.0,1.0,0.0,,0.0-57.0,,1.0,2008.88,1.0,0.6082438520000001,1.0,0.708471106,0.0,0.28745137,0.0,0.564174476,True,,5f5a4e1f3778490d3e6d1652,,1751643,65,,evan-feature22,full_rf_a,,0
31,15598,66,,,,1,1,1.0,0.0,1.0,0.0,,0.0-58.0,,1.0,2118.125,1.0,0.6051112120000001,0.0,0.7118147229999999,1.0,0.272390611,1.0,0.5595149939999999,True,,5f5a4e1f3778490d3e6d1652,,1763522,66,,evan-feature22,full_rf_a,,0
32,15599,67,,,,2,2,0.0,1.0,1.0,0.0,,0.0-59.0,,0.0,3511.6,0.0,0.582420852,1.0,0.635867583,0.0,0.31089574,1.0,0.5227206520000001,True,,5f5a4e1f3778490d3e6d1652,,1776793,67,,evan-feature22,full_rf_a,,1
33,15600,68,,,,1,1,0.0,0.0,0.0,-1.0,,0.0-60.0,,0.0,3032.255,0.0,0.623195575,0.0,0.655026044,0.0,0.25,1.0,0.560387538,True,,5f5a4e1f3778490d3e6d1652,,1789585,68,,evan-feature22,full_rf_a,,1
34,15601,69,,,,2,2,1.0,1.0,1.0,0.0,,0.0-61.0,,1.0,2663.55,0.0,0.601889598,1.0,0.678198724,1.0,0.25,1.0,0.559922936,True,,5f5a4e1f3778490d3e6d1652,,1802010,69,,evan-feature22,full_rf_a,,1
35,15602,70,,,,2,2,0.0,1.0,1.0,0.0,,0.0-62.0,,0.0,2009.23,1.0,0.601259914,1.0,0.704681482,0.0,0.33908969299999997,1.0,0.505003715,True,,5f5a4e1f3778490d3e6d1652,,1813780,70,,evan-feature22,full_rf_a,,0
36,15603,71,,,,2,2,1.0,1.0,1.0,0.0,,0.0-63.0,,1.0,2948.925,1.0,0.59645454,1.0,0.710437172,1.0,0.327441879,1.0,0.391749613,True,,5f5a4e1f3778490d3e6d1652,,1826490,71,,evan-feature22,full_rf_a,,0
37,15604,72,,,,2,2,0.0,0.0,1.0,0.0,,0.0-64.0,,0.0,2282.69,0.0,0.529473,1.0,0.636758527,0.0,0.301338063,0.0,0.365661481,True,,5f5a4e1f3778490d3e6d1652,,1838533,72,,evan-feature22,full_rf_a,,0
38,15605,73,,,,2,2,1.0,1.0,0.0,-1.0,,0.0-65.0,,-1.0,3054.89,1.0,0.541657162,0.0,0.634541962,1.0,0.343535366,1.0,0.371763742,True,,5f5a4e1f3778490d3e6d1652,,1851348,73,,evan-feature22,full_rf_a,,0
39,15606,74,,,,1,1,1.0,1.0,1.0,0.0,,0.0-66.0,,1.0,1786.01,1.0,0.5707533260000001,1.0,0.589121171,1.0,0.326428396,0.0,0.43961622899999997,True,,5f5a4e1f3778490d3e6d1652,,1862893,74,,evan-feature22,full_rf_a,,1
40,15607,75,,,,2,2,1.0,1.0,1.0,0.0,,0.0-67.0,,1.0,1937.63,1.0,0.5707533260000001,0.0,0.589121171,1.0,0.326428396,1.0,0.43961622899999997,True,,5f5a4e1f3778490d3e6d1652,,1874591,75,,evan-feature22,full_rf_a,,1
41,15608,76,,,,1,1,0.0,1.0,1.0,0.0,,0.0-68.0,,0.0,634.025,0.0,0.506271295,1.0,0.641775594,0.0,0.37149690700000004,1.0,0.404330166,True,,5f5a4e1f3778490d3e6d1652,,1884985,76,,evan-feature22,full_rf_a,,1
42,15609,77,,,,2,2,0.0,0.0,0.0,-1.0,,0.0-69.0,,0.0,3433.25,1.0,0.455642565,0.0,0.623605825,0.0,0.358753011,0.0,0.346174041,True,,5f5a4e1f3778490d3e6d1652,,1898177,77,,evan-feature22,full_rf_a,,1
43,15610,78,,,,1,1,0.0,1.0,0.0,-1.0,,0.0-70.0,,-1.0,1565.22,0.0,0.483677308,1.0,0.5904681070000001,0.0,0.402218411,1.0,0.35344697,True,,5f5a4e1f3778490d3e6d1652,,1909503,78,,evan-feature22,full_rf_a,,1
44,15611,79,,,,2,2,1.0,0.0,0.0,-1.0,,0.0-71.0,,0.0,1951.435,0.0,0.394210977,1.0,0.558925494,1.0,0.540052017,0.0,0.35182128700000004,True,,5f5a4e1f3778490d3e6d1652,,1921215,79,,evan-feature22,full_rf_a,,1
45,15612,80,,,,2,2,0.0,0.0,1.0,0.0,,0.0-72.0,,0.0,1495.815,0.0,0.382300414,0.0,0.577670603,0.0,0.607608448,0.0,0.378261578,True,,5f5a4e1f3778490d3e6d1652,,1932469,80,,evan-feature22,full_rf_a,,0
46,15613,81,,,,2,2,1.0,1.0,1.0,0.0,,0.0-73.0,,1.0,2088.09,1.0,0.357596762,0.0,0.5929076529999999,1.0,0.6579790010000001,1.0,0.401326777,True,,5f5a4e1f3778490d3e6d1652,,1944318,81,,evan-feature22,full_rf_a,,0
47,15614,82,,,,1,1,0.0,1.0,1.0,0.0,,0.0-74.0,,0.0,789.0550001,0.0,0.362033495,1.0,0.582308608,0.0,0.649195052,0.0,0.355158505,True,,5f5a4e1f3778490d3e6d1652,,1954867,82,,evan-feature22,full_rf_a,,1
48,15615,83,,,,1,1,1.0,0.0,1.0,0.0,,0.0-75.0,,1.0,2733.385,1.0,0.369620635,0.0,0.669100864,1.0,0.706059111,0.0,0.362516241,True,,5f5a4e1f3778490d3e6d1652,,1967359,83,,evan-feature22,full_rf_a,,0
49,15616,84,,,,1,1,1.0,1.0,1.0,0.0,,0.0-76.0,,1.0,1498.36,1.0,0.41477751399999996,1.0,0.7284416779999999,1.0,0.7182656940000001,0.0,0.36228040899999997,True,,5f5a4e1f3778490d3e6d1652,,1978618,84,,evan-feature22,full_rf_a,,0
50,15617,85,,,,2,2,1.0,0.0,0.0,-1.0,,0.0-77.0,,0.0,978.6300002999999,1.0,0.37675460299999997,0.0,0.703250285,1.0,0.75,0.0,0.461979164,True,,5f5a4e1f3778490d3e6d1652,,1989360,85,,evan-feature22,full_rf_a,,1
51,15618,86,,,,2,2,1.0,0.0,0.0,-1.0,,0.0-78.0,,0.0,1014.905,0.0,0.398716075,1.0,0.6723864890000001,1.0,0.674153818,0.0,0.519029516,True,,5f5a4e1f3778490d3e6d1652,,2000135,86,,evan-feature22,full_rf_a,,0
52,15619,87,,,,2,2,1.0,1.0,1.0,0.0,,0.0-79.0,,1.0,500.7300004,0.0,0.34677856700000004,0.0,0.69057175,1.0,0.6822438540000001,1.0,0.477292237,True,,5f5a4e1f3778490d3e6d1652,,2010395,87,,evan-feature22,full_rf_a,,0
53,15620,88,,,,2,2,1.0,1.0,0.0,-1.0,,0.0-80.0,,-1.0,1600.84,0.0,0.28580469199999997,0.0,0.68408818,1.0,0.684207565,1.0,0.49780448299999996,True,,5f5a4e1f3778490d3e6d1652,,2021759,88,,evan-feature22,full_rf_a,,0
54,15622,90,,,,SLOW,SLOW,,,1.0,0.0,,0.0-82.0,,-3.0,,0.0,0.25,1.0,0.7405808970000001,0.0,0.679614108,1.0,0.436436964,True,,5f5a4e1f3778490d3e6d1652,,2031043,90,,evan-feature22,full_rf_a,,1
55,15623,91,,,,1,1,1.0,1.0,0.0,-1.0,,0.0-83.0,,-1.0,1326.345,1.0,0.29890393,1.0,0.730505706,1.0,0.7328203320000001,0.0,0.439256938,True,,5f5a4e1f3778490d3e6d1652,,2042131,91,,evan-feature22,full_rf_a,,1
56,15624,92,,,,2,2,1.0,0.0,1.0,0.0,,0.0-84.0,,1.0,526.7850002,1.0,0.326762398,1.0,0.7148059609999999,1.0,0.75,0.0,0.44389608799999997,True,,5f5a4e1f3778490d3e6d1652,,2052418,92,,evan-feature22,full_rf_a,,1
57,15625,93,,,,2,2,0.0,1.0,1.0,0.0,,0.0-85.0,,0.0,683.4050003,0.0,0.295168515,0.0,0.739760854,0.0,0.719947008,1.0,0.35277284600000003,True,,5f5a4e1f3778490d3e6d1652,,2062862,93,,evan-feature22,full_rf_a,,0
58,15626,94,,,,2,2,1.0,1.0,1.0,0.0,,0.0-86.0,,1.0,1465.49,0.0,0.25,0.0,0.70781482,1.0,0.75,1.0,0.286095925,True,,5f5a4e1f3778490d3e6d1652,,2074087,94,,evan-feature22,full_rf_a,,0
59,15627,95,,,,2,2,1.0,1.0,0.0,-1.0,,0.0-87.0,,-1.0,1286.07,0.0,0.25638190899999996,1.0,0.704088163,1.0,0.75,1.0,0.26872601399999996,True,,5f5a4e1f3778490d3e6d1652,,2085136,95,,evan-feature22,full_rf_a,,0
60,15628,96,,,,2,2,1.0,0.0,0.0,-1.0,,0.0-88.0,,0.0,1172.025,0.0,0.271581126,0.0,0.669760107,1.0,0.733896663,0.0,0.273244572,True,,5f5a4e1f3778490d3e6d1652,,2096068,96,,evan-feature22,full_rf_a,,0
61,15629,97,,,,2,2,0.0,0.0,0.0,-1.0,,0.0-89.0,,0.0,1155.11,1.0,0.257144401,1.0,0.600575706,0.0,0.74488122,0.0,0.25,True,,5f5a4e1f3778490d3e6d1652,,2106985,97,,evan-feature22,full_rf_a,,0
62,15630,98,,,,1,1,1.0,0.0,1.0,0.0,,0.0-90.0,,1.0,822.7049997,1.0,0.25,0.0,0.616870026,1.0,0.723610234,0.0,0.25,True,,5f5a4e1f3778490d3e6d1652,,2117569,98,,evan-feature22,full_rf_a,,1
63,15631,99,,,,2,2,1.0,0.0,0.0,-1.0,,0.0-91.0,,0.0,1220.875,1.0,0.25,0.0,0.583540187,1.0,0.7041042559999999,0.0,0.285961995,True,,5f5a4e1f3778490d3e6d1652,,2128550,99,,evan-feature22,full_rf_a,,1
64,15632,100,,,,1,1,0.0,1.0,1.0,0.0,,0.0-92.0,,0.0,814.9649999,0.0,0.27254536,1.0,0.53875765,0.0,0.693783448,1.0,0.284961652,True,,5f5a4e1f3778490d3e6d1652,,2139125,100,,evan-feature22,full_rf_a,,1
65,15633,101,,,,1,1,0.0,1.0,0.0,-1.0,,0.0-93.0,,-1.0,3191.31,0.0,0.25,1.0,0.548431252,1.0,0.734221895,0.0,0.279445214,True,,5f5a4e1f3778490d3e6d1652,,2152079,101,,evan-feature22,full_rf_a,,0
66,15634,102,,,,2,2,0.0,0.0,1.0,0.0,,0.0-94.0,,0.0,575.1450001000001,0.0,0.258640684,1.0,0.545878066,0.0,0.725245965,0.0,0.31487537,True,,5f5a4e1f3778490d3e6d1652,,2162414,102,,evan-feature22,full_rf_a,,1
67,15635,103,,,,2,2,1.0,0.0,1.0,0.0,,0.0-95.0,,1.0,1038.76,0.0,0.251103711,0.0,0.5776290629999999,1.0,0.696320133,0.0,0.317831047,True,,5f5a4e1f3778490d3e6d1652,,2173212,103,,evan-feature22,full_rf_a,,0
68,15636,104,,,,2,2,1.0,0.0,1.0,0.0,,0.0-96.0,,1.0,728.8800003,0.0,0.276630292,1.0,0.617329858,1.0,0.73838088,0.0,0.261471582,True,,5f5a4e1f3778490d3e6d1652,,2183703,104,,evan-feature22,full_rf_a,,0
69,15637,105,,,,2,2,1.0,1.0,0.0,-1.0,,0.0-97.0,,-1.0,1017.16,1.0,0.297716424,0.0,0.618863717,1.0,0.7402358259999999,1.0,0.262600834,True,,5f5a4e1f3778490d3e6d1652,,2194483,105,,evan-feature22,full_rf_a,,0
70,15638,106,,,,1,1,0.0,1.0,1.0,0.0,,0.0-98.0,,0.0,654.78,0.0,0.290935512,1.0,0.695370945,1.0,0.706570507,1.0,0.280030553,True,,5f5a4e1f3778490d3e6d1652,,2204898,106,,evan-feature22,full_rf_a,,1
71,15639,107,,,,1,1,0.0,1.0,1.0,0.0,,0.0-99.0,,0.0,3961.245,0.0,0.25,1.0,0.6465277079999999,1.0,0.67766682,0.0,0.25,True,,5f5a4e1f3778490d3e6d1652,,2218620,107,,evan-feature22,full_rf_a,,0
72,15640,108,,,,2,2,1.0,0.0,1.0,0.0,,0.0-100.0,,1.0,522.1549999,1.0,0.26463816,0.0,0.636100213,1.0,0.646048507,0.0,0.265607101,True,,5f5a4e1f3778490d3e6d1652,,2228902,108,,evan-feature22,full_rf_a,,1
73,15641,109,,,,2,2,1.0,0.0,1.0,0.0,,0.0-101.0,,1.0,741.955,1.0,0.314340707,1.0,0.667795927,1.0,0.613630805,0.0,0.25,True,,5f5a4e1f3778490d3e6d1652,,2239406,109,,evan-feature22,full_rf_a,,0
74,15642,110,,,,2,2,1.0,0.0,1.0,0.0,,0.0-102.0,,1.0,1099.64,0.0,0.28685784,0.0,0.6622549529999999,1.0,0.652154117,0.0,0.25,True,,5f5a4e1f3778490d3e6d1652,,2250267,110,,evan-feature22,full_rf_a,,0
75,15643,111,,,,SLOW,SLOW,,,0.0,-1.0,,0.0-103.0,,-3.0,,1.0,0.304106554,0.0,0.631289538,1.0,0.707041942,0.0,0.29314237,True,,5f5a4e1f3778490d3e6d1652,,2256072,111,,evan-feature22,full_rf_a,,1
76,15644,112,,,,1,1,0.0,1.0,0.0,-1.0,,0.0-104.0,,-1.0,1080.44,0.0,0.304806932,1.0,0.571167718,0.0,0.680472346,0.0,0.25,True,,5f5a4e1f3778490d3e6d1652,,2266913,112,,evan-feature22,full_rf_a,,1
77,15645,113,,,,2,2,1.0,0.0,0.0,-1.0,,0.0-105.0,,0.0,3341.635,1.0,0.37919861,0.0,0.5724849710000001,1.0,0.705638003,0.0,0.30179300600000003,True,,5f5a4e1f3778490d3e6d1652,,2280016,113,,evan-feature22,full_rf_a,,1
78,15646,114,,,,2,2,0.0,0.0,0.0,-1.0,,0.0-106.0,,0.0,1216.88,1.0,0.464277969,0.0,0.554034373,0.0,0.7372627340000001,0.0,0.264699741,True,,5f5a4e1f3778490d3e6d1652,,2290992,114,,evan-feature22,full_rf_a,,0
79,15647,115,,,,1,1,1.0,0.0,1.0,0.0,,0.0-107.0,,1.0,696.5800002000001,1.0,0.465104323,0.0,0.530793115,1.0,0.75,1.0,0.31683071,True,,5f5a4e1f3778490d3e6d1652,,2301450,115,,evan-feature22,full_rf_a,,1
80,15648,116,,,,1,1,1.0,0.0,0.0,-1.0,,0.0-108.0,,0.0,1509.905,1.0,0.465104323,0.0,0.530793115,1.0,0.75,1.0,0.31683071,True,,5f5a4e1f3778490d3e6d1652,,2312720,116,,evan-feature22,full_rf_a,,0
81,15649,117,,,,1,1,0.0,1.0,0.0,-1.0,,0.0-109.0,,-1.0,691.9249999,0.0,0.46833986,1.0,0.570249239,1.0,0.7244472590000001,0.0,0.364114163,True,,5f5a4e1f3778490d3e6d1652,,2323178,117,,evan-feature22,full_rf_a,,0
82,15650,118,,,,2,2,0.0,1.0,0.0,-1.0,,0.0-110.0,,-1.0,1099.91,0.0,0.445444024,0.0,0.649673355,0.0,0.6845441290000001,1.0,0.300660449,True,,5f5a4e1f3778490d3e6d1652,,2334039,118,,evan-feature22,full_rf_a,,1
83,15651,119,,,,1,1,1.0,1.0,0.0,-1.0,,0.0-111.0,,-1.0,1621.895,1.0,0.39909721299999995,1.0,0.6715179509999999,0.0,0.742310028,0.0,0.35496088299999995,True,,5f5a4e1f3778490d3e6d1652,,2345423,119,,evan-feature22,full_rf_a,,1
84,15652,120,,,,2,2,1.0,1.0,0.0,-1.0,,0.0-112.0,,-1.0,1958.24,1.0,0.37956104799999996,1.0,0.694725302,1.0,0.7181651309999999,1.0,0.38726906299999997,True,,5f5a4e1f3778490d3e6d1652,,2357143,120,,evan-feature22,full_rf_a,,1
85,15653,121,,,,1,1,1.0,1.0,0.0,-1.0,,0.0-113.0,,-1.0,1604.855,1.0,0.404995034,1.0,0.724375412,1.0,0.6910946859999999,1.0,0.387187347,True,,5f5a4e1f3778490d3e6d1652,,2368513,121,,evan-feature22,full_rf_a,,1
86,15654,122,,,,1,1,1.0,1.0,0.0,-1.0,,0.0-114.0,,-1.0,2694.245,1.0,0.461740803,1.0,0.75,0.0,0.75,0.0,0.34872038200000005,True,,5f5a4e1f3778490d3e6d1652,,2380968,122,,evan-feature22,full_rf_a,,0
87,15655,123,,,,2,2,1.0,0.0,1.0,0.0,,0.0-115.0,,1.0,2115.59,1.0,0.43821380600000004,1.0,0.738833273,1.0,0.728286963,0.0,0.399538128,True,,5f5a4e1f3778490d3e6d1652,,2392846,123,,evan-feature22,full_rf_a,,1
88,15656,124,,,,2,2,1.0,1.0,0.0,-1.0,,0.0-116.0,,-1.0,1169.74,1.0,0.41709882,1.0,0.736666736,1.0,0.75,1.0,0.389095584,True,,5f5a4e1f3778490d3e6d1652,,2403778,124,,evan-feature22,full_rf_a,,0
89,15657,125,,,,1,1,0.0,0.0,0.0,-1.0,,0.0-117.0,,0.0,1392.565,0.0,0.39749009799999996,0.0,0.744320029,1.0,0.75,0.0,0.363848678,True,,5f5a4e1f3778490d3e6d1652,,2414930,125,,evan-feature22,full_rf_a,,1
90,15658,126,,,,2,2,1.0,0.0,1.0,0.0,,0.0-118.0,,1.0,706.2500003,0.0,0.392653706,1.0,0.75,1.0,0.75,0.0,0.384386976,True,,5f5a4e1f3778490d3e6d1652,,2425400,126,,evan-feature22,full_rf_a,,1
91,15659,127,,,,2,2,1.0,0.0,1.0,0.0,,0.0-119.0,,1.0,665.025,1.0,0.31190902600000003,1.0,0.75,1.0,0.732413819,0.0,0.413082932,True,,5f5a4e1f3778490d3e6d1652,,2435828,127,,evan-feature22,full_rf_a,,0
92,15660,128,,,,2,2,1.0,0.0,0.0,-1.0,,0.0-120.0,,0.0,1127.905,0.0,0.366917648,1.0,0.740073855,1.0,0.75,0.0,0.352861979,True,,5f5a4e1f3778490d3e6d1652,,2446715,128,,evan-feature22,full_rf_a,,0
93,15661,129,,,,2,2,1.0,1.0,0.0,-1.0,,0.0-121.0,,-1.0,814.0850002000001,0.0,0.3645172,1.0,0.721770713,1.0,0.75,1.0,0.404074511,True,,5f5a4e1f3778490d3e6d1652,,2457294,129,,evan-feature22,full_rf_a,,0
94,15662,130,,,,2,2,0.0,0.0,0.0,-1.0,,0.0-122.0,,0.0,1469.52,0.0,0.35205600299999995,1.0,0.68983859,0.0,0.739735447,0.0,0.366895945,True,,5f5a4e1f3778490d3e6d1652,,2468525,130,,evan-feature22,full_rf_a,,0
95,15663,131,,,,2,2,0.0,1.0,0.0,-1.0,,0.0-123.0,,-1.0,2063.59,0.0,0.40998722600000004,1.0,0.720859127,0.0,0.673854955,1.0,0.368528541,True,,5f5a4e1f3778490d3e6d1652,,2480349,131,,evan-feature22,full_rf_a,,0
96,15664,132,,,,2,2,1.0,0.0,1.0,0.0,,0.0-124.0,,1.0,3047.97,0.0,0.353625316,1.0,0.75,1.0,0.695605473,0.0,0.38303674200000004,True,,5f5a4e1f3778490d3e6d1652,,2493161,132,,evan-feature22,full_rf_a,,0
97,15665,133,,,,2,2,1.0,0.0,0.0,-1.0,,0.0-125.0,,0.0,1091.86,0.0,0.359216989,1.0,0.75,1.0,0.6987915090000001,0.0,0.35169046200000004,True,,5f5a4e1f3778490d3e6d1652,,2504011,133,,evan-feature22,full_rf_a,,0
98,15666,134,,,,2,2,0.0,1.0,1.0,0.0,,0.0-126.0,,0.0,827.4349999,1.0,0.35834496899999996,1.0,0.75,0.0,0.707067742,1.0,0.416763636,True,,5f5a4e1f3778490d3e6d1652,,2514598,134,,evan-feature22,full_rf_a,,0
99,15667,135,,,,1,1,0.0,0.0,1.0,0.0,,0.0-127.0,,0.0,623.985,0.0,0.38741613799999997,0.0,0.7177369570000001,0.0,0.734902455,1.0,0.49438664299999996,True,,5f5a4e1f3778490d3e6d1652,,2524981,135,,evan-feature22,full_rf_a,,1
100,15668,136,,,,1,1,0.0,1.0,0.0,-1.0,,0.0-128.0,,-1.0,1208.44,0.0,0.405255252,1.0,0.7300466640000001,0.0,0.7027748070000001,1.0,0.504359668,True,,5f5a4e1f3778490d3e6d1652,,2535949,136,,evan-feature22,full_rf_a,,0
101,15669,137,,,,2,2,1.0,0.0,0.0,-1.0,,0.0-129.0,,0.0,1123.605,0.0,0.40697073,1.0,0.7260142190000001,1.0,0.724461982,0.0,0.522779179,True,,5f5a4e1f3778490d3e6d1652,,2546834,137,,evan-feature22,full_rf_a,,1
102,15670,138,,,,2,2,1.0,1.0,0.0,-1.0,,0.0-130.0,,-1.0,1167.0,1.0,0.43906215299999996,1.0,0.7252802340000001,1.0,0.719079934,1.0,0.5712990579999999,True,,5f5a4e1f3778490d3e6d1652,,2557763,138,,evan-feature22,full_rf_a,,0
103,15671,139,,,,1,1,0.0,1.0,0.0,-1.0,,0.0-131.0,,-1.0,1712.09,0.0,0.4076705,1.0,0.73280499,0.0,0.681313127,1.0,0.523891346,True,,5f5a4e1f3778490d3e6d1652,,2569238,139,,evan-feature22,full_rf_a,,1
104,15672,140,,,,2,2,0.0,0.0,0.0,-1.0,,0.0-132.0,,0.0,1710.185,0.0,0.399102911,1.0,0.730498344,0.0,0.661080239,0.0,0.46742603,True,,5f5a4e1f3778490d3e6d1652,,2580708,140,,evan-feature22,full_rf_a,,1
105,15673,141,,,,2,2,1.0,1.0,1.0,0.0,,0.0-133.0,,1.0,1124.855,1.0,0.356477282,0.0,0.712296395,1.0,0.641812684,1.0,0.44868414,True,,5f5a4e1f3778490d3e6d1652,,2591592,141,,evan-feature22,full_rf_a,,0
106,15674,142,,,,1,1,1.0,0.0,0.0,-1.0,,0.0-134.0,,0.0,1075.445,1.0,0.462760722,0.0,0.692349322,1.0,0.700947931,0.0,0.394680266,True,,5f5a4e1f3778490d3e6d1652,,2602429,142,,evan-feature22,full_rf_a,,1
107,15675,143,,,,1,1,0.0,0.0,0.0,-1.0,,0.0-135.0,,0.0,905.9850001,0.0,0.422306413,0.0,0.718375916,1.0,0.706340917,0.0,0.367787185,True,,5f5a4e1f3778490d3e6d1652,,2613094,143,,evan-feature22,full_rf_a,,0
108,15677,145,,,,2,2,1.0,1.0,0.0,-1.0,,0.0-137.0,,-1.0,1748.08,0.0,0.4582233,0.0,0.643834117,1.0,0.75,1.0,0.39615823299999997,True,,5f5a4e1f3778490d3e6d1652,,2629661,145,,evan-feature22,full_rf_a,,1
109,15678,146,,,,1,1,1.0,1.0,0.0,-1.0,,0.0-138.0,,-1.0,1806.605,1.0,0.43813437899999996,1.0,0.651283804,1.0,0.729674191,0.0,0.37711048,True,,5f5a4e1f3778490d3e6d1652,,2641229,146,,evan-feature22,full_rf_a,,1
110,15679,147,,,,2,2,0.0,0.0,0.0,-1.0,,0.0-139.0,,0.0,767.6550001,0.0,0.471199094,1.0,0.6470010979999999,0.0,0.715008097,0.0,0.410656191,True,,5f5a4e1f3778490d3e6d1652,,2651754,147,,evan-feature22,full_rf_a,,1
111,15680,148,,,,2,2,0.0,0.0,1.0,0.0,,0.0-140.0,,0.0,780.9249996,0.0,0.42486406,0.0,0.629771829,0.0,0.6550939960000001,0.0,0.459093873,True,,5f5a4e1f3778490d3e6d1652,,2662297,148,,evan-feature22,full_rf_a,,0
112,15681,149,,,,2,2,1.0,0.0,1.0,0.0,,0.0-141.0,,1.0,716.635,1.0,0.4803197,1.0,0.645842715,1.0,0.6421749920000001,0.0,0.443092151,True,,5f5a4e1f3778490d3e6d1652,,2672774,149,,evan-feature22,full_rf_a,,0
113,15682,150,,,,1,1,0.0,1.0,1.0,0.0,,0.0-142.0,,0.0,1603.89,0.0,0.521848997,1.0,0.735801074,1.0,0.6691348460000001,1.0,0.45259351600000003,True,,5f5a4e1f3778490d3e6d1652,,2684140,150,,evan-feature22,full_rf_a,,1
114,15683,151,,,,1,1,0.0,0.0,0.0,-1.0,,0.0-143.0,,0.0,3444.105,0.0,0.49565621299999996,0.0,0.742400847,1.0,0.661512553,0.0,0.483110831,True,,5f5a4e1f3778490d3e6d1652,,2697342,151,,evan-feature22,full_rf_a,,0
115,15684,152,,,,2,2,0.0,1.0,1.0,0.0,,0.0-144.0,,0.0,789.7300002999999,1.0,0.521564361,1.0,0.731078632,0.0,0.6774886809999999,1.0,0.483263956,True,,5f5a4e1f3778490d3e6d1652,,2707893,152,,evan-feature22,full_rf_a,,1
116,15685,153,,,,1,1,1.0,1.0,1.0,0.0,,0.0-145.0,,1.0,1396.36,1.0,0.558893102,1.0,0.719810023,1.0,0.67461031,0.0,0.499349834,True,,5f5a4e1f3778490d3e6d1652,,2719049,153,,evan-feature22,full_rf_a,,1
117,15686,154,,,,2,2,1.0,0.0,0.0,-1.0,,0.0-146.0,,0.0,1785.67,0.0,0.611031046,0.0,0.75,1.0,0.688072995,0.0,0.5321422729999999,True,,5f5a4e1f3778490d3e6d1652,,2730594,154,,evan-feature22,full_rf_a,,1
118,15687,155,,,,2,2,1.0,1.0,1.0,0.0,,0.0-147.0,,1.0,740.3799999,1.0,0.633223941,1.0,0.713567728,1.0,0.75,1.0,0.48185314700000004,True,,5f5a4e1f3778490d3e6d1652,,2741094,155,,evan-feature22,full_rf_a,,0
119,15688,156,,,,2,2,1.0,0.0,1.0,0.0,,0.0-148.0,,1.0,1431.205,1.0,0.664001694,1.0,0.705509768,1.0,0.75,0.0,0.500211065,True,,5f5a4e1f3778490d3e6d1652,,2752290,156,,evan-feature22,full_rf_a,,0
120,15689,157,,,,2,2,1.0,1.0,0.0,-1.0,,0.0-149.0,,-1.0,1292.685,1.0,0.664001694,1.0,0.705509768,1.0,0.75,1.0,0.500211065,True,,5f5a4e1f3778490d3e6d1652,,2763344,157,,evan-feature22,full_rf_a,,0
121,15690,158,,,,1,1,1.0,1.0,0.0,-1.0,,0.0-150.0,,-1.0,2541.375,1.0,0.696508041,1.0,0.71066027,1.0,0.717028709,1.0,0.49792991,True,,5f5a4e1f3778490d3e6d1652,,2775648,158,,evan-feature22,full_rf_a,,1
122,15691,159,,,,1,1,0.0,0.0,1.0,0.0,,0.0-151.0,,0.0,2184.675,0.0,0.699883272,0.0,0.75,1.0,0.713543895,1.0,0.496962643,True,,5f5a4e1f3778490d3e6d1652,,2787591,159,,evan-feature22,full_rf_a,,0
123,15692,160,,,,1,1,0.0,1.0,0.0,-1.0,,0.0-152.0,,-1.0,1304.365,0.0,0.741163419,1.0,0.75,1.0,0.64691024,1.0,0.513858197,True,,5f5a4e1f3778490d3e6d1652,,2798655,160,,evan-feature22,full_rf_a,,0
124,15693,161,,,,2,2,1.0,0.0,1.0,0.0,,0.0-153.0,,1.0,1211.51,0.0,0.75,1.0,0.70816558,1.0,0.594499079,0.0,0.48502124,True,,5f5a4e1f3778490d3e6d1652,,2809626,161,,evan-feature22,full_rf_a,,1
125,15694,162,,,,2,2,1.0,0.0,0.0,-1.0,,0.0-154.0,,0.0,1232.96,1.0,0.75,1.0,0.721848901,1.0,0.62197249,0.0,0.48263586399999997,True,,5f5a4e1f3778490d3e6d1652,,2820619,162,,evan-feature22,full_rf_a,,0
126,15695,163,,,,2,2,1.0,1.0,1.0,0.0,,0.0-155.0,,1.0,645.7249997,1.0,0.75,1.0,0.74813071,1.0,0.584357161,1.0,0.411477782,True,,5f5a4e1f3778490d3e6d1652,,2831029,163,,evan-feature22,full_rf_a,,0
127,15696,164,,,,2,2,0.0,1.0,0.0,-1.0,,0.0-156.0,,-1.0,1976.68,0.0,0.75,1.0,0.75,0.0,0.52287236,1.0,0.488290656,True,,5f5a4e1f3778490d3e6d1652,,2842764,164,,evan-feature22,full_rf_a,,0
128,15697,165,,,,2,2,0.0,1.0,0.0,-1.0,,0.0-157.0,,-1.0,1652.765,1.0,0.75,1.0,0.75,0.0,0.544321581,1.0,0.53143059,True,,5f5a4e1f3778490d3e6d1652,,2854179,165,,evan-feature22,full_rf_a,,0
129,15698,166,,,,2,2,1.0,1.0,0.0,-1.0,,0.0-158.0,,-1.0,2180.655,0.0,0.726754564,0.0,0.75,1.0,0.5129306370000001,1.0,0.530592445,True,,5f5a4e1f3778490d3e6d1652,,2866121,166,,evan-feature22,full_rf_a,,0
130,15699,167,,,,2,2,0.0,0.0,1.0,0.0,,0.0-159.0,,0.0,2123.145,0.0,0.75,1.0,0.7392590729999999,0.0,0.479875835,0.0,0.547007051,True,,5f5a4e1f3778490d3e6d1652,,2878004,167,,evan-feature22,full_rf_a,,0
131,15700,168,,,,2,2,1.0,1.0,1.0,0.0,,0.0-160.0,,1.0,1118.97,1.0,0.75,1.0,0.7393376979999999,1.0,0.546045419,1.0,0.541267353,True,,5f5a4e1f3778490d3e6d1652,,2888884,168,,evan-feature22,full_rf_a,,0
132,15701,169,,,,2,2,1.0,0.0,1.0,0.0,,0.0-161.0,,1.0,1377.95,0.0,0.75,1.0,0.75,1.0,0.485725895,0.0,0.527625395,True,,5f5a4e1f3778490d3e6d1652,,2900021,169,,evan-feature22,full_rf_a,,0
133,15702,170,,,,2,2,1.0,1.0,0.0,-1.0,,0.0-162.0,,-1.0,1366.045,0.0,0.75,1.0,0.725087974,1.0,0.488603595,1.0,0.504019206,True,,5f5a4e1f3778490d3e6d1652,,2911148,170,,evan-feature22,full_rf_a,,0
134,15703,171,,,,2,2,1.0,0.0,0.0,-1.0,,0.0-163.0,,0.0,3756.115,1.0,0.745504295,1.0,0.75,1.0,0.452379914,0.0,0.50131194,True,,5f5a4e1f3778490d3e6d1652,,2924666,171,,evan-feature22,full_rf_a,,0
135,15704,172,,,,2,2,1.0,1.0,0.0,-1.0,,0.0-164.0,,-1.0,1239.53,1.0,0.728513874,0.0,0.75,1.0,0.44125567200000004,1.0,0.531454591,True,,5f5a4e1f3778490d3e6d1652,,2935667,172,,evan-feature22,full_rf_a,,0
136,15705,173,,,,1,1,1.0,1.0,1.0,0.0,,0.0-165.0,,1.0,650.0200001000001,1.0,0.73790804,1.0,0.75,0.0,0.413036656,0.0,0.524619035,True,,5f5a4e1f3778490d3e6d1652,,2946079,173,,evan-feature22,full_rf_a,,1
137,15706,174,,,,1,1,0.0,1.0,0.0,-1.0,,0.0-166.0,,-1.0,3199.315,0.0,0.7080961309999999,1.0,0.708666865,0.0,0.431915581,0.0,0.481819489,True,,5f5a4e1f3778490d3e6d1652,,2959037,174,,evan-feature22,full_rf_a,,0
138,15707,175,,,,2,2,0.0,0.0,0.0,-1.0,,0.0-167.0,,0.0,1869.13,1.0,0.721378003,1.0,0.71605913,0.0,0.36642387,0.0,0.5036739929999999,True,,5f5a4e1f3778490d3e6d1652,,2970666,175,,evan-feature22,full_rf_a,,1
139,15708,176,,,,2,2,1.0,0.0,0.0,-1.0,,0.0-168.0,,0.0,1624.2,1.0,0.7340618959999999,1.0,0.699323252,1.0,0.35298046299999997,0.0,0.511241692,True,,5f5a4e1f3778490d3e6d1652,,2982051,176,,evan-feature22,full_rf_a,,0
140,15709,177,,,,2,2,0.0,0.0,1.0,0.0,,0.0-169.0,,0.0,528.8200001,0.0,0.75,1.0,0.70412698,0.0,0.380734814,0.0,0.529580116,True,,5f5a4e1f3778490d3e6d1652,,2992340,177,,evan-feature22,full_rf_a,,0
141,15710,178,,,,2,2,1.0,1.0,0.0,-1.0,,0.0-170.0,,-1.0,1010.93,1.0,0.7436654909999999,0.0,0.711182751,1.0,0.41125331,1.0,0.49554405,True,,5f5a4e1f3778490d3e6d1652,,3003110,178,,evan-feature22,full_rf_a,,0
142,15711,179,,,,1,1,1.0,1.0,0.0,-1.0,,0.0-171.0,,-1.0,1270.725,1.0,0.731607915,1.0,0.651774583,0.0,0.35688023,0.0,0.45194491600000003,True,,5f5a4e1f3778490d3e6d1652,,3014140,179,,evan-feature22,full_rf_a,,1
143,15712,180,,,,2,2,0.0,0.0,1.0,0.0,,0.0-172.0,,0.0,1527.225,1.0,0.75,1.0,0.75,0.0,0.283145374,0.0,0.528608005,True,,5f5a4e1f3778490d3e6d1652,,3025428,180,,evan-feature22,full_rf_a,,1
144,15713,181,,,,1,1,1.0,1.0,1.0,0.0,,0.0-173.0,,1.0,3276.74,1.0,0.7491416890000001,1.0,0.7423785959999999,0.0,0.29135870399999997,1.0,0.498888318,True,,5f5a4e1f3778490d3e6d1652,,3038466,181,,evan-feature22,full_rf_a,,1
145,15714,182,,,,1,1,1.0,1.0,1.0,0.0,,0.0-174.0,,1.0,783.57,1.0,0.708569387,1.0,0.717682277,0.0,0.294421699,0.0,0.493838163,True,,5f5a4e1f3778490d3e6d1652,,3049009,182,,evan-feature22,full_rf_a,,0
146,15715,183,,,,2,2,1.0,1.0,0.0,-1.0,,0.0-175.0,,-1.0,1562.955,0.0,0.75,1.0,0.7383382159999999,1.0,0.356098707,1.0,0.442533405,True,,5f5a4e1f3778490d3e6d1652,,3060333,183,,evan-feature22,full_rf_a,,1
147,15716,184,,,,2,2,1.0,0.0,0.0,-1.0,,0.0-176.0,,0.0,2928.535,1.0,0.744527075,1.0,0.75,1.0,0.334127506,0.0,0.393165805,True,,5f5a4e1f3778490d3e6d1652,,3073021,184,,evan-feature22,full_rf_a,,0
148,15717,185,,,,2,2,0.0,1.0,0.0,-1.0,,0.0-177.0,,-1.0,1758.03,1.0,0.75,1.0,0.75,0.0,0.33571021799999995,1.0,0.350393962,True,,5f5a4e1f3778490d3e6d1652,,3084538,185,,evan-feature22,full_rf_a,,0
149,15718,186,,,,1,1,1.0,1.0,0.0,-1.0,,0.0-178.0,,-1.0,3287.03,1.0,0.75,1.0,0.75,1.0,0.313628297,0.0,0.36349657399999996,True,,5f5a4e1f3778490d3e6d1652,,3097590,186,,evan-feature22,full_rf_a,,1
150,15719,187,,,,2,2,0.0,1.0,1.0,0.0,,0.0-179.0,,0.0,505.32,1.0,0.75,1.0,0.734284182,0.0,0.262667667,1.0,0.380199119,True,,5f5a4e1f3778490d3e6d1652,,3107857,187,,evan-feature22,full_rf_a,,1
151,15720,188,,,,2,2,1.0,1.0,0.0,-1.0,,0.0-180.0,,-1.0,2716.23,1.0,0.75,1.0,0.75,1.0,0.25,1.0,0.394494013,True,,5f5a4e1f3778490d3e6d1652,,3120335,188,,evan-feature22,full_rf_a,,0
152,15721,189,,,,1,1,0.0,1.0,1.0,0.0,,0.0-181.0,,0.0,1772.515,0.0,0.722298145,1.0,0.7357822340000001,0.0,0.25,0.0,0.319142121,True,,5f5a4e1f3778490d3e6d1652,,3131870,189,,evan-feature22,full_rf_a,,1
153,15722,190,,,,2,2,0.0,1.0,1.0,0.0,,0.0-182.0,,0.0,2539.795,1.0,0.73149275,1.0,0.724276446,0.0,0.305856907,1.0,0.281315057,True,,5f5a4e1f3778490d3e6d1652,,3144172,190,,evan-feature22,full_rf_a,,1
154,15723,191,,,,1,1,1.0,1.0,0.0,-1.0,,0.0-183.0,,-1.0,3473.255,1.0,0.7458732690000001,1.0,0.7336382459999999,1.0,0.272571964,1.0,0.266021999,True,,5f5a4e1f3778490d3e6d1652,,3157405,191,,evan-feature22,full_rf_a,,1
155,15724,192,,,,2,2,0.0,0.0,0.0,-1.0,,0.0-184.0,,0.0,2308.815,1.0,0.705579037,1.0,0.720778292,0.0,0.320238144,0.0,0.30971744,True,,5f5a4e1f3778490d3e6d1652,,3169471,192,,evan-feature22,full_rf_a,,1
156,15725,193,,,,2,2,0.0,0.0,0.0,-1.0,,0.0-185.0,,0.0,985.0550001,1.0,0.700425648,1.0,0.7198784009999999,0.0,0.272590393,0.0,0.304182931,True,,5f5a4e1f3778490d3e6d1652,,3180216,193,,evan-feature22,full_rf_a,,0
157,15726,194,,,,2,2,0.0,0.0,0.0,-1.0,,0.0-186.0,,0.0,816.815,0.0,0.735590785,1.0,0.722714973,0.0,0.25,0.0,0.323421091,True,,5f5a4e1f3778490d3e6d1652,,3190792,194,,evan-feature22,full_rf_a,,0
158,15727,195,,,,2,2,0.0,0.0,0.0,-1.0,,0.0-187.0,,0.0,1666.96,1.0,0.724807662,1.0,0.63146213,0.0,0.36836492600000004,0.0,0.34592153299999995,True,,5f5a4e1f3778490d3e6d1652,,3202217,195,,evan-feature22,full_rf_a,,0
159,15728,196,,,,2,2,0.0,0.0,0.0,-1.0,,0.0-188.0,,0.0,817.3849997000001,1.0,0.7352796909999999,1.0,0.555111392,0.0,0.36003922,0.0,0.31433779999999995,True,,5f5a4e1f3778490d3e6d1652,,3212794,196,,evan-feature22,full_rf_a,,0
160,15729,197,notice,,,,,,,,,,0.0-189.0,"{""Q0"":""no""}",,21064.0,,,,,,,,,True,,5f5a4e1f3778490d3e6d1652,,3233860,197,Q,survey-text,full_rf_a,,1
161,15730,198,track1,,[0],,,,,,,,0.0-190.0,"{""Q0"":""yes""}",,19458.0,,,,,,,,,True,,5f5a4e1f3778490d3e6d1652,,3253321,198,Q,evan-quiz,full_rf_a,,1
162,15731,199,track2,,[2],,,,,,,,0.0-191.0,"{""Q0"":""N/A""}",,13877.0,,,,,,,,,True,,5f5a4e1f3778490d3e6d1652,,3267200,199,Q,evan-quiz,full_rf_a,,1
163,15732,200,strat,,,,,,,,,,0.0-192.0,"{""Q0"":""Followed the original instructions the best I could. Easiest when seeing a single gold alien, as then that usually led to choosing the correct door on the next go, to either get a mineral or, at least, not to lose any""}",,120181.0,,,,,,,,,True,,5f5a4e1f3778490d3e6d1652,,3387384,200,Q,survey-text,full_rf_a,,1
