,index,Unnamed: 0,Q_name,button_pressed,choice_idxs,chosen_pos,chosen_state,chosen_state_f_1_outcome,chosen_state_f_2_outcome,f_1_reward,f_2_reward,incor_questions,internal_node_id,responses,reward_received,rt,s_1_f_1_outcome,s_1_f_1_prob,s_1_f_2_outcome,s_1_f_2_prob,s_2_f_1_outcome,s_2_f_1_prob,s_2_f_2_outcome,s_2_f_2_prob,safe_first,stimulus,subjectID,success,time_elapsed,trial_index,trial_num,trial_type,version,view_history,switching
0,2196,25,,,,1,1,1.0,1.0,1.0,0.0,,0.0-27.0,,1.0,2722.215,1.0,0.6,1.0,0.6,1.0,0.4,1.0,0.4,True,,5beb492b5324b10001c26ae8,,582835,25,,evan-feature22,full_rf_a,,0
1,2197,26,,,,SLOW,SLOW,,,1.0,0.0,,0.0-28.0,,-3.0,,0.0,0.608053294,1.0,0.63424552,0.0,0.397152172,1.0,0.347069101,True,,5beb492b5324b10001c26ae8,,588663,26,,evan-feature22,full_rf_a,,1
2,2198,27,,,,1,1,1.0,1.0,1.0,0.0,,0.0-29.0,,1.0,1009.19,1.0,0.642237155,1.0,0.648566321,1.0,0.389407674,0.0,0.285525717,True,,5beb492b5324b10001c26ae8,,599479,27,,evan-feature22,full_rf_a,,1
3,2199,28,,,,1,1,0.0,0.0,1.0,0.0,,0.0-30.0,,0.0,1125.875,0.0,0.661086576,0.0,0.630492543,0.0,0.399058924,0.0,0.25,True,,5beb492b5324b10001c26ae8,,610395,28,,evan-feature22,full_rf_a,,0
4,2200,29,,,,1,1,1.0,1.0,0.0,-1.0,,0.0-31.0,,-1.0,1479.535,1.0,0.631324137,1.0,0.6269842929999999,1.0,0.38734784299999997,1.0,0.25,True,,5beb492b5324b10001c26ae8,,621700,29,,evan-feature22,full_rf_a,,0
5,2201,30,,,,1,1,1.0,1.0,0.0,-1.0,,0.0-32.0,,-1.0,1422.345,1.0,0.6381991370000001,1.0,0.68987999,1.0,0.384107265,0.0,0.271332943,True,,5beb492b5324b10001c26ae8,,632962,30,,evan-feature22,full_rf_a,,0
6,2202,31,,,,1,1,1.0,1.0,1.0,0.0,,0.0-33.0,,1.0,1431.305,1.0,0.66034901,1.0,0.742641349,0.0,0.360225629,0.0,0.25,True,,5beb492b5324b10001c26ae8,,644197,31,,evan-feature22,full_rf_a,,0
7,2203,32,,,,1,1,1.0,1.0,1.0,0.0,,0.0-34.0,,1.0,1587.73,1.0,0.638612418,1.0,0.75,0.0,0.367273939,0.0,0.25,True,,5beb492b5324b10001c26ae8,,655570,32,,evan-feature22,full_rf_a,,0
8,2204,33,,,,2,2,0.0,0.0,0.0,-1.0,,0.0-35.0,,0.0,1129.78,0.0,0.624340629,0.0,0.75,0.0,0.425829545,0.0,0.25,True,,5beb492b5324b10001c26ae8,,666517,33,,evan-feature22,full_rf_a,,1
9,2205,34,,,,2,2,1.0,1.0,0.0,-1.0,,0.0-36.0,,-1.0,1148.565,1.0,0.621999804,1.0,0.75,1.0,0.368609357,1.0,0.25,True,,5beb492b5324b10001c26ae8,,677479,34,,evan-feature22,full_rf_a,,0
10,2206,35,,,,1,1,0.0,0.0,1.0,0.0,,0.0-37.0,,0.0,1321.97,0.0,0.62666403,0.0,0.75,0.0,0.311151498,0.0,0.25,True,,5beb492b5324b10001c26ae8,,688606,35,,evan-feature22,full_rf_a,,1
11,2207,36,,,,2,2,0.0,0.0,0.0,-1.0,,0.0-38.0,,0.0,1152.7,1.0,0.6819650009999999,0.0,0.75,0.0,0.310763048,0.0,0.25,True,,5beb492b5324b10001c26ae8,,699554,36,,evan-feature22,full_rf_a,,1
12,2208,37,,,,1,1,0.0,1.0,1.0,0.0,,0.0-39.0,,0.0,1216.095,0.0,0.740626951,1.0,0.75,0.0,0.25,0.0,0.25,True,,5beb492b5324b10001c26ae8,,710568,37,,evan-feature22,full_rf_a,,1
13,2209,38,,,,1,1,1.0,1.0,1.0,0.0,,0.0-40.0,,1.0,1116.46,1.0,0.739599242,1.0,0.742034978,0.0,0.25397114600000004,0.0,0.25,True,,5beb492b5324b10001c26ae8,,721505,38,,evan-feature22,full_rf_a,,0
14,2210,39,,,,1,1,0.0,1.0,1.0,0.0,,0.0-41.0,,0.0,988.635,0.0,0.732341315,1.0,0.72735643,0.0,0.25,0.0,0.25,True,,5beb492b5324b10001c26ae8,,732317,39,,evan-feature22,full_rf_a,,0
15,2211,40,,,,1,1,1.0,1.0,1.0,0.0,,0.0-42.0,,1.0,1281.1,1.0,0.7062287770000001,1.0,0.75,1.0,0.29002151,0.0,0.288256649,True,,5beb492b5324b10001c26ae8,,743402,40,,evan-feature22,full_rf_a,,0
16,2212,41,,,,1,1,0.0,1.0,1.0,0.0,,0.0-43.0,,0.0,1262.805,0.0,0.7086029209999999,1.0,0.75,1.0,0.274129113,1.0,0.262851608,True,,5beb492b5324b10001c26ae8,,754461,41,,evan-feature22,full_rf_a,,0
17,2213,42,,,,2,2,1.0,0.0,1.0,0.0,,0.0-44.0,,1.0,1148.345,1.0,0.669189651,1.0,0.727614338,1.0,0.298444036,0.0,0.296944518,True,,5beb492b5324b10001c26ae8,,765415,42,,evan-feature22,full_rf_a,,1
18,2214,43,,,,2,2,1.0,0.0,1.0,0.0,,0.0-45.0,,1.0,1563.665,0.0,0.6819912929999999,1.0,0.7179434290000001,1.0,0.265003961,0.0,0.28157921199999997,True,,5beb492b5324b10001c26ae8,,776776,43,,evan-feature22,full_rf_a,,0
19,2215,44,,,,2,2,0.0,0.0,0.0,-1.0,,0.0-46.0,,0.0,1241.705,0.0,0.665275002,1.0,0.723065271,0.0,0.260414971,0.0,0.30973870000000003,True,,5beb492b5324b10001c26ae8,,787822,44,,evan-feature22,full_rf_a,,0
20,2216,45,,,,2,2,1.0,1.0,1.0,0.0,,0.0-47.0,,1.0,1756.995,0.0,0.6660593260000001,1.0,0.728032907,1.0,0.30922817,1.0,0.338778608,True,,5beb492b5324b10001c26ae8,,799391,45,,evan-feature22,full_rf_a,,0
21,2217,46,,,,2,2,0.0,0.0,1.0,0.0,,0.0-48.0,,0.0,1084.1,0.0,0.702068785,1.0,0.6528750879999999,0.0,0.287329608,0.0,0.35789613200000003,True,,5beb492b5324b10001c26ae8,,810285,46,,evan-feature22,full_rf_a,,0
22,2218,47,,,,2,2,0.0,0.0,1.0,0.0,,0.0-49.0,,0.0,1015.525,0.0,0.651939787,1.0,0.636725589,0.0,0.284834488,0.0,0.358563756,True,,5beb492b5324b10001c26ae8,,821114,47,,evan-feature22,full_rf_a,,0
23,2219,48,,,,1,1,1.0,1.0,0.0,-1.0,,0.0-50.0,,-1.0,2246.775,1.0,0.67573929,1.0,0.612550049,0.0,0.37130387600000003,0.0,0.383542402,True,,5beb492b5324b10001c26ae8,,833175,48,,evan-feature22,full_rf_a,,1
24,2220,49,,,,2,2,1.0,0.0,0.0,-1.0,,0.0-51.0,,0.0,996.265,1.0,0.620753801,1.0,0.60513644,1.0,0.385529434,0.0,0.340361743,True,,5beb492b5324b10001c26ae8,,843982,49,,evan-feature22,full_rf_a,,1
25,2221,50,,,,2,2,0.0,0.0,0.0,-1.0,,0.0-52.0,,0.0,1077.69,1.0,0.673564893,1.0,0.672437924,0.0,0.292955382,0.0,0.337633795,True,,5beb492b5324b10001c26ae8,,854861,50,,evan-feature22,full_rf_a,,0
26,2222,51,,,,1,1,0.0,1.0,1.0,0.0,,0.0-53.0,,0.0,1473.395,0.0,0.6749427,1.0,0.724197502,0.0,0.32391132100000003,0.0,0.350995264,True,,5beb492b5324b10001c26ae8,,866140,51,,evan-feature22,full_rf_a,,1
27,2223,52,,,,1,1,0.0,1.0,1.0,0.0,,0.0-54.0,,0.0,1304.45,0.0,0.6940159379999999,1.0,0.75,0.0,0.31710554399999996,0.0,0.413450341,True,,5beb492b5324b10001c26ae8,,877236,52,,evan-feature22,full_rf_a,,0
28,2224,53,,,,1,1,1.0,1.0,1.0,0.0,,0.0-55.0,,1.0,611.465,1.0,0.6916018270000001,1.0,0.69001187,0.0,0.261817804,1.0,0.40038635,True,,5beb492b5324b10001c26ae8,,887662,53,,evan-feature22,full_rf_a,,0
29,2225,54,,,,1,1,0.0,1.0,1.0,0.0,,0.0-56.0,,0.0,790.785,0.0,0.641061544,1.0,0.71337992,0.0,0.277296461,1.0,0.47372791700000005,True,,5beb492b5324b10001c26ae8,,898278,54,,evan-feature22,full_rf_a,,0
30,2226,55,,,,1,1,1.0,0.0,1.0,0.0,,0.0-57.0,,1.0,761.795,1.0,0.6082438520000001,0.0,0.708471106,0.0,0.28745137,1.0,0.564174476,True,,5beb492b5324b10001c26ae8,,908839,55,,evan-feature22,full_rf_a,,0
31,2227,56,,,,1,1,1.0,1.0,1.0,0.0,,0.0-58.0,,1.0,1103.84,1.0,0.6051112120000001,1.0,0.7118147229999999,0.0,0.272390611,0.0,0.5595149939999999,True,,5beb492b5324b10001c26ae8,,919767,56,,evan-feature22,full_rf_a,,0
32,2228,57,,,,1,1,0.0,1.0,1.0,0.0,,0.0-59.0,,0.0,776.11,0.0,0.582420852,1.0,0.635867583,1.0,0.31089574,0.0,0.5227206520000001,True,,5beb492b5324b10001c26ae8,,930357,57,,evan-feature22,full_rf_a,,0
33,2229,58,,,,2,2,1.0,0.0,0.0,-1.0,,0.0-60.0,,0.0,1351.03,0.0,0.623195575,1.0,0.655026044,1.0,0.25,0.0,0.560387538,True,,5beb492b5324b10001c26ae8,,941521,58,,evan-feature22,full_rf_a,,1
34,2230,59,,,,2,2,0.0,1.0,1.0,0.0,,0.0-61.0,,0.0,1239.715,0.0,0.601889598,1.0,0.678198724,0.0,0.25,1.0,0.559922936,True,,5beb492b5324b10001c26ae8,,952566,59,,evan-feature22,full_rf_a,,0
35,2231,60,,,,2,2,1.0,0.0,1.0,0.0,,0.0-62.0,,1.0,720.895,0.0,0.601259914,1.0,0.704681482,1.0,0.33908969299999997,0.0,0.505003715,True,,5beb492b5324b10001c26ae8,,963126,60,,evan-feature22,full_rf_a,,0
36,2232,61,,,,2,2,1.0,1.0,1.0,0.0,,0.0-63.0,,1.0,917.94,1.0,0.59645454,1.0,0.710437172,1.0,0.327441879,1.0,0.391749613,True,,5beb492b5324b10001c26ae8,,973863,61,,evan-feature22,full_rf_a,,0
37,2233,62,,,,2,2,0.0,1.0,1.0,0.0,,0.0-64.0,,0.0,611.55,0.0,0.529473,0.0,0.636758527,0.0,0.301338063,1.0,0.365661481,True,,5beb492b5324b10001c26ae8,,984286,62,,evan-feature22,full_rf_a,,0
38,2234,63,,,,1,1,1.0,0.0,0.0,-1.0,,0.0-65.0,,0.0,1258.58,1.0,0.541657162,0.0,0.634541962,1.0,0.343535366,0.0,0.371763742,True,,5beb492b5324b10001c26ae8,,995352,63,,evan-feature22,full_rf_a,,1
39,2235,64,,,,2,2,0.0,1.0,1.0,0.0,,0.0-66.0,,0.0,2085.255,1.0,0.5707533260000001,0.0,0.589121171,0.0,0.326428396,1.0,0.43961622899999997,True,,5beb492b5324b10001c26ae8,,1007250,64,,evan-feature22,full_rf_a,,1
40,2236,65,,,,1,1,1.0,0.0,1.0,0.0,,0.0-67.0,,1.0,820.49,1.0,0.5707533260000001,0.0,0.589121171,0.0,0.326428396,0.0,0.43961622899999997,True,,5beb492b5324b10001c26ae8,,1017889,65,,evan-feature22,full_rf_a,,1
41,2237,66,,,,1,1,1.0,1.0,1.0,0.0,,0.0-68.0,,1.0,871.03,1.0,0.506271295,1.0,0.641775594,0.0,0.37149690700000004,1.0,0.404330166,True,,5beb492b5324b10001c26ae8,,1028570,66,,evan-feature22,full_rf_a,,0
42,2238,67,,,,2,2,0.0,1.0,0.0,-1.0,,0.0-69.0,,-1.0,2158.85,1.0,0.455642565,0.0,0.623605825,0.0,0.358753011,1.0,0.346174041,True,,5beb492b5324b10001c26ae8,,1040550,67,,evan-feature22,full_rf_a,,1
43,2239,68,,,,1,1,0.0,0.0,0.0,-1.0,,0.0-70.0,,0.0,1028.11,0.0,0.483677308,0.0,0.5904681070000001,1.0,0.402218411,0.0,0.35344697,True,,5beb492b5324b10001c26ae8,,1051396,68,,evan-feature22,full_rf_a,,1
44,2240,69,,,,1,1,0.0,0.0,0.0,-1.0,,0.0-71.0,,0.0,1261.575,0.0,0.394210977,0.0,0.558925494,1.0,0.540052017,1.0,0.35182128700000004,True,,5beb492b5324b10001c26ae8,,1062477,69,,evan-feature22,full_rf_a,,0
45,2241,70,,,,2,2,1.0,0.0,1.0,0.0,,0.0-72.0,,1.0,633.945,0.0,0.382300414,0.0,0.577670603,1.0,0.607608448,0.0,0.378261578,True,,5beb492b5324b10001c26ae8,,1072903,70,,evan-feature22,full_rf_a,,1
46,2242,71,,,,2,2,0.0,1.0,1.0,0.0,,0.0-73.0,,0.0,848.43,0.0,0.357596762,1.0,0.5929076529999999,0.0,0.6579790010000001,1.0,0.401326777,True,,5beb492b5324b10001c26ae8,,1083579,71,,evan-feature22,full_rf_a,,0
47,2243,72,,,,2,2,1.0,0.0,1.0,0.0,,0.0-74.0,,1.0,799.21,0.0,0.362033495,0.0,0.582308608,1.0,0.649195052,0.0,0.355158505,True,,5beb492b5324b10001c26ae8,,1094185,72,,evan-feature22,full_rf_a,,0
48,2244,73,,,,2,2,0.0,0.0,1.0,0.0,,0.0-75.0,,0.0,913.17,1.0,0.369620635,1.0,0.669100864,0.0,0.706059111,0.0,0.362516241,True,,5beb492b5324b10001c26ae8,,1104915,73,,evan-feature22,full_rf_a,,0
49,2245,74,,,,2,2,1.0,1.0,1.0,0.0,,0.0-76.0,,1.0,2377.435,0.0,0.41477751399999996,1.0,0.7284416779999999,1.0,0.7182656940000001,1.0,0.36228040899999997,True,,5beb492b5324b10001c26ae8,,1117084,74,,evan-feature22,full_rf_a,,0
50,2246,75,,,,2,2,1.0,0.0,0.0,-1.0,,0.0-77.0,,0.0,1904.59,0.0,0.37675460299999997,0.0,0.703250285,1.0,0.75,0.0,0.461979164,True,,5beb492b5324b10001c26ae8,,1128786,75,,evan-feature22,full_rf_a,,0
51,2247,76,,,,1,1,0.0,1.0,0.0,-1.0,,0.0-78.0,,-1.0,1624.175,0.0,0.398716075,1.0,0.6723864890000001,1.0,0.674153818,1.0,0.519029516,True,,5beb492b5324b10001c26ae8,,1140214,76,,evan-feature22,full_rf_a,,1
52,2248,77,,,,2,2,0.0,1.0,1.0,0.0,,0.0-79.0,,0.0,674.6,1.0,0.34677856700000004,1.0,0.69057175,0.0,0.6822438540000001,1.0,0.477292237,True,,5beb492b5324b10001c26ae8,,1150709,77,,evan-feature22,full_rf_a,,1
53,2249,78,,,,1,1,0.0,1.0,0.0,-1.0,,0.0-80.0,,-1.0,1955.2,0.0,0.28580469199999997,1.0,0.68408818,0.0,0.684207565,0.0,0.49780448299999996,True,,5beb492b5324b10001c26ae8,,1162479,78,,evan-feature22,full_rf_a,,1
54,2251,80,,,,2,2,0.0,1.0,1.0,0.0,,0.0-82.0,,0.0,1668.78,0.0,0.25,0.0,0.7405808970000001,0.0,0.679614108,1.0,0.436436964,True,,5beb492b5324b10001c26ae8,,1181339,80,,evan-feature22,full_rf_a,,1
55,2252,81,,,,1,1,0.0,1.0,0.0,-1.0,,0.0-83.0,,-1.0,1015.515,0.0,0.29890393,1.0,0.730505706,1.0,0.7328203320000001,1.0,0.439256938,True,,5beb492b5324b10001c26ae8,,1192186,81,,evan-feature22,full_rf_a,,1
56,2253,82,,,,2,2,0.0,0.0,1.0,0.0,,0.0-84.0,,0.0,633.505,0.0,0.326762398,1.0,0.7148059609999999,0.0,0.75,0.0,0.44389608799999997,True,,5beb492b5324b10001c26ae8,,1202633,82,,evan-feature22,full_rf_a,,1
57,2254,83,,,,2,2,1.0,1.0,1.0,0.0,,0.0-85.0,,1.0,829.24,0.0,0.295168515,1.0,0.739760854,1.0,0.719947008,1.0,0.35277284600000003,True,,5beb492b5324b10001c26ae8,,1213268,83,,evan-feature22,full_rf_a,,0
58,2255,84,,,,2,2,1.0,0.0,1.0,0.0,,0.0-86.0,,1.0,679.975,1.0,0.25,1.0,0.70781482,1.0,0.75,0.0,0.286095925,True,,5beb492b5324b10001c26ae8,,1223748,84,,evan-feature22,full_rf_a,,0
59,2256,85,,,,2,2,1.0,0.0,0.0,-1.0,,0.0-87.0,,0.0,1117.27,0.0,0.25638190899999996,1.0,0.704088163,1.0,0.75,0.0,0.26872601399999996,True,,5beb492b5324b10001c26ae8,,1234678,85,,evan-feature22,full_rf_a,,0
60,2257,86,,,,2,2,1.0,0.0,0.0,-1.0,,0.0-88.0,,0.0,969.56,1.0,0.271581126,1.0,0.669760107,1.0,0.733896663,0.0,0.273244572,True,,5beb492b5324b10001c26ae8,,1245457,86,,evan-feature22,full_rf_a,,0
61,2258,87,,,,2,2,1.0,0.0,0.0,-1.0,,0.0-89.0,,0.0,669.985,0.0,0.257144401,1.0,0.600575706,1.0,0.74488122,0.0,0.25,True,,5beb492b5324b10001c26ae8,,1255937,87,,evan-feature22,full_rf_a,,0
62,2259,88,,,,2,2,0.0,0.0,1.0,0.0,,0.0-90.0,,0.0,1197.97,0.0,0.25,1.0,0.616870026,0.0,0.723610234,0.0,0.25,True,,5beb492b5324b10001c26ae8,,1266944,88,,evan-feature22,full_rf_a,,0
63,2260,89,,,,2,2,1.0,0.0,0.0,-1.0,,0.0-91.0,,0.0,1277.37,0.0,0.25,1.0,0.583540187,1.0,0.7041042559999999,0.0,0.285961995,True,,5beb492b5324b10001c26ae8,,1278028,89,,evan-feature22,full_rf_a,,0
64,2261,90,,,,2,2,0.0,0.0,1.0,0.0,,0.0-92.0,,0.0,981.02,1.0,0.27254536,1.0,0.53875765,0.0,0.693783448,0.0,0.284961652,True,,5beb492b5324b10001c26ae8,,1288822,90,,evan-feature22,full_rf_a,,0
65,2262,91,,,,2,2,1.0,1.0,0.0,-1.0,,0.0-93.0,,-1.0,1141.715,1.0,0.25,1.0,0.548431252,1.0,0.734221895,1.0,0.279445214,True,,5beb492b5324b10001c26ae8,,1299781,91,,evan-feature22,full_rf_a,,0
66,2263,92,,,,1,1,0.0,0.0,1.0,0.0,,0.0-94.0,,0.0,814.24,0.0,0.258640684,0.0,0.545878066,1.0,0.725245965,0.0,0.31487537,True,,5beb492b5324b10001c26ae8,,1310404,92,,evan-feature22,full_rf_a,,1
67,2264,93,,,,2,2,1.0,0.0,1.0,0.0,,0.0-95.0,,1.0,1209.61,1.0,0.251103711,1.0,0.5776290629999999,1.0,0.696320133,0.0,0.317831047,True,,5beb492b5324b10001c26ae8,,1321407,93,,evan-feature22,full_rf_a,,1
68,2265,94,,,,2,2,1.0,1.0,1.0,0.0,,0.0-96.0,,1.0,1195.555,0.0,0.276630292,0.0,0.617329858,1.0,0.73838088,1.0,0.261471582,True,,5beb492b5324b10001c26ae8,,1332393,94,,evan-feature22,full_rf_a,,0
69,2266,95,,,,1,1,0.0,1.0,0.0,-1.0,,0.0-97.0,,-1.0,1136.185,0.0,0.297716424,1.0,0.618863717,1.0,0.7402358259999999,0.0,0.262600834,True,,5beb492b5324b10001c26ae8,,1343344,95,,evan-feature22,full_rf_a,,1
70,2267,96,,,,2,2,1.0,0.0,1.0,0.0,,0.0-98.0,,1.0,799.77,1.0,0.290935512,1.0,0.695370945,1.0,0.706570507,0.0,0.280030553,True,,5beb492b5324b10001c26ae8,,1353947,96,,evan-feature22,full_rf_a,,1
71,2268,97,,,,2,2,1.0,0.0,1.0,0.0,,0.0-99.0,,1.0,759.26,0.0,0.25,1.0,0.6465277079999999,1.0,0.67766682,0.0,0.25,True,,5beb492b5324b10001c26ae8,,1364518,97,,evan-feature22,full_rf_a,,0
72,2269,98,,,,2,2,1.0,1.0,1.0,0.0,,0.0-100.0,,1.0,894.835,0.0,0.26463816,1.0,0.636100213,1.0,0.646048507,1.0,0.265607101,True,,5beb492b5324b10001c26ae8,,1375244,98,,evan-feature22,full_rf_a,,0
73,2270,99,,,,2,2,1.0,0.0,1.0,0.0,,0.0-101.0,,1.0,763.01,1.0,0.314340707,1.0,0.667795927,1.0,0.613630805,0.0,0.25,True,,5beb492b5324b10001c26ae8,,1385817,99,,evan-feature22,full_rf_a,,0
74,2271,100,,,,2,2,1.0,0.0,1.0,0.0,,0.0-102.0,,1.0,815.335,1.0,0.28685784,0.0,0.6622549529999999,1.0,0.652154117,0.0,0.25,True,,5beb492b5324b10001c26ae8,,1396445,100,,evan-feature22,full_rf_a,,0
75,2272,101,,,,2,2,1.0,0.0,0.0,-1.0,,0.0-103.0,,0.0,885.375,1.0,0.304106554,1.0,0.631289538,1.0,0.707041942,0.0,0.29314237,True,,5beb492b5324b10001c26ae8,,1407138,101,,evan-feature22,full_rf_a,,0
76,2273,102,,,,2,2,0.0,0.0,0.0,-1.0,,0.0-104.0,,0.0,1172.955,0.0,0.304806932,1.0,0.571167718,0.0,0.680472346,0.0,0.25,True,,5beb492b5324b10001c26ae8,,1418121,102,,evan-feature22,full_rf_a,,0
77,2274,103,,,,2,2,1.0,0.0,0.0,-1.0,,0.0-105.0,,0.0,1224.485,1.0,0.37919861,1.0,0.5724849710000001,1.0,0.705638003,0.0,0.30179300600000003,True,,5beb492b5324b10001c26ae8,,1429145,103,,evan-feature22,full_rf_a,,0
78,2275,104,,,,2,2,1.0,0.0,0.0,-1.0,,0.0-106.0,,0.0,1006.41,1.0,0.464277969,1.0,0.554034373,1.0,0.7372627340000001,0.0,0.264699741,True,,5beb492b5324b10001c26ae8,,1439963,104,,evan-feature22,full_rf_a,,0
79,2276,105,,,,1,1,1.0,0.0,1.0,0.0,,0.0-107.0,,1.0,1086.525,1.0,0.465104323,0.0,0.530793115,1.0,0.75,1.0,0.31683071,True,,5beb492b5324b10001c26ae8,,1450851,105,,evan-feature22,full_rf_a,,1
80,2277,106,,,,2,2,1.0,0.0,0.0,-1.0,,0.0-108.0,,0.0,2010.4,0.0,0.465104323,1.0,0.530793115,1.0,0.75,0.0,0.31683071,True,,5beb492b5324b10001c26ae8,,1462658,106,,evan-feature22,full_rf_a,,1
81,2278,107,,,,2,2,1.0,0.0,0.0,-1.0,,0.0-109.0,,0.0,1035.94,1.0,0.46833986,0.0,0.570249239,1.0,0.7244472590000001,0.0,0.364114163,True,,5beb492b5324b10001c26ae8,,1473516,107,,evan-feature22,full_rf_a,,0
82,2279,108,,,,2,2,1.0,1.0,0.0,-1.0,,0.0-110.0,,-1.0,868.795,0.0,0.445444024,0.0,0.649673355,1.0,0.6845441290000001,1.0,0.300660449,True,,5beb492b5324b10001c26ae8,,1484207,108,,evan-feature22,full_rf_a,,0
83,2280,109,,,,1,1,0.0,1.0,0.0,-1.0,,0.0-111.0,,-1.0,1833.9,0.0,0.39909721299999995,1.0,0.6715179509999999,1.0,0.742310028,0.0,0.35496088299999995,True,,5beb492b5324b10001c26ae8,,1495841,109,,evan-feature22,full_rf_a,,1
84,2281,110,,,,2,2,1.0,1.0,0.0,-1.0,,0.0-112.0,,-1.0,1048.465,0.0,0.37956104799999996,1.0,0.694725302,1.0,0.7181651309999999,1.0,0.38726906299999997,True,,5beb492b5324b10001c26ae8,,1506718,110,,evan-feature22,full_rf_a,,1
85,2282,111,,,,2,2,0.0,0.0,0.0,-1.0,,0.0-113.0,,0.0,1377.465,1.0,0.404995034,0.0,0.724375412,0.0,0.6910946859999999,0.0,0.387187347,True,,5beb492b5324b10001c26ae8,,1517924,111,,evan-feature22,full_rf_a,,0
86,2283,112,,,,2,2,0.0,0.0,0.0,-1.0,,0.0-114.0,,0.0,1510.615,1.0,0.461740803,1.0,0.75,0.0,0.75,0.0,0.34872038200000005,True,,5beb492b5324b10001c26ae8,,1529255,112,,evan-feature22,full_rf_a,,0
87,2284,113,,,,1,1,1.0,0.0,1.0,0.0,,0.0-115.0,,1.0,1388.635,1.0,0.43821380600000004,0.0,0.738833273,0.0,0.728286963,0.0,0.399538128,True,,5beb492b5324b10001c26ae8,,1540450,113,,evan-feature22,full_rf_a,,1
88,2285,114,,,,2,2,1.0,0.0,0.0,-1.0,,0.0-116.0,,0.0,854.92,0.0,0.41709882,0.0,0.736666736,1.0,0.75,0.0,0.389095584,True,,5beb492b5324b10001c26ae8,,1551124,114,,evan-feature22,full_rf_a,,1
89,2286,115,,,,2,2,1.0,1.0,0.0,-1.0,,0.0-117.0,,-1.0,1250.46,1.0,0.39749009799999996,1.0,0.744320029,1.0,0.75,1.0,0.363848678,True,,5beb492b5324b10001c26ae8,,1562172,115,,evan-feature22,full_rf_a,,0
90,2287,116,,,,2,2,0.0,0.0,1.0,0.0,,0.0-118.0,,0.0,1010.22,0.0,0.392653706,1.0,0.75,0.0,0.75,0.0,0.384386976,True,,5beb492b5324b10001c26ae8,,1573012,116,,evan-feature22,full_rf_a,,0
91,2288,117,,,,2,2,0.0,1.0,1.0,0.0,,0.0-119.0,,0.0,1294.325,1.0,0.31190902600000003,1.0,0.75,0.0,0.732413819,1.0,0.413082932,True,,5beb492b5324b10001c26ae8,,1584111,117,,evan-feature22,full_rf_a,,0
92,2289,118,,,,2,2,0.0,1.0,0.0,-1.0,,0.0-120.0,,-1.0,1398.145,1.0,0.366917648,1.0,0.740073855,0.0,0.75,1.0,0.352861979,True,,5beb492b5324b10001c26ae8,,1595329,118,,evan-feature22,full_rf_a,,0
93,2290,119,,,,2,2,1.0,0.0,0.0,-1.0,,0.0-121.0,,0.0,968.88,0.0,0.3645172,1.0,0.721770713,1.0,0.75,0.0,0.404074511,True,,5beb492b5324b10001c26ae8,,1606092,119,,evan-feature22,full_rf_a,,0
94,2291,120,,,,2,2,1.0,0.0,0.0,-1.0,,0.0-122.0,,0.0,1175.97,0.0,0.35205600299999995,1.0,0.68983859,1.0,0.739735447,0.0,0.366895945,True,,5beb492b5324b10001c26ae8,,1617086,120,,evan-feature22,full_rf_a,,0
95,2292,121,,,,2,2,1.0,1.0,0.0,-1.0,,0.0-123.0,,-1.0,965.03,1.0,0.40998722600000004,1.0,0.720859127,1.0,0.673854955,1.0,0.368528541,True,,5beb492b5324b10001c26ae8,,1627856,121,,evan-feature22,full_rf_a,,0
96,2293,122,,,,1,1,0.0,0.0,1.0,0.0,,0.0-124.0,,0.0,920.27,0.0,0.353625316,0.0,0.75,0.0,0.695605473,0.0,0.38303674200000004,True,,5beb492b5324b10001c26ae8,,1638585,122,,evan-feature22,full_rf_a,,1
97,2294,123,,,,2,2,1.0,0.0,0.0,-1.0,,0.0-125.0,,0.0,1131.665,1.0,0.359216989,1.0,0.75,1.0,0.6987915090000001,0.0,0.35169046200000004,True,,5beb492b5324b10001c26ae8,,1649536,123,,evan-feature22,full_rf_a,,1
98,2295,124,,,,1,1,0.0,1.0,1.0,0.0,,0.0-126.0,,0.0,1795.025,0.0,0.35834496899999996,1.0,0.75,1.0,0.707067742,1.0,0.416763636,True,,5beb492b5324b10001c26ae8,,1661147,124,,evan-feature22,full_rf_a,,1
99,2296,125,,,,2,2,0.0,0.0,1.0,0.0,,0.0-127.0,,0.0,832.385,0.0,0.38741613799999997,1.0,0.7177369570000001,0.0,0.734902455,0.0,0.49438664299999996,True,,5beb492b5324b10001c26ae8,,1671780,125,,evan-feature22,full_rf_a,,1
100,2297,126,,,,2,2,0.0,0.0,0.0,-1.0,,0.0-128.0,,0.0,1017.43,0.0,0.405255252,1.0,0.7300466640000001,0.0,0.7027748070000001,0.0,0.504359668,True,,5beb492b5324b10001c26ae8,,1682622,126,,evan-feature22,full_rf_a,,0
101,2298,127,,,,2,2,0.0,0.0,0.0,-1.0,,0.0-129.0,,0.0,775.495,1.0,0.40697073,1.0,0.7260142190000001,0.0,0.724461982,0.0,0.522779179,True,,5beb492b5324b10001c26ae8,,1693219,127,,evan-feature22,full_rf_a,,0
102,2299,128,,,,2,2,1.0,1.0,0.0,-1.0,,0.0-130.0,,-1.0,916.35,0.0,0.43906215299999996,1.0,0.7252802340000001,1.0,0.719079934,1.0,0.5712990579999999,True,,5beb492b5324b10001c26ae8,,1703950,128,,evan-feature22,full_rf_a,,0
103,2300,129,,,,2,2,0.0,1.0,0.0,-1.0,,0.0-131.0,,-1.0,922.025,0.0,0.4076705,1.0,0.73280499,0.0,0.681313127,1.0,0.523891346,True,,5beb492b5324b10001c26ae8,,1714683,129,,evan-feature22,full_rf_a,,0
104,2301,130,,,,2,2,1.0,0.0,0.0,-1.0,,0.0-132.0,,0.0,1010.19,0.0,0.399102911,0.0,0.730498344,1.0,0.661080239,0.0,0.46742603,True,,5beb492b5324b10001c26ae8,,1725503,130,,evan-feature22,full_rf_a,,0
105,2302,131,,,,2,2,0.0,0.0,1.0,0.0,,0.0-133.0,,0.0,1173.24,0.0,0.356477282,0.0,0.712296395,0.0,0.641812684,0.0,0.44868414,True,,5beb492b5324b10001c26ae8,,1736491,131,,evan-feature22,full_rf_a,,0
106,2303,132,,,,2,2,1.0,0.0,0.0,-1.0,,0.0-134.0,,0.0,1036.435,0.0,0.462760722,1.0,0.692349322,1.0,0.700947931,0.0,0.394680266,True,,5beb492b5324b10001c26ae8,,1747333,132,,evan-feature22,full_rf_a,,0
107,2304,133,,,,2,2,1.0,0.0,0.0,-1.0,,0.0-135.0,,0.0,985.17,0.0,0.422306413,1.0,0.718375916,1.0,0.706340917,0.0,0.367787185,True,,5beb492b5324b10001c26ae8,,1758122,133,,evan-feature22,full_rf_a,,0
108,2306,135,,,,2,2,1.0,0.0,0.0,-1.0,,0.0-137.0,,0.0,1703.285,0.0,0.4582233,1.0,0.643834117,1.0,0.75,0.0,0.39615823299999997,True,,5beb492b5324b10001c26ae8,,1775398,135,,evan-feature22,full_rf_a,,0
109,2307,136,,,,2,2,1.0,0.0,0.0,-1.0,,0.0-138.0,,0.0,795.845,1.0,0.43813437899999996,1.0,0.651283804,1.0,0.729674191,0.0,0.37711048,True,,5beb492b5324b10001c26ae8,,1785999,136,,evan-feature22,full_rf_a,,0
110,2308,137,,,,2,2,1.0,1.0,0.0,-1.0,,0.0-139.0,,-1.0,767.545,0.0,0.471199094,1.0,0.6470010979999999,1.0,0.715008097,1.0,0.410656191,True,,5beb492b5324b10001c26ae8,,1796578,137,,evan-feature22,full_rf_a,,0
111,2309,138,,,,2,2,1.0,0.0,1.0,0.0,,0.0-140.0,,1.0,857.32,0.0,0.42486406,1.0,0.629771829,1.0,0.6550939960000001,0.0,0.459093873,True,,5beb492b5324b10001c26ae8,,1807238,138,,evan-feature22,full_rf_a,,0
112,2310,139,,,,2,2,1.0,1.0,1.0,0.0,,0.0-141.0,,1.0,1187.93,0.0,0.4803197,0.0,0.645842715,1.0,0.6421749920000001,1.0,0.443092151,True,,5beb492b5324b10001c26ae8,,1818223,139,,evan-feature22,full_rf_a,,0
113,2311,140,,,,2,2,1.0,1.0,1.0,0.0,,0.0-142.0,,1.0,686.765,1.0,0.521848997,1.0,0.735801074,1.0,0.6691348460000001,1.0,0.45259351600000003,True,,5beb492b5324b10001c26ae8,,1828735,140,,evan-feature22,full_rf_a,,0
114,2312,141,,,,2,2,1.0,1.0,0.0,-1.0,,0.0-143.0,,-1.0,1408.45,0.0,0.49565621299999996,1.0,0.742400847,1.0,0.661512553,1.0,0.483110831,True,,5beb492b5324b10001c26ae8,,1839938,141,,evan-feature22,full_rf_a,,0
115,2313,142,,,,2,2,1.0,0.0,1.0,0.0,,0.0-144.0,,1.0,838.58,1.0,0.521564361,1.0,0.731078632,1.0,0.6774886809999999,0.0,0.483263956,True,,5beb492b5324b10001c26ae8,,1850577,142,,evan-feature22,full_rf_a,,0
116,2314,143,,,,2,2,1.0,0.0,1.0,0.0,,0.0-145.0,,1.0,903.37,1.0,0.558893102,1.0,0.719810023,1.0,0.67461031,0.0,0.499349834,True,,5beb492b5324b10001c26ae8,,1861315,143,,evan-feature22,full_rf_a,,0
117,2315,144,,,,2,2,0.0,0.0,0.0,-1.0,,0.0-146.0,,0.0,1267.005,0.0,0.611031046,1.0,0.75,0.0,0.688072995,0.0,0.5321422729999999,True,,5beb492b5324b10001c26ae8,,1872388,144,,evan-feature22,full_rf_a,,0
118,2316,145,,,,2,2,1.0,0.0,1.0,0.0,,0.0-147.0,,1.0,767.14,0.0,0.633223941,1.0,0.713567728,1.0,0.75,0.0,0.48185314700000004,True,,5beb492b5324b10001c26ae8,,1882967,145,,evan-feature22,full_rf_a,,0
119,2317,146,,,,2,2,1.0,0.0,1.0,0.0,,0.0-148.0,,1.0,805.255,1.0,0.664001694,1.0,0.705509768,1.0,0.75,0.0,0.500211065,True,,5beb492b5324b10001c26ae8,,1893587,146,,evan-feature22,full_rf_a,,0
120,2318,147,,,,2,2,1.0,0.0,0.0,-1.0,,0.0-149.0,,0.0,920.735,0.0,0.664001694,0.0,0.705509768,1.0,0.75,0.0,0.500211065,True,,5beb492b5324b10001c26ae8,,1904345,147,,evan-feature22,full_rf_a,,0
121,2319,148,,,,2,2,0.0,0.0,0.0,-1.0,,0.0-150.0,,0.0,1004.16,1.0,0.696508041,1.0,0.71066027,0.0,0.717028709,0.0,0.49792991,True,,5beb492b5324b10001c26ae8,,1915173,148,,evan-feature22,full_rf_a,,0
122,2320,149,,,,2,2,1.0,0.0,1.0,0.0,,0.0-151.0,,1.0,1627.585,0.0,0.699883272,1.0,0.75,1.0,0.713543895,0.0,0.496962643,True,,5beb492b5324b10001c26ae8,,1926601,149,,evan-feature22,full_rf_a,,0
123,2321,150,,,,2,2,1.0,1.0,0.0,-1.0,,0.0-152.0,,-1.0,1005.275,1.0,0.741163419,1.0,0.75,1.0,0.64691024,1.0,0.513858197,True,,5beb492b5324b10001c26ae8,,1937423,150,,evan-feature22,full_rf_a,,0
124,2322,151,,,,2,2,0.0,0.0,1.0,0.0,,0.0-153.0,,0.0,861.945,0.0,0.75,1.0,0.70816558,0.0,0.594499079,0.0,0.48502124,True,,5beb492b5324b10001c26ae8,,1948093,151,,evan-feature22,full_rf_a,,0
125,2323,152,,,,2,2,1.0,1.0,0.0,-1.0,,0.0-154.0,,-1.0,712.885,1.0,0.75,0.0,0.721848901,1.0,0.62197249,1.0,0.48263586399999997,True,,5beb492b5324b10001c26ae8,,1958606,152,,evan-feature22,full_rf_a,,0
126,2324,153,,,,1,1,0.0,1.0,1.0,0.0,,0.0-155.0,,0.0,1369.195,0.0,0.75,1.0,0.74813071,0.0,0.584357161,0.0,0.411477782,True,,5beb492b5324b10001c26ae8,,1969775,153,,evan-feature22,full_rf_a,,1
127,2325,154,,,,2,2,1.0,0.0,0.0,-1.0,,0.0-156.0,,0.0,800.115,1.0,0.75,1.0,0.75,1.0,0.52287236,0.0,0.488290656,True,,5beb492b5324b10001c26ae8,,1980384,154,,evan-feature22,full_rf_a,,1
128,2326,155,,,,2,2,1.0,1.0,0.0,-1.0,,0.0-157.0,,-1.0,828.91,1.0,0.75,0.0,0.75,1.0,0.544321581,1.0,0.53143059,True,,5beb492b5324b10001c26ae8,,1991049,155,,evan-feature22,full_rf_a,,0
129,2327,156,,,,1,1,1.0,1.0,0.0,-1.0,,0.0-158.0,,-1.0,845.315,1.0,0.726754564,1.0,0.75,0.0,0.5129306370000001,1.0,0.530592445,True,,5beb492b5324b10001c26ae8,,2001704,156,,evan-feature22,full_rf_a,,1
130,2328,157,,,,1,1,1.0,1.0,1.0,0.0,,0.0-159.0,,1.0,722.155,1.0,0.75,1.0,0.7392590729999999,0.0,0.479875835,0.0,0.547007051,True,,5beb492b5324b10001c26ae8,,2012240,157,,evan-feature22,full_rf_a,,0
131,2329,158,,,,1,1,1.0,1.0,1.0,0.0,,0.0-160.0,,1.0,695.29,1.0,0.75,1.0,0.7393376979999999,0.0,0.546045419,1.0,0.541267353,True,,5beb492b5324b10001c26ae8,,2022730,158,,evan-feature22,full_rf_a,,0
132,2330,159,,,,1,1,1.0,1.0,1.0,0.0,,0.0-161.0,,1.0,726.035,1.0,0.75,1.0,0.75,0.0,0.485725895,1.0,0.527625395,True,,5beb492b5324b10001c26ae8,,2033266,159,,evan-feature22,full_rf_a,,0
133,2331,160,,,,2,2,0.0,1.0,0.0,-1.0,,0.0-162.0,,-1.0,1713.06,1.0,0.75,1.0,0.725087974,0.0,0.488603595,1.0,0.504019206,True,,5beb492b5324b10001c26ae8,,2044796,160,,evan-feature22,full_rf_a,,1
134,2332,161,,,,2,2,0.0,0.0,0.0,-1.0,,0.0-163.0,,0.0,2050.68,1.0,0.745504295,1.0,0.75,0.0,0.452379914,0.0,0.50131194,True,,5beb492b5324b10001c26ae8,,2056670,161,,evan-feature22,full_rf_a,,0
135,2333,162,,,,2,2,1.0,1.0,0.0,-1.0,,0.0-164.0,,-1.0,851.3,1.0,0.728513874,0.0,0.75,1.0,0.44125567200000004,1.0,0.531454591,True,,5beb492b5324b10001c26ae8,,2067331,162,,evan-feature22,full_rf_a,,0
136,2334,163,,,,1,1,1.0,1.0,1.0,0.0,,0.0-165.0,,1.0,923.565,1.0,0.73790804,1.0,0.75,0.0,0.413036656,0.0,0.524619035,True,,5beb492b5324b10001c26ae8,,2078071,163,,evan-feature22,full_rf_a,,1
137,2335,164,,,,2,2,1.0,1.0,0.0,-1.0,,0.0-166.0,,-1.0,760.64,0.0,0.7080961309999999,1.0,0.708666865,1.0,0.431915581,1.0,0.481819489,True,,5beb492b5324b10001c26ae8,,2088649,164,,evan-feature22,full_rf_a,,1
138,2336,165,,,,2,2,1.0,1.0,0.0,-1.0,,0.0-167.0,,-1.0,1031.5,0.0,0.721378003,1.0,0.71605913,1.0,0.36642387,1.0,0.5036739929999999,True,,5beb492b5324b10001c26ae8,,2099494,165,,evan-feature22,full_rf_a,,0
139,2337,166,,,,2,2,0.0,1.0,0.0,-1.0,,0.0-168.0,,-1.0,1374.68,1.0,0.7340618959999999,1.0,0.699323252,0.0,0.35298046299999997,1.0,0.511241692,True,,5beb492b5324b10001c26ae8,,2110699,166,,evan-feature22,full_rf_a,,0
140,2338,167,,,,1,1,0.0,1.0,1.0,0.0,,0.0-169.0,,0.0,808.445,0.0,0.75,1.0,0.70412698,0.0,0.380734814,0.0,0.529580116,True,,5beb492b5324b10001c26ae8,,2121332,167,,evan-feature22,full_rf_a,,1
141,2339,168,,,,1,1,1.0,0.0,0.0,-1.0,,0.0-170.0,,0.0,1763.27,1.0,0.7436654909999999,0.0,0.711182751,0.0,0.41125331,1.0,0.49554405,True,,5beb492b5324b10001c26ae8,,2132906,168,,evan-feature22,full_rf_a,,0
142,2340,169,,,,1,1,1.0,1.0,0.0,-1.0,,0.0-171.0,,-1.0,1165.375,1.0,0.731607915,1.0,0.651774583,0.0,0.35688023,1.0,0.45194491600000003,True,,5beb492b5324b10001c26ae8,,2143889,169,,evan-feature22,full_rf_a,,0
143,2341,170,,,,1,1,1.0,1.0,1.0,0.0,,0.0-172.0,,1.0,701.565,1.0,0.75,1.0,0.75,0.0,0.283145374,0.0,0.528608005,True,,5beb492b5324b10001c26ae8,,2154404,170,,evan-feature22,full_rf_a,,0
144,2342,171,,,,1,1,1.0,1.0,1.0,0.0,,0.0-173.0,,1.0,679.665,1.0,0.7491416890000001,1.0,0.7423785959999999,0.0,0.29135870399999997,0.0,0.498888318,True,,5beb492b5324b10001c26ae8,,2164911,171,,evan-feature22,full_rf_a,,0
145,2343,172,,,,1,1,1.0,1.0,1.0,0.0,,0.0-174.0,,1.0,908.87,1.0,0.708569387,1.0,0.717682277,0.0,0.294421699,1.0,0.493838163,True,,5beb492b5324b10001c26ae8,,2175630,172,,evan-feature22,full_rf_a,,0
146,2344,173,,,,2,2,0.0,0.0,0.0,-1.0,,0.0-175.0,,0.0,848.73,1.0,0.75,1.0,0.7383382159999999,0.0,0.356098707,0.0,0.442533405,True,,5beb492b5324b10001c26ae8,,2186291,173,,evan-feature22,full_rf_a,,1
147,2345,174,,,,2,2,0.0,0.0,0.0,-1.0,,0.0-176.0,,0.0,750.035,0.0,0.744527075,0.0,0.75,0.0,0.334127506,0.0,0.393165805,True,,5beb492b5324b10001c26ae8,,2196860,174,,evan-feature22,full_rf_a,,0
148,2346,175,,,,2,2,0.0,0.0,0.0,-1.0,,0.0-177.0,,0.0,1385.76,0.0,0.75,1.0,0.75,0.0,0.33571021799999995,0.0,0.350393962,True,,5beb492b5324b10001c26ae8,,2208077,175,,evan-feature22,full_rf_a,,0
149,2347,176,,,,2,2,0.0,1.0,0.0,-1.0,,0.0-178.0,,-1.0,845.125,1.0,0.75,0.0,0.75,0.0,0.313628297,1.0,0.36349657399999996,True,,5beb492b5324b10001c26ae8,,2218729,176,,evan-feature22,full_rf_a,,0
150,2348,177,,,,1,1,0.0,0.0,1.0,0.0,,0.0-179.0,,0.0,773.735,0.0,0.75,0.0,0.734284182,0.0,0.262667667,0.0,0.380199119,True,,5beb492b5324b10001c26ae8,,2229321,177,,evan-feature22,full_rf_a,,1
151,2349,178,,,,1,1,1.0,1.0,0.0,-1.0,,0.0-180.0,,-1.0,1623.36,1.0,0.75,1.0,0.75,0.0,0.25,0.0,0.394494013,True,,5beb492b5324b10001c26ae8,,2240764,178,,evan-feature22,full_rf_a,,0
152,2350,179,,,,1,1,0.0,1.0,1.0,0.0,,0.0-181.0,,0.0,773.65,0.0,0.722298145,1.0,0.7357822340000001,0.0,0.25,1.0,0.319142121,True,,5beb492b5324b10001c26ae8,,2251354,179,,evan-feature22,full_rf_a,,0
153,2351,180,,,,1,1,0.0,1.0,1.0,0.0,,0.0-182.0,,0.0,739.17,0.0,0.73149275,1.0,0.724276446,0.0,0.305856907,0.0,0.281315057,True,,5beb492b5324b10001c26ae8,,2261908,180,,evan-feature22,full_rf_a,,0
154,2352,181,,,,2,2,0.0,0.0,0.0,-1.0,,0.0-183.0,,0.0,964.32,1.0,0.7458732690000001,1.0,0.7336382459999999,0.0,0.272571964,0.0,0.266021999,True,,5beb492b5324b10001c26ae8,,2272665,181,,evan-feature22,full_rf_a,,1
155,2353,182,,,,2,2,0.0,0.0,0.0,-1.0,,0.0-184.0,,0.0,799.485,1.0,0.705579037,1.0,0.720778292,0.0,0.320238144,0.0,0.30971744,True,,5beb492b5324b10001c26ae8,,2283276,182,,evan-feature22,full_rf_a,,0
156,2354,183,,,,2,2,1.0,0.0,0.0,-1.0,,0.0-185.0,,0.0,823.365,0.0,0.700425648,1.0,0.7198784009999999,1.0,0.272590393,0.0,0.304182931,True,,5beb492b5324b10001c26ae8,,2293889,183,,evan-feature22,full_rf_a,,0
157,2355,184,,,,2,2,0.0,0.0,0.0,-1.0,,0.0-186.0,,0.0,1037.5,1.0,0.735590785,1.0,0.722714973,0.0,0.25,0.0,0.323421091,True,,5beb492b5324b10001c26ae8,,2304741,184,,evan-feature22,full_rf_a,,0
158,2356,185,,,,2,2,0.0,1.0,0.0,-1.0,,0.0-187.0,,-1.0,660.89,1.0,0.724807662,1.0,0.63146213,0.0,0.36836492600000004,1.0,0.34592153299999995,True,,5beb492b5324b10001c26ae8,,2315231,185,,evan-feature22,full_rf_a,,0
159,2357,186,,,,2,2,0.0,0.0,0.0,-1.0,,0.0-188.0,,0.0,673.675,1.0,0.7352796909999999,1.0,0.555111392,0.0,0.36003922,0.0,0.31433779999999995,True,,5beb492b5324b10001c26ae8,,2325701,186,,evan-feature22,full_rf_a,,0
160,2358,187,notice,,,,,,,,,,0.0-189.0,"{""Q0"":""not particularly - was hard to discern any long term pattern""}",,42746.0,,,,,,,,,True,,5beb492b5324b10001c26ae8,,2368450,187,Q,survey-text,full_rf_a,,1
161,2359,188,track1,,[0],,,,,,,,0.0-190.0,"{""Q0"":""yes""}",,8164.0,,,,,,,,,True,,5beb492b5324b10001c26ae8,,2376618,188,Q,evan-quiz,full_rf_a,,1
162,2360,189,track2,,[2],,,,,,,,0.0-191.0,"{""Q0"":""N/A""}",,7970.0,,,,,,,,,True,,5beb492b5324b10001c26ae8,,2384594,189,Q,evan-quiz,full_rf_a,,1
163,2361,190,strat,,,,,,,,,,0.0-192.0,"{""Q0"":""I always kept in mind an idea of who was the current leader for plus one gold/minus one black - i had usually made up my mind which door I would choose if any particular number came up""}",,85233.0,,,,,,,,,True,,5beb492b5324b10001c26ae8,,2469833,190,Q,survey-text,full_rf_a,,1
