,index,Unnamed: 0,Q_name,button_pressed,choice_idxs,chosen_pos,chosen_state,chosen_state_f_1_outcome,chosen_state_f_2_outcome,f_1_reward,f_2_reward,incor_questions,internal_node_id,responses,reward_received,rt,s_1_f_1_outcome,s_1_f_1_prob,s_1_f_2_outcome,s_1_f_2_prob,s_2_f_1_outcome,s_2_f_1_prob,s_2_f_2_outcome,s_2_f_2_prob,safe_first,stimulus,subjectID,success,time_elapsed,trial_index,trial_num,trial_type,version,view_history,switching
0,46804,25,,,,2,2,0.0,0.0,-1.0,0.0,,0.0-27.0,,0.0,1394.0,1.0,0.6,1.0,0.6,0.0,0.4,0.0,0.4,False,,5ed94270ad37064ae646dfd7,,536765,25,,evan-feature22,full_pf_b,,0
1,46805,26,,,,2,2,1.0,0.0,-1.0,0.0,,0.0-28.0,,-1.0,350.0,1.0,0.608053294,0.0,0.63424552,1.0,0.397152172,0.0,0.347069101,False,,5ed94270ad37064ae646dfd7,,546881,26,,evan-feature22,full_pf_b,,0
2,46806,27,,,,1,1,0.0,1.0,-1.0,0.0,,0.0-29.0,,0.0,2059.0,0.0,0.642237155,1.0,0.648566321,0.0,0.389407674,1.0,0.285525717,False,,5ed94270ad37064ae646dfd7,,558705,27,,evan-feature22,full_pf_b,,1
3,46807,28,,,,2,2,0.0,0.0,-1.0,0.0,,0.0-30.0,,0.0,1365.0,1.0,0.661086576,1.0,0.630492543,0.0,0.399058924,0.0,0.25,False,,5ed94270ad37064ae646dfd7,,569834,28,,evan-feature22,full_pf_b,,1
4,46808,29,,,,1,1,0.0,1.0,0.0,1.0,,0.0-31.0,,1.0,2209.0,0.0,0.631324137,1.0,0.6269842929999999,0.0,0.38734784299999997,0.0,0.25,False,,5ed94270ad37064ae646dfd7,,581808,29,,evan-feature22,full_pf_b,,1
5,46809,30,,,,1,1,1.0,1.0,0.0,1.0,,0.0-32.0,,1.0,506.0,1.0,0.6381991370000001,1.0,0.68987999,1.0,0.384107265,0.0,0.271332943,False,,5ed94270ad37064ae646dfd7,,592077,30,,evan-feature22,full_pf_b,,0
6,46810,31,,,,1,1,0.0,1.0,-1.0,0.0,,0.0-33.0,,0.0,1570.0,0.0,0.66034901,1.0,0.742641349,1.0,0.360225629,0.0,0.25,False,,5ed94270ad37064ae646dfd7,,603418,31,,evan-feature22,full_pf_b,,0
7,46811,32,,,,1,1,1.0,1.0,-1.0,0.0,,0.0-34.0,,-1.0,1663.0,1.0,0.638612418,1.0,0.75,0.0,0.367273939,1.0,0.25,False,,5ed94270ad37064ae646dfd7,,614846,32,,evan-feature22,full_pf_b,,0
8,46812,33,,,,2,2,1.0,0.0,0.0,1.0,,0.0-35.0,,0.0,880.0,1.0,0.624340629,0.0,0.75,1.0,0.425829545,0.0,0.25,False,,5ed94270ad37064ae646dfd7,,625488,33,,evan-feature22,full_pf_b,,1
9,46813,34,,,,2,2,1.0,0.0,0.0,1.0,,0.0-36.0,,0.0,1813.0,1.0,0.621999804,1.0,0.75,1.0,0.368609357,0.0,0.25,False,,5ed94270ad37064ae646dfd7,,637065,34,,evan-feature22,full_pf_b,,0
10,46814,35,,,,1,1,0.0,0.0,-1.0,0.0,,0.0-37.0,,0.0,726.0,0.0,0.62666403,0.0,0.75,0.0,0.311151498,0.0,0.25,False,,5ed94270ad37064ae646dfd7,,647555,35,,evan-feature22,full_pf_b,,1
11,46815,36,,,,1,1,1.0,1.0,0.0,1.0,,0.0-38.0,,1.0,991.0,1.0,0.6819650009999999,1.0,0.75,0.0,0.310763048,0.0,0.25,False,,5ed94270ad37064ae646dfd7,,658310,36,,evan-feature22,full_pf_b,,0
12,46816,37,,,,1,1,1.0,1.0,-1.0,0.0,,0.0-39.0,,-1.0,3925.0,1.0,0.740626951,1.0,0.75,0.0,0.25,0.0,0.25,False,,5ed94270ad37064ae646dfd7,,672000,37,,evan-feature22,full_pf_b,,0
13,46817,38,,,,2,2,1.0,0.0,-1.0,0.0,,0.0-40.0,,-1.0,715.0,1.0,0.739599242,1.0,0.742034978,1.0,0.25397114600000004,0.0,0.25,False,,5ed94270ad37064ae646dfd7,,682481,38,,evan-feature22,full_pf_b,,1
14,46818,39,,,,1,1,1.0,1.0,-1.0,0.0,,0.0-41.0,,-1.0,1428.0,1.0,0.732341315,1.0,0.72735643,0.0,0.25,1.0,0.25,False,,5ed94270ad37064ae646dfd7,,693673,39,,evan-feature22,full_pf_b,,1
15,46819,40,,,,2,2,0.0,0.0,-1.0,0.0,,0.0-42.0,,0.0,734.0,1.0,0.7062287770000001,1.0,0.75,0.0,0.29002151,0.0,0.288256649,False,,5ed94270ad37064ae646dfd7,,704172,40,,evan-feature22,full_pf_b,,1
16,46820,41,,,,2,2,0.0,0.0,-1.0,0.0,,0.0-43.0,,0.0,1539.0,1.0,0.7086029209999999,1.0,0.75,0.0,0.274129113,0.0,0.262851608,False,,5ed94270ad37064ae646dfd7,,715474,41,,evan-feature22,full_pf_b,,0
17,46821,42,,,,1,1,1.0,1.0,-1.0,0.0,,0.0-44.0,,-1.0,1014.0,1.0,0.669189651,1.0,0.727614338,0.0,0.298444036,1.0,0.296944518,False,,5ed94270ad37064ae646dfd7,,726254,42,,evan-feature22,full_pf_b,,1
18,46822,43,,,,2,2,0.0,1.0,-1.0,0.0,,0.0-45.0,,0.0,594.0,1.0,0.6819912929999999,0.0,0.7179434290000001,0.0,0.265003961,1.0,0.28157921199999997,False,,5ed94270ad37064ae646dfd7,,736614,43,,evan-feature22,full_pf_b,,1
19,46823,44,,,,2,2,0.0,0.0,0.0,1.0,,0.0-46.0,,0.0,1316.0,1.0,0.665275002,1.0,0.723065271,0.0,0.260414971,0.0,0.30973870000000003,False,,5ed94270ad37064ae646dfd7,,747695,44,,evan-feature22,full_pf_b,,0
20,46824,45,,,,2,2,1.0,1.0,-1.0,0.0,,0.0-47.0,,-1.0,1385.0,1.0,0.6660593260000001,1.0,0.728032907,1.0,0.30922817,1.0,0.338778608,False,,5ed94270ad37064ae646dfd7,,758847,45,,evan-feature22,full_pf_b,,0
21,46825,46,,,,2,2,0.0,0.0,-1.0,0.0,,0.0-48.0,,0.0,2412.0,1.0,0.702068785,1.0,0.6528750879999999,0.0,0.287329608,0.0,0.35789613200000003,False,,5ed94270ad37064ae646dfd7,,771022,46,,evan-feature22,full_pf_b,,0
22,46826,47,,,,2,2,1.0,0.0,-1.0,0.0,,0.0-49.0,,-1.0,3101.0,1.0,0.651939787,1.0,0.636725589,1.0,0.284834488,0.0,0.358563756,False,,5ed94270ad37064ae646dfd7,,783888,47,,evan-feature22,full_pf_b,,0
23,46827,48,,,,2,2,1.0,0.0,0.0,1.0,,0.0-50.0,,0.0,1412.0,0.0,0.67573929,0.0,0.612550049,1.0,0.37130387600000003,0.0,0.383542402,False,,5ed94270ad37064ae646dfd7,,795064,48,,evan-feature22,full_pf_b,,0
24,46828,49,,,,1,1,0.0,1.0,0.0,1.0,,0.0-51.0,,1.0,798.0,0.0,0.620753801,1.0,0.60513644,1.0,0.385529434,0.0,0.340361743,False,,5ed94270ad37064ae646dfd7,,805629,49,,evan-feature22,full_pf_b,,1
25,46829,50,,,,1,1,1.0,1.0,0.0,1.0,,0.0-52.0,,1.0,961.0,1.0,0.673564893,1.0,0.672437924,0.0,0.292955382,0.0,0.337633795,False,,5ed94270ad37064ae646dfd7,,816354,50,,evan-feature22,full_pf_b,,0
26,46830,51,,,,2,2,1.0,1.0,-1.0,0.0,,0.0-53.0,,-1.0,1118.0,1.0,0.6749427,1.0,0.724197502,1.0,0.32391132100000003,1.0,0.350995264,False,,5ed94270ad37064ae646dfd7,,827239,51,,evan-feature22,full_pf_b,,1
27,46831,52,,,,1,1,1.0,1.0,-1.0,0.0,,0.0-54.0,,-1.0,999.0,1.0,0.6940159379999999,1.0,0.75,1.0,0.31710554399999996,0.0,0.413450341,False,,5ed94270ad37064ae646dfd7,,838006,52,,evan-feature22,full_pf_b,,1
28,46832,53,,,,1,1,0.0,1.0,-1.0,0.0,,0.0-55.0,,0.0,595.0,0.0,0.6916018270000001,1.0,0.69001187,0.0,0.261817804,1.0,0.40038635,False,,5ed94270ad37064ae646dfd7,,848364,53,,evan-feature22,full_pf_b,,0
29,46833,54,,,,1,1,1.0,1.0,-1.0,0.0,,0.0-56.0,,-1.0,3001.0,1.0,0.641061544,1.0,0.71337992,0.0,0.277296461,1.0,0.47372791700000005,False,,5ed94270ad37064ae646dfd7,,861131,54,,evan-feature22,full_pf_b,,0
30,46834,55,,,,2,2,0.0,0.0,-1.0,0.0,,0.0-57.0,,0.0,565.0,0.0,0.6082438520000001,1.0,0.708471106,0.0,0.28745137,0.0,0.564174476,False,,5ed94270ad37064ae646dfd7,,871457,55,,evan-feature22,full_pf_b,,1
31,46835,56,,,,1,1,1.0,0.0,-1.0,0.0,,0.0-58.0,,-1.0,2944.0,1.0,0.6051112120000001,0.0,0.7118147229999999,0.0,0.272390611,0.0,0.5595149939999999,False,,5ed94270ad37064ae646dfd7,,884166,56,,evan-feature22,full_pf_b,,1
32,46836,57,,,,2,2,0.0,0.0,-1.0,0.0,,0.0-59.0,,0.0,651.0,0.0,0.582420852,1.0,0.635867583,0.0,0.31089574,0.0,0.5227206520000001,False,,5ed94270ad37064ae646dfd7,,894582,57,,evan-feature22,full_pf_b,,1
33,46837,58,,,,2,2,0.0,0.0,0.0,1.0,,0.0-60.0,,0.0,1896.0,1.0,0.623195575,1.0,0.655026044,0.0,0.25,0.0,0.560387538,False,,5ed94270ad37064ae646dfd7,,906241,58,,evan-feature22,full_pf_b,,0
34,46838,59,,,,2,2,1.0,1.0,-1.0,0.0,,0.0-61.0,,-1.0,1651.0,0.0,0.601889598,1.0,0.678198724,1.0,0.25,1.0,0.559922936,False,,5ed94270ad37064ae646dfd7,,917656,59,,evan-feature22,full_pf_b,,0
35,46839,60,,,,1,1,1.0,1.0,-1.0,0.0,,0.0-62.0,,-1.0,308.0,1.0,0.601259914,1.0,0.704681482,1.0,0.33908969299999997,0.0,0.505003715,False,,5ed94270ad37064ae646dfd7,,927730,60,,evan-feature22,full_pf_b,,1
36,46840,61,,,,2,2,0.0,1.0,-1.0,0.0,,0.0-63.0,,0.0,830.0,1.0,0.59645454,1.0,0.710437172,0.0,0.327441879,1.0,0.391749613,False,,5ed94270ad37064ae646dfd7,,938433,61,,evan-feature22,full_pf_b,,1
37,46841,62,,,,2,2,0.0,0.0,-1.0,0.0,,0.0-64.0,,0.0,527.0,0.0,0.529473,0.0,0.636758527,0.0,0.301338063,0.0,0.365661481,False,,5ed94270ad37064ae646dfd7,,948724,62,,evan-feature22,full_pf_b,,0
38,46842,63,,,,2,2,1.0,0.0,0.0,1.0,,0.0-65.0,,0.0,1484.0,0.0,0.541657162,1.0,0.634541962,1.0,0.343535366,0.0,0.371763742,False,,5ed94270ad37064ae646dfd7,,959972,63,,evan-feature22,full_pf_b,,0
39,46843,64,,,,2,2,0.0,0.0,-1.0,0.0,,0.0-66.0,,0.0,1484.0,1.0,0.5707533260000001,1.0,0.589121171,0.0,0.326428396,0.0,0.43961622899999997,False,,5ed94270ad37064ae646dfd7,,971221,64,,evan-feature22,full_pf_b,,0
40,46844,65,,,,2,2,1.0,1.0,-1.0,0.0,,0.0-67.0,,-1.0,983.0,1.0,0.5707533260000001,0.0,0.589121171,1.0,0.326428396,1.0,0.43961622899999997,False,,5ed94270ad37064ae646dfd7,,981968,65,,evan-feature22,full_pf_b,,0
41,46845,66,,,,2,2,0.0,0.0,-1.0,0.0,,0.0-68.0,,0.0,1611.0,1.0,0.506271295,1.0,0.641775594,0.0,0.37149690700000004,0.0,0.404330166,False,,5ed94270ad37064ae646dfd7,,993349,66,,evan-feature22,full_pf_b,,0
42,46846,67,,,,1,1,0.0,0.0,0.0,1.0,,0.0-69.0,,0.0,1642.0,0.0,0.455642565,0.0,0.623605825,1.0,0.358753011,1.0,0.346174041,False,,5ed94270ad37064ae646dfd7,,1004759,67,,evan-feature22,full_pf_b,,1
43,46847,68,,,,1,1,1.0,0.0,0.0,1.0,,0.0-70.0,,0.0,520.0,1.0,0.483677308,0.0,0.5904681070000001,0.0,0.402218411,1.0,0.35344697,False,,5ed94270ad37064ae646dfd7,,1015044,68,,evan-feature22,full_pf_b,,0
44,46848,69,,,,2,2,1.0,0.0,0.0,1.0,,0.0-71.0,,0.0,534.0,1.0,0.394210977,1.0,0.558925494,1.0,0.540052017,0.0,0.35182128700000004,False,,5ed94270ad37064ae646dfd7,,1025344,69,,evan-feature22,full_pf_b,,1
45,46849,70,,,,2,2,0.0,0.0,-1.0,0.0,,0.0-72.0,,0.0,1338.0,1.0,0.382300414,0.0,0.577670603,0.0,0.607608448,0.0,0.378261578,False,,5ed94270ad37064ae646dfd7,,1036445,70,,evan-feature22,full_pf_b,,0
46,46850,71,,,,1,1,0.0,1.0,-1.0,0.0,,0.0-73.0,,0.0,1387.0,0.0,0.357596762,1.0,0.5929076529999999,1.0,0.6579790010000001,1.0,0.401326777,False,,5ed94270ad37064ae646dfd7,,1047596,71,,evan-feature22,full_pf_b,,1
47,46851,72,,,,2,2,1.0,0.0,-1.0,0.0,,0.0-74.0,,-1.0,2152.0,0.0,0.362033495,0.0,0.582308608,1.0,0.649195052,0.0,0.355158505,False,,5ed94270ad37064ae646dfd7,,1059512,72,,evan-feature22,full_pf_b,,1
48,46852,73,,,,2,2,1.0,1.0,-1.0,0.0,,0.0-75.0,,-1.0,816.0,0.0,0.369620635,0.0,0.669100864,1.0,0.706059111,1.0,0.362516241,False,,5ed94270ad37064ae646dfd7,,1070092,73,,evan-feature22,full_pf_b,,0
49,46853,74,,,,1,1,0.0,1.0,-1.0,0.0,,0.0-76.0,,0.0,976.0,0.0,0.41477751399999996,1.0,0.7284416779999999,0.0,0.7182656940000001,0.0,0.36228040899999997,False,,5ed94270ad37064ae646dfd7,,1080830,74,,evan-feature22,full_pf_b,,1
50,46854,75,,,,1,1,0.0,1.0,0.0,1.0,,0.0-77.0,,1.0,2818.0,0.0,0.37675460299999997,1.0,0.703250285,1.0,0.75,1.0,0.461979164,False,,5ed94270ad37064ae646dfd7,,1093414,75,,evan-feature22,full_pf_b,,0
51,46855,76,,,,2,2,1.0,1.0,0.0,1.0,,0.0-78.0,,1.0,1366.0,1.0,0.398716075,0.0,0.6723864890000001,1.0,0.674153818,1.0,0.519029516,False,,5ed94270ad37064ae646dfd7,,1104547,76,,evan-feature22,full_pf_b,,1
52,46856,77,,,,1,1,0.0,1.0,-1.0,0.0,,0.0-79.0,,0.0,1196.0,0.0,0.34677856700000004,1.0,0.69057175,1.0,0.6822438540000001,0.0,0.477292237,False,,5ed94270ad37064ae646dfd7,,1115506,77,,evan-feature22,full_pf_b,,1
53,46857,78,,,,2,2,1.0,1.0,0.0,1.0,,0.0-80.0,,1.0,1824.0,0.0,0.28580469199999997,0.0,0.68408818,1.0,0.684207565,1.0,0.49780448299999996,False,,5ed94270ad37064ae646dfd7,,1127094,78,,evan-feature22,full_pf_b,,1
54,46859,80,,,,2,2,0.0,1.0,-1.0,0.0,,0.0-82.0,,0.0,1291.0,0.0,0.25,1.0,0.7405808970000001,0.0,0.679614108,1.0,0.436436964,False,,5ed94270ad37064ae646dfd7,,1147607,80,,evan-feature22,full_pf_b,,0
55,46860,81,,,,1,1,0.0,0.0,0.0,1.0,,0.0-83.0,,0.0,1458.0,0.0,0.29890393,0.0,0.730505706,0.0,0.7328203320000001,1.0,0.439256938,False,,5ed94270ad37064ae646dfd7,,1158828,81,,evan-feature22,full_pf_b,,1
56,46861,82,,,,2,2,0.0,0.0,-1.0,0.0,,0.0-84.0,,0.0,442.0,1.0,0.326762398,1.0,0.7148059609999999,0.0,0.75,0.0,0.44389608799999997,False,,5ed94270ad37064ae646dfd7,,1169036,82,,evan-feature22,full_pf_b,,1
57,46862,83,,,,1,1,0.0,1.0,-1.0,0.0,,0.0-85.0,,0.0,528.0,0.0,0.295168515,1.0,0.739760854,0.0,0.719947008,0.0,0.35277284600000003,False,,5ed94270ad37064ae646dfd7,,1179329,83,,evan-feature22,full_pf_b,,1
58,46863,84,,,,2,2,1.0,1.0,-1.0,0.0,,0.0-86.0,,-1.0,395.0,0.0,0.25,1.0,0.70781482,1.0,0.75,1.0,0.286095925,False,,5ed94270ad37064ae646dfd7,,1189490,84,,evan-feature22,full_pf_b,,1
59,46864,85,,,,1,1,1.0,1.0,0.0,1.0,,0.0-87.0,,1.0,551.0,1.0,0.25638190899999996,1.0,0.704088163,1.0,0.75,0.0,0.26872601399999996,False,,5ed94270ad37064ae646dfd7,,1199804,85,,evan-feature22,full_pf_b,,1
60,46865,86,,,,2,2,1.0,0.0,0.0,1.0,,0.0-88.0,,0.0,661.0,0.0,0.271581126,0.0,0.669760107,1.0,0.733896663,0.0,0.273244572,False,,5ed94270ad37064ae646dfd7,,1210229,86,,evan-feature22,full_pf_b,,1
61,46866,87,,,,1,1,0.0,1.0,0.0,1.0,,0.0-89.0,,1.0,691.0,0.0,0.257144401,1.0,0.600575706,1.0,0.74488122,0.0,0.25,False,,5ed94270ad37064ae646dfd7,,1220689,87,,evan-feature22,full_pf_b,,1
62,46867,88,,,,2,2,0.0,1.0,-1.0,0.0,,0.0-90.0,,0.0,781.0,0.0,0.25,1.0,0.616870026,0.0,0.723610234,1.0,0.25,False,,5ed94270ad37064ae646dfd7,,1231236,88,,evan-feature22,full_pf_b,,1
63,46868,89,,,,1,1,0.0,0.0,0.0,1.0,,0.0-91.0,,0.0,498.0,0.0,0.25,0.0,0.583540187,1.0,0.7041042559999999,0.0,0.285961995,False,,5ed94270ad37064ae646dfd7,,1241499,89,,evan-feature22,full_pf_b,,1
64,46869,90,,,,2,2,1.0,0.0,-1.0,0.0,,0.0-92.0,,-1.0,561.0,1.0,0.27254536,0.0,0.53875765,1.0,0.693783448,0.0,0.284961652,False,,5ed94270ad37064ae646dfd7,,1251820,90,,evan-feature22,full_pf_b,,1
65,46870,91,,,,1,1,1.0,0.0,0.0,1.0,,0.0-93.0,,0.0,484.0,1.0,0.25,0.0,0.548431252,0.0,0.734221895,0.0,0.279445214,False,,5ed94270ad37064ae646dfd7,,1262069,91,,evan-feature22,full_pf_b,,1
66,46871,92,,,,2,2,1.0,0.0,-1.0,0.0,,0.0-94.0,,-1.0,677.0,0.0,0.258640684,0.0,0.545878066,1.0,0.725245965,0.0,0.31487537,False,,5ed94270ad37064ae646dfd7,,1272510,92,,evan-feature22,full_pf_b,,1
67,46872,93,,,,1,1,1.0,0.0,-1.0,0.0,,0.0-95.0,,-1.0,467.0,1.0,0.251103711,0.0,0.5776290629999999,1.0,0.696320133,1.0,0.317831047,False,,5ed94270ad37064ae646dfd7,,1282743,93,,evan-feature22,full_pf_b,,1
68,46873,94,,,,2,2,1.0,1.0,-1.0,0.0,,0.0-96.0,,-1.0,790.0,0.0,0.276630292,1.0,0.617329858,1.0,0.73838088,1.0,0.261471582,False,,5ed94270ad37064ae646dfd7,,1293298,94,,evan-feature22,full_pf_b,,1
69,46874,95,,,,1,1,0.0,1.0,0.0,1.0,,0.0-97.0,,1.0,442.0,0.0,0.297716424,1.0,0.618863717,1.0,0.7402358259999999,0.0,0.262600834,False,,5ed94270ad37064ae646dfd7,,1303505,95,,evan-feature22,full_pf_b,,1
70,46875,96,,,,2,2,1.0,0.0,-1.0,0.0,,0.0-98.0,,-1.0,664.0,0.0,0.290935512,1.0,0.695370945,1.0,0.706570507,0.0,0.280030553,False,,5ed94270ad37064ae646dfd7,,1313932,96,,evan-feature22,full_pf_b,,1
71,46876,97,,,,1,1,0.0,0.0,-1.0,0.0,,0.0-99.0,,0.0,388.0,0.0,0.25,0.0,0.6465277079999999,1.0,0.67766682,0.0,0.25,False,,5ed94270ad37064ae646dfd7,,1324085,97,,evan-feature22,full_pf_b,,1
72,46877,98,,,,2,2,1.0,0.0,-1.0,0.0,,0.0-100.0,,-1.0,721.0,1.0,0.26463816,0.0,0.636100213,1.0,0.646048507,0.0,0.265607101,False,,5ed94270ad37064ae646dfd7,,1334570,98,,evan-feature22,full_pf_b,,1
73,46878,99,,,,1,1,0.0,1.0,-1.0,0.0,,0.0-101.0,,0.0,482.0,0.0,0.314340707,1.0,0.667795927,0.0,0.613630805,0.0,0.25,False,,5ed94270ad37064ae646dfd7,,1344814,99,,evan-feature22,full_pf_b,,1
74,46879,100,,,,2,2,1.0,0.0,-1.0,0.0,,0.0-102.0,,-1.0,609.0,1.0,0.28685784,0.0,0.6622549529999999,1.0,0.652154117,0.0,0.25,False,,5ed94270ad37064ae646dfd7,,1355185,100,,evan-feature22,full_pf_b,,1
75,46880,101,,,,1,1,0.0,0.0,0.0,1.0,,0.0-103.0,,0.0,568.0,0.0,0.304106554,0.0,0.631289538,1.0,0.707041942,1.0,0.29314237,False,,5ed94270ad37064ae646dfd7,,1365516,101,,evan-feature22,full_pf_b,,1
76,46881,102,,,,2,2,0.0,0.0,0.0,1.0,,0.0-104.0,,0.0,498.0,1.0,0.304806932,1.0,0.571167718,0.0,0.680472346,0.0,0.25,False,,5ed94270ad37064ae646dfd7,,1375779,102,,evan-feature22,full_pf_b,,1
77,46882,103,,,,2,2,1.0,1.0,0.0,1.0,,0.0-105.0,,1.0,475.0,0.0,0.37919861,1.0,0.5724849710000001,1.0,0.705638003,1.0,0.30179300600000003,False,,5ed94270ad37064ae646dfd7,,1386021,103,,evan-feature22,full_pf_b,,0
78,46883,104,,,,2,2,0.0,0.0,0.0,1.0,,0.0-106.0,,0.0,2123.0,0.0,0.464277969,0.0,0.554034373,0.0,0.7372627340000001,0.0,0.264699741,False,,5ed94270ad37064ae646dfd7,,1397906,104,,evan-feature22,full_pf_b,,0
79,46884,105,,,,1,1,1.0,1.0,-1.0,0.0,,0.0-107.0,,-1.0,2230.0,1.0,0.465104323,1.0,0.530793115,1.0,0.75,0.0,0.31683071,False,,5ed94270ad37064ae646dfd7,,1409903,105,,evan-feature22,full_pf_b,,1
80,46885,106,,,,2,2,1.0,0.0,0.0,1.0,,0.0-108.0,,0.0,432.0,1.0,0.465104323,0.0,0.530793115,1.0,0.75,0.0,0.31683071,False,,5ed94270ad37064ae646dfd7,,1420101,106,,evan-feature22,full_pf_b,,1
81,46886,107,,,,2,2,1.0,0.0,0.0,1.0,,0.0-109.0,,0.0,623.0,0.0,0.46833986,0.0,0.570249239,1.0,0.7244472590000001,0.0,0.364114163,False,,5ed94270ad37064ae646dfd7,,1430489,107,,evan-feature22,full_pf_b,,0
82,46887,108,,,,2,2,1.0,0.0,0.0,1.0,,0.0-110.0,,0.0,672.0,0.0,0.445444024,1.0,0.649673355,1.0,0.6845441290000001,0.0,0.300660449,False,,5ed94270ad37064ae646dfd7,,1440926,108,,evan-feature22,full_pf_b,,0
83,46888,109,,,,2,2,0.0,1.0,0.0,1.0,,0.0-111.0,,1.0,1577.0,0.0,0.39909721299999995,1.0,0.6715179509999999,0.0,0.742310028,1.0,0.35496088299999995,False,,5ed94270ad37064ae646dfd7,,1452267,109,,evan-feature22,full_pf_b,,0
84,46889,110,,,,2,2,1.0,0.0,0.0,1.0,,0.0-112.0,,0.0,723.0,0.0,0.37956104799999996,1.0,0.694725302,1.0,0.7181651309999999,0.0,0.38726906299999997,False,,5ed94270ad37064ae646dfd7,,1462754,110,,evan-feature22,full_pf_b,,0
85,46890,111,,,,1,1,0.0,0.0,0.0,1.0,,0.0-113.0,,0.0,555.0,0.0,0.404995034,0.0,0.724375412,1.0,0.6910946859999999,1.0,0.387187347,False,,5ed94270ad37064ae646dfd7,,1473072,111,,evan-feature22,full_pf_b,,1
86,46891,112,,,,1,1,0.0,1.0,0.0,1.0,,0.0-114.0,,1.0,692.0,0.0,0.461740803,1.0,0.75,1.0,0.75,0.0,0.34872038200000005,False,,5ed94270ad37064ae646dfd7,,1483530,112,,evan-feature22,full_pf_b,,0
87,46892,113,,,,1,1,1.0,0.0,-1.0,0.0,,0.0-115.0,,-1.0,1858.0,1.0,0.43821380600000004,0.0,0.738833273,1.0,0.728286963,0.0,0.399538128,False,,5ed94270ad37064ae646dfd7,,1495150,113,,evan-feature22,full_pf_b,,0
88,46893,114,,,,1,1,1.0,1.0,0.0,1.0,,0.0-116.0,,1.0,1217.0,1.0,0.41709882,1.0,0.736666736,1.0,0.75,1.0,0.389095584,False,,5ed94270ad37064ae646dfd7,,1506130,114,,evan-feature22,full_pf_b,,0
89,46894,115,,,,1,1,0.0,0.0,0.0,1.0,,0.0-117.0,,0.0,908.0,0.0,0.39749009799999996,0.0,0.744320029,1.0,0.75,0.0,0.363848678,False,,5ed94270ad37064ae646dfd7,,1516800,115,,evan-feature22,full_pf_b,,0
90,46895,116,,,,1,1,1.0,1.0,-1.0,0.0,,0.0-118.0,,-1.0,1369.0,1.0,0.392653706,1.0,0.75,1.0,0.75,0.0,0.384386976,False,,5ed94270ad37064ae646dfd7,,1527934,116,,evan-feature22,full_pf_b,,0
91,46896,117,,,,1,1,1.0,1.0,-1.0,0.0,,0.0-119.0,,-1.0,1510.0,1.0,0.31190902600000003,1.0,0.75,1.0,0.732413819,1.0,0.413082932,False,,5ed94270ad37064ae646dfd7,,1539213,117,,evan-feature22,full_pf_b,,0
92,46897,118,,,,1,1,1.0,1.0,0.0,1.0,,0.0-120.0,,1.0,1252.0,1.0,0.366917648,1.0,0.740073855,1.0,0.75,1.0,0.352861979,False,,5ed94270ad37064ae646dfd7,,1550228,118,,evan-feature22,full_pf_b,,0
93,46898,119,,,,1,1,0.0,1.0,0.0,1.0,,0.0-121.0,,1.0,990.0,0.0,0.3645172,1.0,0.721770713,0.0,0.75,0.0,0.404074511,False,,5ed94270ad37064ae646dfd7,,1560985,119,,evan-feature22,full_pf_b,,0
94,46899,120,,,,1,1,0.0,1.0,0.0,1.0,,0.0-122.0,,1.0,1084.0,0.0,0.35205600299999995,1.0,0.68983859,1.0,0.739735447,0.0,0.366895945,False,,5ed94270ad37064ae646dfd7,,1571832,120,,evan-feature22,full_pf_b,,0
95,46900,121,,,,1,1,1.0,1.0,0.0,1.0,,0.0-123.0,,1.0,813.0,1.0,0.40998722600000004,1.0,0.720859127,0.0,0.673854955,0.0,0.368528541,False,,5ed94270ad37064ae646dfd7,,1582409,121,,evan-feature22,full_pf_b,,0
96,46901,122,,,,1,1,0.0,1.0,-1.0,0.0,,0.0-124.0,,0.0,2575.0,0.0,0.353625316,1.0,0.75,1.0,0.695605473,0.0,0.38303674200000004,False,,5ed94270ad37064ae646dfd7,,1594752,122,,evan-feature22,full_pf_b,,0
97,46902,123,,,,1,1,0.0,1.0,0.0,1.0,,0.0-125.0,,1.0,998.0,0.0,0.359216989,1.0,0.75,1.0,0.6987915090000001,0.0,0.35169046200000004,False,,5ed94270ad37064ae646dfd7,,1605516,123,,evan-feature22,full_pf_b,,0
98,46903,124,,,,1,1,0.0,0.0,-1.0,0.0,,0.0-126.0,,0.0,1080.0,0.0,0.35834496899999996,0.0,0.75,0.0,0.707067742,0.0,0.416763636,False,,5ed94270ad37064ae646dfd7,,1616363,124,,evan-feature22,full_pf_b,,0
99,46904,125,,,,1,1,1.0,0.0,-1.0,0.0,,0.0-127.0,,-1.0,661.0,1.0,0.38741613799999997,0.0,0.7177369570000001,1.0,0.734902455,1.0,0.49438664299999996,False,,5ed94270ad37064ae646dfd7,,1626785,125,,evan-feature22,full_pf_b,,0
100,46905,126,,,,1,1,0.0,0.0,0.0,1.0,,0.0-128.0,,0.0,1363.0,0.0,0.405255252,0.0,0.7300466640000001,1.0,0.7027748070000001,1.0,0.504359668,False,,5ed94270ad37064ae646dfd7,,1637913,126,,evan-feature22,full_pf_b,,0
101,46906,127,,,,2,2,0.0,0.0,0.0,1.0,,0.0-129.0,,0.0,539.0,0.0,0.40697073,0.0,0.7260142190000001,0.0,0.724461982,0.0,0.522779179,False,,5ed94270ad37064ae646dfd7,,1648213,127,,evan-feature22,full_pf_b,,1
102,46907,128,,,,2,2,1.0,1.0,0.0,1.0,,0.0-130.0,,1.0,627.0,0.0,0.43906215299999996,1.0,0.7252802340000001,1.0,0.719079934,1.0,0.5712990579999999,False,,5ed94270ad37064ae646dfd7,,1658605,128,,evan-feature22,full_pf_b,,0
103,46908,129,,,,2,2,1.0,1.0,0.0,1.0,,0.0-131.0,,1.0,622.0,0.0,0.4076705,1.0,0.73280499,1.0,0.681313127,1.0,0.523891346,False,,5ed94270ad37064ae646dfd7,,1668989,129,,evan-feature22,full_pf_b,,0
104,46909,130,,,,1,1,1.0,1.0,0.0,1.0,,0.0-132.0,,1.0,543.0,1.0,0.399102911,1.0,0.730498344,0.0,0.661080239,0.0,0.46742603,False,,5ed94270ad37064ae646dfd7,,1679297,130,,evan-feature22,full_pf_b,,1
105,46910,131,,,,1,1,0.0,1.0,-1.0,0.0,,0.0-133.0,,0.0,3137.0,0.0,0.356477282,1.0,0.712296395,1.0,0.641812684,0.0,0.44868414,False,,5ed94270ad37064ae646dfd7,,1692197,131,,evan-feature22,full_pf_b,,0
106,46911,132,,,,1,1,1.0,1.0,0.0,1.0,,0.0-134.0,,1.0,940.0,1.0,0.462760722,1.0,0.692349322,0.0,0.700947931,1.0,0.394680266,False,,5ed94270ad37064ae646dfd7,,1702903,132,,evan-feature22,full_pf_b,,0
107,46912,133,,,,1,1,0.0,1.0,0.0,1.0,,0.0-135.0,,1.0,556.0,0.0,0.422306413,1.0,0.718375916,1.0,0.706340917,0.0,0.367787185,False,,5ed94270ad37064ae646dfd7,,1713223,133,,evan-feature22,full_pf_b,,0
108,46914,135,,,,1,1,1.0,0.0,0.0,1.0,,0.0-137.0,,0.0,1035.0,1.0,0.4582233,0.0,0.643834117,1.0,0.75,1.0,0.39615823299999997,False,,5ed94270ad37064ae646dfd7,,1736657,135,,evan-feature22,full_pf_b,,0
109,46915,136,,,,2,2,1.0,0.0,0.0,1.0,,0.0-138.0,,0.0,521.0,1.0,0.43813437899999996,1.0,0.651283804,1.0,0.729674191,0.0,0.37711048,False,,5ed94270ad37064ae646dfd7,,1746942,136,,evan-feature22,full_pf_b,,1
110,46916,137,,,,1,1,1.0,1.0,0.0,1.0,,0.0-139.0,,1.0,531.0,1.0,0.471199094,1.0,0.6470010979999999,1.0,0.715008097,0.0,0.410656191,False,,5ed94270ad37064ae646dfd7,,1757242,137,,evan-feature22,full_pf_b,,1
111,46917,138,,,,1,1,0.0,1.0,-1.0,0.0,,0.0-140.0,,0.0,1315.0,0.0,0.42486406,1.0,0.629771829,0.0,0.6550939960000001,0.0,0.459093873,False,,5ed94270ad37064ae646dfd7,,1768326,138,,evan-feature22,full_pf_b,,0
112,46918,139,,,,1,1,0.0,0.0,-1.0,0.0,,0.0-141.0,,0.0,1567.0,0.0,0.4803197,0.0,0.645842715,1.0,0.6421749920000001,1.0,0.443092151,False,,5ed94270ad37064ae646dfd7,,1779658,139,,evan-feature22,full_pf_b,,0
113,46919,140,,,,1,1,1.0,1.0,-1.0,0.0,,0.0-142.0,,-1.0,811.0,1.0,0.521848997,1.0,0.735801074,1.0,0.6691348460000001,0.0,0.45259351600000003,False,,5ed94270ad37064ae646dfd7,,1790233,140,,evan-feature22,full_pf_b,,0
114,46920,141,,,,1,1,1.0,1.0,0.0,1.0,,0.0-143.0,,1.0,1097.0,1.0,0.49565621299999996,1.0,0.742400847,1.0,0.661512553,1.0,0.483110831,False,,5ed94270ad37064ae646dfd7,,1801097,141,,evan-feature22,full_pf_b,,0
115,46921,142,,,,1,1,0.0,0.0,-1.0,0.0,,0.0-144.0,,0.0,1735.0,0.0,0.521564361,0.0,0.731078632,0.0,0.6774886809999999,0.0,0.483263956,False,,5ed94270ad37064ae646dfd7,,1812597,142,,evan-feature22,full_pf_b,,0
116,46922,143,,,,2,2,1.0,1.0,-1.0,0.0,,0.0-145.0,,-1.0,996.0,1.0,0.558893102,0.0,0.719810023,1.0,0.67461031,1.0,0.499349834,False,,5ed94270ad37064ae646dfd7,,1823363,143,,evan-feature22,full_pf_b,,1
117,46923,144,,,,2,2,1.0,1.0,0.0,1.0,,0.0-146.0,,1.0,2288.0,1.0,0.611031046,0.0,0.75,1.0,0.688072995,1.0,0.5321422729999999,False,,5ed94270ad37064ae646dfd7,,1835419,144,,evan-feature22,full_pf_b,,0
118,46924,145,,,,2,2,1.0,1.0,-1.0,0.0,,0.0-147.0,,-1.0,1178.0,0.0,0.633223941,1.0,0.713567728,1.0,0.75,1.0,0.48185314700000004,False,,5ed94270ad37064ae646dfd7,,1846366,145,,evan-feature22,full_pf_b,,0
119,46925,146,,,,1,1,1.0,1.0,-1.0,0.0,,0.0-148.0,,-1.0,1355.0,1.0,0.664001694,1.0,0.705509768,0.0,0.75,1.0,0.500211065,False,,5ed94270ad37064ae646dfd7,,1857485,146,,evan-feature22,full_pf_b,,1
120,46926,147,,,,1,1,1.0,0.0,0.0,1.0,,0.0-149.0,,0.0,1194.0,1.0,0.664001694,0.0,0.705509768,1.0,0.75,0.0,0.500211065,False,,5ed94270ad37064ae646dfd7,,1868445,147,,evan-feature22,full_pf_b,,0
121,46927,148,,,,1,1,0.0,1.0,0.0,1.0,,0.0-150.0,,1.0,548.0,0.0,0.696508041,1.0,0.71066027,1.0,0.717028709,0.0,0.49792991,False,,5ed94270ad37064ae646dfd7,,1878762,148,,evan-feature22,full_pf_b,,0
122,46928,149,,,,1,1,0.0,1.0,-1.0,0.0,,0.0-151.0,,0.0,664.0,0.0,0.699883272,1.0,0.75,1.0,0.713543895,1.0,0.496962643,False,,5ed94270ad37064ae646dfd7,,1889192,149,,evan-feature22,full_pf_b,,0
123,46929,150,,,,2,2,1.0,1.0,0.0,1.0,,0.0-152.0,,1.0,1126.0,1.0,0.741163419,0.0,0.75,1.0,0.64691024,1.0,0.513858197,False,,5ed94270ad37064ae646dfd7,,1900086,150,,evan-feature22,full_pf_b,,1
124,46930,151,,,,1,1,1.0,1.0,-1.0,0.0,,0.0-153.0,,-1.0,855.0,1.0,0.75,1.0,0.70816558,1.0,0.594499079,1.0,0.48502124,False,,5ed94270ad37064ae646dfd7,,1910708,151,,evan-feature22,full_pf_b,,1
125,46931,152,,,,2,2,1.0,0.0,0.0,1.0,,0.0-154.0,,0.0,940.0,1.0,0.75,1.0,0.721848901,1.0,0.62197249,0.0,0.48263586399999997,False,,5ed94270ad37064ae646dfd7,,1921412,152,,evan-feature22,full_pf_b,,1
126,46932,153,,,,1,1,1.0,1.0,-1.0,0.0,,0.0-155.0,,-1.0,1335.0,1.0,0.75,1.0,0.74813071,0.0,0.584357161,0.0,0.411477782,False,,5ed94270ad37064ae646dfd7,,1932511,153,,evan-feature22,full_pf_b,,1
127,46933,154,,,,1,1,0.0,0.0,0.0,1.0,,0.0-156.0,,0.0,1336.0,0.0,0.75,0.0,0.75,1.0,0.52287236,0.0,0.488290656,False,,5ed94270ad37064ae646dfd7,,1943611,154,,evan-feature22,full_pf_b,,0
128,46934,155,,,,1,1,1.0,0.0,0.0,1.0,,0.0-157.0,,0.0,1015.0,1.0,0.75,0.0,0.75,0.0,0.544321581,0.0,0.53143059,False,,5ed94270ad37064ae646dfd7,,1954390,155,,evan-feature22,full_pf_b,,0
129,46935,156,,,,1,1,1.0,1.0,0.0,1.0,,0.0-158.0,,1.0,629.0,1.0,0.726754564,1.0,0.75,0.0,0.5129306370000001,0.0,0.530592445,False,,5ed94270ad37064ae646dfd7,,1964785,156,,evan-feature22,full_pf_b,,0
130,46936,157,,,,1,1,1.0,1.0,-1.0,0.0,,0.0-159.0,,-1.0,1716.0,1.0,0.75,1.0,0.7392590729999999,1.0,0.479875835,0.0,0.547007051,False,,5ed94270ad37064ae646dfd7,,1976267,157,,evan-feature22,full_pf_b,,0
131,46937,158,,,,1,1,0.0,0.0,-1.0,0.0,,0.0-160.0,,0.0,1841.0,0.0,0.75,0.0,0.7393376979999999,1.0,0.546045419,1.0,0.541267353,False,,5ed94270ad37064ae646dfd7,,1987876,158,,evan-feature22,full_pf_b,,0
132,46938,159,,,,1,1,1.0,1.0,-1.0,0.0,,0.0-161.0,,-1.0,705.0,1.0,0.75,1.0,0.75,1.0,0.485725895,1.0,0.527625395,False,,5ed94270ad37064ae646dfd7,,1998353,159,,evan-feature22,full_pf_b,,0
133,46939,160,,,,1,1,1.0,1.0,0.0,1.0,,0.0-162.0,,1.0,846.0,1.0,0.75,1.0,0.725087974,0.0,0.488603595,0.0,0.504019206,False,,5ed94270ad37064ae646dfd7,,2008964,160,,evan-feature22,full_pf_b,,0
134,46940,161,,,,1,1,0.0,1.0,0.0,1.0,,0.0-163.0,,1.0,630.0,0.0,0.745504295,1.0,0.75,1.0,0.452379914,0.0,0.50131194,False,,5ed94270ad37064ae646dfd7,,2019357,161,,evan-feature22,full_pf_b,,0
135,46941,162,,,,1,1,1.0,1.0,0.0,1.0,,0.0-164.0,,1.0,462.0,1.0,0.728513874,1.0,0.75,1.0,0.44125567200000004,1.0,0.531454591,False,,5ed94270ad37064ae646dfd7,,2029582,162,,evan-feature22,full_pf_b,,0
136,46942,163,,,,1,1,0.0,1.0,-1.0,0.0,,0.0-165.0,,0.0,1460.0,0.0,0.73790804,1.0,0.75,0.0,0.413036656,0.0,0.524619035,False,,5ed94270ad37064ae646dfd7,,2040806,163,,evan-feature22,full_pf_b,,0
137,46943,164,,,,1,1,1.0,0.0,0.0,1.0,,0.0-166.0,,0.0,632.0,1.0,0.7080961309999999,0.0,0.708666865,1.0,0.431915581,1.0,0.481819489,False,,5ed94270ad37064ae646dfd7,,2051202,164,,evan-feature22,full_pf_b,,0
138,46944,165,,,,2,2,1.0,0.0,0.0,1.0,,0.0-167.0,,0.0,491.0,0.0,0.721378003,1.0,0.71605913,1.0,0.36642387,0.0,0.5036739929999999,False,,5ed94270ad37064ae646dfd7,,2061458,165,,evan-feature22,full_pf_b,,1
139,46945,166,,,,1,1,1.0,0.0,0.0,1.0,,0.0-168.0,,0.0,373.0,1.0,0.7340618959999999,0.0,0.699323252,0.0,0.35298046299999997,1.0,0.511241692,False,,5ed94270ad37064ae646dfd7,,2071595,166,,evan-feature22,full_pf_b,,1
140,46946,167,,,,2,2,0.0,0.0,-1.0,0.0,,0.0-169.0,,0.0,1733.0,1.0,0.75,1.0,0.70412698,0.0,0.380734814,0.0,0.529580116,False,,5ed94270ad37064ae646dfd7,,2083092,167,,evan-feature22,full_pf_b,,1
141,46947,168,,,,1,1,1.0,0.0,0.0,1.0,,0.0-170.0,,0.0,1005.0,1.0,0.7436654909999999,0.0,0.711182751,0.0,0.41125331,0.0,0.49554405,False,,5ed94270ad37064ae646dfd7,,2093866,168,,evan-feature22,full_pf_b,,1
142,46948,169,,,,1,1,1.0,1.0,0.0,1.0,,0.0-171.0,,1.0,700.0,1.0,0.731607915,1.0,0.651774583,0.0,0.35688023,0.0,0.45194491600000003,False,,5ed94270ad37064ae646dfd7,,2104330,169,,evan-feature22,full_pf_b,,0
143,46949,170,,,,1,1,1.0,1.0,-1.0,0.0,,0.0-172.0,,-1.0,1908.0,1.0,0.75,1.0,0.75,0.0,0.283145374,1.0,0.528608005,False,,5ed94270ad37064ae646dfd7,,2116004,170,,evan-feature22,full_pf_b,,0
144,46950,171,,,,1,1,1.0,1.0,-1.0,0.0,,0.0-173.0,,-1.0,1206.0,1.0,0.7491416890000001,1.0,0.7423785959999999,1.0,0.29135870399999997,0.0,0.498888318,False,,5ed94270ad37064ae646dfd7,,2126975,171,,evan-feature22,full_pf_b,,0
145,46951,172,,,,1,1,0.0,1.0,-1.0,0.0,,0.0-174.0,,0.0,1589.0,0.0,0.708569387,1.0,0.717682277,0.0,0.294421699,0.0,0.493838163,False,,5ed94270ad37064ae646dfd7,,2138327,172,,evan-feature22,full_pf_b,,0
146,46952,173,,,,1,1,1.0,1.0,0.0,1.0,,0.0-175.0,,1.0,772.0,1.0,0.75,1.0,0.7383382159999999,1.0,0.356098707,0.0,0.442533405,False,,5ed94270ad37064ae646dfd7,,2148862,173,,evan-feature22,full_pf_b,,0
147,46953,174,,,,1,1,1.0,1.0,0.0,1.0,,0.0-176.0,,1.0,1092.0,1.0,0.744527075,1.0,0.75,0.0,0.334127506,0.0,0.393165805,False,,5ed94270ad37064ae646dfd7,,2159719,174,,evan-feature22,full_pf_b,,0
148,46954,175,,,,1,1,1.0,1.0,0.0,1.0,,0.0-177.0,,1.0,911.0,1.0,0.75,1.0,0.75,0.0,0.33571021799999995,1.0,0.350393962,False,,5ed94270ad37064ae646dfd7,,2170396,175,,evan-feature22,full_pf_b,,0
149,46955,176,,,,1,1,0.0,1.0,0.0,1.0,,0.0-178.0,,1.0,507.0,0.0,0.75,1.0,0.75,0.0,0.313628297,1.0,0.36349657399999996,False,,5ed94270ad37064ae646dfd7,,2180668,176,,evan-feature22,full_pf_b,,0
150,46956,177,,,,1,1,1.0,0.0,-1.0,0.0,,0.0-179.0,,-1.0,1191.0,1.0,0.75,0.0,0.734284182,1.0,0.262667667,0.0,0.380199119,False,,5ed94270ad37064ae646dfd7,,2191623,177,,evan-feature22,full_pf_b,,0
151,46957,178,,,,1,1,1.0,1.0,0.0,1.0,,0.0-180.0,,1.0,442.0,1.0,0.75,1.0,0.75,0.0,0.25,0.0,0.394494013,False,,5ed94270ad37064ae646dfd7,,2201831,178,,evan-feature22,full_pf_b,,0
152,46958,179,,,,1,1,1.0,1.0,-1.0,0.0,,0.0-181.0,,-1.0,3084.0,1.0,0.722298145,1.0,0.7357822340000001,1.0,0.25,0.0,0.319142121,False,,5ed94270ad37064ae646dfd7,,2214679,179,,evan-feature22,full_pf_b,,0
153,46959,180,,,,1,1,0.0,1.0,-1.0,0.0,,0.0-182.0,,0.0,617.0,0.0,0.73149275,1.0,0.724276446,1.0,0.305856907,1.0,0.281315057,False,,5ed94270ad37064ae646dfd7,,2225062,180,,evan-feature22,full_pf_b,,0
154,46960,181,,,,1,1,0.0,1.0,0.0,1.0,,0.0-183.0,,1.0,1134.0,0.0,0.7458732690000001,1.0,0.7336382459999999,0.0,0.272571964,0.0,0.266021999,False,,5ed94270ad37064ae646dfd7,,2235966,181,,evan-feature22,full_pf_b,,0
155,46961,182,,,,1,1,1.0,1.0,0.0,1.0,,0.0-184.0,,1.0,695.0,1.0,0.705579037,1.0,0.720778292,1.0,0.320238144,0.0,0.30971744,False,,5ed94270ad37064ae646dfd7,,2246430,182,,evan-feature22,full_pf_b,,0
156,46962,183,,,,1,1,1.0,1.0,0.0,1.0,,0.0-185.0,,1.0,608.0,1.0,0.700425648,1.0,0.7198784009999999,0.0,0.272590393,0.0,0.304182931,False,,5ed94270ad37064ae646dfd7,,2256806,183,,evan-feature22,full_pf_b,,0
157,46963,184,,,,1,1,1.0,1.0,0.0,1.0,,0.0-186.0,,1.0,1028.0,1.0,0.735590785,1.0,0.722714973,0.0,0.25,0.0,0.323421091,False,,5ed94270ad37064ae646dfd7,,2267598,184,,evan-feature22,full_pf_b,,0
158,46964,185,,,,1,1,0.0,0.0,0.0,1.0,,0.0-187.0,,0.0,921.0,0.0,0.724807662,0.0,0.63146213,0.0,0.36836492600000004,0.0,0.34592153299999995,False,,5ed94270ad37064ae646dfd7,,2278284,185,,evan-feature22,full_pf_b,,0
159,46965,186,,,,1,1,1.0,0.0,0.0,1.0,,0.0-188.0,,0.0,794.0,1.0,0.7352796909999999,0.0,0.555111392,0.0,0.36003922,1.0,0.31433779999999995,False,,5ed94270ad37064ae646dfd7,,2288844,186,,evan-feature22,full_pf_b,,0
160,46966,187,notice,,,,,,,,,,0.0-189.0,"{""Q0"":""Gold was positive and then black was?""}",,60260.0,,,,,,,,,False,,5ed94270ad37064ae646dfd7,,2349106,187,Q,survey-text,full_pf_b,,1
161,46967,188,track1,,[1],,,,,,,,0.0-190.0,"{""Q0"":""no""}",,2763.0,,,,,,,,,False,,5ed94270ad37064ae646dfd7,,2351874,188,Q,evan-quiz,full_pf_b,,1
162,46968,189,track2,,[0],,,,,,,,0.0-191.0,"{""Q0"":""yes""}",,8331.0,,,,,,,,,False,,5ed94270ad37064ae646dfd7,,2360207,189,Q,evan-quiz,full_pf_b,,1
163,46969,190,strat,,,,,,,,,,0.0-192.0,"{""Q0"":""I tried to track where the alien was appearing the most frequently, but I wasn't very good!""}",,53658.0,,,,,,,,,False,,5ed94270ad37064ae646dfd7,,2413871,190,Q,survey-text,full_pf_b,,1
