,index,Unnamed: 0,Q_name,button_pressed,choice_idxs,chosen_pos,chosen_state,chosen_state_f_1_outcome,chosen_state_f_2_outcome,f_1_reward,f_2_reward,incor_questions,internal_node_id,responses,reward_received,rt,s_1_f_1_outcome,s_1_f_1_prob,s_1_f_2_outcome,s_1_f_2_prob,s_2_f_1_outcome,s_2_f_1_prob,s_2_f_2_outcome,s_2_f_2_prob,safe_first,stimulus,subjectID,success,time_elapsed,trial_index,trial_num,trial_type,version,view_history,switching
0,41110,30,,,,1,1,0.0,0.0,0.0,-1.0,,0.0-27.0,,0.0,875.695,0.0,0.6,0.0,0.6,0.0,0.4,0.0,0.4,False,,5cbf223b47becc0013c2e355,,511576,30,,evan-feature22,full_pf_a,,0
1,41111,31,,,,1,1,1.0,0.0,0.0,-1.0,,0.0-28.0,,0.0,274.425,1.0,0.608053294,0.0,0.63424552,0.0,0.397152172,1.0,0.347069101,False,,5cbf223b47becc0013c2e355,,521608,31,,evan-feature22,full_pf_a,,0
2,41112,32,,,,1,1,1.0,0.0,0.0,-1.0,,0.0-29.0,,0.0,558.99,1.0,0.642237155,0.0,0.648566321,0.0,0.389407674,0.0,0.285525717,False,,5cbf223b47becc0013c2e355,,531923,32,,evan-feature22,full_pf_a,,0
3,41113,33,,,,2,2,0.0,0.0,0.0,-1.0,,0.0-30.0,,0.0,1119.155,0.0,0.661086576,0.0,0.630492543,0.0,0.399058924,0.0,0.25,False,,5cbf223b47becc0013c2e355,,542800,33,,evan-feature22,full_pf_a,,1
4,41114,34,,,,2,2,0.0,0.0,0.0,-1.0,,0.0-31.0,,0.0,400.155,1.0,0.631324137,1.0,0.6269842929999999,0.0,0.38734784299999997,0.0,0.25,False,,5cbf223b47becc0013c2e355,,552958,34,,evan-feature22,full_pf_a,,0
5,41115,35,,,,1,1,1.0,1.0,0.0,-1.0,,0.0-32.0,,-1.0,293.84,1.0,0.6381991370000001,1.0,0.68987999,0.0,0.384107265,0.0,0.271332943,False,,5cbf223b47becc0013c2e355,,563009,35,,evan-feature22,full_pf_a,,1
6,41116,36,,,,2,2,0.0,1.0,0.0,-1.0,,0.0-33.0,,-1.0,364.325,0.0,0.66034901,0.0,0.742641349,0.0,0.360225629,1.0,0.25,False,,5cbf223b47becc0013c2e355,,573130,36,,evan-feature22,full_pf_a,,1
7,41117,37,,,,1,1,0.0,1.0,1.0,0.0,,0.0-34.0,,0.0,323.0,0.0,0.638612418,1.0,0.75,0.0,0.367273939,1.0,0.25,False,,5cbf223b47becc0013c2e355,,583210,37,,evan-feature22,full_pf_a,,1
8,41118,38,,,,1,1,0.0,1.0,0.0,-1.0,,0.0-35.0,,-1.0,288.97,0.0,0.624340629,1.0,0.75,0.0,0.425829545,0.0,0.25,False,,5cbf223b47becc0013c2e355,,593256,38,,evan-feature22,full_pf_a,,0
9,41119,39,,,,2,2,0.0,0.0,0.0,-1.0,,0.0-36.0,,0.0,265.38,1.0,0.621999804,1.0,0.75,0.0,0.368609357,0.0,0.25,False,,5cbf223b47becc0013c2e355,,603279,39,,evan-feature22,full_pf_a,,1
10,41120,40,,,,2,2,0.0,0.0,1.0,0.0,,0.0-37.0,,0.0,710.95,0.0,0.62666403,0.0,0.75,0.0,0.311151498,0.0,0.25,False,,5cbf223b47becc0013c2e355,,613746,40,,evan-feature22,full_pf_a,,0
11,41121,41,,,,2,2,0.0,0.0,1.0,0.0,,0.0-38.0,,0.0,459.45,0.0,0.6819650009999999,1.0,0.75,0.0,0.310763048,0.0,0.25,False,,5cbf223b47becc0013c2e355,,623961,41,,evan-feature22,full_pf_a,,0
12,41122,42,,,,2,2,0.0,0.0,0.0,-1.0,,0.0-39.0,,0.0,259.81,0.0,0.740626951,1.0,0.75,0.0,0.25,0.0,0.25,False,,5cbf223b47becc0013c2e355,,633978,42,,evan-feature22,full_pf_a,,0
13,41123,43,,,,1,1,0.0,1.0,0.0,-1.0,,0.0-40.0,,-1.0,520.26,0.0,0.739599242,1.0,0.742034978,1.0,0.25397114600000004,1.0,0.25,False,,5cbf223b47becc0013c2e355,,644256,43,,evan-feature22,full_pf_a,,1
14,41124,44,,,,2,2,0.0,0.0,0.0,-1.0,,0.0-41.0,,0.0,212.975,0.0,0.732341315,0.0,0.72735643,0.0,0.25,0.0,0.25,False,,5cbf223b47becc0013c2e355,,654226,44,,evan-feature22,full_pf_a,,1
15,41125,45,,,,2,2,0.0,0.0,0.0,-1.0,,0.0-42.0,,0.0,256.705,0.0,0.7062287770000001,1.0,0.75,0.0,0.29002151,0.0,0.288256649,False,,5cbf223b47becc0013c2e355,,664239,45,,evan-feature22,full_pf_a,,0
16,41126,46,,,,2,2,1.0,0.0,1.0,0.0,,0.0-43.0,,1.0,692.735,0.0,0.7086029209999999,0.0,0.75,1.0,0.274129113,0.0,0.262851608,False,,5cbf223b47becc0013c2e355,,674689,46,,evan-feature22,full_pf_a,,0
17,41127,47,,,,2,2,0.0,0.0,0.0,-1.0,,0.0-44.0,,0.0,487.78,1.0,0.669189651,0.0,0.727614338,0.0,0.298444036,0.0,0.296944518,False,,5cbf223b47becc0013c2e355,,684935,47,,evan-feature22,full_pf_a,,0
18,41128,48,,,,2,2,0.0,1.0,1.0,0.0,,0.0-45.0,,0.0,233.37,1.0,0.6819912929999999,1.0,0.7179434290000001,0.0,0.265003961,1.0,0.28157921199999997,False,,5cbf223b47becc0013c2e355,,694925,48,,evan-feature22,full_pf_a,,0
19,41129,49,,,,1,1,0.0,1.0,1.0,0.0,,0.0-46.0,,0.0,221.83,0.0,0.665275002,1.0,0.723065271,0.0,0.260414971,0.0,0.30973870000000003,False,,5cbf223b47becc0013c2e355,,704903,49,,evan-feature22,full_pf_a,,1
20,41130,50,,,,1,1,1.0,0.0,0.0,-1.0,,0.0-47.0,,0.0,279.87,1.0,0.6660593260000001,0.0,0.728032907,0.0,0.30922817,1.0,0.338778608,False,,5cbf223b47becc0013c2e355,,714941,50,,evan-feature22,full_pf_a,,0
21,41131,51,,,,1,1,0.0,1.0,0.0,-1.0,,0.0-48.0,,-1.0,945.465,0.0,0.702068785,1.0,0.6528750879999999,0.0,0.287329608,0.0,0.35789613200000003,False,,5cbf223b47becc0013c2e355,,725644,51,,evan-feature22,full_pf_a,,0
22,41132,52,,,,2,2,0.0,0.0,0.0,-1.0,,0.0-49.0,,0.0,515.025,1.0,0.651939787,1.0,0.636725589,0.0,0.284834488,0.0,0.358563756,False,,5cbf223b47becc0013c2e355,,735916,52,,evan-feature22,full_pf_a,,1
23,41133,53,,,,2,2,0.0,1.0,0.0,-1.0,,0.0-50.0,,-1.0,430.7,1.0,0.67573929,1.0,0.612550049,0.0,0.37130387600000003,1.0,0.383542402,False,,5cbf223b47becc0013c2e355,,746103,53,,evan-feature22,full_pf_a,,0
24,41134,54,,,,1,1,0.0,0.0,0.0,-1.0,,0.0-51.0,,0.0,247.035,0.0,0.620753801,0.0,0.60513644,0.0,0.385529434,0.0,0.340361743,False,,5cbf223b47becc0013c2e355,,756108,54,,evan-feature22,full_pf_a,,1
25,41135,55,,,,1,1,1.0,1.0,1.0,0.0,,0.0-52.0,,1.0,234.2,1.0,0.673564893,1.0,0.672437924,0.0,0.292955382,1.0,0.337633795,False,,5cbf223b47becc0013c2e355,,766101,55,,evan-feature22,full_pf_a,,0
26,41136,56,,,,1,1,0.0,1.0,0.0,-1.0,,0.0-53.0,,-1.0,649.325,0.0,0.6749427,1.0,0.724197502,0.0,0.32391132100000003,0.0,0.350995264,False,,5cbf223b47becc0013c2e355,,776508,56,,evan-feature22,full_pf_a,,0
27,41137,57,,,,2,2,0.0,1.0,0.0,-1.0,,0.0-54.0,,-1.0,347.15,0.0,0.6940159379999999,0.0,0.75,0.0,0.31710554399999996,1.0,0.413450341,False,,5cbf223b47becc0013c2e355,,786611,57,,evan-feature22,full_pf_a,,1
28,41138,58,,,,1,1,1.0,1.0,0.0,-1.0,,0.0-55.0,,-1.0,528.575,1.0,0.6916018270000001,1.0,0.69001187,1.0,0.261817804,1.0,0.40038635,False,,5cbf223b47becc0013c2e355,,796897,58,,evan-feature22,full_pf_a,,1
29,41139,59,,,,1,1,1.0,1.0,0.0,-1.0,,0.0-56.0,,-1.0,327.49,1.0,0.641061544,1.0,0.71337992,0.0,0.277296461,0.0,0.47372791700000005,False,,5cbf223b47becc0013c2e355,,806982,59,,evan-feature22,full_pf_a,,0
30,41140,60,,,,2,2,0.0,1.0,0.0,-1.0,,0.0-57.0,,-1.0,583.455,1.0,0.6082438520000001,0.0,0.708471106,0.0,0.28745137,1.0,0.564174476,False,,5cbf223b47becc0013c2e355,,817322,60,,evan-feature22,full_pf_a,,1
31,41141,61,,,,1,1,0.0,0.0,1.0,0.0,,0.0-58.0,,0.0,272.65,0.0,0.6051112120000001,0.0,0.7118147229999999,0.0,0.272390611,0.0,0.5595149939999999,False,,5cbf223b47becc0013c2e355,,827351,61,,evan-feature22,full_pf_a,,1
32,41142,62,,,,1,1,0.0,1.0,1.0,0.0,,0.0-59.0,,0.0,324.99,0.0,0.582420852,1.0,0.635867583,1.0,0.31089574,1.0,0.5227206520000001,False,,5cbf223b47becc0013c2e355,,837432,62,,evan-feature22,full_pf_a,,0
33,41143,63,,,,1,1,1.0,0.0,1.0,0.0,,0.0-60.0,,1.0,176.29,1.0,0.623195575,0.0,0.655026044,0.0,0.25,1.0,0.560387538,False,,5cbf223b47becc0013c2e355,,847365,63,,evan-feature22,full_pf_a,,0
34,41144,64,,,,1,1,1.0,1.0,0.0,-1.0,,0.0-61.0,,-1.0,844.09,1.0,0.601889598,1.0,0.678198724,0.0,0.25,1.0,0.559922936,False,,5cbf223b47becc0013c2e355,,857967,64,,evan-feature22,full_pf_a,,0
35,41145,65,,,,1,1,1.0,1.0,1.0,0.0,,0.0-62.0,,1.0,201.795,1.0,0.601259914,1.0,0.704681482,1.0,0.33908969299999997,1.0,0.505003715,False,,5cbf223b47becc0013c2e355,,867928,65,,evan-feature22,full_pf_a,,0
36,41146,66,,,,2,2,0.0,0.0,1.0,0.0,,0.0-63.0,,0.0,436.045,1.0,0.59645454,1.0,0.710437172,0.0,0.327441879,0.0,0.391749613,False,,5cbf223b47becc0013c2e355,,878121,66,,evan-feature22,full_pf_a,,1
37,41147,67,,,,1,1,1.0,0.0,0.0,-1.0,,0.0-64.0,,0.0,259.57,1.0,0.529473,0.0,0.636758527,0.0,0.301338063,0.0,0.365661481,False,,5cbf223b47becc0013c2e355,,888138,67,,evan-feature22,full_pf_a,,1
38,41148,68,,,,1,1,1.0,1.0,1.0,0.0,,0.0-65.0,,1.0,797.44,1.0,0.541657162,1.0,0.634541962,0.0,0.343535366,0.0,0.371763742,False,,5cbf223b47becc0013c2e355,,898703,68,,evan-feature22,full_pf_a,,0
39,41149,69,,,,1,1,1.0,1.0,1.0,0.0,,0.0-66.0,,1.0,3057.495,1.0,0.5707533260000001,1.0,0.589121171,1.0,0.326428396,1.0,0.43961622899999997,False,,5cbf223b47becc0013c2e355,,911515,69,,evan-feature22,full_pf_a,,0
40,41150,70,,,,1,1,1.0,1.0,0.0,-1.0,,0.0-67.0,,-1.0,875.75,1.0,0.5707533260000001,1.0,0.589121171,0.0,0.326428396,0.0,0.43961622899999997,False,,5cbf223b47becc0013c2e355,,922150,70,,evan-feature22,full_pf_a,,0
41,41151,71,,,,2,2,0.0,0.0,0.0,-1.0,,0.0-68.0,,0.0,1160.615,1.0,0.506271295,1.0,0.641775594,0.0,0.37149690700000004,0.0,0.404330166,False,,5cbf223b47becc0013c2e355,,933067,71,,evan-feature22,full_pf_a,,1
42,41152,72,,,,1,1,0.0,0.0,1.0,0.0,,0.0-69.0,,0.0,928.42,0.0,0.455642565,0.0,0.623605825,0.0,0.358753011,1.0,0.346174041,False,,5cbf223b47becc0013c2e355,,943753,72,,evan-feature22,full_pf_a,,1
43,41153,73,,,,2,2,0.0,0.0,0.0,-1.0,,0.0-70.0,,0.0,1152.765,1.0,0.483677308,0.0,0.5904681070000001,0.0,0.402218411,0.0,0.35344697,False,,5cbf223b47becc0013c2e355,,954663,73,,evan-feature22,full_pf_a,,1
44,41154,74,,,,2,2,0.0,0.0,1.0,0.0,,0.0-71.0,,0.0,555.27,0.0,0.394210977,0.0,0.558925494,0.0,0.540052017,0.0,0.35182128700000004,False,,5cbf223b47becc0013c2e355,,964976,74,,evan-feature22,full_pf_a,,0
45,41155,75,,,,1,1,0.0,0.0,0.0,-1.0,,0.0-72.0,,0.0,939.615,0.0,0.382300414,0.0,0.577670603,0.0,0.607608448,1.0,0.378261578,False,,5cbf223b47becc0013c2e355,,975672,75,,evan-feature22,full_pf_a,,1
46,41156,76,,,,2,2,1.0,1.0,1.0,0.0,,0.0-73.0,,1.0,576.53,0.0,0.357596762,1.0,0.5929076529999999,1.0,0.6579790010000001,1.0,0.401326777,False,,5cbf223b47becc0013c2e355,,986008,76,,evan-feature22,full_pf_a,,1
47,41157,77,,,,2,2,1.0,1.0,0.0,-1.0,,0.0-74.0,,-1.0,944.25,0.0,0.362033495,0.0,0.582308608,1.0,0.649195052,1.0,0.355158505,False,,5cbf223b47becc0013c2e355,,996710,77,,evan-feature22,full_pf_a,,0
48,41158,78,,,,2,2,1.0,1.0,0.0,-1.0,,0.0-75.0,,-1.0,1181.685,1.0,0.369620635,0.0,0.669100864,1.0,0.706059111,1.0,0.362516241,False,,5cbf223b47becc0013c2e355,,1007649,78,,evan-feature22,full_pf_a,,0
49,41159,79,,,,1,1,1.0,1.0,0.0,-1.0,,0.0-76.0,,-1.0,505.38,1.0,0.41477751399999996,1.0,0.7284416779999999,1.0,0.7182656940000001,0.0,0.36228040899999997,False,,5cbf223b47becc0013c2e355,,1017924,79,,evan-feature22,full_pf_a,,1
50,41160,80,,,,1,1,1.0,1.0,1.0,0.0,,0.0-77.0,,1.0,938.195,1.0,0.37675460299999997,1.0,0.703250285,1.0,0.75,1.0,0.461979164,False,,5cbf223b47becc0013c2e355,,1028618,80,,evan-feature22,full_pf_a,,0
51,41161,81,,,,1,1,1.0,0.0,1.0,0.0,,0.0-78.0,,1.0,1046.35,1.0,0.398716075,0.0,0.6723864890000001,0.0,0.674153818,1.0,0.519029516,False,,5cbf223b47becc0013c2e355,,1039422,81,,evan-feature22,full_pf_a,,0
52,41162,82,,,,1,1,1.0,1.0,1.0,0.0,,0.0-79.0,,1.0,1146.14,1.0,0.34677856700000004,1.0,0.69057175,0.0,0.6822438540000001,0.0,0.477292237,False,,5cbf223b47becc0013c2e355,,1050326,82,,evan-feature22,full_pf_a,,0
53,41163,83,,,,2,2,0.0,0.0,0.0,-1.0,,0.0-80.0,,0.0,774.285,0.0,0.28580469199999997,1.0,0.68408818,0.0,0.684207565,0.0,0.49780448299999996,False,,5cbf223b47becc0013c2e355,,1060858,83,,evan-feature22,full_pf_a,,1
54,41165,85,,,,2,2,0.0,1.0,0.0,-1.0,,0.0-82.0,,-1.0,1215.205,0.0,0.25,1.0,0.7405808970000001,0.0,0.679614108,1.0,0.436436964,False,,5cbf223b47becc0013c2e355,,1074266,85,,evan-feature22,full_pf_a,,0
55,41166,86,,,,2,2,1.0,1.0,0.0,-1.0,,0.0-83.0,,-1.0,533.115,0.0,0.29890393,1.0,0.730505706,1.0,0.7328203320000001,1.0,0.439256938,False,,5cbf223b47becc0013c2e355,,1084556,86,,evan-feature22,full_pf_a,,0
56,41167,87,,,,1,1,0.0,0.0,1.0,0.0,,0.0-84.0,,0.0,359.195,0.0,0.326762398,0.0,0.7148059609999999,0.0,0.75,0.0,0.44389608799999997,False,,5cbf223b47becc0013c2e355,,1094673,87,,evan-feature22,full_pf_a,,1
57,41168,88,,,,2,2,1.0,1.0,0.0,-1.0,,0.0-85.0,,-1.0,510.995,0.0,0.295168515,1.0,0.739760854,1.0,0.719947008,1.0,0.35277284600000003,False,,5cbf223b47becc0013c2e355,,1104940,88,,evan-feature22,full_pf_a,,1
58,41169,89,,,,2,2,1.0,0.0,0.0,-1.0,,0.0-86.0,,0.0,1066.705,0.0,0.25,1.0,0.70781482,1.0,0.75,0.0,0.286095925,False,,5cbf223b47becc0013c2e355,,1115765,89,,evan-feature22,full_pf_a,,0
59,41170,90,,,,1,1,0.0,1.0,0.0,-1.0,,0.0-87.0,,-1.0,1910.345,0.0,0.25638190899999996,1.0,0.704088163,0.0,0.75,1.0,0.26872601399999996,False,,5cbf223b47becc0013c2e355,,1127433,90,,evan-feature22,full_pf_a,,1
60,41171,91,,,,1,1,0.0,0.0,1.0,0.0,,0.0-88.0,,0.0,618.675,0.0,0.271581126,0.0,0.669760107,1.0,0.733896663,1.0,0.273244572,False,,5cbf223b47becc0013c2e355,,1137808,91,,evan-feature22,full_pf_a,,0
61,41172,92,,,,2,2,1.0,0.0,0.0,-1.0,,0.0-89.0,,0.0,412.58,0.0,0.257144401,0.0,0.600575706,1.0,0.74488122,0.0,0.25,False,,5cbf223b47becc0013c2e355,,1147977,92,,evan-feature22,full_pf_a,,1
62,41173,93,,,,1,1,0.0,1.0,0.0,-1.0,,0.0-90.0,,-1.0,666.14,0.0,0.25,1.0,0.616870026,0.0,0.723610234,0.0,0.25,False,,5cbf223b47becc0013c2e355,,1158400,93,,evan-feature22,full_pf_a,,1
63,41174,94,,,,2,2,0.0,0.0,1.0,0.0,,0.0-91.0,,0.0,1724.86,0.0,0.25,0.0,0.583540187,0.0,0.7041042559999999,0.0,0.285961995,False,,5cbf223b47becc0013c2e355,,1169884,94,,evan-feature22,full_pf_a,,1
64,41175,95,,,,2,2,1.0,0.0,1.0,0.0,,0.0-92.0,,1.0,541.62,0.0,0.27254536,0.0,0.53875765,1.0,0.693783448,0.0,0.284961652,False,,5cbf223b47becc0013c2e355,,1180182,95,,evan-feature22,full_pf_a,,0
65,41176,96,,,,2,2,0.0,0.0,1.0,0.0,,0.0-93.0,,0.0,839.515,1.0,0.25,0.0,0.548431252,0.0,0.734221895,0.0,0.279445214,False,,5cbf223b47becc0013c2e355,,1190778,96,,evan-feature22,full_pf_a,,0
66,41177,97,,,,2,2,1.0,0.0,0.0,-1.0,,0.0-94.0,,0.0,861.765,0.0,0.258640684,0.0,0.545878066,1.0,0.725245965,0.0,0.31487537,False,,5cbf223b47becc0013c2e355,,1201399,97,,evan-feature22,full_pf_a,,0
67,41178,98,,,,1,1,0.0,0.0,0.0,-1.0,,0.0-95.0,,0.0,661.32,0.0,0.251103711,0.0,0.5776290629999999,1.0,0.696320133,0.0,0.317831047,False,,5cbf223b47becc0013c2e355,,1211819,98,,evan-feature22,full_pf_a,,1
68,41179,99,,,,2,2,0.0,0.0,0.0,-1.0,,0.0-96.0,,0.0,1845.83,0.0,0.276630292,0.0,0.617329858,0.0,0.73838088,0.0,0.261471582,False,,5cbf223b47becc0013c2e355,,1223422,99,,evan-feature22,full_pf_a,,1
69,41180,100,,,,2,2,0.0,0.0,0.0,-1.0,,0.0-97.0,,0.0,364.405,0.0,0.297716424,1.0,0.618863717,0.0,0.7402358259999999,0.0,0.262600834,False,,5cbf223b47becc0013c2e355,,1233543,100,,evan-feature22,full_pf_a,,0
70,41181,101,,,,2,2,1.0,0.0,1.0,0.0,,0.0-98.0,,1.0,385.075,0.0,0.290935512,1.0,0.695370945,1.0,0.706570507,0.0,0.280030553,False,,5cbf223b47becc0013c2e355,,1243686,101,,evan-feature22,full_pf_a,,0
71,41182,102,,,,2,2,0.0,1.0,0.0,-1.0,,0.0-99.0,,-1.0,1039.775,0.0,0.25,1.0,0.6465277079999999,0.0,0.67766682,1.0,0.25,False,,5cbf223b47becc0013c2e355,,1254483,102,,evan-feature22,full_pf_a,,0
72,41183,103,,,,1,1,1.0,0.0,1.0,0.0,,0.0-100.0,,1.0,719.25,1.0,0.26463816,0.0,0.636100213,0.0,0.646048507,1.0,0.265607101,False,,5cbf223b47becc0013c2e355,,1264958,103,,evan-feature22,full_pf_a,,1
73,41184,104,,,,1,1,1.0,1.0,1.0,0.0,,0.0-101.0,,1.0,725.67,1.0,0.314340707,1.0,0.667795927,1.0,0.613630805,0.0,0.25,False,,5cbf223b47becc0013c2e355,,1275442,104,,evan-feature22,full_pf_a,,0
74,41185,105,,,,2,2,1.0,0.0,0.0,-1.0,,0.0-102.0,,0.0,2352.455,0.0,0.28685784,1.0,0.6622549529999999,1.0,0.652154117,0.0,0.25,False,,5cbf223b47becc0013c2e355,,1287551,105,,evan-feature22,full_pf_a,,1
75,41186,106,,,,2,2,1.0,0.0,0.0,-1.0,,0.0-103.0,,0.0,344.43,0.0,0.304106554,1.0,0.631289538,1.0,0.707041942,0.0,0.29314237,False,,5cbf223b47becc0013c2e355,,1297652,106,,evan-feature22,full_pf_a,,0
76,41187,107,,,,2,2,1.0,1.0,0.0,-1.0,,0.0-104.0,,-1.0,364.135,0.0,0.304806932,1.0,0.571167718,1.0,0.680472346,1.0,0.25,False,,5cbf223b47becc0013c2e355,,1307775,107,,evan-feature22,full_pf_a,,0
77,41188,108,,,,2,2,1.0,1.0,0.0,-1.0,,0.0-105.0,,-1.0,605.325,0.0,0.37919861,0.0,0.5724849710000001,1.0,0.705638003,1.0,0.30179300600000003,False,,5cbf223b47becc0013c2e355,,1318137,108,,evan-feature22,full_pf_a,,0
78,41189,109,,,,1,1,0.0,1.0,0.0,-1.0,,0.0-106.0,,-1.0,539.395,0.0,0.464277969,1.0,0.554034373,1.0,0.7372627340000001,0.0,0.264699741,False,,5cbf223b47becc0013c2e355,,1328433,109,,evan-feature22,full_pf_a,,1
79,41190,110,,,,2,2,1.0,1.0,0.0,-1.0,,0.0-107.0,,-1.0,108.41,1.0,0.465104323,1.0,0.530793115,1.0,0.75,1.0,0.31683071,False,,5cbf223b47becc0013c2e355,,1338299,110,,evan-feature22,full_pf_a,,1
80,41191,111,,,,1,1,0.0,0.0,1.0,0.0,,0.0-108.0,,0.0,711.545,0.0,0.465104323,0.0,0.530793115,1.0,0.75,0.0,0.31683071,False,,5cbf223b47becc0013c2e355,,1348767,111,,evan-feature22,full_pf_a,,1
81,41192,112,,,,2,2,1.0,1.0,1.0,0.0,,0.0-109.0,,1.0,2465.505,1.0,0.46833986,0.0,0.570249239,1.0,0.7244472590000001,1.0,0.364114163,False,,5cbf223b47becc0013c2e355,,1360992,112,,evan-feature22,full_pf_a,,1
82,41193,113,,,,1,1,1.0,1.0,1.0,0.0,,0.0-110.0,,1.0,586.14,1.0,0.445444024,1.0,0.649673355,1.0,0.6845441290000001,1.0,0.300660449,False,,5cbf223b47becc0013c2e355,,1371348,113,,evan-feature22,full_pf_a,,1
83,41194,114,,,,2,2,0.0,1.0,1.0,0.0,,0.0-111.0,,0.0,594.185,1.0,0.39909721299999995,0.0,0.6715179509999999,0.0,0.742310028,1.0,0.35496088299999995,False,,5cbf223b47becc0013c2e355,,1381699,114,,evan-feature22,full_pf_a,,1
84,41195,115,,,,1,1,0.0,1.0,0.0,-1.0,,0.0-112.0,,-1.0,1271.13,0.0,0.37956104799999996,1.0,0.694725302,1.0,0.7181651309999999,0.0,0.38726906299999997,False,,5cbf223b47becc0013c2e355,,1392728,115,,evan-feature22,full_pf_a,,1
85,41196,116,,,,2,2,1.0,0.0,0.0,-1.0,,0.0-113.0,,0.0,307.695,0.0,0.404995034,0.0,0.724375412,1.0,0.6910946859999999,0.0,0.387187347,False,,5cbf223b47becc0013c2e355,,1402794,116,,evan-feature22,full_pf_a,,1
86,41197,117,,,,2,2,1.0,0.0,1.0,0.0,,0.0-114.0,,1.0,1137.72,0.0,0.461740803,0.0,0.75,1.0,0.75,0.0,0.34872038200000005,False,,5cbf223b47becc0013c2e355,,1413687,117,,evan-feature22,full_pf_a,,0
87,41198,118,,,,2,2,1.0,1.0,1.0,0.0,,0.0-115.0,,1.0,343.805,0.0,0.43821380600000004,1.0,0.738833273,1.0,0.728286963,1.0,0.399538128,False,,5cbf223b47becc0013c2e355,,1423789,118,,evan-feature22,full_pf_a,,0
88,41199,119,,,,2,2,1.0,1.0,0.0,-1.0,,0.0-116.0,,-1.0,810.205,0.0,0.41709882,1.0,0.736666736,1.0,0.75,1.0,0.389095584,False,,5cbf223b47becc0013c2e355,,1434356,119,,evan-feature22,full_pf_a,,0
89,41200,120,,,,2,2,1.0,1.0,0.0,-1.0,,0.0-117.0,,-1.0,463.895,1.0,0.39749009799999996,1.0,0.744320029,1.0,0.75,1.0,0.363848678,False,,5cbf223b47becc0013c2e355,,1444587,120,,evan-feature22,full_pf_a,,0
90,41201,121,,,,2,2,1.0,1.0,1.0,0.0,,0.0-118.0,,1.0,493.22,1.0,0.392653706,1.0,0.75,1.0,0.75,1.0,0.384386976,False,,5cbf223b47becc0013c2e355,,1454838,121,,evan-feature22,full_pf_a,,0
91,41202,122,,,,2,2,1.0,0.0,0.0,-1.0,,0.0-119.0,,0.0,343.73,1.0,0.31190902600000003,1.0,0.75,1.0,0.732413819,0.0,0.413082932,False,,5cbf223b47becc0013c2e355,,1464938,122,,evan-feature22,full_pf_a,,0
92,41203,123,,,,2,2,1.0,0.0,1.0,0.0,,0.0-120.0,,1.0,485.605,1.0,0.366917648,0.0,0.740073855,1.0,0.75,0.0,0.352861979,False,,5cbf223b47becc0013c2e355,,1475182,123,,evan-feature22,full_pf_a,,0
93,41204,124,,,,2,2,0.0,0.0,1.0,0.0,,0.0-121.0,,0.0,303.755,1.0,0.3645172,1.0,0.721770713,0.0,0.75,0.0,0.404074511,False,,5cbf223b47becc0013c2e355,,1485244,124,,evan-feature22,full_pf_a,,0
94,41205,125,,,,2,2,1.0,0.0,1.0,0.0,,0.0-122.0,,1.0,940.685,0.0,0.35205600299999995,1.0,0.68983859,1.0,0.739735447,0.0,0.366895945,False,,5cbf223b47becc0013c2e355,,1495942,125,,evan-feature22,full_pf_a,,0
95,41206,126,,,,2,2,1.0,0.0,1.0,0.0,,0.0-123.0,,1.0,2089.37,0.0,0.40998722600000004,1.0,0.720859127,1.0,0.673854955,0.0,0.368528541,False,,5cbf223b47becc0013c2e355,,1507787,126,,evan-feature22,full_pf_a,,0
96,41207,127,,,,2,2,1.0,0.0,1.0,0.0,,0.0-124.0,,1.0,551.34,1.0,0.353625316,1.0,0.75,1.0,0.695605473,0.0,0.38303674200000004,False,,5cbf223b47becc0013c2e355,,1518095,127,,evan-feature22,full_pf_a,,0
97,41208,128,,,,2,2,1.0,0.0,1.0,0.0,,0.0-125.0,,1.0,1063.465,1.0,0.359216989,1.0,0.75,1.0,0.6987915090000001,0.0,0.35169046200000004,False,,5cbf223b47becc0013c2e355,,1528916,128,,evan-feature22,full_pf_a,,0
98,41209,129,,,,2,2,0.0,1.0,1.0,0.0,,0.0-126.0,,0.0,622.435,0.0,0.35834496899999996,1.0,0.75,0.0,0.707067742,1.0,0.416763636,False,,5cbf223b47becc0013c2e355,,1539295,129,,evan-feature22,full_pf_a,,0
99,41210,130,,,,2,2,1.0,0.0,0.0,-1.0,,0.0-127.0,,0.0,862.555,0.0,0.38741613799999997,1.0,0.7177369570000001,1.0,0.734902455,0.0,0.49438664299999996,False,,5cbf223b47becc0013c2e355,,1549916,130,,evan-feature22,full_pf_a,,0
100,41211,131,,,,2,2,1.0,1.0,1.0,0.0,,0.0-128.0,,1.0,1064.29,1.0,0.405255252,1.0,0.7300466640000001,1.0,0.7027748070000001,1.0,0.504359668,False,,5cbf223b47becc0013c2e355,,1560738,131,,evan-feature22,full_pf_a,,0
101,41212,132,,,,2,2,0.0,0.0,1.0,0.0,,0.0-129.0,,0.0,1152.785,0.0,0.40697073,0.0,0.7260142190000001,0.0,0.724461982,0.0,0.522779179,False,,5cbf223b47becc0013c2e355,,1571648,132,,evan-feature22,full_pf_a,,0
102,41213,133,,,,2,2,1.0,1.0,1.0,0.0,,0.0-130.0,,1.0,678.37,0.0,0.43906215299999996,1.0,0.7252802340000001,1.0,0.719079934,1.0,0.5712990579999999,False,,5cbf223b47becc0013c2e355,,1582086,133,,evan-feature22,full_pf_a,,0
103,41214,134,,,,2,2,1.0,0.0,0.0,-1.0,,0.0-131.0,,0.0,350.09,0.0,0.4076705,0.0,0.73280499,1.0,0.681313127,0.0,0.523891346,False,,5cbf223b47becc0013c2e355,,1592193,134,,evan-feature22,full_pf_a,,0
104,41215,135,,,,2,2,1.0,0.0,0.0,-1.0,,0.0-132.0,,0.0,1002.645,1.0,0.399102911,1.0,0.730498344,1.0,0.661080239,0.0,0.46742603,False,,5cbf223b47becc0013c2e355,,1602955,135,,evan-feature22,full_pf_a,,0
105,41216,136,,,,2,2,1.0,0.0,0.0,-1.0,,0.0-133.0,,0.0,465.18,0.0,0.356477282,0.0,0.712296395,1.0,0.641812684,0.0,0.44868414,False,,5cbf223b47becc0013c2e355,,1613177,136,,evan-feature22,full_pf_a,,0
106,41217,137,,,,2,2,1.0,1.0,1.0,0.0,,0.0-134.0,,1.0,595.315,0.0,0.462760722,1.0,0.692349322,1.0,0.700947931,1.0,0.394680266,False,,5cbf223b47becc0013c2e355,,1623528,137,,evan-feature22,full_pf_a,,0
107,41218,138,,,,2,2,0.0,1.0,1.0,0.0,,0.0-135.0,,0.0,563.735,0.0,0.422306413,1.0,0.718375916,0.0,0.706340917,1.0,0.367787185,False,,5cbf223b47becc0013c2e355,,1633850,138,,evan-feature22,full_pf_a,,0
108,41220,140,,,,2,2,1.0,0.0,1.0,0.0,,0.0-137.0,,1.0,563.05,0.0,0.4582233,0.0,0.643834117,1.0,0.75,0.0,0.39615823299999997,False,,5cbf223b47becc0013c2e355,,1649094,140,,evan-feature22,full_pf_a,,0
109,41221,141,,,,2,2,1.0,0.0,1.0,0.0,,0.0-138.0,,1.0,288.575,1.0,0.43813437899999996,0.0,0.651283804,1.0,0.729674191,0.0,0.37711048,False,,5cbf223b47becc0013c2e355,,1659140,141,,evan-feature22,full_pf_a,,0
110,41222,142,,,,2,2,1.0,0.0,1.0,0.0,,0.0-139.0,,1.0,369.385,1.0,0.471199094,1.0,0.6470010979999999,1.0,0.715008097,0.0,0.410656191,False,,5cbf223b47becc0013c2e355,,1669268,142,,evan-feature22,full_pf_a,,0
111,41223,143,,,,2,2,0.0,1.0,1.0,0.0,,0.0-140.0,,0.0,963.66,1.0,0.42486406,0.0,0.629771829,0.0,0.6550939960000001,1.0,0.459093873,False,,5cbf223b47becc0013c2e355,,1679988,143,,evan-feature22,full_pf_a,,0
112,41224,144,,,,2,2,1.0,0.0,1.0,0.0,,0.0-141.0,,1.0,1808.515,0.0,0.4803197,0.0,0.645842715,1.0,0.6421749920000001,0.0,0.443092151,False,,5cbf223b47becc0013c2e355,,1691555,144,,evan-feature22,full_pf_a,,0
113,41225,145,,,,2,2,1.0,0.0,0.0,-1.0,,0.0-142.0,,0.0,321.85,1.0,0.521848997,1.0,0.735801074,1.0,0.6691348460000001,0.0,0.45259351600000003,False,,5cbf223b47becc0013c2e355,,1701637,145,,evan-feature22,full_pf_a,,0
114,41226,146,,,,2,2,0.0,1.0,1.0,0.0,,0.0-143.0,,0.0,517.04,0.0,0.49565621299999996,1.0,0.742400847,0.0,0.661512553,1.0,0.483110831,False,,5cbf223b47becc0013c2e355,,1711910,146,,evan-feature22,full_pf_a,,0
115,41227,147,,,,2,2,1.0,1.0,1.0,0.0,,0.0-144.0,,1.0,521.865,1.0,0.521564361,1.0,0.731078632,1.0,0.6774886809999999,1.0,0.483263956,False,,5cbf223b47becc0013c2e355,,1722189,147,,evan-feature22,full_pf_a,,0
116,41228,148,,,,2,2,1.0,1.0,1.0,0.0,,0.0-145.0,,1.0,525.455,1.0,0.558893102,1.0,0.719810023,1.0,0.67461031,1.0,0.499349834,False,,5cbf223b47becc0013c2e355,,1732475,148,,evan-feature22,full_pf_a,,0
117,41229,149,,,,2,2,1.0,0.0,1.0,0.0,,0.0-146.0,,1.0,758.315,1.0,0.611031046,1.0,0.75,1.0,0.688072995,0.0,0.5321422729999999,False,,5cbf223b47becc0013c2e355,,1742992,149,,evan-feature22,full_pf_a,,0
118,41230,150,,,,2,2,1.0,1.0,0.0,-1.0,,0.0-147.0,,-1.0,1084.405,1.0,0.633223941,0.0,0.713567728,1.0,0.75,1.0,0.48185314700000004,False,,5cbf223b47becc0013c2e355,,1753835,150,,evan-feature22,full_pf_a,,0
119,41231,151,,,,2,2,1.0,1.0,1.0,0.0,,0.0-148.0,,1.0,470.715,1.0,0.664001694,1.0,0.705509768,1.0,0.75,1.0,0.500211065,False,,5cbf223b47becc0013c2e355,,1764064,151,,evan-feature22,full_pf_a,,0
120,41232,152,,,,2,2,1.0,1.0,1.0,0.0,,0.0-149.0,,1.0,796.27,1.0,0.664001694,1.0,0.705509768,1.0,0.75,1.0,0.500211065,False,,5cbf223b47becc0013c2e355,,1774619,152,,evan-feature22,full_pf_a,,0
121,41233,153,,,,2,2,1.0,0.0,1.0,0.0,,0.0-150.0,,1.0,1450.845,1.0,0.696508041,1.0,0.71066027,1.0,0.717028709,0.0,0.49792991,False,,5cbf223b47becc0013c2e355,,1785828,153,,evan-feature22,full_pf_a,,0
122,41234,154,,,,1,1,1.0,1.0,0.0,-1.0,,0.0-151.0,,-1.0,882.47,1.0,0.699883272,1.0,0.75,1.0,0.713543895,0.0,0.496962643,False,,5cbf223b47becc0013c2e355,,1796473,154,,evan-feature22,full_pf_a,,1
123,41235,155,,,,2,2,1.0,1.0,0.0,-1.0,,0.0-152.0,,-1.0,211.045,1.0,0.741163419,1.0,0.75,1.0,0.64691024,1.0,0.513858197,False,,5cbf223b47becc0013c2e355,,1806441,155,,evan-feature22,full_pf_a,,1
124,41236,156,,,,2,2,1.0,0.0,0.0,-1.0,,0.0-153.0,,0.0,287.915,1.0,0.75,0.0,0.70816558,1.0,0.594499079,0.0,0.48502124,False,,5cbf223b47becc0013c2e355,,1816486,156,,evan-feature22,full_pf_a,,0
125,41237,157,,,,2,2,1.0,1.0,1.0,0.0,,0.0-154.0,,1.0,682.865,0.0,0.75,1.0,0.721848901,1.0,0.62197249,1.0,0.48263586399999997,False,,5cbf223b47becc0013c2e355,,1826927,157,,evan-feature22,full_pf_a,,0
126,41238,158,,,,2,2,0.0,1.0,1.0,0.0,,0.0-155.0,,0.0,350.64,1.0,0.75,1.0,0.74813071,0.0,0.584357161,1.0,0.411477782,False,,5cbf223b47becc0013c2e355,,1837036,158,,evan-feature22,full_pf_a,,0
127,41239,159,,,,2,2,0.0,1.0,1.0,0.0,,0.0-156.0,,0.0,793.365,1.0,0.75,1.0,0.75,0.0,0.52287236,1.0,0.488290656,False,,5cbf223b47becc0013c2e355,,1847588,159,,evan-feature22,full_pf_a,,0
128,41240,160,,,,SLOW,SLOW,,,1.0,0.0,,0.0-157.0,,-3.0,,1.0,0.75,1.0,0.75,0.0,0.544321581,0.0,0.53143059,False,,5cbf223b47becc0013c2e355,,1853391,160,,evan-feature22,full_pf_a,,1
129,41241,161,,,,2,2,1.0,1.0,1.0,0.0,,0.0-158.0,,1.0,370.685,1.0,0.726754564,1.0,0.75,1.0,0.5129306370000001,1.0,0.530592445,False,,5cbf223b47becc0013c2e355,,1863521,161,,evan-feature22,full_pf_a,,1
130,41242,162,,,,2,2,1.0,0.0,0.0,-1.0,,0.0-159.0,,0.0,469.155,1.0,0.75,1.0,0.7392590729999999,1.0,0.479875835,0.0,0.547007051,False,,5cbf223b47becc0013c2e355,,1873747,162,,evan-feature22,full_pf_a,,0
131,41243,163,,,,2,2,1.0,1.0,0.0,-1.0,,0.0-160.0,,-1.0,532.89,1.0,0.75,1.0,0.7393376979999999,1.0,0.546045419,1.0,0.541267353,False,,5cbf223b47becc0013c2e355,,1884040,163,,evan-feature22,full_pf_a,,0
132,41244,164,,,,2,2,1.0,1.0,1.0,0.0,,0.0-161.0,,1.0,638.03,1.0,0.75,1.0,0.75,1.0,0.485725895,1.0,0.527625395,False,,5cbf223b47becc0013c2e355,,1894436,164,,evan-feature22,full_pf_a,,0
133,41245,165,,,,2,2,1.0,0.0,0.0,-1.0,,0.0-162.0,,0.0,429.9,1.0,0.75,1.0,0.725087974,1.0,0.488603595,0.0,0.504019206,False,,5cbf223b47becc0013c2e355,,1904624,165,,evan-feature22,full_pf_a,,0
134,41246,166,,,,2,2,0.0,0.0,1.0,0.0,,0.0-163.0,,0.0,247.495,1.0,0.745504295,0.0,0.75,0.0,0.452379914,0.0,0.50131194,False,,5cbf223b47becc0013c2e355,,1914630,166,,evan-feature22,full_pf_a,,0
135,41247,167,,,,2,2,1.0,1.0,0.0,-1.0,,0.0-164.0,,-1.0,927.005,0.0,0.728513874,0.0,0.75,1.0,0.44125567200000004,1.0,0.531454591,False,,5cbf223b47becc0013c2e355,,1925314,167,,evan-feature22,full_pf_a,,0
136,41248,168,,,,2,2,0.0,0.0,1.0,0.0,,0.0-165.0,,0.0,423.465,0.0,0.73790804,1.0,0.75,0.0,0.413036656,0.0,0.524619035,False,,5cbf223b47becc0013c2e355,,1935495,168,,evan-feature22,full_pf_a,,0
137,41249,169,,,,2,2,1.0,1.0,1.0,0.0,,0.0-166.0,,1.0,594.12,1.0,0.7080961309999999,1.0,0.708666865,1.0,0.431915581,1.0,0.481819489,False,,5cbf223b47becc0013c2e355,,1945844,169,,evan-feature22,full_pf_a,,0
138,41250,170,,,,2,2,0.0,1.0,1.0,0.0,,0.0-167.0,,0.0,601.36,1.0,0.721378003,1.0,0.71605913,0.0,0.36642387,1.0,0.5036739929999999,False,,5cbf223b47becc0013c2e355,,1956202,170,,evan-feature22,full_pf_a,,0
139,41251,171,,,,2,2,0.0,1.0,0.0,-1.0,,0.0-168.0,,-1.0,980.5,1.0,0.7340618959999999,0.0,0.699323252,0.0,0.35298046299999997,1.0,0.511241692,False,,5cbf223b47becc0013c2e355,,1966939,171,,evan-feature22,full_pf_a,,0
140,41252,172,,,,1,1,0.0,0.0,0.0,-1.0,,0.0-169.0,,0.0,309.24,0.0,0.75,0.0,0.70412698,0.0,0.380734814,1.0,0.529580116,False,,5cbf223b47becc0013c2e355,,1977008,172,,evan-feature22,full_pf_a,,1
141,41253,173,,,,1,1,0.0,0.0,0.0,-1.0,,0.0-170.0,,0.0,402.825,0.0,0.7436654909999999,0.0,0.711182751,0.0,0.41125331,1.0,0.49554405,False,,5cbf223b47becc0013c2e355,,1987168,173,,evan-feature22,full_pf_a,,0
142,41254,174,,,,1,1,1.0,1.0,1.0,0.0,,0.0-171.0,,1.0,320.505,1.0,0.731607915,1.0,0.651774583,1.0,0.35688023,0.0,0.45194491600000003,False,,5cbf223b47becc0013c2e355,,1997248,174,,evan-feature22,full_pf_a,,0
143,41255,175,,,,1,1,0.0,0.0,0.0,-1.0,,0.0-172.0,,0.0,1026.565,0.0,0.75,0.0,0.75,0.0,0.283145374,0.0,0.528608005,False,,5cbf223b47becc0013c2e355,,2008032,175,,evan-feature22,full_pf_a,,0
144,41256,176,,,,1,1,1.0,0.0,1.0,0.0,,0.0-173.0,,1.0,563.06,1.0,0.7491416890000001,0.0,0.7423785959999999,1.0,0.29135870399999997,1.0,0.498888318,False,,5cbf223b47becc0013c2e355,,2018352,176,,evan-feature22,full_pf_a,,0
145,41257,177,,,,1,1,1.0,1.0,0.0,-1.0,,0.0-174.0,,-1.0,526.715,1.0,0.708569387,1.0,0.717682277,1.0,0.294421699,1.0,0.493838163,False,,5cbf223b47becc0013c2e355,,2028637,177,,evan-feature22,full_pf_a,,0
146,41258,178,,,,1,1,1.0,1.0,1.0,0.0,,0.0-175.0,,1.0,703.125,1.0,0.75,1.0,0.7383382159999999,0.0,0.356098707,0.0,0.442533405,False,,5cbf223b47becc0013c2e355,,2039100,178,,evan-feature22,full_pf_a,,0
147,41259,179,,,,1,1,1.0,1.0,1.0,0.0,,0.0-176.0,,1.0,352.59,1.0,0.744527075,1.0,0.75,0.0,0.334127506,0.0,0.393165805,False,,5cbf223b47becc0013c2e355,,2049222,179,,evan-feature22,full_pf_a,,0
148,41260,180,,,,1,1,0.0,1.0,1.0,0.0,,0.0-177.0,,0.0,299.715,0.0,0.75,1.0,0.75,0.0,0.33571021799999995,1.0,0.350393962,False,,5cbf223b47becc0013c2e355,,2059280,180,,evan-feature22,full_pf_a,,0
149,41261,181,,,,1,1,1.0,1.0,0.0,-1.0,,0.0-178.0,,-1.0,749.725,1.0,0.75,1.0,0.75,0.0,0.313628297,0.0,0.36349657399999996,False,,5cbf223b47becc0013c2e355,,2069789,181,,evan-feature22,full_pf_a,,0
150,41262,182,,,,2,2,1.0,1.0,1.0,0.0,,0.0-179.0,,1.0,304.7,1.0,0.75,1.0,0.734284182,1.0,0.262667667,1.0,0.380199119,False,,5cbf223b47becc0013c2e355,,2079856,182,,evan-feature22,full_pf_a,,1
151,41263,183,,,,2,2,0.0,1.0,1.0,0.0,,0.0-180.0,,0.0,267.59,0.0,0.75,1.0,0.75,0.0,0.25,1.0,0.394494013,False,,5cbf223b47becc0013c2e355,,2089882,183,,evan-feature22,full_pf_a,,0
152,41264,184,,,,2,2,0.0,0.0,1.0,0.0,,0.0-181.0,,0.0,757.905,1.0,0.722298145,1.0,0.7357822340000001,0.0,0.25,0.0,0.319142121,False,,5cbf223b47becc0013c2e355,,2100396,184,,evan-feature22,full_pf_a,,0
153,41265,185,,,,2,2,0.0,0.0,1.0,0.0,,0.0-182.0,,0.0,679.39,1.0,0.73149275,0.0,0.724276446,0.0,0.305856907,0.0,0.281315057,False,,5cbf223b47becc0013c2e355,,2110834,185,,evan-feature22,full_pf_a,,0
154,41266,186,,,,1,1,1.0,1.0,1.0,0.0,,0.0-183.0,,1.0,442.495,1.0,0.7458732690000001,1.0,0.7336382459999999,0.0,0.272571964,0.0,0.266021999,False,,5cbf223b47becc0013c2e355,,2121039,186,,evan-feature22,full_pf_a,,1
155,41267,187,,,,1,1,1.0,0.0,0.0,-1.0,,0.0-184.0,,0.0,1139.165,1.0,0.705579037,0.0,0.720778292,0.0,0.320238144,0.0,0.30971744,False,,5cbf223b47becc0013c2e355,,2131935,187,,evan-feature22,full_pf_a,,0
156,41268,188,,,,1,1,0.0,0.0,0.0,-1.0,,0.0-185.0,,0.0,773.93,0.0,0.700425648,0.0,0.7198784009999999,1.0,0.272590393,0.0,0.304182931,False,,5cbf223b47becc0013c2e355,,2142467,188,,evan-feature22,full_pf_a,,0
157,41269,189,,,,1,1,1.0,1.0,0.0,-1.0,,0.0-186.0,,-1.0,1178.775,1.0,0.735590785,1.0,0.722714973,0.0,0.25,1.0,0.323421091,False,,5cbf223b47becc0013c2e355,,2153403,189,,evan-feature22,full_pf_a,,0
158,41270,190,,,,1,1,0.0,1.0,0.0,-1.0,,0.0-187.0,,-1.0,968.745,0.0,0.724807662,1.0,0.63146213,0.0,0.36836492600000004,0.0,0.34592153299999995,False,,5cbf223b47becc0013c2e355,,2164129,190,,evan-feature22,full_pf_a,,0
159,41271,191,,,,2,2,0.0,1.0,1.0,0.0,,0.0-188.0,,0.0,388.825,1.0,0.7352796909999999,0.0,0.555111392,0.0,0.36003922,1.0,0.31433779999999995,False,,5cbf223b47becc0013c2e355,,2174288,191,,evan-feature22,full_pf_a,,1
160,41272,192,notice,,,,,,,,,,0.0-189.0,"{""Q0"":""The J door seemed to be better in the last 2 sections""}",,35107.0,,,,,,,,,False,,5cbf223b47becc0013c2e355,,2209396,192,Q,survey-text,full_pf_a,,1
161,41273,193,track1,,[1],,,,,,,,0.0-190.0,"{""Q0"":""no""}",,4600.0,,,,,,,,,False,,5cbf223b47becc0013c2e355,,2213998,193,Q,evan-quiz,full_pf_a,,1
162,41274,194,track2,,[0],,,,,,,,0.0-191.0,"{""Q0"":""yes""}",,5569.0,,,,,,,,,False,,5cbf223b47becc0013c2e355,,2219570,194,Q,evan-quiz,full_pf_a,,1
163,41275,195,strat,,,,,,,,,,0.0-192.0,"{""Q0"":""Base my choice of previous results: whichever had more yellows the past few times i went for.""}",,33603.0,,,,,,,,,False,,5cbf223b47becc0013c2e355,,2253174,195,Q,survey-text,full_pf_a,,1
