,index,Unnamed: 0,Q_name,button_pressed,choice_idxs,chosen_pos,chosen_state,chosen_state_f_1_outcome,chosen_state_f_2_outcome,f_1_reward,f_2_reward,incor_questions,internal_node_id,responses,reward_received,rt,s_1_f_1_outcome,s_1_f_1_prob,s_1_f_2_outcome,s_1_f_2_prob,s_2_f_1_outcome,s_2_f_1_prob,s_2_f_2_outcome,s_2_f_2_prob,safe_first,stimulus,subjectID,success,time_elapsed,trial_index,trial_num,trial_type,version,view_history,switching
0,44678,25,,,,1,1,0.0,0.0,0.0,1.0,,0.0-27.0,,0.0,1154.0,0.0,0.6,0.0,0.6,0.0,0.4,0.0,0.4,True,,5cbdf7e839447e00017459f3,,694237,25,,evan-feature22,full_rf_b,,0
1,44679,26,,,,1,1,0.0,0.0,0.0,1.0,,0.0-28.0,,0.0,428.0,0.0,0.608053294,0.0,0.63424552,1.0,0.397152172,0.0,0.347069101,True,,5cbdf7e839447e00017459f3,,704425,26,,evan-feature22,full_rf_b,,0
2,44680,27,,,,1,1,0.0,1.0,0.0,1.0,,0.0-29.0,,1.0,642.0,0.0,0.642237155,1.0,0.648566321,0.0,0.389407674,1.0,0.285525717,True,,5cbdf7e839447e00017459f3,,714827,27,,evan-feature22,full_rf_b,,0
3,44681,28,,,,1,1,1.0,1.0,0.0,1.0,,0.0-30.0,,1.0,214.0,1.0,0.661086576,1.0,0.630492543,0.0,0.399058924,1.0,0.25,True,,5cbdf7e839447e00017459f3,,724802,28,,evan-feature22,full_rf_b,,0
4,44682,29,,,,2,2,0.0,0.0,0.0,1.0,,0.0-31.0,,0.0,914.0,1.0,0.631324137,0.0,0.6269842929999999,0.0,0.38734784299999997,0.0,0.25,True,,5cbdf7e839447e00017459f3,,735475,29,,evan-feature22,full_rf_b,,1
5,44683,30,,,,2,2,0.0,0.0,0.0,1.0,,0.0-32.0,,0.0,729.0,0.0,0.6381991370000001,1.0,0.68987999,0.0,0.384107265,0.0,0.271332943,True,,5cbdf7e839447e00017459f3,,745962,30,,evan-feature22,full_rf_b,,0
6,44684,31,,,,2,2,1.0,0.0,0.0,1.0,,0.0-33.0,,0.0,31.0,0.0,0.66034901,1.0,0.742641349,1.0,0.360225629,0.0,0.25,True,,5cbdf7e839447e00017459f3,,755752,31,,evan-feature22,full_rf_b,,0
7,44685,32,,,,2,2,0.0,0.0,-1.0,0.0,,0.0-34.0,,0.0,503.0,1.0,0.638612418,1.0,0.75,0.0,0.367273939,0.0,0.25,True,,5cbdf7e839447e00017459f3,,766015,32,,evan-feature22,full_rf_b,,0
8,44686,33,,,,1,1,1.0,0.0,0.0,1.0,,0.0-35.0,,0.0,491.0,1.0,0.624340629,0.0,0.75,0.0,0.425829545,0.0,0.25,True,,5cbdf7e839447e00017459f3,,776265,33,,evan-feature22,full_rf_b,,1
9,44687,34,,,,1,1,0.0,0.0,0.0,1.0,,0.0-36.0,,0.0,767.0,0.0,0.621999804,0.0,0.75,0.0,0.368609357,0.0,0.25,True,,5cbdf7e839447e00017459f3,,786790,34,,evan-feature22,full_rf_b,,0
10,44688,35,,,,2,2,1.0,0.0,-1.0,0.0,,0.0-37.0,,-1.0,642.0,0.0,0.62666403,1.0,0.75,1.0,0.311151498,0.0,0.25,True,,5cbdf7e839447e00017459f3,,797190,35,,evan-feature22,full_rf_b,,1
11,44689,36,,,,1,1,1.0,1.0,-1.0,0.0,,0.0-38.0,,-1.0,1890.0,1.0,0.6819650009999999,1.0,0.75,1.0,0.310763048,0.0,0.25,True,,5cbdf7e839447e00017459f3,,808839,36,,evan-feature22,full_rf_b,,1
12,44690,37,,,,1,1,1.0,1.0,0.0,1.0,,0.0-39.0,,1.0,1581.0,1.0,0.740626951,1.0,0.75,0.0,0.25,1.0,0.25,True,,5cbdf7e839447e00017459f3,,820181,37,,evan-feature22,full_rf_b,,0
13,44691,38,,,,1,1,0.0,0.0,0.0,1.0,,0.0-40.0,,0.0,1052.0,0.0,0.739599242,0.0,0.742034978,0.0,0.25397114600000004,0.0,0.25,True,,5cbdf7e839447e00017459f3,,830990,38,,evan-feature22,full_rf_b,,0
14,44692,39,,,,2,2,0.0,0.0,0.0,1.0,,0.0-41.0,,0.0,1018.0,1.0,0.732341315,1.0,0.72735643,0.0,0.25,0.0,0.25,True,,5cbdf7e839447e00017459f3,,841768,39,,evan-feature22,full_rf_b,,1
15,44693,40,,,,1,1,1.0,1.0,0.0,1.0,,0.0-42.0,,1.0,865.0,1.0,0.7062287770000001,1.0,0.75,0.0,0.29002151,1.0,0.288256649,True,,5cbdf7e839447e00017459f3,,852393,40,,evan-feature22,full_rf_b,,1
16,44694,41,,,,2,2,0.0,0.0,-1.0,0.0,,0.0-43.0,,0.0,1828.0,0.0,0.7086029209999999,1.0,0.75,0.0,0.274129113,0.0,0.262851608,True,,5cbdf7e839447e00017459f3,,863980,41,,evan-feature22,full_rf_b,,1
17,44695,42,,,,2,2,0.0,0.0,0.0,1.0,,0.0-44.0,,0.0,1417.0,0.0,0.669189651,1.0,0.727614338,0.0,0.298444036,0.0,0.296944518,True,,5cbdf7e839447e00017459f3,,875153,42,,evan-feature22,full_rf_b,,0
18,44696,43,,,,1,1,1.0,0.0,-1.0,0.0,,0.0-45.0,,-1.0,1268.0,1.0,0.6819912929999999,0.0,0.7179434290000001,1.0,0.265003961,0.0,0.28157921199999997,True,,5cbdf7e839447e00017459f3,,886181,43,,evan-feature22,full_rf_b,,1
19,44697,44,,,,1,1,1.0,0.0,-1.0,0.0,,0.0-46.0,,-1.0,1766.0,1.0,0.665275002,0.0,0.723065271,0.0,0.260414971,0.0,0.30973870000000003,True,,5cbdf7e839447e00017459f3,,897705,44,,evan-feature22,full_rf_b,,0
20,44698,45,,,,1,1,0.0,0.0,0.0,1.0,,0.0-47.0,,0.0,1866.0,0.0,0.6660593260000001,0.0,0.728032907,0.0,0.30922817,1.0,0.338778608,True,,5cbdf7e839447e00017459f3,,909332,45,,evan-feature22,full_rf_b,,0
21,44699,46,,,,2,2,0.0,0.0,0.0,1.0,,0.0-48.0,,0.0,628.0,1.0,0.702068785,0.0,0.6528750879999999,0.0,0.287329608,0.0,0.35789613200000003,True,,5cbdf7e839447e00017459f3,,919720,46,,evan-feature22,full_rf_b,,1
22,44700,47,,,,2,2,1.0,0.0,0.0,1.0,,0.0-49.0,,0.0,880.0,1.0,0.651939787,1.0,0.636725589,1.0,0.284834488,0.0,0.358563756,True,,5cbdf7e839447e00017459f3,,930357,47,,evan-feature22,full_rf_b,,0
23,44701,48,,,,1,1,1.0,1.0,0.0,1.0,,0.0-50.0,,1.0,691.0,1.0,0.67573929,1.0,0.612550049,0.0,0.37130387600000003,0.0,0.383542402,True,,5cbdf7e839447e00017459f3,,940806,48,,evan-feature22,full_rf_b,,1
24,44702,49,,,,1,1,1.0,0.0,0.0,1.0,,0.0-51.0,,0.0,769.0,1.0,0.620753801,0.0,0.60513644,0.0,0.385529434,0.0,0.340361743,True,,5cbdf7e839447e00017459f3,,951334,49,,evan-feature22,full_rf_b,,0
25,44703,50,,,,2,2,0.0,1.0,-1.0,0.0,,0.0-52.0,,0.0,2391.0,1.0,0.673564893,1.0,0.672437924,0.0,0.292955382,1.0,0.337633795,True,,5cbdf7e839447e00017459f3,,963483,50,,evan-feature22,full_rf_b,,1
26,44704,51,,,,2,2,1.0,0.0,0.0,1.0,,0.0-53.0,,0.0,1630.0,0.0,0.6749427,1.0,0.724197502,1.0,0.32391132100000003,0.0,0.350995264,True,,5cbdf7e839447e00017459f3,,974871,51,,evan-feature22,full_rf_b,,0
27,44705,52,,,,1,1,1.0,0.0,0.0,1.0,,0.0-54.0,,0.0,1228.0,1.0,0.6940159379999999,0.0,0.75,1.0,0.31710554399999996,0.0,0.413450341,True,,5cbdf7e839447e00017459f3,,985857,52,,evan-feature22,full_rf_b,,1
28,44706,53,,,,1,1,0.0,1.0,0.0,1.0,,0.0-55.0,,1.0,1530.0,0.0,0.6916018270000001,1.0,0.69001187,0.0,0.261817804,1.0,0.40038635,True,,5cbdf7e839447e00017459f3,,997146,53,,evan-feature22,full_rf_b,,0
29,44707,54,,,,1,1,1.0,1.0,0.0,1.0,,0.0-56.0,,1.0,967.0,1.0,0.641061544,1.0,0.71337992,1.0,0.277296461,0.0,0.47372791700000005,True,,5cbdf7e839447e00017459f3,,1007872,54,,evan-feature22,full_rf_b,,0
30,44708,55,,,,1,1,1.0,0.0,0.0,1.0,,0.0-57.0,,0.0,1253.0,1.0,0.6082438520000001,0.0,0.708471106,0.0,0.28745137,0.0,0.564174476,True,,5cbdf7e839447e00017459f3,,1018885,55,,evan-feature22,full_rf_b,,0
31,44709,56,,,,1,1,1.0,1.0,-1.0,0.0,,0.0-58.0,,-1.0,1926.0,1.0,0.6051112120000001,1.0,0.7118147229999999,0.0,0.272390611,1.0,0.5595149939999999,True,,5cbdf7e839447e00017459f3,,1030572,56,,evan-feature22,full_rf_b,,0
32,44710,57,,,,2,2,0.0,1.0,-1.0,0.0,,0.0-59.0,,0.0,1166.0,1.0,0.582420852,0.0,0.635867583,0.0,0.31089574,1.0,0.5227206520000001,True,,5cbdf7e839447e00017459f3,,1041498,57,,evan-feature22,full_rf_b,,1
33,44711,58,,,,2,2,0.0,0.0,-1.0,0.0,,0.0-60.0,,0.0,1442.0,1.0,0.623195575,1.0,0.655026044,0.0,0.25,0.0,0.560387538,True,,5cbdf7e839447e00017459f3,,1052698,58,,evan-feature22,full_rf_b,,0
34,44712,59,,,,1,1,1.0,1.0,0.0,1.0,,0.0-61.0,,1.0,930.0,1.0,0.601889598,1.0,0.678198724,0.0,0.25,1.0,0.559922936,True,,5cbdf7e839447e00017459f3,,1063385,59,,evan-feature22,full_rf_b,,1
35,44713,60,,,,2,2,0.0,0.0,-1.0,0.0,,0.0-62.0,,0.0,1205.0,0.0,0.601259914,1.0,0.704681482,0.0,0.33908969299999997,0.0,0.505003715,True,,5cbdf7e839447e00017459f3,,1074348,60,,evan-feature22,full_rf_b,,1
36,44714,61,,,,2,2,1.0,0.0,-1.0,0.0,,0.0-63.0,,-1.0,1355.0,1.0,0.59645454,1.0,0.710437172,1.0,0.327441879,0.0,0.391749613,True,,5cbdf7e839447e00017459f3,,1085462,61,,evan-feature22,full_rf_b,,0
37,44715,62,,,,1,1,0.0,1.0,0.0,1.0,,0.0-64.0,,1.0,1665.0,0.0,0.529473,1.0,0.636758527,0.0,0.301338063,0.0,0.365661481,True,,5cbdf7e839447e00017459f3,,1096886,62,,evan-feature22,full_rf_b,,1
38,44716,63,,,,1,1,1.0,0.0,-1.0,0.0,,0.0-65.0,,-1.0,1718.0,1.0,0.541657162,0.0,0.634541962,0.0,0.343535366,1.0,0.371763742,True,,5cbdf7e839447e00017459f3,,1108362,63,,evan-feature22,full_rf_b,,0
39,44717,64,,,,1,1,1.0,1.0,-1.0,0.0,,0.0-66.0,,-1.0,1516.0,1.0,0.5707533260000001,1.0,0.589121171,0.0,0.326428396,1.0,0.43961622899999997,True,,5cbdf7e839447e00017459f3,,1119639,64,,evan-feature22,full_rf_b,,0
40,44718,65,,,,1,1,0.0,1.0,0.0,1.0,,0.0-67.0,,1.0,1015.0,0.0,0.5707533260000001,1.0,0.589121171,0.0,0.326428396,0.0,0.43961622899999997,True,,5cbdf7e839447e00017459f3,,1130412,65,,evan-feature22,full_rf_b,,0
41,44719,66,,,,1,1,1.0,0.0,0.0,1.0,,0.0-68.0,,0.0,641.0,1.0,0.506271295,0.0,0.641775594,1.0,0.37149690700000004,1.0,0.404330166,True,,5cbdf7e839447e00017459f3,,1140814,66,,evan-feature22,full_rf_b,,0
42,44720,67,,,,1,1,0.0,1.0,-1.0,0.0,,0.0-69.0,,0.0,1678.0,0.0,0.455642565,1.0,0.623605825,0.0,0.358753011,1.0,0.346174041,True,,5cbdf7e839447e00017459f3,,1152250,67,,evan-feature22,full_rf_b,,0
43,44721,68,,,,2,2,1.0,0.0,0.0,1.0,,0.0-70.0,,0.0,993.0,1.0,0.483677308,1.0,0.5904681070000001,1.0,0.402218411,0.0,0.35344697,True,,5cbdf7e839447e00017459f3,,1163001,68,,evan-feature22,full_rf_b,,1
44,44722,69,,,,1,1,0.0,1.0,-1.0,0.0,,0.0-71.0,,0.0,1905.0,0.0,0.394210977,1.0,0.558925494,0.0,0.540052017,0.0,0.35182128700000004,True,,5cbdf7e839447e00017459f3,,1174663,69,,evan-feature22,full_rf_b,,1
45,44723,70,,,,1,1,0.0,1.0,0.0,1.0,,0.0-72.0,,1.0,854.0,0.0,0.382300414,1.0,0.577670603,1.0,0.607608448,1.0,0.378261578,True,,5cbdf7e839447e00017459f3,,1185277,70,,evan-feature22,full_rf_b,,0
46,44724,71,,,,1,1,0.0,1.0,-1.0,0.0,,0.0-73.0,,0.0,2203.0,0.0,0.357596762,1.0,0.5929076529999999,0.0,0.6579790010000001,1.0,0.401326777,True,,5cbdf7e839447e00017459f3,,1197239,71,,evan-feature22,full_rf_b,,0
47,44725,72,,,,1,1,0.0,1.0,0.0,1.0,,0.0-74.0,,1.0,1243.0,0.0,0.362033495,1.0,0.582308608,0.0,0.649195052,0.0,0.355158505,True,,5cbdf7e839447e00017459f3,,1208241,72,,evan-feature22,full_rf_b,,0
48,44726,73,,,,1,1,1.0,1.0,0.0,1.0,,0.0-75.0,,1.0,730.0,1.0,0.369620635,1.0,0.669100864,0.0,0.706059111,0.0,0.362516241,True,,5cbdf7e839447e00017459f3,,1218728,73,,evan-feature22,full_rf_b,,0
49,44727,74,,,,1,1,1.0,1.0,0.0,1.0,,0.0-76.0,,1.0,1254.0,1.0,0.41477751399999996,1.0,0.7284416779999999,1.0,0.7182656940000001,0.0,0.36228040899999997,True,,5cbdf7e839447e00017459f3,,1229741,74,,evan-feature22,full_rf_b,,0
50,44728,75,,,,1,1,1.0,1.0,-1.0,0.0,,0.0-77.0,,-1.0,2242.0,1.0,0.37675460299999997,1.0,0.703250285,1.0,0.75,1.0,0.461979164,True,,5cbdf7e839447e00017459f3,,1241743,75,,evan-feature22,full_rf_b,,0
51,44729,76,,,,2,2,0.0,0.0,-1.0,0.0,,0.0-78.0,,0.0,1365.0,0.0,0.398716075,0.0,0.6723864890000001,0.0,0.674153818,0.0,0.519029516,True,,5cbdf7e839447e00017459f3,,1252866,76,,evan-feature22,full_rf_b,,1
52,44730,77,,,,2,2,1.0,1.0,-1.0,0.0,,0.0-79.0,,-1.0,1055.0,1.0,0.34677856700000004,1.0,0.69057175,1.0,0.6822438540000001,1.0,0.477292237,True,,5cbdf7e839447e00017459f3,,1263680,77,,evan-feature22,full_rf_b,,0
53,44731,78,,,,1,1,0.0,1.0,0.0,1.0,,0.0-80.0,,1.0,1541.0,0.0,0.28580469199999997,1.0,0.68408818,1.0,0.684207565,0.0,0.49780448299999996,True,,5cbdf7e839447e00017459f3,,1274980,78,,evan-feature22,full_rf_b,,1
54,44733,80,,,,1,1,0.0,1.0,0.0,1.0,,0.0-82.0,,1.0,2045.0,0.0,0.25,1.0,0.7405808970000001,0.0,0.679614108,0.0,0.436436964,True,,5cbdf7e839447e00017459f3,,1290556,80,,evan-feature22,full_rf_b,,0
55,44734,81,,,,1,1,0.0,0.0,0.0,1.0,,0.0-83.0,,0.0,540.0,0.0,0.29890393,0.0,0.730505706,1.0,0.7328203320000001,0.0,0.439256938,True,,5cbdf7e839447e00017459f3,,1300856,81,,evan-feature22,full_rf_b,,0
56,44735,82,,,,1,1,0.0,1.0,-1.0,0.0,,0.0-84.0,,0.0,1640.0,0.0,0.326762398,1.0,0.7148059609999999,1.0,0.75,0.0,0.44389608799999997,True,,5cbdf7e839447e00017459f3,,1312254,82,,evan-feature22,full_rf_b,,0
57,44736,83,,,,1,1,0.0,1.0,0.0,1.0,,0.0-85.0,,1.0,655.0,0.0,0.295168515,1.0,0.739760854,0.0,0.719947008,0.0,0.35277284600000003,True,,5cbdf7e839447e00017459f3,,1322669,83,,evan-feature22,full_rf_b,,0
58,44737,84,,,,1,1,0.0,1.0,0.0,1.0,,0.0-86.0,,1.0,780.0,0.0,0.25,1.0,0.70781482,1.0,0.75,0.0,0.286095925,True,,5cbdf7e839447e00017459f3,,1333207,84,,evan-feature22,full_rf_b,,0
59,44738,85,,,,1,1,0.0,0.0,0.0,1.0,,0.0-87.0,,0.0,879.0,0.0,0.25638190899999996,0.0,0.704088163,1.0,0.75,1.0,0.26872601399999996,True,,5cbdf7e839447e00017459f3,,1343844,85,,evan-feature22,full_rf_b,,0
60,44739,86,,,,1,1,1.0,1.0,-1.0,0.0,,0.0-88.0,,-1.0,1430.0,1.0,0.271581126,1.0,0.669760107,1.0,0.733896663,1.0,0.273244572,True,,5cbdf7e839447e00017459f3,,1355031,86,,evan-feature22,full_rf_b,,0
61,44740,87,,,,1,1,0.0,0.0,0.0,1.0,,0.0-89.0,,0.0,1091.0,0.0,0.257144401,0.0,0.600575706,1.0,0.74488122,1.0,0.25,True,,5cbdf7e839447e00017459f3,,1365884,87,,evan-feature22,full_rf_b,,0
62,44741,88,,,,1,1,0.0,1.0,0.0,1.0,,0.0-90.0,,1.0,791.0,0.0,0.25,1.0,0.616870026,1.0,0.723610234,1.0,0.25,True,,5cbdf7e839447e00017459f3,,1376433,88,,evan-feature22,full_rf_b,,0
63,44742,89,,,,1,1,0.0,1.0,-1.0,0.0,,0.0-91.0,,0.0,1040.0,0.0,0.25,1.0,0.583540187,1.0,0.7041042559999999,0.0,0.285961995,True,,5cbdf7e839447e00017459f3,,1387233,89,,evan-feature22,full_rf_b,,0
64,44743,90,,,,1,1,1.0,0.0,-1.0,0.0,,0.0-92.0,,-1.0,1379.0,1.0,0.27254536,0.0,0.53875765,0.0,0.693783448,1.0,0.284961652,True,,5cbdf7e839447e00017459f3,,1398371,90,,evan-feature22,full_rf_b,,0
65,44744,91,,,,2,2,0.0,0.0,-1.0,0.0,,0.0-93.0,,0.0,1029.0,1.0,0.25,1.0,0.548431252,0.0,0.734221895,0.0,0.279445214,True,,5cbdf7e839447e00017459f3,,1409158,91,,evan-feature22,full_rf_b,,1
66,44745,92,,,,2,2,0.0,0.0,0.0,1.0,,0.0-94.0,,0.0,1831.0,0.0,0.258640684,1.0,0.545878066,0.0,0.725245965,0.0,0.31487537,True,,5cbdf7e839447e00017459f3,,1420745,92,,evan-feature22,full_rf_b,,0
67,44746,93,,,,1,1,0.0,1.0,0.0,1.0,,0.0-95.0,,1.0,868.0,0.0,0.251103711,1.0,0.5776290629999999,0.0,0.696320133,0.0,0.317831047,True,,5cbdf7e839447e00017459f3,,1431372,93,,evan-feature22,full_rf_b,,1
68,44747,94,,,,1,1,0.0,0.0,0.0,1.0,,0.0-96.0,,0.0,880.0,0.0,0.276630292,0.0,0.617329858,0.0,0.73838088,0.0,0.261471582,True,,5cbdf7e839447e00017459f3,,1442008,94,,evan-feature22,full_rf_b,,0
69,44748,95,,,,1,1,1.0,1.0,0.0,1.0,,0.0-97.0,,1.0,1005.0,1.0,0.297716424,1.0,0.618863717,0.0,0.7402358259999999,0.0,0.262600834,True,,5cbdf7e839447e00017459f3,,1452772,95,,evan-feature22,full_rf_b,,0
70,44749,96,,,,2,2,1.0,0.0,-1.0,0.0,,0.0-98.0,,-1.0,2443.0,0.0,0.290935512,1.0,0.695370945,1.0,0.706570507,0.0,0.280030553,True,,5cbdf7e839447e00017459f3,,1464974,96,,evan-feature22,full_rf_b,,1
71,44750,97,,,,1,1,1.0,0.0,0.0,1.0,,0.0-99.0,,0.0,2687.0,1.0,0.25,0.0,0.6465277079999999,0.0,0.67766682,0.0,0.25,True,,5cbdf7e839447e00017459f3,,1477423,97,,evan-feature22,full_rf_b,,1
72,44751,98,,,,2,2,0.0,0.0,-1.0,0.0,,0.0-100.0,,0.0,2118.0,0.0,0.26463816,1.0,0.636100213,0.0,0.646048507,0.0,0.265607101,True,,5cbdf7e839447e00017459f3,,1489298,98,,evan-feature22,full_rf_b,,1
73,44752,99,,,,2,2,1.0,0.0,-1.0,0.0,,0.0-101.0,,-1.0,1455.0,0.0,0.314340707,1.0,0.667795927,1.0,0.613630805,0.0,0.25,True,,5cbdf7e839447e00017459f3,,1500512,99,,evan-feature22,full_rf_b,,0
74,44753,100,,,,1,1,0.0,0.0,0.0,1.0,,0.0-102.0,,0.0,618.0,0.0,0.28685784,0.0,0.6622549529999999,0.0,0.652154117,0.0,0.25,True,,5cbdf7e839447e00017459f3,,1510885,100,,evan-feature22,full_rf_b,,1
75,44754,101,,,,1,1,1.0,1.0,0.0,1.0,,0.0-103.0,,1.0,581.0,1.0,0.304106554,1.0,0.631289538,1.0,0.707041942,0.0,0.29314237,True,,5cbdf7e839447e00017459f3,,1521226,101,,evan-feature22,full_rf_b,,0
76,44755,102,,,,1,1,0.0,1.0,0.0,1.0,,0.0-104.0,,1.0,790.0,0.0,0.304806932,1.0,0.571167718,1.0,0.680472346,0.0,0.25,True,,5cbdf7e839447e00017459f3,,1531776,102,,evan-feature22,full_rf_b,,0
77,44756,103,,,,1,1,1.0,0.0,0.0,1.0,,0.0-105.0,,0.0,603.0,1.0,0.37919861,0.0,0.5724849710000001,1.0,0.705638003,1.0,0.30179300600000003,True,,5cbdf7e839447e00017459f3,,1542139,103,,evan-feature22,full_rf_b,,0
78,44757,104,,,,1,1,1.0,1.0,0.0,1.0,,0.0-106.0,,1.0,840.0,1.0,0.464277969,1.0,0.554034373,1.0,0.7372627340000001,1.0,0.264699741,True,,5cbdf7e839447e00017459f3,,1552738,104,,evan-feature22,full_rf_b,,0
79,44758,105,,,,1,1,1.0,0.0,0.0,1.0,,0.0-107.0,,0.0,867.0,1.0,0.465104323,0.0,0.530793115,1.0,0.75,1.0,0.31683071,True,,5cbdf7e839447e00017459f3,,1563363,105,,evan-feature22,full_rf_b,,0
80,44759,106,,,,1,1,0.0,0.0,-1.0,0.0,,0.0-108.0,,0.0,2354.0,0.0,0.465104323,0.0,0.530793115,0.0,0.75,0.0,0.31683071,True,,5cbdf7e839447e00017459f3,,1575475,106,,evan-feature22,full_rf_b,,0
81,44760,107,,,,1,1,1.0,0.0,-1.0,0.0,,0.0-109.0,,-1.0,903.0,1.0,0.46833986,0.0,0.570249239,1.0,0.7244472590000001,1.0,0.364114163,True,,5cbdf7e839447e00017459f3,,1586139,107,,evan-feature22,full_rf_b,,0
82,44761,108,,,,1,1,0.0,0.0,-1.0,0.0,,0.0-110.0,,0.0,891.0,0.0,0.445444024,0.0,0.649673355,1.0,0.6845441290000001,0.0,0.300660449,True,,5cbdf7e839447e00017459f3,,1596788,108,,evan-feature22,full_rf_b,,0
83,44762,109,,,,1,1,0.0,1.0,-1.0,0.0,,0.0-111.0,,0.0,1080.0,0.0,0.39909721299999995,1.0,0.6715179509999999,1.0,0.742310028,0.0,0.35496088299999995,True,,5cbdf7e839447e00017459f3,,1607628,109,,evan-feature22,full_rf_b,,0
84,44763,110,,,,1,1,1.0,1.0,0.0,1.0,,0.0-112.0,,1.0,977.0,1.0,0.37956104799999996,1.0,0.694725302,0.0,0.7181651309999999,1.0,0.38726906299999997,True,,5cbdf7e839447e00017459f3,,1618367,110,,evan-feature22,full_rf_b,,0
85,44764,111,,,,1,1,0.0,1.0,0.0,1.0,,0.0-113.0,,1.0,577.0,0.0,0.404995034,1.0,0.724375412,1.0,0.6910946859999999,1.0,0.387187347,True,,5cbdf7e839447e00017459f3,,1628702,111,,evan-feature22,full_rf_b,,0
86,44765,112,,,,1,1,0.0,1.0,-1.0,0.0,,0.0-114.0,,0.0,1467.0,0.0,0.461740803,1.0,0.75,1.0,0.75,0.0,0.34872038200000005,True,,5cbdf7e839447e00017459f3,,1639927,112,,evan-feature22,full_rf_b,,0
87,44766,113,,,,1,1,0.0,1.0,-1.0,0.0,,0.0-115.0,,0.0,1292.0,0.0,0.43821380600000004,1.0,0.738833273,1.0,0.728286963,1.0,0.399538128,True,,5cbdf7e839447e00017459f3,,1650979,113,,evan-feature22,full_rf_b,,0
88,44767,114,,,,1,1,0.0,1.0,0.0,1.0,,0.0-116.0,,1.0,1080.0,0.0,0.41709882,1.0,0.736666736,1.0,0.75,1.0,0.389095584,True,,5cbdf7e839447e00017459f3,,1661816,114,,evan-feature22,full_rf_b,,0
89,44768,115,,,,1,1,0.0,1.0,0.0,1.0,,0.0-117.0,,1.0,767.0,0.0,0.39749009799999996,1.0,0.744320029,1.0,0.75,1.0,0.363848678,True,,5cbdf7e839447e00017459f3,,1672343,115,,evan-feature22,full_rf_b,,0
90,44769,116,,,,1,1,0.0,1.0,-1.0,0.0,,0.0-118.0,,0.0,1291.0,0.0,0.392653706,1.0,0.75,0.0,0.75,0.0,0.384386976,True,,5cbdf7e839447e00017459f3,,1683392,116,,evan-feature22,full_rf_b,,0
91,44770,117,,,,1,1,0.0,1.0,0.0,1.0,,0.0-119.0,,1.0,878.0,0.0,0.31190902600000003,1.0,0.75,1.0,0.732413819,1.0,0.413082932,True,,5cbdf7e839447e00017459f3,,1694031,117,,evan-feature22,full_rf_b,,0
92,44771,118,,,,1,1,1.0,0.0,-1.0,0.0,,0.0-120.0,,-1.0,1966.0,1.0,0.366917648,0.0,0.740073855,1.0,0.75,1.0,0.352861979,True,,5cbdf7e839447e00017459f3,,1705757,118,,evan-feature22,full_rf_b,,0
93,44772,119,,,,1,1,0.0,1.0,-1.0,0.0,,0.0-121.0,,0.0,1265.0,0.0,0.3645172,1.0,0.721770713,1.0,0.75,1.0,0.404074511,True,,5cbdf7e839447e00017459f3,,1716780,119,,evan-feature22,full_rf_b,,0
94,44773,120,,,,1,1,0.0,1.0,-1.0,0.0,,0.0-122.0,,0.0,917.0,0.0,0.35205600299999995,1.0,0.68983859,1.0,0.739735447,0.0,0.366895945,True,,5cbdf7e839447e00017459f3,,1727456,120,,evan-feature22,full_rf_b,,0
95,44774,121,,,,1,1,1.0,0.0,-1.0,0.0,,0.0-123.0,,-1.0,3030.0,1.0,0.40998722600000004,0.0,0.720859127,1.0,0.673854955,0.0,0.368528541,True,,5cbdf7e839447e00017459f3,,1740244,121,,evan-feature22,full_rf_b,,0
96,44775,122,,,,1,1,0.0,0.0,-1.0,0.0,,0.0-124.0,,0.0,1167.0,0.0,0.353625316,0.0,0.75,0.0,0.695605473,0.0,0.38303674200000004,True,,5cbdf7e839447e00017459f3,,1751166,122,,evan-feature22,full_rf_b,,0
97,44776,123,,,,1,1,1.0,1.0,-1.0,0.0,,0.0-125.0,,-1.0,1444.0,1.0,0.359216989,1.0,0.75,0.0,0.6987915090000001,1.0,0.35169046200000004,True,,5cbdf7e839447e00017459f3,,1762370,123,,evan-feature22,full_rf_b,,0
98,44777,124,,,,2,2,0.0,0.0,-1.0,0.0,,0.0-126.0,,0.0,954.0,0.0,0.35834496899999996,1.0,0.75,0.0,0.707067742,0.0,0.416763636,True,,5cbdf7e839447e00017459f3,,1773082,124,,evan-feature22,full_rf_b,,1
99,44778,125,,,,2,2,1.0,0.0,0.0,1.0,,0.0-127.0,,0.0,1829.0,0.0,0.38741613799999997,1.0,0.7177369570000001,1.0,0.734902455,0.0,0.49438664299999996,True,,5cbdf7e839447e00017459f3,,1784669,125,,evan-feature22,full_rf_b,,0
100,44779,126,,,,2,2,0.0,0.0,-1.0,0.0,,0.0-128.0,,0.0,844.0,0.0,0.405255252,0.0,0.7300466640000001,0.0,0.7027748070000001,0.0,0.504359668,True,,5cbdf7e839447e00017459f3,,1795270,126,,evan-feature22,full_rf_b,,0
101,44780,127,,,,2,2,1.0,1.0,-1.0,0.0,,0.0-129.0,,-1.0,1129.0,1.0,0.40697073,0.0,0.7260142190000001,1.0,0.724461982,1.0,0.522779179,True,,5cbdf7e839447e00017459f3,,1806159,127,,evan-feature22,full_rf_b,,0
102,44781,128,,,,2,2,0.0,0.0,-1.0,0.0,,0.0-130.0,,0.0,978.0,1.0,0.43906215299999996,1.0,0.7252802340000001,0.0,0.719079934,0.0,0.5712990579999999,True,,5cbdf7e839447e00017459f3,,1816894,128,,evan-feature22,full_rf_b,,0
103,44782,129,,,,1,1,0.0,1.0,0.0,1.0,,0.0-131.0,,1.0,2268.0,0.0,0.4076705,1.0,0.73280499,1.0,0.681313127,0.0,0.523891346,True,,5cbdf7e839447e00017459f3,,1828922,129,,evan-feature22,full_rf_b,,1
104,44783,130,,,,1,1,0.0,1.0,0.0,1.0,,0.0-132.0,,1.0,616.0,0.0,0.399102911,1.0,0.730498344,1.0,0.661080239,0.0,0.46742603,True,,5cbdf7e839447e00017459f3,,1839296,130,,evan-feature22,full_rf_b,,0
105,44784,131,,,,1,1,1.0,1.0,0.0,1.0,,0.0-133.0,,1.0,693.0,1.0,0.356477282,1.0,0.712296395,1.0,0.641812684,0.0,0.44868414,True,,5cbdf7e839447e00017459f3,,1849748,131,,evan-feature22,full_rf_b,,0
106,44785,132,,,,2,2,1.0,0.0,-1.0,0.0,,0.0-134.0,,-1.0,2741.0,1.0,0.462760722,1.0,0.692349322,1.0,0.700947931,0.0,0.394680266,True,,5cbdf7e839447e00017459f3,,1862248,132,,evan-feature22,full_rf_b,,1
107,44786,133,,,,2,2,1.0,1.0,-1.0,0.0,,0.0-135.0,,-1.0,1491.0,1.0,0.422306413,1.0,0.718375916,1.0,0.706340917,1.0,0.367787185,True,,5cbdf7e839447e00017459f3,,1873498,133,,evan-feature22,full_rf_b,,0
108,44788,135,,,,2,2,1.0,0.0,-1.0,0.0,,0.0-137.0,,-1.0,3988.0,0.0,0.4582233,1.0,0.643834117,1.0,0.75,0.0,0.39615823299999997,True,,5cbdf7e839447e00017459f3,,1983277,135,,evan-feature22,full_rf_b,,0
109,44789,136,,,,1,1,1.0,0.0,-1.0,0.0,,0.0-138.0,,-1.0,1843.0,1.0,0.43813437899999996,0.0,0.651283804,1.0,0.729674191,1.0,0.37711048,True,,5cbdf7e839447e00017459f3,,1994878,136,,evan-feature22,full_rf_b,,1
110,44790,137,,,,1,1,0.0,1.0,-1.0,0.0,,0.0-139.0,,0.0,1541.0,0.0,0.471199094,1.0,0.6470010979999999,1.0,0.715008097,0.0,0.410656191,True,,5cbdf7e839447e00017459f3,,2006177,137,,evan-feature22,full_rf_b,,0
111,44791,138,,,,SLOW,SLOW,,,-1.0,0.0,,0.0-140.0,,-3.0,,0.0,0.42486406,1.0,0.629771829,1.0,0.6550939960000001,1.0,0.459093873,True,,5cbdf7e839447e00017459f3,,2011984,138,,evan-feature22,full_rf_b,,1
112,44792,139,,,,1,1,1.0,1.0,-1.0,0.0,,0.0-141.0,,-1.0,1822.0,1.0,0.4803197,1.0,0.645842715,0.0,0.6421749920000001,0.0,0.443092151,True,,5cbdf7e839447e00017459f3,,2023565,139,,evan-feature22,full_rf_b,,1
113,44793,140,,,,1,1,0.0,1.0,0.0,1.0,,0.0-142.0,,1.0,729.0,0.0,0.521848997,1.0,0.735801074,1.0,0.6691348460000001,0.0,0.45259351600000003,True,,5cbdf7e839447e00017459f3,,2034052,140,,evan-feature22,full_rf_b,,0
114,44794,141,,,,2,2,0.0,0.0,-1.0,0.0,,0.0-143.0,,0.0,1318.0,0.0,0.49565621299999996,0.0,0.742400847,0.0,0.661512553,0.0,0.483110831,True,,5cbdf7e839447e00017459f3,,2045128,141,,evan-feature22,full_rf_b,,1
115,44795,142,,,,2,2,1.0,1.0,-1.0,0.0,,0.0-144.0,,-1.0,1080.0,1.0,0.521564361,1.0,0.731078632,1.0,0.6774886809999999,1.0,0.483263956,True,,5cbdf7e839447e00017459f3,,2055966,142,,evan-feature22,full_rf_b,,0
116,44796,143,,,,2,2,1.0,0.0,-1.0,0.0,,0.0-145.0,,-1.0,841.0,1.0,0.558893102,0.0,0.719810023,1.0,0.67461031,0.0,0.499349834,True,,5cbdf7e839447e00017459f3,,2066565,143,,evan-feature22,full_rf_b,,0
117,44797,144,,,,2,2,1.0,0.0,-1.0,0.0,,0.0-146.0,,-1.0,1168.0,0.0,0.611031046,1.0,0.75,1.0,0.688072995,0.0,0.5321422729999999,True,,5cbdf7e839447e00017459f3,,2077490,144,,evan-feature22,full_rf_b,,0
118,44798,145,,,,1,1,1.0,1.0,0.0,1.0,,0.0-147.0,,1.0,743.0,1.0,0.633223941,1.0,0.713567728,1.0,0.75,1.0,0.48185314700000004,True,,5cbdf7e839447e00017459f3,,2087991,145,,evan-feature22,full_rf_b,,1
119,44799,146,,,,1,1,0.0,1.0,-1.0,0.0,,0.0-148.0,,0.0,1530.0,0.0,0.664001694,1.0,0.705509768,1.0,0.75,0.0,0.500211065,True,,5cbdf7e839447e00017459f3,,2099279,146,,evan-feature22,full_rf_b,,0
120,44800,147,,,,1,1,1.0,1.0,-1.0,0.0,,0.0-149.0,,-1.0,1180.0,1.0,0.664001694,1.0,0.705509768,0.0,0.75,1.0,0.500211065,True,,5cbdf7e839447e00017459f3,,2110217,147,,evan-feature22,full_rf_b,,0
121,44801,148,,,,1,1,0.0,1.0,-1.0,0.0,,0.0-150.0,,0.0,1078.0,0.0,0.696508041,1.0,0.71066027,1.0,0.717028709,1.0,0.49792991,True,,5cbdf7e839447e00017459f3,,2121056,148,,evan-feature22,full_rf_b,,0
122,44802,149,,,,1,1,0.0,0.0,0.0,1.0,,0.0-151.0,,0.0,704.0,0.0,0.699883272,0.0,0.75,1.0,0.713543895,0.0,0.496962643,True,,5cbdf7e839447e00017459f3,,2131519,149,,evan-feature22,full_rf_b,,0
123,44803,150,,,,1,1,1.0,1.0,0.0,1.0,,0.0-152.0,,1.0,792.0,1.0,0.741163419,1.0,0.75,1.0,0.64691024,0.0,0.513858197,True,,5cbdf7e839447e00017459f3,,2142069,150,,evan-feature22,full_rf_b,,0
124,44804,151,,,,1,1,1.0,0.0,0.0,1.0,,0.0-153.0,,0.0,590.0,1.0,0.75,0.0,0.70816558,0.0,0.594499079,0.0,0.48502124,True,,5cbdf7e839447e00017459f3,,2152418,151,,evan-feature22,full_rf_b,,0
125,44805,152,,,,1,1,1.0,0.0,-1.0,0.0,,0.0-154.0,,-1.0,1229.0,1.0,0.75,0.0,0.721848901,1.0,0.62197249,1.0,0.48263586399999997,True,,5cbdf7e839447e00017459f3,,2163407,152,,evan-feature22,full_rf_b,,0
126,44806,153,,,,1,1,1.0,1.0,-1.0,0.0,,0.0-155.0,,-1.0,702.0,1.0,0.75,1.0,0.74813071,1.0,0.584357161,0.0,0.411477782,True,,5cbdf7e839447e00017459f3,,2173870,153,,evan-feature22,full_rf_b,,0
127,44807,154,,,,1,1,1.0,0.0,-1.0,0.0,,0.0-156.0,,-1.0,1067.0,1.0,0.75,0.0,0.75,1.0,0.52287236,1.0,0.488290656,True,,5cbdf7e839447e00017459f3,,2184697,154,,evan-feature22,full_rf_b,,0
128,44808,155,,,,1,1,1.0,0.0,-1.0,0.0,,0.0-157.0,,-1.0,889.0,1.0,0.75,0.0,0.75,0.0,0.544321581,1.0,0.53143059,True,,5cbdf7e839447e00017459f3,,2195346,155,,evan-feature22,full_rf_b,,0
129,44809,156,,,,2,2,1.0,0.0,-1.0,0.0,,0.0-158.0,,-1.0,1003.0,1.0,0.726754564,0.0,0.75,1.0,0.5129306370000001,0.0,0.530592445,True,,5cbdf7e839447e00017459f3,,2206107,156,,evan-feature22,full_rf_b,,1
130,44810,157,,,,2,2,0.0,0.0,0.0,1.0,,0.0-159.0,,0.0,567.0,1.0,0.75,1.0,0.7392590729999999,0.0,0.479875835,0.0,0.547007051,True,,5cbdf7e839447e00017459f3,,2216434,157,,evan-feature22,full_rf_b,,0
131,44811,158,,,,1,1,0.0,0.0,0.0,1.0,,0.0-160.0,,0.0,678.0,0.0,0.75,0.0,0.7393376979999999,1.0,0.546045419,1.0,0.541267353,True,,5cbdf7e839447e00017459f3,,2226870,158,,evan-feature22,full_rf_b,,1
132,44812,159,,,,2,2,0.0,0.0,-1.0,0.0,,0.0-161.0,,0.0,2717.0,1.0,0.75,0.0,0.75,0.0,0.485725895,0.0,0.527625395,True,,5cbdf7e839447e00017459f3,,2239345,159,,evan-feature22,full_rf_b,,1
133,44813,160,,,,2,2,1.0,0.0,0.0,1.0,,0.0-162.0,,0.0,567.0,1.0,0.75,1.0,0.725087974,1.0,0.488603595,0.0,0.504019206,True,,5cbdf7e839447e00017459f3,,2249670,160,,evan-feature22,full_rf_b,,0
134,44814,161,,,,2,2,1.0,0.0,-1.0,0.0,,0.0-163.0,,-1.0,2255.0,1.0,0.745504295,0.0,0.75,1.0,0.452379914,0.0,0.50131194,True,,5cbdf7e839447e00017459f3,,2261682,161,,evan-feature22,full_rf_b,,0
135,44815,162,,,,1,1,1.0,1.0,0.0,1.0,,0.0-164.0,,1.0,1631.0,1.0,0.728513874,1.0,0.75,0.0,0.44125567200000004,1.0,0.531454591,True,,5cbdf7e839447e00017459f3,,2273073,162,,evan-feature22,full_rf_b,,1
136,44816,163,,,,2,2,0.0,1.0,-1.0,0.0,,0.0-165.0,,0.0,1117.0,1.0,0.73790804,1.0,0.75,0.0,0.413036656,1.0,0.524619035,True,,5cbdf7e839447e00017459f3,,2283949,163,,evan-feature22,full_rf_b,,1
137,44817,164,,,,2,2,0.0,0.0,-1.0,0.0,,0.0-166.0,,0.0,1004.0,0.0,0.7080961309999999,1.0,0.708666865,0.0,0.431915581,0.0,0.481819489,True,,5cbdf7e839447e00017459f3,,2294710,164,,evan-feature22,full_rf_b,,0
138,44818,165,,,,2,2,0.0,0.0,-1.0,0.0,,0.0-167.0,,0.0,1854.0,1.0,0.721378003,0.0,0.71605913,0.0,0.36642387,0.0,0.5036739929999999,True,,5cbdf7e839447e00017459f3,,2306325,165,,evan-feature22,full_rf_b,,0
139,44819,166,,,,1,1,0.0,1.0,0.0,1.0,,0.0-168.0,,1.0,729.0,0.0,0.7340618959999999,1.0,0.699323252,1.0,0.35298046299999997,0.0,0.511241692,True,,5cbdf7e839447e00017459f3,,2316810,166,,evan-feature22,full_rf_b,,1
140,44820,167,,,,1,1,1.0,0.0,0.0,1.0,,0.0-169.0,,0.0,655.0,1.0,0.75,0.0,0.70412698,0.0,0.380734814,1.0,0.529580116,True,,5cbdf7e839447e00017459f3,,2327224,167,,evan-feature22,full_rf_b,,0
141,44821,168,,,,2,2,0.0,1.0,0.0,1.0,,0.0-170.0,,1.0,528.0,0.0,0.7436654909999999,1.0,0.711182751,0.0,0.41125331,1.0,0.49554405,True,,5cbdf7e839447e00017459f3,,2337513,168,,evan-feature22,full_rf_b,,1
142,44822,169,,,,2,2,0.0,1.0,-1.0,0.0,,0.0-171.0,,0.0,1117.0,1.0,0.731607915,1.0,0.651774583,0.0,0.35688023,1.0,0.45194491600000003,True,,5cbdf7e839447e00017459f3,,2348388,169,,evan-feature22,full_rf_b,,0
143,44823,170,,,,2,2,0.0,1.0,0.0,1.0,,0.0-172.0,,1.0,828.0,1.0,0.75,0.0,0.75,0.0,0.283145374,1.0,0.528608005,True,,5cbdf7e839447e00017459f3,,2358975,170,,evan-feature22,full_rf_b,,0
144,44824,171,,,,2,2,0.0,1.0,-1.0,0.0,,0.0-173.0,,0.0,867.0,1.0,0.7491416890000001,1.0,0.7423785959999999,0.0,0.29135870399999997,1.0,0.498888318,True,,5cbdf7e839447e00017459f3,,2369601,171,,evan-feature22,full_rf_b,,0
145,44825,172,,,,2,2,1.0,1.0,0.0,1.0,,0.0-174.0,,1.0,517.0,1.0,0.708569387,1.0,0.717682277,1.0,0.294421699,1.0,0.493838163,True,,5cbdf7e839447e00017459f3,,2379876,172,,evan-feature22,full_rf_b,,0
146,44826,173,,,,2,2,0.0,1.0,-1.0,0.0,,0.0-175.0,,0.0,655.0,1.0,0.75,0.0,0.7383382159999999,0.0,0.356098707,1.0,0.442533405,True,,5cbdf7e839447e00017459f3,,2390288,173,,evan-feature22,full_rf_b,,0
147,44827,174,,,,2,2,0.0,0.0,-1.0,0.0,,0.0-176.0,,0.0,816.0,1.0,0.744527075,1.0,0.75,0.0,0.334127506,0.0,0.393165805,True,,5cbdf7e839447e00017459f3,,2400865,174,,evan-feature22,full_rf_b,,0
148,44828,175,,,,2,2,0.0,0.0,-1.0,0.0,,0.0-177.0,,0.0,1104.0,0.0,0.75,1.0,0.75,0.0,0.33571021799999995,0.0,0.350393962,True,,5cbdf7e839447e00017459f3,,2411726,175,,evan-feature22,full_rf_b,,0
149,44829,176,,,,2,2,1.0,0.0,0.0,1.0,,0.0-178.0,,0.0,1442.0,1.0,0.75,1.0,0.75,1.0,0.313628297,0.0,0.36349657399999996,True,,5cbdf7e839447e00017459f3,,2422927,176,,evan-feature22,full_rf_b,,0
150,44830,177,,,,2,2,0.0,1.0,-1.0,0.0,,0.0-179.0,,0.0,1392.0,1.0,0.75,1.0,0.734284182,0.0,0.262667667,1.0,0.380199119,True,,5cbdf7e839447e00017459f3,,2434078,177,,evan-feature22,full_rf_b,,0
151,44831,178,,,,2,2,0.0,1.0,-1.0,0.0,,0.0-180.0,,0.0,1190.0,1.0,0.75,1.0,0.75,0.0,0.25,1.0,0.394494013,True,,5cbdf7e839447e00017459f3,,2445027,178,,evan-feature22,full_rf_b,,0
152,44832,179,,,,2,2,1.0,0.0,-1.0,0.0,,0.0-181.0,,-1.0,705.0,1.0,0.722298145,1.0,0.7357822340000001,1.0,0.25,0.0,0.319142121,True,,5cbdf7e839447e00017459f3,,2455491,179,,evan-feature22,full_rf_b,,0
153,44833,180,,,,2,2,1.0,1.0,-1.0,0.0,,0.0-182.0,,-1.0,730.0,1.0,0.73149275,1.0,0.724276446,1.0,0.305856907,1.0,0.281315057,True,,5cbdf7e839447e00017459f3,,2465980,180,,evan-feature22,full_rf_b,,0
154,44834,181,,,,2,2,0.0,1.0,-1.0,0.0,,0.0-183.0,,0.0,615.0,0.0,0.7458732690000001,1.0,0.7336382459999999,0.0,0.272571964,1.0,0.266021999,True,,5cbdf7e839447e00017459f3,,2476353,181,,evan-feature22,full_rf_b,,0
155,44835,182,,,,2,2,1.0,0.0,0.0,1.0,,0.0-184.0,,0.0,505.0,1.0,0.705579037,1.0,0.720778292,1.0,0.320238144,0.0,0.30971744,True,,5cbdf7e839447e00017459f3,,2486617,182,,evan-feature22,full_rf_b,,0
156,44836,183,,,,1,1,1.0,1.0,0.0,1.0,,0.0-185.0,,1.0,568.0,1.0,0.700425648,1.0,0.7198784009999999,0.0,0.272590393,0.0,0.304182931,True,,5cbdf7e839447e00017459f3,,2496942,183,,evan-feature22,full_rf_b,,1
157,44837,184,,,,1,1,1.0,0.0,0.0,1.0,,0.0-186.0,,0.0,629.0,1.0,0.735590785,0.0,0.722714973,1.0,0.25,0.0,0.323421091,True,,5cbdf7e839447e00017459f3,,2507331,184,,evan-feature22,full_rf_b,,0
158,44838,185,,,,1,1,1.0,1.0,0.0,1.0,,0.0-187.0,,1.0,641.0,1.0,0.724807662,1.0,0.63146213,0.0,0.36836492600000004,1.0,0.34592153299999995,True,,5cbdf7e839447e00017459f3,,2517731,185,,evan-feature22,full_rf_b,,0
159,44839,186,,,,2,2,0.0,1.0,-1.0,0.0,,0.0-188.0,,0.0,1129.0,1.0,0.7352796909999999,1.0,0.555111392,0.0,0.36003922,1.0,0.31433779999999995,True,,5cbdf7e839447e00017459f3,,2528618,186,,evan-feature22,full_rf_b,,1
160,44840,187,notice,,,,,,,,,,0.0-189.0,"{""Q0"":""yes""}",,13423.0,,,,,,,,,True,,5cbdf7e839447e00017459f3,,2542043,187,Q,survey-text,full_rf_b,,1
161,44841,188,track1,,[0],,,,,,,,0.0-190.0,"{""Q0"":""yes""}",,6149.0,,,,,,,,,True,,5cbdf7e839447e00017459f3,,2548197,188,Q,evan-quiz,full_rf_b,,1
162,44842,189,track2,,[1],,,,,,,,0.0-191.0,"{""Q0"":""no""}",,6590.0,,,,,,,,,True,,5cbdf7e839447e00017459f3,,2554789,189,Q,evan-quiz,full_rf_b,,1
163,44843,190,strat,,,,,,,,,,0.0-192.0,"{""Q0"":""I tracked the likelyhood of where certain aliense more likely to appear""}",,24260.0,,,,,,,,,True,,5cbdf7e839447e00017459f3,,2579051,190,Q,survey-text,full_rf_b,,1
