,index,Unnamed: 0,Q_name,button_pressed,choice_idxs,chosen_pos,chosen_state,chosen_state_f_1_outcome,chosen_state_f_2_outcome,f_1_reward,f_2_reward,incor_questions,internal_node_id,responses,reward_received,rt,s_1_f_1_outcome,s_1_f_1_prob,s_1_f_2_outcome,s_1_f_2_prob,s_2_f_1_outcome,s_2_f_1_prob,s_2_f_2_outcome,s_2_f_2_prob,safe_first,stimulus,subjectID,success,time_elapsed,trial_index,trial_num,trial_type,version,view_history,switching
0,27902,25,,,,1,1,0.0,0.0,1.0,0.0,,0.0-27.0,,0.0,2146.875,0.0,0.6,0.0,0.6,0.0,0.4,0.0,0.4,True,,5e13bbae4acfb9a08f0b94c8,,448114,25,,evan-feature22,full_rf_a,,0
1,27903,26,,,,1,1,1.0,1.0,1.0,0.0,,0.0-28.0,,1.0,818.5149999,1.0,0.608053294,1.0,0.63424552,0.0,0.397152172,0.0,0.347069101,True,,5e13bbae4acfb9a08f0b94c8,,458698,26,,evan-feature22,full_rf_a,,0
2,27904,27,,,,1,1,1.0,1.0,1.0,0.0,,0.0-29.0,,1.0,2824.4,1.0,0.642237155,1.0,0.648566321,0.0,0.389407674,1.0,0.285525717,True,,5e13bbae4acfb9a08f0b94c8,,471287,27,,evan-feature22,full_rf_a,,0
3,27905,28,,,,1,1,0.0,1.0,1.0,0.0,,0.0-30.0,,0.0,883.01,0.0,0.661086576,1.0,0.630492543,0.0,0.399058924,1.0,0.25,True,,5e13bbae4acfb9a08f0b94c8,,481933,28,,evan-feature22,full_rf_a,,0
4,27906,29,,,,1,1,0.0,0.0,0.0,-1.0,,0.0-31.0,,0.0,750.4199999,0.0,0.631324137,0.0,0.6269842929999999,1.0,0.38734784299999997,0.0,0.25,True,,5e13bbae4acfb9a08f0b94c8,,492446,29,,evan-feature22,full_rf_a,,0
5,27907,30,,,,2,2,1.0,1.0,0.0,-1.0,,0.0-32.0,,-1.0,2602.26,1.0,0.6381991370000001,1.0,0.68987999,1.0,0.384107265,1.0,0.271332943,True,,5e13bbae4acfb9a08f0b94c8,,504813,30,,evan-feature22,full_rf_a,,1
6,27908,31,,,,2,2,0.0,0.0,1.0,0.0,,0.0-33.0,,0.0,2628.625,1.0,0.66034901,1.0,0.742641349,0.0,0.360225629,0.0,0.25,True,,5e13bbae4acfb9a08f0b94c8,,517204,31,,evan-feature22,full_rf_a,,0
7,27909,32,,,,1,1,1.0,1.0,1.0,0.0,,0.0-34.0,,1.0,678.3349999,1.0,0.638612418,1.0,0.75,1.0,0.367273939,1.0,0.25,True,,5e13bbae4acfb9a08f0b94c8,,527648,32,,evan-feature22,full_rf_a,,1
8,27910,33,,,,1,1,0.0,0.0,0.0,-1.0,,0.0-35.0,,0.0,9.750000085,0.0,0.624340629,0.0,0.75,0.0,0.425829545,1.0,0.25,True,,5e13bbae4acfb9a08f0b94c8,,537421,33,,evan-feature22,full_rf_a,,0
9,27911,34,,,,1,1,1.0,1.0,0.0,-1.0,,0.0-36.0,,-1.0,553.46,1.0,0.621999804,1.0,0.75,1.0,0.368609357,1.0,0.25,True,,5e13bbae4acfb9a08f0b94c8,,547735,34,,evan-feature22,full_rf_a,,0
10,27912,35,,,,1,1,0.0,1.0,1.0,0.0,,0.0-37.0,,0.0,221.2299999,0.0,0.62666403,1.0,0.75,0.0,0.311151498,0.0,0.25,True,,5e13bbae4acfb9a08f0b94c8,,557719,35,,evan-feature22,full_rf_a,,0
11,27913,36,,,,2,2,0.0,0.0,0.0,-1.0,,0.0-38.0,,0.0,491.22,0.0,0.6819650009999999,1.0,0.75,0.0,0.310763048,0.0,0.25,True,,5e13bbae4acfb9a08f0b94c8,,567971,36,,evan-feature22,full_rf_a,,1
12,27914,37,,,,2,2,0.0,0.0,1.0,0.0,,0.0-39.0,,0.0,912.4200001,1.0,0.740626951,1.0,0.75,0.0,0.25,0.0,0.25,True,,5e13bbae4acfb9a08f0b94c8,,578644,37,,evan-feature22,full_rf_a,,0
13,27915,38,,,,2,2,1.0,0.0,1.0,0.0,,0.0-40.0,,1.0,453.38,1.0,0.739599242,1.0,0.742034978,1.0,0.25397114600000004,0.0,0.25,True,,5e13bbae4acfb9a08f0b94c8,,588858,38,,evan-feature22,full_rf_a,,0
14,27916,39,,,,2,2,0.0,0.0,1.0,0.0,,0.0-41.0,,0.0,229.3550001,1.0,0.732341315,1.0,0.72735643,0.0,0.25,0.0,0.25,True,,5e13bbae4acfb9a08f0b94c8,,598848,39,,evan-feature22,full_rf_a,,0
15,27917,40,,,,2,2,1.0,1.0,1.0,0.0,,0.0-42.0,,1.0,2475.35,1.0,0.7062287770000001,0.0,0.75,1.0,0.29002151,1.0,0.288256649,True,,5e13bbae4acfb9a08f0b94c8,,611087,40,,evan-feature22,full_rf_a,,0
16,27918,41,,,,2,2,0.0,1.0,1.0,0.0,,0.0-43.0,,0.0,337.64,1.0,0.7086029209999999,1.0,0.75,0.0,0.274129113,1.0,0.262851608,True,,5e13bbae4acfb9a08f0b94c8,,621187,41,,evan-feature22,full_rf_a,,0
17,27919,42,,,,1,1,0.0,1.0,1.0,0.0,,0.0-44.0,,0.0,247.97,0.0,0.669189651,1.0,0.727614338,0.0,0.298444036,1.0,0.296944518,True,,5e13bbae4acfb9a08f0b94c8,,631198,42,,evan-feature22,full_rf_a,,1
18,27920,43,,,,2,2,0.0,0.0,1.0,0.0,,0.0-45.0,,0.0,381.825,1.0,0.6819912929999999,1.0,0.7179434290000001,0.0,0.265003961,0.0,0.28157921199999997,True,,5e13bbae4acfb9a08f0b94c8,,641340,43,,evan-feature22,full_rf_a,,1
19,27921,44,,,,2,2,0.0,1.0,0.0,-1.0,,0.0-46.0,,-1.0,1451.97,1.0,0.665275002,1.0,0.723065271,0.0,0.260414971,1.0,0.30973870000000003,True,,5e13bbae4acfb9a08f0b94c8,,652553,44,,evan-feature22,full_rf_a,,0
20,27922,45,,,,2,2,0.0,0.0,1.0,0.0,,0.0-47.0,,0.0,1861.105,1.0,0.6660593260000001,0.0,0.728032907,0.0,0.30922817,0.0,0.338778608,True,,5e13bbae4acfb9a08f0b94c8,,664176,45,,evan-feature22,full_rf_a,,0
21,27923,46,,,,1,1,1.0,1.0,1.0,0.0,,0.0-48.0,,1.0,476.66,1.0,0.702068785,1.0,0.6528750879999999,0.0,0.287329608,1.0,0.35789613200000003,True,,5e13bbae4acfb9a08f0b94c8,,674419,46,,evan-feature22,full_rf_a,,1
22,27924,47,,,,1,1,0.0,1.0,1.0,0.0,,0.0-49.0,,0.0,253.0799999,0.0,0.651939787,1.0,0.636725589,1.0,0.284834488,0.0,0.358563756,True,,5e13bbae4acfb9a08f0b94c8,,684438,47,,evan-feature22,full_rf_a,,0
23,27925,48,,,,1,1,1.0,1.0,0.0,-1.0,,0.0-50.0,,-1.0,239.02,1.0,0.67573929,1.0,0.612550049,1.0,0.37130387600000003,0.0,0.383542402,True,,5e13bbae4acfb9a08f0b94c8,,694442,48,,evan-feature22,full_rf_a,,0
24,27926,49,,,,2,2,1.0,1.0,0.0,-1.0,,0.0-51.0,,-1.0,765.17,1.0,0.620753801,0.0,0.60513644,1.0,0.385529434,1.0,0.340361743,True,,5e13bbae4acfb9a08f0b94c8,,704969,49,,evan-feature22,full_rf_a,,1
25,27927,50,,,,SLOW,SLOW,,,0.0,-1.0,,0.0-52.0,,-3.0,,0.0,0.673564893,1.0,0.672437924,0.0,0.292955382,0.0,0.337633795,True,,5e13bbae4acfb9a08f0b94c8,,710776,50,,evan-feature22,full_rf_a,,1
26,27928,51,,,,2,2,0.0,1.0,1.0,0.0,,0.0-53.0,,0.0,1591.085,1.0,0.6749427,1.0,0.724197502,0.0,0.32391132100000003,1.0,0.350995264,True,,5e13bbae4acfb9a08f0b94c8,,722128,51,,evan-feature22,full_rf_a,,1
27,27929,52,,,,2,2,0.0,0.0,1.0,0.0,,0.0-54.0,,0.0,75.83999995,0.0,0.6940159379999999,1.0,0.75,0.0,0.31710554399999996,0.0,0.413450341,True,,5e13bbae4acfb9a08f0b94c8,,731964,52,,evan-feature22,full_rf_a,,0
28,27930,53,,,,2,2,0.0,0.0,1.0,0.0,,0.0-55.0,,0.0,1102.01,0.0,0.6916018270000001,1.0,0.69001187,0.0,0.261817804,0.0,0.40038635,True,,5e13bbae4acfb9a08f0b94c8,,742827,53,,evan-feature22,full_rf_a,,0
29,27931,54,,,,SLOW,SLOW,,,1.0,0.0,,0.0-56.0,,-3.0,,1.0,0.641061544,0.0,0.71337992,1.0,0.277296461,0.0,0.47372791700000005,True,,5e13bbae4acfb9a08f0b94c8,,748632,54,,evan-feature22,full_rf_a,,1
30,27932,55,,,,2,2,0.0,1.0,1.0,0.0,,0.0-57.0,,0.0,14.83999996,1.0,0.6082438520000001,0.0,0.708471106,0.0,0.28745137,1.0,0.564174476,True,,5e13bbae4acfb9a08f0b94c8,,758410,55,,evan-feature22,full_rf_a,,1
31,27933,56,,,,SLOW,SLOW,,,1.0,0.0,,0.0-58.0,,-3.0,,1.0,0.6051112120000001,1.0,0.7118147229999999,0.0,0.272390611,1.0,0.5595149939999999,True,,5e13bbae4acfb9a08f0b94c8,,764220,56,,evan-feature22,full_rf_a,,1
32,27934,57,,,,2,2,0.0,1.0,1.0,0.0,,0.0-59.0,,0.0,461.165,1.0,0.582420852,0.0,0.635867583,0.0,0.31089574,1.0,0.5227206520000001,True,,5e13bbae4acfb9a08f0b94c8,,774444,57,,evan-feature22,full_rf_a,,1
33,27935,58,,,,2,2,0.0,0.0,0.0,-1.0,,0.0-60.0,,0.0,57.17499997,1.0,0.623195575,0.0,0.655026044,0.0,0.25,0.0,0.560387538,True,,5e13bbae4acfb9a08f0b94c8,,784261,58,,evan-feature22,full_rf_a,,0
34,27936,59,,,,2,2,0.0,0.0,1.0,0.0,,0.0-61.0,,0.0,349.88,1.0,0.601889598,0.0,0.678198724,0.0,0.25,0.0,0.559922936,True,,5e13bbae4acfb9a08f0b94c8,,794373,59,,evan-feature22,full_rf_a,,0
35,27937,60,,,,2,2,1.0,0.0,1.0,0.0,,0.0-62.0,,1.0,234.925,1.0,0.601259914,1.0,0.704681482,1.0,0.33908969299999997,0.0,0.505003715,True,,5e13bbae4acfb9a08f0b94c8,,804372,60,,evan-feature22,full_rf_a,,0
36,27938,61,,,,2,2,1.0,0.0,1.0,0.0,,0.0-63.0,,1.0,244.755,0.0,0.59645454,1.0,0.710437172,1.0,0.327441879,0.0,0.391749613,True,,5e13bbae4acfb9a08f0b94c8,,814379,61,,evan-feature22,full_rf_a,,0
37,27939,62,,,,2,2,1.0,0.0,1.0,0.0,,0.0-64.0,,1.0,20.08000005,1.0,0.529473,0.0,0.636758527,1.0,0.301338063,0.0,0.365661481,True,,5e13bbae4acfb9a08f0b94c8,,824161,62,,evan-feature22,full_rf_a,,0
38,27940,63,,,,2,2,1.0,1.0,0.0,-1.0,,0.0-65.0,,-1.0,762.745,1.0,0.541657162,1.0,0.634541962,1.0,0.343535366,1.0,0.371763742,True,,5e13bbae4acfb9a08f0b94c8,,834687,63,,evan-feature22,full_rf_a,,0
39,27941,64,,,,2,2,0.0,0.0,1.0,0.0,,0.0-66.0,,0.0,362.005,0.0,0.5707533260000001,0.0,0.589121171,0.0,0.326428396,0.0,0.43961622899999997,True,,5e13bbae4acfb9a08f0b94c8,,844810,64,,evan-feature22,full_rf_a,,0
40,27942,65,,,,2,2,0.0,0.0,1.0,0.0,,0.0-67.0,,0.0,62.49000004,1.0,0.5707533260000001,0.0,0.589121171,0.0,0.326428396,0.0,0.43961622899999997,True,,5e13bbae4acfb9a08f0b94c8,,854634,65,,evan-feature22,full_rf_a,,0
41,27943,66,,,,2,2,0.0,0.0,1.0,0.0,,0.0-68.0,,0.0,230.80499989999998,0.0,0.506271295,0.0,0.641775594,0.0,0.37149690700000004,0.0,0.404330166,True,,5e13bbae4acfb9a08f0b94c8,,864627,66,,evan-feature22,full_rf_a,,0
42,27944,67,,,,2,2,1.0,0.0,0.0,-1.0,,0.0-69.0,,0.0,83.55499990000001,1.0,0.455642565,0.0,0.623605825,1.0,0.358753011,0.0,0.346174041,True,,5e13bbae4acfb9a08f0b94c8,,874472,67,,evan-feature22,full_rf_a,,0
43,27945,68,,,,2,2,0.0,0.0,0.0,-1.0,,0.0-70.0,,0.0,336.215,0.0,0.483677308,0.0,0.5904681070000001,0.0,0.402218411,0.0,0.35344697,True,,5e13bbae4acfb9a08f0b94c8,,884570,68,,evan-feature22,full_rf_a,,0
44,27946,69,,,,2,2,0.0,1.0,0.0,-1.0,,0.0-71.0,,-1.0,220.625,0.0,0.394210977,0.0,0.558925494,0.0,0.540052017,1.0,0.35182128700000004,True,,5e13bbae4acfb9a08f0b94c8,,894551,69,,evan-feature22,full_rf_a,,0
45,27947,70,,,,2,2,0.0,0.0,1.0,0.0,,0.0-72.0,,0.0,247.675,1.0,0.382300414,1.0,0.577670603,0.0,0.607608448,0.0,0.378261578,True,,5e13bbae4acfb9a08f0b94c8,,904563,70,,evan-feature22,full_rf_a,,0
46,27948,71,,,,2,2,0.0,0.0,1.0,0.0,,0.0-73.0,,0.0,596.925,0.0,0.357596762,1.0,0.5929076529999999,0.0,0.6579790010000001,0.0,0.401326777,True,,5e13bbae4acfb9a08f0b94c8,,914920,71,,evan-feature22,full_rf_a,,0
47,27949,72,,,,2,2,1.0,1.0,1.0,0.0,,0.0-74.0,,1.0,206.735,1.0,0.362033495,0.0,0.582308608,1.0,0.649195052,1.0,0.355158505,True,,5e13bbae4acfb9a08f0b94c8,,924887,72,,evan-feature22,full_rf_a,,0
48,27950,73,,,,2,2,1.0,0.0,1.0,0.0,,0.0-75.0,,1.0,235.51,1.0,0.369620635,1.0,0.669100864,1.0,0.706059111,0.0,0.362516241,True,,5e13bbae4acfb9a08f0b94c8,,934885,73,,evan-feature22,full_rf_a,,0
49,27951,74,,,,2,2,1.0,0.0,1.0,0.0,,0.0-76.0,,1.0,226.745,0.0,0.41477751399999996,1.0,0.7284416779999999,1.0,0.7182656940000001,0.0,0.36228040899999997,True,,5e13bbae4acfb9a08f0b94c8,,944873,74,,evan-feature22,full_rf_a,,0
50,27952,75,,,,2,2,1.0,1.0,0.0,-1.0,,0.0-77.0,,-1.0,224.535,0.0,0.37675460299999997,0.0,0.703250285,1.0,0.75,1.0,0.461979164,True,,5e13bbae4acfb9a08f0b94c8,,954859,75,,evan-feature22,full_rf_a,,0
51,27953,76,,,,2,2,1.0,1.0,0.0,-1.0,,0.0-78.0,,-1.0,204.315,0.0,0.398716075,1.0,0.6723864890000001,1.0,0.674153818,1.0,0.519029516,True,,5e13bbae4acfb9a08f0b94c8,,964827,76,,evan-feature22,full_rf_a,,0
52,27954,77,,,,2,2,1.0,0.0,1.0,0.0,,0.0-79.0,,1.0,1377.605,0.0,0.34677856700000004,1.0,0.69057175,1.0,0.6822438540000001,0.0,0.477292237,True,,5e13bbae4acfb9a08f0b94c8,,975966,77,,evan-feature22,full_rf_a,,0
53,27955,78,,,,2,2,1.0,0.0,0.0,-1.0,,0.0-80.0,,0.0,460.7200001,0.0,0.28580469199999997,1.0,0.68408818,1.0,0.684207565,0.0,0.49780448299999996,True,,5e13bbae4acfb9a08f0b94c8,,986186,78,,evan-feature22,full_rf_a,,0
54,27957,80,,,,2,2,1.0,0.0,1.0,0.0,,0.0-82.0,,1.0,1203.28,0.0,0.25,1.0,0.7405808970000001,1.0,0.679614108,0.0,0.436436964,True,,5e13bbae4acfb9a08f0b94c8,,999520,80,,evan-feature22,full_rf_a,,0
55,27958,81,,,,2,2,0.0,1.0,0.0,-1.0,,0.0-83.0,,-1.0,483.965,0.0,0.29890393,1.0,0.730505706,0.0,0.7328203320000001,1.0,0.439256938,True,,5e13bbae4acfb9a08f0b94c8,,1009765,81,,evan-feature22,full_rf_a,,0
56,27959,82,,,,SLOW,SLOW,,,1.0,0.0,,0.0-84.0,,-3.0,,0.0,0.326762398,0.0,0.7148059609999999,1.0,0.75,1.0,0.44389608799999997,True,,5e13bbae4acfb9a08f0b94c8,,1015572,82,,evan-feature22,full_rf_a,,1
57,27960,83,,,,2,2,1.0,0.0,1.0,0.0,,0.0-85.0,,1.0,76.84999995,0.0,0.295168515,1.0,0.739760854,1.0,0.719947008,0.0,0.35277284600000003,True,,5e13bbae4acfb9a08f0b94c8,,1025412,83,,evan-feature22,full_rf_a,,1
58,27961,84,,,,2,2,0.0,0.0,1.0,0.0,,0.0-86.0,,0.0,77.52000005,1.0,0.25,1.0,0.70781482,0.0,0.75,0.0,0.286095925,True,,5e13bbae4acfb9a08f0b94c8,,1035249,84,,evan-feature22,full_rf_a,,0
59,27962,85,,,,2,2,1.0,1.0,0.0,-1.0,,0.0-87.0,,-1.0,416.145,1.0,0.25638190899999996,1.0,0.704088163,1.0,0.75,1.0,0.26872601399999996,True,,5e13bbae4acfb9a08f0b94c8,,1045429,85,,evan-feature22,full_rf_a,,0
60,27963,86,,,,2,2,0.0,1.0,0.0,-1.0,,0.0-88.0,,-1.0,715.305,0.0,0.271581126,1.0,0.669760107,0.0,0.733896663,1.0,0.273244572,True,,5e13bbae4acfb9a08f0b94c8,,1055907,86,,evan-feature22,full_rf_a,,0
61,27964,87,,,,2,2,1.0,0.0,0.0,-1.0,,0.0-89.0,,0.0,181.9900001,0.0,0.257144401,1.0,0.600575706,1.0,0.74488122,0.0,0.25,True,,5e13bbae4acfb9a08f0b94c8,,1065849,87,,evan-feature22,full_rf_a,,0
62,27965,88,,,,2,2,0.0,0.0,1.0,0.0,,0.0-90.0,,0.0,26.71000001,0.0,0.25,1.0,0.616870026,0.0,0.723610234,0.0,0.25,True,,5e13bbae4acfb9a08f0b94c8,,1075638,88,,evan-feature22,full_rf_a,,0
63,27966,89,,,,2,2,1.0,0.0,0.0,-1.0,,0.0-91.0,,0.0,333.18000010000003,0.0,0.25,1.0,0.583540187,1.0,0.7041042559999999,0.0,0.285961995,True,,5e13bbae4acfb9a08f0b94c8,,1085731,89,,evan-feature22,full_rf_a,,0
64,27967,90,,,,2,2,0.0,0.0,1.0,0.0,,0.0-92.0,,0.0,235.015,0.0,0.27254536,1.0,0.53875765,0.0,0.693783448,0.0,0.284961652,True,,5e13bbae4acfb9a08f0b94c8,,1095728,90,,evan-feature22,full_rf_a,,0
65,27968,91,,,,2,2,0.0,1.0,0.0,-1.0,,0.0-93.0,,-1.0,382.2550001,0.0,0.25,1.0,0.548431252,0.0,0.734221895,1.0,0.279445214,True,,5e13bbae4acfb9a08f0b94c8,,1105872,91,,evan-feature22,full_rf_a,,0
66,27969,92,,,,2,2,1.0,0.0,1.0,0.0,,0.0-94.0,,1.0,469.695,1.0,0.258640684,1.0,0.545878066,1.0,0.725245965,0.0,0.31487537,True,,5e13bbae4acfb9a08f0b94c8,,1116105,92,,evan-feature22,full_rf_a,,0
67,27970,93,,,,2,2,0.0,1.0,1.0,0.0,,0.0-95.0,,0.0,225.78,0.0,0.251103711,0.0,0.5776290629999999,0.0,0.696320133,1.0,0.317831047,True,,5e13bbae4acfb9a08f0b94c8,,1126089,93,,evan-feature22,full_rf_a,,0
68,27971,94,,,,2,2,1.0,0.0,1.0,0.0,,0.0-96.0,,1.0,249.325,0.0,0.276630292,1.0,0.617329858,1.0,0.73838088,0.0,0.261471582,True,,5e13bbae4acfb9a08f0b94c8,,1136103,94,,evan-feature22,full_rf_a,,0
69,27972,95,,,,2,2,1.0,1.0,0.0,-1.0,,0.0-97.0,,-1.0,364.5599999,0.0,0.297716424,0.0,0.618863717,1.0,0.7402358259999999,1.0,0.262600834,True,,5e13bbae4acfb9a08f0b94c8,,1146230,95,,evan-feature22,full_rf_a,,0
70,27973,96,,,,2,2,1.0,0.0,1.0,0.0,,0.0-98.0,,1.0,224.87,0.0,0.290935512,1.0,0.695370945,1.0,0.706570507,0.0,0.280030553,True,,5e13bbae4acfb9a08f0b94c8,,1156216,96,,evan-feature22,full_rf_a,,0
71,27974,97,,,,2,2,0.0,1.0,1.0,0.0,,0.0-99.0,,0.0,597.28,1.0,0.25,0.0,0.6465277079999999,0.0,0.67766682,1.0,0.25,True,,5e13bbae4acfb9a08f0b94c8,,1166576,97,,evan-feature22,full_rf_a,,0
72,27975,98,,,,2,2,1.0,0.0,1.0,0.0,,0.0-100.0,,1.0,89.61500006,1.0,0.26463816,1.0,0.636100213,1.0,0.646048507,0.0,0.265607101,True,,5e13bbae4acfb9a08f0b94c8,,1176427,98,,evan-feature22,full_rf_a,,0
73,27976,99,,,,2,2,1.0,1.0,1.0,0.0,,0.0-101.0,,1.0,402.9700001,1.0,0.314340707,1.0,0.667795927,1.0,0.613630805,1.0,0.25,True,,5e13bbae4acfb9a08f0b94c8,,1186591,99,,evan-feature22,full_rf_a,,0
74,27977,100,,,,2,2,1.0,0.0,1.0,0.0,,0.0-102.0,,1.0,230.05500010000003,1.0,0.28685784,1.0,0.6622549529999999,1.0,0.652154117,0.0,0.25,True,,5e13bbae4acfb9a08f0b94c8,,1196582,100,,evan-feature22,full_rf_a,,0
75,27978,101,,,,2,2,0.0,0.0,0.0,-1.0,,0.0-103.0,,0.0,776.65,0.0,0.304106554,0.0,0.631289538,0.0,0.707041942,0.0,0.29314237,True,,5e13bbae4acfb9a08f0b94c8,,1207117,101,,evan-feature22,full_rf_a,,0
76,27979,102,,,,2,2,1.0,0.0,0.0,-1.0,,0.0-104.0,,0.0,206.85,0.0,0.304806932,0.0,0.571167718,1.0,0.680472346,0.0,0.25,True,,5e13bbae4acfb9a08f0b94c8,,1217085,102,,evan-feature22,full_rf_a,,0
77,27980,103,,,,2,2,1.0,0.0,0.0,-1.0,,0.0-105.0,,0.0,191.545,0.0,0.37919861,1.0,0.5724849710000001,1.0,0.705638003,0.0,0.30179300600000003,True,,5e13bbae4acfb9a08f0b94c8,,1227036,103,,evan-feature22,full_rf_a,,0
78,27981,104,,,,2,2,1.0,0.0,0.0,-1.0,,0.0-106.0,,0.0,357.61000010000004,0.0,0.464277969,1.0,0.554034373,1.0,0.7372627340000001,0.0,0.264699741,True,,5e13bbae4acfb9a08f0b94c8,,1237154,104,,evan-feature22,full_rf_a,,0
79,27982,105,,,,2,2,1.0,1.0,1.0,0.0,,0.0-107.0,,1.0,229.535,0.0,0.465104323,0.0,0.530793115,1.0,0.75,1.0,0.31683071,True,,5e13bbae4acfb9a08f0b94c8,,1247147,105,,evan-feature22,full_rf_a,,0
80,27983,106,,,,2,2,0.0,1.0,0.0,-1.0,,0.0-108.0,,-1.0,1420.235,1.0,0.465104323,1.0,0.530793115,0.0,0.75,1.0,0.31683071,True,,5e13bbae4acfb9a08f0b94c8,,1258329,106,,evan-feature22,full_rf_a,,0
81,27984,107,,,,2,2,0.0,1.0,0.0,-1.0,,0.0-109.0,,-1.0,1364.69,0.0,0.46833986,1.0,0.570249239,0.0,0.7244472590000001,1.0,0.364114163,True,,5e13bbae4acfb9a08f0b94c8,,1269455,107,,evan-feature22,full_rf_a,,0
82,27985,108,,,,2,2,1.0,0.0,0.0,-1.0,,0.0-110.0,,0.0,237.77,1.0,0.445444024,0.0,0.649673355,1.0,0.6845441290000001,0.0,0.300660449,True,,5e13bbae4acfb9a08f0b94c8,,1279454,108,,evan-feature22,full_rf_a,,0
83,27986,109,,,,2,2,1.0,0.0,0.0,-1.0,,0.0-111.0,,0.0,1583.275,0.0,0.39909721299999995,1.0,0.6715179509999999,1.0,0.742310028,0.0,0.35496088299999995,True,,5e13bbae4acfb9a08f0b94c8,,1290799,109,,evan-feature22,full_rf_a,,0
84,27987,110,,,,2,2,1.0,0.0,0.0,-1.0,,0.0-112.0,,0.0,228.72,0.0,0.37956104799999996,1.0,0.694725302,1.0,0.7181651309999999,0.0,0.38726906299999997,True,,5e13bbae4acfb9a08f0b94c8,,1300789,110,,evan-feature22,full_rf_a,,0
85,27988,111,,,,2,2,0.0,1.0,0.0,-1.0,,0.0-113.0,,-1.0,229.545,1.0,0.404995034,1.0,0.724375412,0.0,0.6910946859999999,1.0,0.387187347,True,,5e13bbae4acfb9a08f0b94c8,,1310780,111,,evan-feature22,full_rf_a,,0
86,27989,112,,,,2,2,1.0,0.0,0.0,-1.0,,0.0-114.0,,0.0,853.2299998999999,0.0,0.461740803,1.0,0.75,1.0,0.75,0.0,0.34872038200000005,True,,5e13bbae4acfb9a08f0b94c8,,1321396,112,,evan-feature22,full_rf_a,,0
87,27990,113,,,,2,2,1.0,0.0,1.0,0.0,,0.0-115.0,,1.0,87.22500002,0.0,0.43821380600000004,1.0,0.738833273,1.0,0.728286963,0.0,0.399538128,True,,5e13bbae4acfb9a08f0b94c8,,1331246,113,,evan-feature22,full_rf_a,,0
88,27991,114,,,,2,2,1.0,1.0,0.0,-1.0,,0.0-116.0,,-1.0,1206.075,1.0,0.41709882,1.0,0.736666736,1.0,0.75,1.0,0.389095584,True,,5e13bbae4acfb9a08f0b94c8,,1342215,114,,evan-feature22,full_rf_a,,0
89,27992,115,,,,2,2,0.0,1.0,0.0,-1.0,,0.0-117.0,,-1.0,251.37000010000003,0.0,0.39749009799999996,1.0,0.744320029,0.0,0.75,1.0,0.363848678,True,,5e13bbae4acfb9a08f0b94c8,,1352228,115,,evan-feature22,full_rf_a,,0
90,27993,116,,,,2,2,1.0,0.0,1.0,0.0,,0.0-118.0,,1.0,233.19000010000002,0.0,0.392653706,1.0,0.75,1.0,0.75,0.0,0.384386976,True,,5e13bbae4acfb9a08f0b94c8,,1362227,116,,evan-feature22,full_rf_a,,0
91,27994,117,,,,2,2,1.0,1.0,1.0,0.0,,0.0-119.0,,1.0,258.73,0.0,0.31190902600000003,1.0,0.75,1.0,0.732413819,1.0,0.413082932,True,,5e13bbae4acfb9a08f0b94c8,,1372247,117,,evan-feature22,full_rf_a,,0
92,27995,118,,,,2,2,1.0,0.0,0.0,-1.0,,0.0-120.0,,0.0,401.33,0.0,0.366917648,1.0,0.740073855,1.0,0.75,0.0,0.352861979,True,,5e13bbae4acfb9a08f0b94c8,,1382409,118,,evan-feature22,full_rf_a,,0
93,27996,119,,,,2,2,0.0,1.0,0.0,-1.0,,0.0-121.0,,-1.0,960.9750001,0.0,0.3645172,1.0,0.721770713,0.0,0.75,1.0,0.404074511,True,,5e13bbae4acfb9a08f0b94c8,,1393131,119,,evan-feature22,full_rf_a,,0
94,27997,120,,,,2,2,1.0,0.0,0.0,-1.0,,0.0-122.0,,0.0,81.83000004,0.0,0.35205600299999995,1.0,0.68983859,1.0,0.739735447,0.0,0.366895945,True,,5e13bbae4acfb9a08f0b94c8,,1402974,120,,evan-feature22,full_rf_a,,0
95,27998,121,,,,2,2,1.0,0.0,0.0,-1.0,,0.0-123.0,,0.0,384.39,0.0,0.40998722600000004,1.0,0.720859127,1.0,0.673854955,0.0,0.368528541,True,,5e13bbae4acfb9a08f0b94c8,,1413120,121,,evan-feature22,full_rf_a,,0
96,27999,122,,,,2,2,0.0,0.0,1.0,0.0,,0.0-124.0,,0.0,216.665,0.0,0.353625316,1.0,0.75,0.0,0.695605473,0.0,0.38303674200000004,True,,5e13bbae4acfb9a08f0b94c8,,1423095,122,,evan-feature22,full_rf_a,,0
97,28000,123,,,,2,2,0.0,1.0,0.0,-1.0,,0.0-125.0,,-1.0,262.435,0.0,0.359216989,1.0,0.75,0.0,0.6987915090000001,1.0,0.35169046200000004,True,,5e13bbae4acfb9a08f0b94c8,,1433119,123,,evan-feature22,full_rf_a,,0
98,28001,124,,,,2,2,1.0,1.0,1.0,0.0,,0.0-126.0,,1.0,270.095,0.0,0.35834496899999996,0.0,0.75,1.0,0.707067742,1.0,0.416763636,True,,5e13bbae4acfb9a08f0b94c8,,1443155,124,,evan-feature22,full_rf_a,,0
99,28002,125,,,,2,2,1.0,0.0,1.0,0.0,,0.0-127.0,,1.0,493.5999999,1.0,0.38741613799999997,1.0,0.7177369570000001,1.0,0.734902455,0.0,0.49438664299999996,True,,5e13bbae4acfb9a08f0b94c8,,1453410,125,,evan-feature22,full_rf_a,,0
100,28003,126,,,,2,2,1.0,0.0,0.0,-1.0,,0.0-128.0,,0.0,581.0,1.0,0.405255252,0.0,0.7300466640000001,1.0,0.7027748070000001,0.0,0.504359668,True,,5e13bbae4acfb9a08f0b94c8,,1463756,126,,evan-feature22,full_rf_a,,0
101,28004,127,,,,2,2,0.0,1.0,0.0,-1.0,,0.0-129.0,,-1.0,497.845,0.0,0.40697073,1.0,0.7260142190000001,0.0,0.724461982,1.0,0.522779179,True,,5e13bbae4acfb9a08f0b94c8,,1474021,127,,evan-feature22,full_rf_a,,0
102,28005,128,,,,2,2,1.0,1.0,0.0,-1.0,,0.0-130.0,,-1.0,335.85500010000004,0.0,0.43906215299999996,1.0,0.7252802340000001,1.0,0.719079934,1.0,0.5712990579999999,True,,5e13bbae4acfb9a08f0b94c8,,1484119,128,,evan-feature22,full_rf_a,,0
103,28006,129,,,,2,2,1.0,0.0,0.0,-1.0,,0.0-131.0,,0.0,298.495,0.0,0.4076705,0.0,0.73280499,1.0,0.681313127,0.0,0.523891346,True,,5e13bbae4acfb9a08f0b94c8,,1494177,129,,evan-feature22,full_rf_a,,0
104,28007,130,,,,2,2,1.0,0.0,0.0,-1.0,,0.0-132.0,,0.0,241.265,1.0,0.399102911,1.0,0.730498344,1.0,0.661080239,0.0,0.46742603,True,,5e13bbae4acfb9a08f0b94c8,,1504179,130,,evan-feature22,full_rf_a,,0
105,28008,131,,,,2,2,1.0,0.0,1.0,0.0,,0.0-133.0,,1.0,403.3850001,1.0,0.356477282,1.0,0.712296395,1.0,0.641812684,0.0,0.44868414,True,,5e13bbae4acfb9a08f0b94c8,,1514345,131,,evan-feature22,full_rf_a,,0
106,28009,132,,,,2,2,1.0,1.0,0.0,-1.0,,0.0-134.0,,-1.0,46.13500007,0.0,0.462760722,1.0,0.692349322,1.0,0.700947931,1.0,0.394680266,True,,5e13bbae4acfb9a08f0b94c8,,1524151,132,,evan-feature22,full_rf_a,,0
107,28010,133,,,,2,2,1.0,0.0,0.0,-1.0,,0.0-135.0,,0.0,714.42,0.0,0.422306413,0.0,0.718375916,1.0,0.706340917,0.0,0.367787185,True,,5e13bbae4acfb9a08f0b94c8,,1534628,133,,evan-feature22,full_rf_a,,0
108,28012,135,,,,2,2,1.0,1.0,0.0,-1.0,,0.0-137.0,,-1.0,1090.34,1.0,0.4582233,1.0,0.643834117,1.0,0.75,1.0,0.39615823299999997,True,,5e13bbae4acfb9a08f0b94c8,,1547733,135,,evan-feature22,full_rf_a,,0
109,28013,136,,,,2,2,0.0,0.0,0.0,-1.0,,0.0-138.0,,0.0,1611.81,1.0,0.43813437899999996,1.0,0.651283804,0.0,0.729674191,0.0,0.37711048,True,,5e13bbae4acfb9a08f0b94c8,,1559108,136,,evan-feature22,full_rf_a,,0
110,28014,137,,,,2,2,1.0,0.0,0.0,-1.0,,0.0-139.0,,0.0,251.915,0.0,0.471199094,0.0,0.6470010979999999,1.0,0.715008097,0.0,0.410656191,True,,5e13bbae4acfb9a08f0b94c8,,1569122,137,,evan-feature22,full_rf_a,,0
111,28015,138,,,,2,2,1.0,0.0,1.0,0.0,,0.0-140.0,,1.0,611.2,0.0,0.42486406,1.0,0.629771829,1.0,0.6550939960000001,0.0,0.459093873,True,,5e13bbae4acfb9a08f0b94c8,,1579497,138,,evan-feature22,full_rf_a,,0
112,28016,139,,,,2,2,1.0,0.0,1.0,0.0,,0.0-141.0,,1.0,373.76,0.0,0.4803197,0.0,0.645842715,1.0,0.6421749920000001,0.0,0.443092151,True,,5e13bbae4acfb9a08f0b94c8,,1589635,139,,evan-feature22,full_rf_a,,0
113,28017,140,,,,2,2,1.0,0.0,1.0,0.0,,0.0-142.0,,1.0,209.65,0.0,0.521848997,0.0,0.735801074,1.0,0.6691348460000001,0.0,0.45259351600000003,True,,5e13bbae4acfb9a08f0b94c8,,1599609,140,,evan-feature22,full_rf_a,,0
114,28018,141,,,,2,2,0.0,0.0,0.0,-1.0,,0.0-143.0,,0.0,421.635,0.0,0.49565621299999996,1.0,0.742400847,0.0,0.661512553,0.0,0.483110831,True,,5e13bbae4acfb9a08f0b94c8,,1609791,141,,evan-feature22,full_rf_a,,0
115,28019,142,,,,2,2,1.0,0.0,1.0,0.0,,0.0-144.0,,1.0,211.18,1.0,0.521564361,1.0,0.731078632,1.0,0.6774886809999999,0.0,0.483263956,True,,5e13bbae4acfb9a08f0b94c8,,1619765,142,,evan-feature22,full_rf_a,,0
116,28020,143,,,,2,2,1.0,1.0,1.0,0.0,,0.0-145.0,,1.0,205.3800001,1.0,0.558893102,0.0,0.719810023,1.0,0.67461031,1.0,0.499349834,True,,5e13bbae4acfb9a08f0b94c8,,1629734,143,,evan-feature22,full_rf_a,,0
117,28021,144,,,,2,2,1.0,1.0,0.0,-1.0,,0.0-146.0,,-1.0,721.2199999,0.0,0.611031046,1.0,0.75,1.0,0.688072995,1.0,0.5321422729999999,True,,5e13bbae4acfb9a08f0b94c8,,1640221,144,,evan-feature22,full_rf_a,,0
118,28022,145,,,,SLOW,SLOW,,,1.0,0.0,,0.0-147.0,,-3.0,,0.0,0.633223941,1.0,0.713567728,1.0,0.75,1.0,0.48185314700000004,True,,5e13bbae4acfb9a08f0b94c8,,1646029,145,,evan-feature22,full_rf_a,,1
119,28023,146,,,,2,2,0.0,1.0,1.0,0.0,,0.0-148.0,,0.0,350.02,0.0,0.664001694,0.0,0.705509768,0.0,0.75,1.0,0.500211065,True,,5e13bbae4acfb9a08f0b94c8,,1656143,146,,evan-feature22,full_rf_a,,1
120,28024,147,,,,2,2,1.0,1.0,0.0,-1.0,,0.0-149.0,,-1.0,359.25,1.0,0.664001694,1.0,0.705509768,1.0,0.75,1.0,0.500211065,True,,5e13bbae4acfb9a08f0b94c8,,1666264,147,,evan-feature22,full_rf_a,,0
121,28025,148,,,,2,2,1.0,1.0,0.0,-1.0,,0.0-150.0,,-1.0,227.65,1.0,0.696508041,0.0,0.71066027,1.0,0.717028709,1.0,0.49792991,True,,5e13bbae4acfb9a08f0b94c8,,1676260,148,,evan-feature22,full_rf_a,,0
122,28026,149,,,,2,2,1.0,1.0,1.0,0.0,,0.0-151.0,,1.0,1056.73,1.0,0.699883272,1.0,0.75,1.0,0.713543895,1.0,0.496962643,True,,5e13bbae4acfb9a08f0b94c8,,1687081,149,,evan-feature22,full_rf_a,,0
123,28027,150,,,,2,2,1.0,0.0,0.0,-1.0,,0.0-152.0,,0.0,258.7250001,1.0,0.741163419,1.0,0.75,1.0,0.64691024,0.0,0.513858197,True,,5e13bbae4acfb9a08f0b94c8,,1697106,150,,evan-feature22,full_rf_a,,0
124,28028,151,,,,2,2,1.0,1.0,1.0,0.0,,0.0-153.0,,1.0,310.335,1.0,0.75,1.0,0.70816558,1.0,0.594499079,1.0,0.48502124,True,,5e13bbae4acfb9a08f0b94c8,,1707180,151,,evan-feature22,full_rf_a,,0
125,28029,152,,,,2,2,1.0,1.0,0.0,-1.0,,0.0-154.0,,-1.0,1211.25,1.0,0.75,1.0,0.721848901,1.0,0.62197249,1.0,0.48263586399999997,True,,5e13bbae4acfb9a08f0b94c8,,1718155,152,,evan-feature22,full_rf_a,,0
126,28030,153,,,,2,2,1.0,0.0,1.0,0.0,,0.0-155.0,,1.0,364.99,1.0,0.75,0.0,0.74813071,1.0,0.584357161,0.0,0.411477782,True,,5e13bbae4acfb9a08f0b94c8,,1728283,153,,evan-feature22,full_rf_a,,0
127,28031,154,,,,2,2,1.0,1.0,0.0,-1.0,,0.0-156.0,,-1.0,732.9899998999999,1.0,0.75,1.0,0.75,1.0,0.52287236,1.0,0.488290656,True,,5e13bbae4acfb9a08f0b94c8,,1738781,154,,evan-feature22,full_rf_a,,0
128,28032,155,,,,2,2,1.0,0.0,0.0,-1.0,,0.0-157.0,,0.0,3493.175,1.0,0.75,1.0,0.75,1.0,0.544321581,0.0,0.53143059,True,,5e13bbae4acfb9a08f0b94c8,,1752037,155,,evan-feature22,full_rf_a,,0
129,28033,156,,,,2,2,1.0,1.0,0.0,-1.0,,0.0-158.0,,-1.0,232.85,1.0,0.726754564,1.0,0.75,1.0,0.5129306370000001,1.0,0.530592445,True,,5e13bbae4acfb9a08f0b94c8,,1762038,156,,evan-feature22,full_rf_a,,0
130,28034,157,,,,2,2,0.0,0.0,1.0,0.0,,0.0-159.0,,0.0,238.645,1.0,0.75,1.0,0.7392590729999999,0.0,0.479875835,0.0,0.547007051,True,,5e13bbae4acfb9a08f0b94c8,,1772039,157,,evan-feature22,full_rf_a,,0
131,28035,158,,,,2,2,1.0,1.0,1.0,0.0,,0.0-160.0,,1.0,341.625,0.0,0.75,0.0,0.7393376979999999,1.0,0.546045419,1.0,0.541267353,True,,5e13bbae4acfb9a08f0b94c8,,1782150,158,,evan-feature22,full_rf_a,,0
132,28036,159,,,,2,2,0.0,0.0,1.0,0.0,,0.0-161.0,,0.0,220.9549999,1.0,0.75,1.0,0.75,0.0,0.485725895,0.0,0.527625395,True,,5e13bbae4acfb9a08f0b94c8,,1792133,159,,evan-feature22,full_rf_a,,0
133,28037,160,,,,2,2,0.0,0.0,0.0,-1.0,,0.0-162.0,,0.0,334.775,1.0,0.75,1.0,0.725087974,0.0,0.488603595,0.0,0.504019206,True,,5e13bbae4acfb9a08f0b94c8,,1802232,160,,evan-feature22,full_rf_a,,0
134,28038,161,,,,2,2,0.0,0.0,0.0,-1.0,,0.0-163.0,,0.0,1517.125,1.0,0.745504295,1.0,0.75,0.0,0.452379914,0.0,0.50131194,True,,5e13bbae4acfb9a08f0b94c8,,1813513,161,,evan-feature22,full_rf_a,,0
135,28039,162,,,,2,2,0.0,1.0,0.0,-1.0,,0.0-164.0,,-1.0,443.795,1.0,0.728513874,0.0,0.75,0.0,0.44125567200000004,1.0,0.531454591,True,,5e13bbae4acfb9a08f0b94c8,,1823718,162,,evan-feature22,full_rf_a,,0
136,28040,163,,,,2,2,0.0,0.0,1.0,0.0,,0.0-165.0,,0.0,592.82,1.0,0.73790804,1.0,0.75,0.0,0.413036656,0.0,0.524619035,True,,5e13bbae4acfb9a08f0b94c8,,1834075,163,,evan-feature22,full_rf_a,,0
137,28041,164,,,,2,2,0.0,0.0,0.0,-1.0,,0.0-166.0,,0.0,246.19,0.0,0.7080961309999999,0.0,0.708666865,0.0,0.431915581,0.0,0.481819489,True,,5e13bbae4acfb9a08f0b94c8,,1844084,164,,evan-feature22,full_rf_a,,0
138,28042,165,,,,2,2,0.0,0.0,0.0,-1.0,,0.0-167.0,,0.0,243.975,0.0,0.721378003,1.0,0.71605913,0.0,0.36642387,0.0,0.5036739929999999,True,,5e13bbae4acfb9a08f0b94c8,,1854100,165,,evan-feature22,full_rf_a,,0
139,28043,166,,,,2,2,0.0,0.0,0.0,-1.0,,0.0-168.0,,0.0,651.175,0.0,0.7340618959999999,1.0,0.699323252,0.0,0.35298046299999997,0.0,0.511241692,True,,5e13bbae4acfb9a08f0b94c8,,1864515,166,,evan-feature22,full_rf_a,,0
140,28044,167,,,,2,2,1.0,1.0,1.0,0.0,,0.0-169.0,,1.0,232.48,1.0,0.75,0.0,0.70412698,1.0,0.380734814,1.0,0.529580116,True,,5e13bbae4acfb9a08f0b94c8,,1874512,167,,evan-feature22,full_rf_a,,0
141,28045,168,,,,2,2,0.0,1.0,0.0,-1.0,,0.0-170.0,,-1.0,293.13,0.0,0.7436654909999999,1.0,0.711182751,0.0,0.41125331,1.0,0.49554405,True,,5e13bbae4acfb9a08f0b94c8,,1884569,168,,evan-feature22,full_rf_a,,0
142,28046,169,,,,2,2,1.0,0.0,0.0,-1.0,,0.0-171.0,,0.0,1695.975,0.0,0.731607915,1.0,0.651774583,1.0,0.35688023,0.0,0.45194491600000003,True,,5e13bbae4acfb9a08f0b94c8,,1896029,169,,evan-feature22,full_rf_a,,0
143,28047,170,,,,2,2,0.0,1.0,1.0,0.0,,0.0-172.0,,0.0,970.6949999,1.0,0.75,0.0,0.75,0.0,0.283145374,1.0,0.528608005,True,,5e13bbae4acfb9a08f0b94c8,,1906764,170,,evan-feature22,full_rf_a,,0
144,28048,171,,,,2,2,0.0,0.0,1.0,0.0,,0.0-173.0,,0.0,896.8,1.0,0.7491416890000001,1.0,0.7423785959999999,0.0,0.29135870399999997,0.0,0.498888318,True,,5e13bbae4acfb9a08f0b94c8,,1917426,171,,evan-feature22,full_rf_a,,0
145,28049,172,,,,2,2,1.0,0.0,1.0,0.0,,0.0-174.0,,1.0,524.5350001,1.0,0.708569387,0.0,0.717682277,1.0,0.294421699,0.0,0.493838163,True,,5e13bbae4acfb9a08f0b94c8,,1927712,172,,evan-feature22,full_rf_a,,0
146,28050,173,,,,2,2,0.0,0.0,0.0,-1.0,,0.0-175.0,,0.0,253.605,1.0,0.75,1.0,0.7383382159999999,0.0,0.356098707,0.0,0.442533405,True,,5e13bbae4acfb9a08f0b94c8,,1937729,173,,evan-feature22,full_rf_a,,0
147,28051,174,,,,2,2,0.0,0.0,0.0,-1.0,,0.0-176.0,,0.0,980.16,1.0,0.744527075,1.0,0.75,0.0,0.334127506,0.0,0.393165805,True,,5e13bbae4acfb9a08f0b94c8,,1948472,174,,evan-feature22,full_rf_a,,0
148,28052,175,,,,2,2,1.0,0.0,0.0,-1.0,,0.0-177.0,,0.0,283.415,0.0,0.75,0.0,0.75,1.0,0.33571021799999995,0.0,0.350393962,True,,5e13bbae4acfb9a08f0b94c8,,1958520,175,,evan-feature22,full_rf_a,,0
149,28053,176,,,,2,2,1.0,0.0,0.0,-1.0,,0.0-178.0,,0.0,244.24,0.0,0.75,1.0,0.75,1.0,0.313628297,0.0,0.36349657399999996,True,,5e13bbae4acfb9a08f0b94c8,,1968528,176,,evan-feature22,full_rf_a,,0
150,28054,177,,,,2,2,0.0,0.0,1.0,0.0,,0.0-179.0,,0.0,366.455,0.0,0.75,0.0,0.734284182,0.0,0.262667667,0.0,0.380199119,True,,5e13bbae4acfb9a08f0b94c8,,1978660,177,,evan-feature22,full_rf_a,,0
151,28055,178,,,,2,2,1.0,0.0,0.0,-1.0,,0.0-180.0,,0.0,226.93,1.0,0.75,1.0,0.75,1.0,0.25,0.0,0.394494013,True,,5e13bbae4acfb9a08f0b94c8,,1988655,178,,evan-feature22,full_rf_a,,0
152,28056,179,,,,2,2,1.0,0.0,1.0,0.0,,0.0-181.0,,1.0,749.1250001,1.0,0.722298145,0.0,0.7357822340000001,1.0,0.25,0.0,0.319142121,True,,5e13bbae4acfb9a08f0b94c8,,1999165,179,,evan-feature22,full_rf_a,,0
153,28057,180,,,,2,2,0.0,0.0,1.0,0.0,,0.0-182.0,,0.0,128.6500001,1.0,0.73149275,1.0,0.724276446,0.0,0.305856907,0.0,0.281315057,True,,5e13bbae4acfb9a08f0b94c8,,2009056,180,,evan-feature22,full_rf_a,,0
154,28058,181,,,,2,2,1.0,0.0,0.0,-1.0,,0.0-183.0,,0.0,159.86,1.0,0.7458732690000001,1.0,0.7336382459999999,1.0,0.272571964,0.0,0.266021999,True,,5e13bbae4acfb9a08f0b94c8,,2018979,181,,evan-feature22,full_rf_a,,0
155,28059,182,,,,2,2,0.0,1.0,0.0,-1.0,,0.0-184.0,,-1.0,364.01,1.0,0.705579037,1.0,0.720778292,0.0,0.320238144,1.0,0.30971744,True,,5e13bbae4acfb9a08f0b94c8,,2029109,182,,evan-feature22,full_rf_a,,0
156,28060,183,,,,2,2,0.0,1.0,0.0,-1.0,,0.0-185.0,,-1.0,1382.11,1.0,0.700425648,1.0,0.7198784009999999,0.0,0.272590393,1.0,0.304182931,True,,5e13bbae4acfb9a08f0b94c8,,2040253,183,,evan-feature22,full_rf_a,,0
157,28061,184,,,,2,2,0.0,0.0,0.0,-1.0,,0.0-186.0,,0.0,527.12,1.0,0.735590785,1.0,0.722714973,0.0,0.25,0.0,0.323421091,True,,5e13bbae4acfb9a08f0b94c8,,2050545,184,,evan-feature22,full_rf_a,,0
158,28062,185,,,,2,2,0.0,0.0,0.0,-1.0,,0.0-187.0,,0.0,208.5449999,1.0,0.724807662,0.0,0.63146213,0.0,0.36836492600000004,0.0,0.34592153299999995,True,,5e13bbae4acfb9a08f0b94c8,,2060519,185,,evan-feature22,full_rf_a,,0
159,28063,186,,,,2,2,0.0,0.0,0.0,-1.0,,0.0-188.0,,0.0,565.36,1.0,0.7352796909999999,1.0,0.555111392,0.0,0.36003922,0.0,0.31433779999999995,True,,5e13bbae4acfb9a08f0b94c8,,2070849,186,,evan-feature22,full_rf_a,,0
160,28064,187,notice,,,,,,,,,,0.0-189.0,"{""Q0"":""no""}",,5523.0,,,,,,,,,True,,5e13bbae4acfb9a08f0b94c8,,2076375,187,Q,survey-text,full_rf_a,,1
161,28065,188,track1,,[1],,,,,,,,0.0-190.0,"{""Q0"":""no""}",,4261.0,,,,,,,,,True,,5e13bbae4acfb9a08f0b94c8,,2080646,188,Q,evan-quiz,full_rf_a,,1
162,28066,189,track2,,[0],,,,,,,,0.0-191.0,"{""Q0"":""yes""}",,3587.0,,,,,,,,,True,,5e13bbae4acfb9a08f0b94c8,,2084240,189,Q,evan-quiz,full_rf_a,,1
163,28067,190,strat,,,,,,,,,,0.0-192.0,"{""Q0"":""i switched early on then stayed with j as it seemed to be better""}",,17184.0,,,,,,,,,True,,5e13bbae4acfb9a08f0b94c8,,2101440,190,Q,survey-text,full_rf_a,,1
