,index,Unnamed: 0,Q_name,button_pressed,choice_idxs,chosen_pos,chosen_state,chosen_state_f_1_outcome,chosen_state_f_2_outcome,f_1_reward,f_2_reward,incor_questions,internal_node_id,responses,reward_received,rt,s_1_f_1_outcome,s_1_f_1_prob,s_1_f_2_outcome,s_1_f_2_prob,s_2_f_1_outcome,s_2_f_1_prob,s_2_f_2_outcome,s_2_f_2_prob,safe_first,stimulus,subjectID,success,time_elapsed,trial_index,trial_num,trial_type,version,view_history,switching
0,7436,25,,,,2,2,1.0,0.0,1.0,0.0,,0.0-27.0,,1.0,1675.525,1.0,0.6,1.0,0.6,1.0,0.4,0.0,0.4,True,,5968c58012e7f700013b4acc,,576668,25,,evan-feature22,full_rf_a,,0
1,7437,26,,,,1,1,1.0,1.0,1.0,0.0,,0.0-28.0,,1.0,1137.615,1.0,0.608053294,1.0,0.63424552,0.0,0.397152172,0.0,0.347069101,True,,5968c58012e7f700013b4acc,,587593,26,,evan-feature22,full_rf_a,,1
2,7438,27,,,,1,1,1.0,0.0,1.0,0.0,,0.0-29.0,,1.0,1154.075,1.0,0.642237155,0.0,0.648566321,1.0,0.389407674,1.0,0.285525717,True,,5968c58012e7f700013b4acc,,598524,27,,evan-feature22,full_rf_a,,0
3,7439,28,,,,SLOW,SLOW,,,1.0,0.0,,0.0-30.0,,-3.0,,1.0,0.661086576,0.0,0.630492543,0.0,0.399058924,0.0,0.25,True,,5968c58012e7f700013b4acc,,604338,28,,evan-feature22,full_rf_a,,1
4,7440,29,,,,2,2,0.0,1.0,0.0,-1.0,,0.0-31.0,,-1.0,633.0200001000001,1.0,0.631324137,1.0,0.6269842929999999,0.0,0.38734784299999997,1.0,0.25,True,,5968c58012e7f700013b4acc,,614765,29,,evan-feature22,full_rf_a,,1
5,7441,30,,,,2,2,1.0,1.0,0.0,-1.0,,0.0-32.0,,-1.0,831.12,0.0,0.6381991370000001,1.0,0.68987999,1.0,0.384107265,1.0,0.271332943,True,,5968c58012e7f700013b4acc,,625376,30,,evan-feature22,full_rf_a,,0
6,7442,31,,,,1,1,0.0,1.0,1.0,0.0,,0.0-33.0,,0.0,972.4650001,0.0,0.66034901,1.0,0.742641349,0.0,0.360225629,0.0,0.25,True,,5968c58012e7f700013b4acc,,636136,31,,evan-feature22,full_rf_a,,1
7,7443,32,,,,2,2,0.0,1.0,1.0,0.0,,0.0-34.0,,0.0,1235.765,0.0,0.638612418,1.0,0.75,0.0,0.367273939,1.0,0.25,True,,5968c58012e7f700013b4acc,,647160,32,,evan-feature22,full_rf_a,,1
8,7444,33,,,,1,1,0.0,1.0,0.0,-1.0,,0.0-35.0,,-1.0,792.6699999,0.0,0.624340629,1.0,0.75,0.0,0.425829545,0.0,0.25,True,,5968c58012e7f700013b4acc,,657741,33,,evan-feature22,full_rf_a,,1
9,7445,34,,,,2,2,0.0,1.0,0.0,-1.0,,0.0-36.0,,-1.0,557.0500002,1.0,0.621999804,1.0,0.75,0.0,0.368609357,1.0,0.25,True,,5968c58012e7f700013b4acc,,668083,34,,evan-feature22,full_rf_a,,1
10,7446,35,,,,1,1,0.0,1.0,1.0,0.0,,0.0-37.0,,0.0,541.285,0.0,0.62666403,1.0,0.75,0.0,0.311151498,0.0,0.25,True,,5968c58012e7f700013b4acc,,678404,35,,evan-feature22,full_rf_a,,1
11,7447,36,,,,2,2,1.0,0.0,0.0,-1.0,,0.0-38.0,,0.0,380.69,1.0,0.6819650009999999,1.0,0.75,1.0,0.310763048,0.0,0.25,True,,5968c58012e7f700013b4acc,,688582,36,,evan-feature22,full_rf_a,,1
12,7448,37,,,,1,1,1.0,1.0,1.0,0.0,,0.0-39.0,,1.0,682.695,1.0,0.740626951,1.0,0.75,1.0,0.25,1.0,0.25,True,,5968c58012e7f700013b4acc,,699046,37,,evan-feature22,full_rf_a,,1
13,7449,38,,,,1,1,1.0,1.0,1.0,0.0,,0.0-40.0,,1.0,488.165,1.0,0.739599242,1.0,0.742034978,0.0,0.25397114600000004,0.0,0.25,True,,5968c58012e7f700013b4acc,,709332,38,,evan-feature22,full_rf_a,,0
14,7450,39,,,,2,2,1.0,1.0,1.0,0.0,,0.0-41.0,,1.0,598.945,1.0,0.732341315,0.0,0.72735643,1.0,0.25,1.0,0.25,True,,5968c58012e7f700013b4acc,,719729,39,,evan-feature22,full_rf_a,,1
15,7451,40,,,,1,1,0.0,1.0,1.0,0.0,,0.0-42.0,,0.0,453.6050002,0.0,0.7062287770000001,1.0,0.75,1.0,0.29002151,1.0,0.288256649,True,,5968c58012e7f700013b4acc,,729961,40,,evan-feature22,full_rf_a,,1
16,7452,41,,,,2,2,0.0,0.0,1.0,0.0,,0.0-43.0,,0.0,665.5950001,1.0,0.7086029209999999,1.0,0.75,0.0,0.274129113,0.0,0.262851608,True,,5968c58012e7f700013b4acc,,740408,41,,evan-feature22,full_rf_a,,1
17,7453,42,,,,2,2,1.0,0.0,1.0,0.0,,0.0-44.0,,1.0,756.4400001,1.0,0.669189651,1.0,0.727614338,1.0,0.298444036,0.0,0.296944518,True,,5968c58012e7f700013b4acc,,750950,42,,evan-feature22,full_rf_a,,0
18,7454,43,,,,1,1,0.0,1.0,1.0,0.0,,0.0-45.0,,0.0,1548.1,0.0,0.6819912929999999,1.0,0.7179434290000001,0.0,0.265003961,0.0,0.28157921199999997,True,,5968c58012e7f700013b4acc,,762280,43,,evan-feature22,full_rf_a,,1
19,7455,44,,,,2,2,1.0,1.0,0.0,-1.0,,0.0-46.0,,-1.0,409.825,1.0,0.665275002,0.0,0.723065271,1.0,0.260414971,1.0,0.30973870000000003,True,,5968c58012e7f700013b4acc,,772480,44,,evan-feature22,full_rf_a,,1
20,7456,45,,,,1,1,1.0,1.0,1.0,0.0,,0.0-47.0,,1.0,389.71,1.0,0.6660593260000001,1.0,0.728032907,0.0,0.30922817,0.0,0.338778608,True,,5968c58012e7f700013b4acc,,782673,45,,evan-feature22,full_rf_a,,1
21,7457,46,,,,2,2,1.0,0.0,1.0,0.0,,0.0-48.0,,1.0,903.745,0.0,0.702068785,1.0,0.6528750879999999,1.0,0.287329608,0.0,0.35789613200000003,True,,5968c58012e7f700013b4acc,,793362,46,,evan-feature22,full_rf_a,,1
22,7458,47,,,,1,1,0.0,0.0,1.0,0.0,,0.0-49.0,,0.0,1010.8,0.0,0.651939787,0.0,0.636725589,0.0,0.284834488,0.0,0.358563756,True,,5968c58012e7f700013b4acc,,804159,47,,evan-feature22,full_rf_a,,1
23,7459,48,,,,2,2,0.0,1.0,0.0,-1.0,,0.0-50.0,,-1.0,1443.545,1.0,0.67573929,1.0,0.612550049,0.0,0.37130387600000003,1.0,0.383542402,True,,5968c58012e7f700013b4acc,,815384,48,,evan-feature22,full_rf_a,,1
24,7460,49,,,,SLOW,SLOW,,,0.0,-1.0,,0.0-51.0,,-3.0,,0.0,0.620753801,1.0,0.60513644,1.0,0.385529434,0.0,0.340361743,True,,5968c58012e7f700013b4acc,,821194,49,,evan-feature22,full_rf_a,,1
25,7461,50,,,,SLOW,SLOW,,,0.0,-1.0,,0.0-52.0,,-3.0,,1.0,0.673564893,1.0,0.672437924,0.0,0.292955382,1.0,0.337633795,True,,5968c58012e7f700013b4acc,,827008,50,,evan-feature22,full_rf_a,,0
26,7462,51,,,,2,2,0.0,0.0,1.0,0.0,,0.0-53.0,,0.0,1369.44,1.0,0.6749427,1.0,0.724197502,0.0,0.32391132100000003,0.0,0.350995264,True,,5968c58012e7f700013b4acc,,838172,51,,evan-feature22,full_rf_a,,1
27,7463,52,,,,1,1,0.0,0.0,1.0,0.0,,0.0-54.0,,0.0,742.2100001,0.0,0.6940159379999999,0.0,0.75,0.0,0.31710554399999996,0.0,0.413450341,True,,5968c58012e7f700013b4acc,,848713,52,,evan-feature22,full_rf_a,,1
28,7464,53,,,,2,2,1.0,1.0,1.0,0.0,,0.0-55.0,,1.0,646.2000001,1.0,0.6916018270000001,1.0,0.69001187,1.0,0.261817804,1.0,0.40038635,True,,5968c58012e7f700013b4acc,,859165,53,,evan-feature22,full_rf_a,,1
29,7465,54,,,,2,2,1.0,0.0,1.0,0.0,,0.0-56.0,,1.0,929.1949999,0.0,0.641061544,1.0,0.71337992,1.0,0.277296461,0.0,0.47372791700000005,True,,5968c58012e7f700013b4acc,,869882,54,,evan-feature22,full_rf_a,,0
30,7466,55,,,,1,1,1.0,1.0,1.0,0.0,,0.0-57.0,,1.0,533.175,1.0,0.6082438520000001,1.0,0.708471106,0.0,0.28745137,0.0,0.564174476,True,,5968c58012e7f700013b4acc,,880206,55,,evan-feature22,full_rf_a,,1
31,7467,56,,,,2,2,0.0,0.0,1.0,0.0,,0.0-58.0,,0.0,422.49,1.0,0.6051112120000001,1.0,0.7118147229999999,0.0,0.272390611,0.0,0.5595149939999999,True,,5968c58012e7f700013b4acc,,890408,56,,evan-feature22,full_rf_a,,1
32,7468,57,,,,1,1,1.0,1.0,1.0,0.0,,0.0-59.0,,1.0,1499.765,1.0,0.582420852,1.0,0.635867583,0.0,0.31089574,1.0,0.5227206520000001,True,,5968c58012e7f700013b4acc,,901694,57,,evan-feature22,full_rf_a,,1
33,7469,58,,,,2,2,0.0,1.0,0.0,-1.0,,0.0-60.0,,-1.0,708.8349999,1.0,0.623195575,1.0,0.655026044,0.0,0.25,1.0,0.560387538,True,,5968c58012e7f700013b4acc,,912184,58,,evan-feature22,full_rf_a,,1
34,7470,59,,,,1,1,1.0,0.0,1.0,0.0,,0.0-61.0,,1.0,1374.35,1.0,0.601889598,0.0,0.678198724,0.0,0.25,1.0,0.559922936,True,,5968c58012e7f700013b4acc,,923345,59,,evan-feature22,full_rf_a,,1
35,7471,60,,,,2,2,0.0,0.0,1.0,0.0,,0.0-62.0,,0.0,583.9600002000001,0.0,0.601259914,1.0,0.704681482,0.0,0.33908969299999997,0.0,0.505003715,True,,5968c58012e7f700013b4acc,,933720,60,,evan-feature22,full_rf_a,,1
36,7472,61,,,,1,1,0.0,1.0,1.0,0.0,,0.0-63.0,,0.0,513.1050001,0.0,0.59645454,1.0,0.710437172,1.0,0.327441879,0.0,0.391749613,True,,5968c58012e7f700013b4acc,,944019,61,,evan-feature22,full_rf_a,,1
37,7473,62,,,,2,2,0.0,0.0,1.0,0.0,,0.0-64.0,,0.0,1274.005,0.0,0.529473,1.0,0.636758527,0.0,0.301338063,0.0,0.365661481,True,,5968c58012e7f700013b4acc,,955063,62,,evan-feature22,full_rf_a,,1
38,7474,63,,,,2,2,0.0,0.0,0.0,-1.0,,0.0-65.0,,0.0,823.935,1.0,0.541657162,1.0,0.634541962,0.0,0.343535366,0.0,0.371763742,True,,5968c58012e7f700013b4acc,,965681,63,,evan-feature22,full_rf_a,,0
39,7475,64,,,,1,1,1.0,0.0,1.0,0.0,,0.0-66.0,,1.0,1939.905,1.0,0.5707533260000001,0.0,0.589121171,0.0,0.326428396,0.0,0.43961622899999997,True,,5968c58012e7f700013b4acc,,977416,64,,evan-feature22,full_rf_a,,1
40,7476,65,,,,1,1,0.0,1.0,1.0,0.0,,0.0-67.0,,0.0,1070.9,0.0,0.5707533260000001,1.0,0.589121171,0.0,0.326428396,0.0,0.43961622899999997,True,,5968c58012e7f700013b4acc,,988281,65,,evan-feature22,full_rf_a,,0
41,7477,66,,,,2,2,0.0,1.0,1.0,0.0,,0.0-68.0,,0.0,425.7700001,0.0,0.506271295,1.0,0.641775594,0.0,0.37149690700000004,1.0,0.404330166,True,,5968c58012e7f700013b4acc,,998504,66,,evan-feature22,full_rf_a,,1
42,7478,67,,,,1,1,1.0,0.0,0.0,-1.0,,0.0-69.0,,0.0,1799.57,1.0,0.455642565,0.0,0.623605825,0.0,0.358753011,0.0,0.346174041,True,,5968c58012e7f700013b4acc,,1010100,67,,evan-feature22,full_rf_a,,1
43,7479,68,,,,2,2,0.0,1.0,0.0,-1.0,,0.0-70.0,,-1.0,218.17,1.0,0.483677308,1.0,0.5904681070000001,0.0,0.402218411,1.0,0.35344697,True,,5968c58012e7f700013b4acc,,1020129,68,,evan-feature22,full_rf_a,,1
44,7480,69,,,,2,2,0.0,0.0,0.0,-1.0,,0.0-71.0,,0.0,620.7849997999999,1.0,0.394210977,0.0,0.558925494,0.0,0.540052017,0.0,0.35182128700000004,True,,5968c58012e7f700013b4acc,,1030537,69,,evan-feature22,full_rf_a,,0
45,7481,70,,,,1,1,0.0,1.0,1.0,0.0,,0.0-72.0,,0.0,410.11500010000003,0.0,0.382300414,1.0,0.577670603,0.0,0.607608448,0.0,0.378261578,True,,5968c58012e7f700013b4acc,,1040749,70,,evan-feature22,full_rf_a,,1
46,7482,71,,,,2,2,1.0,0.0,1.0,0.0,,0.0-73.0,,1.0,493.2349999,1.0,0.357596762,1.0,0.5929076529999999,1.0,0.6579790010000001,0.0,0.401326777,True,,5968c58012e7f700013b4acc,,1051034,71,,evan-feature22,full_rf_a,,1
47,7483,72,,,,2,2,0.0,0.0,1.0,0.0,,0.0-74.0,,0.0,781.9600001,0.0,0.362033495,1.0,0.582308608,0.0,0.649195052,0.0,0.355158505,True,,5968c58012e7f700013b4acc,,1061595,72,,evan-feature22,full_rf_a,,0
48,7484,73,,,,2,2,1.0,0.0,1.0,0.0,,0.0-75.0,,1.0,479.5849998,1.0,0.369620635,1.0,0.669100864,1.0,0.706059111,0.0,0.362516241,True,,5968c58012e7f700013b4acc,,1071858,73,,evan-feature22,full_rf_a,,0
49,7485,74,,,,2,2,1.0,0.0,1.0,0.0,,0.0-76.0,,1.0,1144.95,1.0,0.41477751399999996,1.0,0.7284416779999999,1.0,0.7182656940000001,0.0,0.36228040899999997,True,,5968c58012e7f700013b4acc,,1082788,74,,evan-feature22,full_rf_a,,0
50,7486,75,,,,1,1,0.0,1.0,0.0,-1.0,,0.0-77.0,,-1.0,729.0450002,0.0,0.37675460299999997,1.0,0.703250285,1.0,0.75,0.0,0.461979164,True,,5968c58012e7f700013b4acc,,1093305,75,,evan-feature22,full_rf_a,,1
51,7487,76,,,,2,2,1.0,0.0,0.0,-1.0,,0.0-78.0,,0.0,2408.995,0.0,0.398716075,0.0,0.6723864890000001,1.0,0.674153818,0.0,0.519029516,True,,5968c58012e7f700013b4acc,,1105499,76,,evan-feature22,full_rf_a,,1
52,7488,77,,,,2,2,1.0,1.0,1.0,0.0,,0.0-79.0,,1.0,931.5750001,1.0,0.34677856700000004,1.0,0.69057175,1.0,0.6822438540000001,1.0,0.477292237,True,,5968c58012e7f700013b4acc,,1116218,77,,evan-feature22,full_rf_a,,0
53,7489,78,,,,1,1,0.0,1.0,0.0,-1.0,,0.0-80.0,,-1.0,388.1400002,0.0,0.28580469199999997,1.0,0.68408818,1.0,0.684207565,1.0,0.49780448299999996,True,,5968c58012e7f700013b4acc,,1126388,78,,evan-feature22,full_rf_a,,1
54,7491,80,,,,2,2,0.0,1.0,1.0,0.0,,0.0-82.0,,0.0,1498.09,1.0,0.25,1.0,0.7405808970000001,0.0,0.679614108,1.0,0.436436964,True,,5968c58012e7f700013b4acc,,1461248,80,,evan-feature22,full_rf_a,,1
55,7492,81,,,,1,1,1.0,1.0,0.0,-1.0,,0.0-83.0,,-1.0,1001.825,1.0,0.29890393,1.0,0.730505706,1.0,0.7328203320000001,0.0,0.439256938,True,,5968c58012e7f700013b4acc,,1472042,81,,evan-feature22,full_rf_a,,1
56,7493,82,,,,2,2,1.0,1.0,1.0,0.0,,0.0-84.0,,1.0,610.965,1.0,0.326762398,1.0,0.7148059609999999,1.0,0.75,1.0,0.44389608799999997,True,,5968c58012e7f700013b4acc,,1482440,82,,evan-feature22,full_rf_a,,1
57,7494,83,,,,1,1,0.0,1.0,1.0,0.0,,0.0-85.0,,0.0,1697.03,0.0,0.295168515,1.0,0.739760854,1.0,0.719947008,1.0,0.35277284600000003,True,,5968c58012e7f700013b4acc,,1493929,83,,evan-feature22,full_rf_a,,1
58,7495,84,,,,2,2,1.0,0.0,1.0,0.0,,0.0-86.0,,1.0,778.405,1.0,0.25,1.0,0.70781482,1.0,0.75,0.0,0.286095925,True,,5968c58012e7f700013b4acc,,1504492,84,,evan-feature22,full_rf_a,,1
59,7496,85,,,,2,2,1.0,0.0,0.0,-1.0,,0.0-87.0,,0.0,1321.255,1.0,0.25638190899999996,1.0,0.704088163,1.0,0.75,0.0,0.26872601399999996,True,,5968c58012e7f700013b4acc,,1515603,85,,evan-feature22,full_rf_a,,0
60,7497,86,,,,2,2,1.0,0.0,0.0,-1.0,,0.0-88.0,,0.0,827.0950001,0.0,0.271581126,1.0,0.669760107,1.0,0.733896663,0.0,0.273244572,True,,5968c58012e7f700013b4acc,,1526218,86,,evan-feature22,full_rf_a,,0
61,7498,87,,,,SLOW,SLOW,,,0.0,-1.0,,0.0-89.0,,-3.0,,0.0,0.257144401,0.0,0.600575706,1.0,0.74488122,1.0,0.25,True,,5968c58012e7f700013b4acc,,1532027,87,,evan-feature22,full_rf_a,,1
62,7499,88,,,,1,1,0.0,0.0,1.0,0.0,,0.0-90.0,,0.0,1399.665,0.0,0.25,0.0,0.616870026,1.0,0.723610234,0.0,0.25,True,,5968c58012e7f700013b4acc,,1543214,88,,evan-feature22,full_rf_a,,1
63,7500,89,,,,2,2,0.0,0.0,0.0,-1.0,,0.0-91.0,,0.0,1331.02,0.0,0.25,1.0,0.583540187,0.0,0.7041042559999999,0.0,0.285961995,True,,5968c58012e7f700013b4acc,,1554339,89,,evan-feature22,full_rf_a,,1
64,7501,90,,,,2,2,0.0,1.0,1.0,0.0,,0.0-92.0,,0.0,401.445,0.0,0.27254536,1.0,0.53875765,0.0,0.693783448,1.0,0.284961652,True,,5968c58012e7f700013b4acc,,1564522,90,,evan-feature22,full_rf_a,,0
65,7502,91,,,,2,2,1.0,1.0,0.0,-1.0,,0.0-93.0,,-1.0,342.645,0.0,0.25,0.0,0.548431252,1.0,0.734221895,1.0,0.279445214,True,,5968c58012e7f700013b4acc,,1574653,91,,evan-feature22,full_rf_a,,0
66,7503,92,,,,1,1,0.0,0.0,1.0,0.0,,0.0-94.0,,0.0,2821.71,0.0,0.258640684,0.0,0.545878066,1.0,0.725245965,0.0,0.31487537,True,,5968c58012e7f700013b4acc,,1587257,92,,evan-feature22,full_rf_a,,1
67,7504,93,,,,2,2,1.0,0.0,1.0,0.0,,0.0-95.0,,1.0,815.56,1.0,0.251103711,1.0,0.5776290629999999,1.0,0.696320133,0.0,0.317831047,True,,5968c58012e7f700013b4acc,,1597860,93,,evan-feature22,full_rf_a,,1
68,7505,94,,,,2,2,1.0,0.0,1.0,0.0,,0.0-96.0,,1.0,2151.985,0.0,0.276630292,0.0,0.617329858,1.0,0.73838088,0.0,0.261471582,True,,5968c58012e7f700013b4acc,,1609802,94,,evan-feature22,full_rf_a,,0
69,7506,95,,,,2,2,1.0,0.0,0.0,-1.0,,0.0-97.0,,0.0,377.45999989999996,0.0,0.297716424,1.0,0.618863717,1.0,0.7402358259999999,0.0,0.262600834,True,,5968c58012e7f700013b4acc,,1619960,95,,evan-feature22,full_rf_a,,0
70,7507,96,,,,1,1,0.0,1.0,1.0,0.0,,0.0-98.0,,0.0,1189.525,0.0,0.290935512,1.0,0.695370945,1.0,0.706570507,0.0,0.280030553,True,,5968c58012e7f700013b4acc,,1630950,96,,evan-feature22,full_rf_a,,1
71,7508,97,,,,1,1,0.0,0.0,1.0,0.0,,0.0-99.0,,0.0,492.3999999,0.0,0.25,0.0,0.6465277079999999,1.0,0.67766682,1.0,0.25,True,,5968c58012e7f700013b4acc,,1641246,97,,evan-feature22,full_rf_a,,0
72,7509,98,,,,1,1,0.0,0.0,1.0,0.0,,0.0-100.0,,0.0,416.7899999,0.0,0.26463816,0.0,0.636100213,0.0,0.646048507,1.0,0.265607101,True,,5968c58012e7f700013b4acc,,1651464,98,,evan-feature22,full_rf_a,,0
73,7510,99,,,,1,1,0.0,0.0,1.0,0.0,,0.0-101.0,,0.0,950.285,0.0,0.314340707,0.0,0.667795927,1.0,0.613630805,0.0,0.25,True,,5968c58012e7f700013b4acc,,1662202,99,,evan-feature22,full_rf_a,,0
74,7511,100,,,,1,1,0.0,0.0,1.0,0.0,,0.0-102.0,,0.0,652.945,0.0,0.28685784,0.0,0.6622549529999999,1.0,0.652154117,0.0,0.25,True,,5968c58012e7f700013b4acc,,1672641,100,,evan-feature22,full_rf_a,,0
75,7512,101,,,,2,2,1.0,1.0,0.0,-1.0,,0.0-103.0,,-1.0,817.5350002,0.0,0.304106554,0.0,0.631289538,1.0,0.707041942,1.0,0.29314237,True,,5968c58012e7f700013b4acc,,1683247,101,,evan-feature22,full_rf_a,,1
76,7513,102,,,,2,2,1.0,0.0,0.0,-1.0,,0.0-104.0,,0.0,523.515,0.0,0.304806932,1.0,0.571167718,1.0,0.680472346,0.0,0.25,True,,5968c58012e7f700013b4acc,,1693566,102,,evan-feature22,full_rf_a,,0
77,7514,103,,,,2,2,1.0,1.0,0.0,-1.0,,0.0-105.0,,-1.0,458.45,0.0,0.37919861,1.0,0.5724849710000001,1.0,0.705638003,1.0,0.30179300600000003,True,,5968c58012e7f700013b4acc,,1703815,103,,evan-feature22,full_rf_a,,0
78,7515,104,,,,2,2,1.0,0.0,0.0,-1.0,,0.0-106.0,,0.0,460.25499979999995,0.0,0.464277969,0.0,0.554034373,1.0,0.7372627340000001,0.0,0.264699741,True,,5968c58012e7f700013b4acc,,1714055,104,,evan-feature22,full_rf_a,,0
79,7516,105,,,,2,2,1.0,1.0,1.0,0.0,,0.0-107.0,,1.0,829.7599999,0.0,0.465104323,0.0,0.530793115,1.0,0.75,1.0,0.31683071,True,,5968c58012e7f700013b4acc,,1724670,105,,evan-feature22,full_rf_a,,0
80,7517,106,,,,2,2,1.0,0.0,0.0,-1.0,,0.0-108.0,,0.0,1852.54,1.0,0.465104323,0.0,0.530793115,1.0,0.75,0.0,0.31683071,True,,5968c58012e7f700013b4acc,,1736311,106,,evan-feature22,full_rf_a,,0
81,7518,107,,,,2,2,1.0,1.0,0.0,-1.0,,0.0-109.0,,-1.0,795.3599998999999,0.0,0.46833986,0.0,0.570249239,1.0,0.7244472590000001,1.0,0.364114163,True,,5968c58012e7f700013b4acc,,1746926,107,,evan-feature22,full_rf_a,,0
82,7519,108,,,,1,1,1.0,1.0,0.0,-1.0,,0.0-110.0,,-1.0,318.925,1.0,0.445444024,1.0,0.649673355,1.0,0.6845441290000001,1.0,0.300660449,True,,5968c58012e7f700013b4acc,,1757025,108,,evan-feature22,full_rf_a,,1
83,7520,109,,,,1,1,0.0,0.0,0.0,-1.0,,0.0-111.0,,0.0,910.195,0.0,0.39909721299999995,0.0,0.6715179509999999,1.0,0.742310028,1.0,0.35496088299999995,True,,5968c58012e7f700013b4acc,,1767731,109,,evan-feature22,full_rf_a,,0
84,7521,110,,,,1,1,0.0,1.0,0.0,-1.0,,0.0-112.0,,-1.0,2521.89,0.0,0.37956104799999996,1.0,0.694725302,0.0,0.7181651309999999,0.0,0.38726906299999997,True,,5968c58012e7f700013b4acc,,1780033,110,,evan-feature22,full_rf_a,,0
85,7522,111,,,,1,1,0.0,0.0,0.0,-1.0,,0.0-113.0,,0.0,1545.065,0.0,0.404995034,0.0,0.724375412,0.0,0.6910946859999999,0.0,0.387187347,True,,5968c58012e7f700013b4acc,,1791362,111,,evan-feature22,full_rf_a,,0
86,7523,112,,,,1,1,0.0,1.0,0.0,-1.0,,0.0-114.0,,-1.0,3604.61,0.0,0.461740803,1.0,0.75,0.0,0.75,0.0,0.34872038200000005,True,,5968c58012e7f700013b4acc,,1804762,112,,evan-feature22,full_rf_a,,0
87,7524,113,,,,1,1,0.0,1.0,1.0,0.0,,0.0-115.0,,0.0,1317.78,0.0,0.43821380600000004,1.0,0.738833273,0.0,0.728286963,1.0,0.399538128,True,,5968c58012e7f700013b4acc,,1815860,113,,evan-feature22,full_rf_a,,0
88,7525,114,,,,1,1,1.0,1.0,0.0,-1.0,,0.0-116.0,,-1.0,611.1699999,1.0,0.41709882,1.0,0.736666736,0.0,0.75,0.0,0.389095584,True,,5968c58012e7f700013b4acc,,1826256,114,,evan-feature22,full_rf_a,,0
89,7526,115,,,,1,1,0.0,1.0,0.0,-1.0,,0.0-117.0,,-1.0,616.6599997999999,0.0,0.39749009799999996,1.0,0.744320029,0.0,0.75,0.0,0.363848678,True,,5968c58012e7f700013b4acc,,1836655,115,,evan-feature22,full_rf_a,,0
90,7527,116,,,,1,1,0.0,1.0,1.0,0.0,,0.0-118.0,,0.0,1524.74,0.0,0.392653706,1.0,0.75,1.0,0.75,0.0,0.384386976,True,,5968c58012e7f700013b4acc,,1847954,116,,evan-feature22,full_rf_a,,0
91,7528,117,,,,1,1,0.0,1.0,1.0,0.0,,0.0-119.0,,0.0,883.99,0.0,0.31190902600000003,1.0,0.75,0.0,0.732413819,1.0,0.413082932,True,,5968c58012e7f700013b4acc,,1858622,117,,evan-feature22,full_rf_a,,0
92,7529,118,,,,1,1,1.0,1.0,0.0,-1.0,,0.0-120.0,,-1.0,388.1299999,1.0,0.366917648,1.0,0.740073855,1.0,0.75,1.0,0.352861979,True,,5968c58012e7f700013b4acc,,1868793,118,,evan-feature22,full_rf_a,,0
93,7530,119,,,,1,1,0.0,1.0,0.0,-1.0,,0.0-121.0,,-1.0,746.0099999,0.0,0.3645172,1.0,0.721770713,1.0,0.75,0.0,0.404074511,True,,5968c58012e7f700013b4acc,,1879319,119,,evan-feature22,full_rf_a,,0
94,7531,120,,,,2,2,1.0,1.0,0.0,-1.0,,0.0-122.0,,-1.0,827.54,1.0,0.35205600299999995,0.0,0.68983859,1.0,0.739735447,1.0,0.366895945,True,,5968c58012e7f700013b4acc,,1889935,120,,evan-feature22,full_rf_a,,1
95,7532,121,,,,2,2,0.0,1.0,0.0,-1.0,,0.0-123.0,,-1.0,1082.485,0.0,0.40998722600000004,0.0,0.720859127,0.0,0.673854955,1.0,0.368528541,True,,5968c58012e7f700013b4acc,,1900807,121,,evan-feature22,full_rf_a,,0
96,7533,122,,,,2,2,0.0,1.0,1.0,0.0,,0.0-124.0,,0.0,568.4550002000001,0.0,0.353625316,0.0,0.75,0.0,0.695605473,1.0,0.38303674200000004,True,,5968c58012e7f700013b4acc,,1911159,122,,evan-feature22,full_rf_a,,0
97,7534,123,,,,2,2,0.0,0.0,0.0,-1.0,,0.0-125.0,,0.0,1234.67,1.0,0.359216989,1.0,0.75,0.0,0.6987915090000001,0.0,0.35169046200000004,True,,5968c58012e7f700013b4acc,,1922190,123,,evan-feature22,full_rf_a,,0
98,7535,124,,,,2,2,1.0,0.0,1.0,0.0,,0.0-126.0,,1.0,2092.99,1.0,0.35834496899999996,1.0,0.75,1.0,0.707067742,0.0,0.416763636,True,,5968c58012e7f700013b4acc,,1934078,124,,evan-feature22,full_rf_a,,0
99,7536,125,,,,1,1,1.0,0.0,1.0,0.0,,0.0-127.0,,1.0,751.895,1.0,0.38741613799999997,0.0,0.7177369570000001,1.0,0.734902455,0.0,0.49438664299999996,True,,5968c58012e7f700013b4acc,,1944612,125,,evan-feature22,full_rf_a,,1
100,7537,126,,,,1,1,1.0,1.0,0.0,-1.0,,0.0-128.0,,-1.0,929.4200002,1.0,0.405255252,1.0,0.7300466640000001,1.0,0.7027748070000001,0.0,0.504359668,True,,5968c58012e7f700013b4acc,,1955329,126,,evan-feature22,full_rf_a,,0
101,7538,127,,,,1,1,1.0,0.0,0.0,-1.0,,0.0-129.0,,0.0,1113.13,1.0,0.40697073,0.0,0.7260142190000001,1.0,0.724461982,1.0,0.522779179,True,,5968c58012e7f700013b4acc,,1966221,127,,evan-feature22,full_rf_a,,0
102,7539,128,,,,1,1,0.0,1.0,0.0,-1.0,,0.0-130.0,,-1.0,559.195,0.0,0.43906215299999996,1.0,0.7252802340000001,0.0,0.719079934,1.0,0.5712990579999999,True,,5968c58012e7f700013b4acc,,1976580,128,,evan-feature22,full_rf_a,,0
103,7540,129,,,,1,1,1.0,0.0,0.0,-1.0,,0.0-131.0,,0.0,2364.405,1.0,0.4076705,0.0,0.73280499,1.0,0.681313127,0.0,0.523891346,True,,5968c58012e7f700013b4acc,,1988733,129,,evan-feature22,full_rf_a,,0
104,7541,130,,,,1,1,0.0,1.0,0.0,-1.0,,0.0-132.0,,-1.0,781.7850001,0.0,0.399102911,1.0,0.730498344,0.0,0.661080239,1.0,0.46742603,True,,5968c58012e7f700013b4acc,,1999285,130,,evan-feature22,full_rf_a,,0
105,7542,131,,,,1,1,0.0,0.0,1.0,0.0,,0.0-133.0,,0.0,856.0500001,0.0,0.356477282,0.0,0.712296395,1.0,0.641812684,0.0,0.44868414,True,,5968c58012e7f700013b4acc,,2009920,131,,evan-feature22,full_rf_a,,0
106,7543,132,,,,2,2,1.0,1.0,0.0,-1.0,,0.0-134.0,,-1.0,869.59,0.0,0.462760722,1.0,0.692349322,1.0,0.700947931,1.0,0.394680266,True,,5968c58012e7f700013b4acc,,2020586,132,,evan-feature22,full_rf_a,,1
107,7544,133,,,,2,2,1.0,1.0,0.0,-1.0,,0.0-135.0,,-1.0,395.0500002,0.0,0.422306413,1.0,0.718375916,1.0,0.706340917,1.0,0.367787185,True,,5968c58012e7f700013b4acc,,2030788,133,,evan-feature22,full_rf_a,,0
108,7546,135,,,,2,2,0.0,0.0,0.0,-1.0,,0.0-137.0,,0.0,1426.115,0.0,0.4582233,1.0,0.643834117,0.0,0.75,0.0,0.39615823299999997,True,,5968c58012e7f700013b4acc,,2103686,135,,evan-feature22,full_rf_a,,0
109,7547,136,,,,2,2,1.0,1.0,0.0,-1.0,,0.0-138.0,,-1.0,2260.57,1.0,0.43813437899999996,0.0,0.651283804,1.0,0.729674191,1.0,0.37711048,True,,5968c58012e7f700013b4acc,,2115731,136,,evan-feature22,full_rf_a,,0
110,7548,137,,,,1,1,1.0,0.0,0.0,-1.0,,0.0-139.0,,0.0,1505.695,1.0,0.471199094,0.0,0.6470010979999999,0.0,0.715008097,1.0,0.410656191,True,,5968c58012e7f700013b4acc,,2127030,137,,evan-feature22,full_rf_a,,1
111,7549,138,,,,2,2,1.0,0.0,1.0,0.0,,0.0-140.0,,1.0,187.07,0.0,0.42486406,1.0,0.629771829,1.0,0.6550939960000001,0.0,0.459093873,True,,5968c58012e7f700013b4acc,,2136998,138,,evan-feature22,full_rf_a,,1
112,7550,139,,,,2,2,1.0,1.0,1.0,0.0,,0.0-141.0,,1.0,699.185,0.0,0.4803197,0.0,0.645842715,1.0,0.6421749920000001,1.0,0.443092151,True,,5968c58012e7f700013b4acc,,2147488,139,,evan-feature22,full_rf_a,,0
113,7551,140,,,,2,2,1.0,0.0,1.0,0.0,,0.0-142.0,,1.0,482.9500001,0.0,0.521848997,1.0,0.735801074,1.0,0.6691348460000001,0.0,0.45259351600000003,True,,5968c58012e7f700013b4acc,,2157753,140,,evan-feature22,full_rf_a,,0
114,7552,141,,,,2,2,1.0,0.0,0.0,-1.0,,0.0-143.0,,0.0,590.4700002000001,1.0,0.49565621299999996,1.0,0.742400847,1.0,0.661512553,0.0,0.483110831,True,,5968c58012e7f700013b4acc,,2168130,141,,evan-feature22,full_rf_a,,0
115,7553,142,,,,2,2,0.0,1.0,1.0,0.0,,0.0-144.0,,0.0,1489.405,0.0,0.521564361,1.0,0.731078632,0.0,0.6774886809999999,1.0,0.483263956,True,,5968c58012e7f700013b4acc,,2179421,142,,evan-feature22,full_rf_a,,0
116,7554,143,,,,1,1,0.0,1.0,1.0,0.0,,0.0-145.0,,0.0,1592.41,0.0,0.558893102,1.0,0.719810023,1.0,0.67461031,0.0,0.499349834,True,,5968c58012e7f700013b4acc,,2190816,143,,evan-feature22,full_rf_a,,1
117,7555,144,,,,2,2,1.0,1.0,0.0,-1.0,,0.0-146.0,,-1.0,1710.755,0.0,0.611031046,1.0,0.75,1.0,0.688072995,1.0,0.5321422729999999,True,,5968c58012e7f700013b4acc,,2202342,144,,evan-feature22,full_rf_a,,1
118,7556,145,,,,1,1,1.0,1.0,1.0,0.0,,0.0-147.0,,1.0,736.7749999,1.0,0.633223941,1.0,0.713567728,0.0,0.75,0.0,0.48185314700000004,True,,5968c58012e7f700013b4acc,,2212858,145,,evan-feature22,full_rf_a,,1
119,7557,146,,,,1,1,1.0,1.0,1.0,0.0,,0.0-148.0,,1.0,3702.795,1.0,0.664001694,1.0,0.705509768,1.0,0.75,1.0,0.500211065,True,,5968c58012e7f700013b4acc,,2226354,146,,evan-feature22,full_rf_a,,0
120,7558,147,,,,2,2,1.0,0.0,0.0,-1.0,,0.0-149.0,,0.0,619.6050001,0.0,0.664001694,0.0,0.705509768,1.0,0.75,0.0,0.500211065,True,,5968c58012e7f700013b4acc,,2236748,147,,evan-feature22,full_rf_a,,1
121,7559,148,,,,1,1,1.0,1.0,0.0,-1.0,,0.0-150.0,,-1.0,1721.195,1.0,0.696508041,1.0,0.71066027,0.0,0.717028709,0.0,0.49792991,True,,5968c58012e7f700013b4acc,,2248265,148,,evan-feature22,full_rf_a,,1
122,7560,149,,,,2,2,0.0,1.0,1.0,0.0,,0.0-151.0,,0.0,3481.36,0.0,0.699883272,0.0,0.75,0.0,0.713543895,1.0,0.496962643,True,,5968c58012e7f700013b4acc,,2261533,149,,evan-feature22,full_rf_a,,1
123,7561,150,,,,1,1,1.0,1.0,0.0,-1.0,,0.0-152.0,,-1.0,660.38,1.0,0.741163419,1.0,0.75,1.0,0.64691024,1.0,0.513858197,True,,5968c58012e7f700013b4acc,,2271992,150,,evan-feature22,full_rf_a,,1
124,7562,151,,,,2,2,1.0,1.0,1.0,0.0,,0.0-153.0,,1.0,689.79,1.0,0.75,0.0,0.70816558,1.0,0.594499079,1.0,0.48502124,True,,5968c58012e7f700013b4acc,,2282480,151,,evan-feature22,full_rf_a,,1
125,7563,152,,,,2,2,0.0,0.0,0.0,-1.0,,0.0-154.0,,0.0,496.825,0.0,0.75,1.0,0.721848901,0.0,0.62197249,0.0,0.48263586399999997,True,,5968c58012e7f700013b4acc,,2292753,152,,evan-feature22,full_rf_a,,0
126,7564,153,,,,2,2,0.0,0.0,1.0,0.0,,0.0-155.0,,0.0,1946.21,1.0,0.75,1.0,0.74813071,0.0,0.584357161,0.0,0.411477782,True,,5968c58012e7f700013b4acc,,2304484,153,,evan-feature22,full_rf_a,,0
127,7565,154,,,,2,2,1.0,1.0,0.0,-1.0,,0.0-156.0,,-1.0,613.5699998,1.0,0.75,1.0,0.75,1.0,0.52287236,1.0,0.488290656,True,,5968c58012e7f700013b4acc,,2314875,154,,evan-feature22,full_rf_a,,0
128,7566,155,,,,1,1,0.0,0.0,0.0,-1.0,,0.0-157.0,,0.0,982.5200001000001,0.0,0.75,0.0,0.75,0.0,0.544321581,0.0,0.53143059,True,,5968c58012e7f700013b4acc,,2325646,155,,evan-feature22,full_rf_a,,1
129,7567,156,,,,2,2,1.0,1.0,0.0,-1.0,,0.0-158.0,,-1.0,553.24,1.0,0.726754564,1.0,0.75,1.0,0.5129306370000001,1.0,0.530592445,True,,5968c58012e7f700013b4acc,,2335997,156,,evan-feature22,full_rf_a,,1
130,7568,157,,,,2,2,1.0,1.0,1.0,0.0,,0.0-159.0,,1.0,945.91,0.0,0.75,1.0,0.7392590729999999,1.0,0.479875835,1.0,0.547007051,True,,5968c58012e7f700013b4acc,,2346745,157,,evan-feature22,full_rf_a,,0
131,7569,158,,,,1,1,1.0,1.0,1.0,0.0,,0.0-160.0,,1.0,573.84,1.0,0.75,1.0,0.7393376979999999,1.0,0.546045419,0.0,0.541267353,True,,5968c58012e7f700013b4acc,,2357107,158,,evan-feature22,full_rf_a,,1
132,7570,159,,,,2,2,0.0,1.0,1.0,0.0,,0.0-161.0,,0.0,3904.125,1.0,0.75,1.0,0.75,0.0,0.485725895,1.0,0.527625395,True,,5968c58012e7f700013b4acc,,2370804,159,,evan-feature22,full_rf_a,,1
133,7571,160,,,,SLOW,SLOW,,,0.0,-1.0,,0.0-162.0,,-3.0,,0.0,0.75,1.0,0.725087974,1.0,0.488603595,0.0,0.504019206,True,,5968c58012e7f700013b4acc,,2376619,160,,evan-feature22,full_rf_a,,1
134,7572,161,,,,2,2,1.0,0.0,0.0,-1.0,,0.0-163.0,,0.0,416.0749998,1.0,0.745504295,1.0,0.75,1.0,0.452379914,0.0,0.50131194,True,,5968c58012e7f700013b4acc,,2386839,161,,evan-feature22,full_rf_a,,1
135,7573,162,,,,1,1,1.0,1.0,0.0,-1.0,,0.0-164.0,,-1.0,1343.76,1.0,0.728513874,1.0,0.75,0.0,0.44125567200000004,1.0,0.531454591,True,,5968c58012e7f700013b4acc,,2397976,162,,evan-feature22,full_rf_a,,1
136,7574,163,,,,2,2,0.0,0.0,1.0,0.0,,0.0-165.0,,0.0,2254.005,1.0,0.73790804,1.0,0.75,0.0,0.413036656,0.0,0.524619035,True,,5968c58012e7f700013b4acc,,2410015,163,,evan-feature22,full_rf_a,,1
137,7575,164,,,,SLOW,SLOW,,,0.0,-1.0,,0.0-166.0,,-3.0,,1.0,0.7080961309999999,1.0,0.708666865,1.0,0.431915581,0.0,0.481819489,True,,5968c58012e7f700013b4acc,,2415831,164,,evan-feature22,full_rf_a,,1
138,7576,165,,,,2,2,0.0,0.0,0.0,-1.0,,0.0-167.0,,0.0,403.0000002,1.0,0.721378003,1.0,0.71605913,0.0,0.36642387,0.0,0.5036739929999999,True,,5968c58012e7f700013b4acc,,2426037,165,,evan-feature22,full_rf_a,,1
139,7577,166,,,,1,1,1.0,1.0,0.0,-1.0,,0.0-168.0,,-1.0,917.6950001,1.0,0.7340618959999999,1.0,0.699323252,1.0,0.35298046299999997,1.0,0.511241692,True,,5968c58012e7f700013b4acc,,2436755,166,,evan-feature22,full_rf_a,,1
140,7578,167,,,,2,2,0.0,0.0,1.0,0.0,,0.0-169.0,,0.0,376.46000019999997,1.0,0.75,1.0,0.70412698,0.0,0.380734814,0.0,0.529580116,True,,5968c58012e7f700013b4acc,,2446917,167,,evan-feature22,full_rf_a,,1
141,7579,168,,,,1,1,1.0,1.0,0.0,-1.0,,0.0-170.0,,-1.0,741.78,1.0,0.7436654909999999,1.0,0.711182751,0.0,0.41125331,1.0,0.49554405,True,,5968c58012e7f700013b4acc,,2457459,168,,evan-feature22,full_rf_a,,1
142,7580,169,,,,1,1,1.0,1.0,0.0,-1.0,,0.0-171.0,,-1.0,1091.14,1.0,0.731607915,1.0,0.651774583,1.0,0.35688023,1.0,0.45194491600000003,True,,5968c58012e7f700013b4acc,,2468349,169,,evan-feature22,full_rf_a,,0
143,7581,170,,,,2,2,0.0,0.0,1.0,0.0,,0.0-172.0,,0.0,367.4349999,0.0,0.75,1.0,0.75,0.0,0.283145374,0.0,0.528608005,True,,5968c58012e7f700013b4acc,,2478510,170,,evan-feature22,full_rf_a,,1
144,7582,171,,,,SLOW,SLOW,,,1.0,0.0,,0.0-173.0,,-3.0,,1.0,0.7491416890000001,1.0,0.7423785959999999,0.0,0.29135870399999997,1.0,0.498888318,True,,5968c58012e7f700013b4acc,,2484325,171,,evan-feature22,full_rf_a,,1
145,7583,172,,,,2,2,0.0,0.0,1.0,0.0,,0.0-174.0,,0.0,784.6350002,1.0,0.708569387,0.0,0.717682277,0.0,0.294421699,0.0,0.493838163,True,,5968c58012e7f700013b4acc,,2494894,172,,evan-feature22,full_rf_a,,1
146,7584,173,,,,1,1,1.0,1.0,0.0,-1.0,,0.0-175.0,,-1.0,375.9650001,1.0,0.75,1.0,0.7383382159999999,0.0,0.356098707,0.0,0.442533405,True,,5968c58012e7f700013b4acc,,2505062,173,,evan-feature22,full_rf_a,,1
147,7585,174,,,,1,1,1.0,1.0,0.0,-1.0,,0.0-176.0,,-1.0,871.4050001,1.0,0.744527075,1.0,0.75,1.0,0.334127506,0.0,0.393165805,True,,5968c58012e7f700013b4acc,,2515720,174,,evan-feature22,full_rf_a,,0
148,7586,175,,,,2,2,0.0,1.0,0.0,-1.0,,0.0-177.0,,-1.0,443.555,1.0,0.75,1.0,0.75,0.0,0.33571021799999995,1.0,0.350393962,True,,5968c58012e7f700013b4acc,,2525957,175,,evan-feature22,full_rf_a,,1
149,7587,176,,,,1,1,1.0,0.0,0.0,-1.0,,0.0-178.0,,0.0,555.1199999,1.0,0.75,0.0,0.75,0.0,0.313628297,0.0,0.36349657399999996,True,,5968c58012e7f700013b4acc,,2536293,176,,evan-feature22,full_rf_a,,1
150,7588,177,,,,2,2,1.0,1.0,1.0,0.0,,0.0-179.0,,1.0,520.7799999,1.0,0.75,0.0,0.734284182,1.0,0.262667667,1.0,0.380199119,True,,5968c58012e7f700013b4acc,,2546592,177,,evan-feature22,full_rf_a,,1
151,7589,178,,,,1,1,1.0,1.0,0.0,-1.0,,0.0-180.0,,-1.0,400.32,1.0,0.75,1.0,0.75,0.0,0.25,1.0,0.394494013,True,,5968c58012e7f700013b4acc,,2556793,178,,evan-feature22,full_rf_a,,1
152,7590,179,,,,2,2,1.0,0.0,1.0,0.0,,0.0-181.0,,1.0,526.8950001000001,0.0,0.722298145,1.0,0.7357822340000001,1.0,0.25,0.0,0.319142121,True,,5968c58012e7f700013b4acc,,2567113,179,,evan-feature22,full_rf_a,,1
153,7591,180,,,,2,2,1.0,0.0,1.0,0.0,,0.0-182.0,,1.0,2654.61,1.0,0.73149275,1.0,0.724276446,1.0,0.305856907,0.0,0.281315057,True,,5968c58012e7f700013b4acc,,2579556,180,,evan-feature22,full_rf_a,,0
154,7592,181,,,,2,2,0.0,1.0,0.0,-1.0,,0.0-183.0,,-1.0,684.3900001000001,0.0,0.7458732690000001,1.0,0.7336382459999999,0.0,0.272571964,1.0,0.266021999,True,,5968c58012e7f700013b4acc,,2590027,181,,evan-feature22,full_rf_a,,0
155,7593,182,,,,1,1,1.0,1.0,0.0,-1.0,,0.0-184.0,,-1.0,470.8500002,1.0,0.705579037,1.0,0.720778292,1.0,0.320238144,0.0,0.30971744,True,,5968c58012e7f700013b4acc,,2600281,182,,evan-feature22,full_rf_a,,1
156,7594,183,,,,2,2,0.0,0.0,0.0,-1.0,,0.0-185.0,,0.0,462.7499999,1.0,0.700425648,1.0,0.7198784009999999,0.0,0.272590393,0.0,0.304182931,True,,5968c58012e7f700013b4acc,,2610546,183,,evan-feature22,full_rf_a,,1
157,7595,184,,,,2,2,0.0,0.0,0.0,-1.0,,0.0-186.0,,0.0,832.13,1.0,0.735590785,1.0,0.722714973,0.0,0.25,0.0,0.323421091,True,,5968c58012e7f700013b4acc,,2621170,184,,evan-feature22,full_rf_a,,0
158,7596,185,,,,1,1,1.0,0.0,0.0,-1.0,,0.0-187.0,,0.0,521.4850002000001,1.0,0.724807662,0.0,0.63146213,1.0,0.36836492600000004,0.0,0.34592153299999995,True,,5968c58012e7f700013b4acc,,2631485,185,,evan-feature22,full_rf_a,,1
159,7597,186,,,,2,2,0.0,0.0,0.0,-1.0,,0.0-188.0,,0.0,1108.27,0.0,0.7352796909999999,0.0,0.555111392,0.0,0.36003922,0.0,0.31433779999999995,True,,5968c58012e7f700013b4acc,,2642375,186,,evan-feature22,full_rf_a,,1
160,7598,187,notice,,,,,,,,,,0.0-189.0,"{""Q0"":""no""}",,7623.0,,,,,,,,,True,,5968c58012e7f700013b4acc,,2650001,187,Q,survey-text,full_rf_a,,1
161,7599,188,track1,,[1],,,,,,,,0.0-190.0,"{""Q0"":""no""}",,5146.0,,,,,,,,,True,,5968c58012e7f700013b4acc,,2655151,188,Q,evan-quiz,full_rf_a,,1
162,7600,189,track2,,[1],,,,,,,,0.0-191.0,"{""Q0"":""no""}",,11491.0,,,,,,,,,True,,5968c58012e7f700013b4acc,,2666644,189,Q,evan-quiz,full_rf_a,,1
163,7601,190,strat,,,,,,,,,,0.0-192.0,"{""Q0"":""i wasn't very good but i tried""}",,16463.0,,,,,,,,,True,,5968c58012e7f700013b4acc,,2683110,190,Q,survey-text,full_rf_a,,1
