,index,Unnamed: 0,Q_name,button_pressed,choice_idxs,chosen_pos,chosen_state,chosen_state_f_1_outcome,chosen_state_f_2_outcome,f_1_reward,f_2_reward,incor_questions,internal_node_id,responses,reward_received,rt,s_1_f_1_outcome,s_1_f_1_prob,s_1_f_2_outcome,s_1_f_2_prob,s_2_f_1_outcome,s_2_f_1_prob,s_2_f_2_outcome,s_2_f_2_prob,safe_first,stimulus,subjectID,success,time_elapsed,trial_index,trial_num,trial_type,version,view_history,switching
0,15366,25,,,,2,2,0.0,0.0,-1.0,0.0,,0.0-27.0,,0.0,2059.0,1.0,0.6,1.0,0.6,0.0,0.4,0.0,0.4,False,,5d55029618ca41001c7c3583,,587206,25,,evan-feature22,full_pf_b,,0
1,15367,26,,,,1,1,1.0,0.0,-1.0,0.0,,0.0-28.0,,-1.0,952.0,1.0,0.608053294,0.0,0.63424552,0.0,0.397152172,0.0,0.347069101,False,,5d55029618ca41001c7c3583,,597927,26,,evan-feature22,full_pf_b,,1
2,15368,27,,,,2,2,0.0,1.0,-1.0,0.0,,0.0-29.0,,0.0,2693.0,1.0,0.642237155,0.0,0.648566321,0.0,0.389407674,1.0,0.285525717,False,,5d55029618ca41001c7c3583,,610392,27,,evan-feature22,full_pf_b,,1
3,15369,28,,,,2,2,1.0,0.0,-1.0,0.0,,0.0-30.0,,-1.0,2241.0,0.0,0.661086576,0.0,0.630492543,1.0,0.399058924,0.0,0.25,False,,5d55029618ca41001c7c3583,,622408,28,,evan-feature22,full_pf_b,,0
4,15370,29,,,,2,2,0.0,0.0,0.0,1.0,,0.0-31.0,,0.0,2233.0,1.0,0.631324137,1.0,0.6269842929999999,0.0,0.38734784299999997,0.0,0.25,False,,5d55029618ca41001c7c3583,,634413,29,,evan-feature22,full_pf_b,,0
5,15371,30,,,,1,1,0.0,1.0,0.0,1.0,,0.0-32.0,,1.0,1005.0,0.0,0.6381991370000001,1.0,0.68987999,1.0,0.384107265,1.0,0.271332943,False,,5d55029618ca41001c7c3583,,645193,30,,evan-feature22,full_pf_b,,1
6,15372,31,,,,1,1,0.0,1.0,-1.0,0.0,,0.0-33.0,,0.0,3141.0,0.0,0.66034901,1.0,0.742641349,0.0,0.360225629,0.0,0.25,False,,5d55029618ca41001c7c3583,,658106,31,,evan-feature22,full_pf_b,,0
7,15373,32,,,,1,1,0.0,0.0,-1.0,0.0,,0.0-34.0,,0.0,1874.0,0.0,0.638612418,0.0,0.75,1.0,0.367273939,0.0,0.25,False,,5d55029618ca41001c7c3583,,669757,32,,evan-feature22,full_pf_b,,0
8,15374,33,,,,2,2,0.0,0.0,0.0,1.0,,0.0-35.0,,0.0,2438.0,1.0,0.624340629,1.0,0.75,0.0,0.425829545,0.0,0.25,False,,5d55029618ca41001c7c3583,,681968,33,,evan-feature22,full_pf_b,,1
9,15375,34,,,,1,1,1.0,1.0,0.0,1.0,,0.0-36.0,,1.0,1224.0,1.0,0.621999804,1.0,0.75,0.0,0.368609357,0.0,0.25,False,,5d55029618ca41001c7c3583,,692962,34,,evan-feature22,full_pf_b,,1
10,15376,35,,,,2,2,1.0,0.0,-1.0,0.0,,0.0-37.0,,-1.0,1043.0,1.0,0.62666403,0.0,0.75,1.0,0.311151498,0.0,0.25,False,,5d55029618ca41001c7c3583,,703781,35,,evan-feature22,full_pf_b,,1
11,15377,36,,,,1,1,1.0,1.0,0.0,1.0,,0.0-38.0,,1.0,1768.0,1.0,0.6819650009999999,1.0,0.75,0.0,0.310763048,0.0,0.25,False,,5d55029618ca41001c7c3583,,715319,36,,evan-feature22,full_pf_b,,1
12,15378,37,,,,2,2,1.0,1.0,-1.0,0.0,,0.0-39.0,,-1.0,1208.0,1.0,0.740626951,1.0,0.75,1.0,0.25,1.0,0.25,False,,5d55029618ca41001c7c3583,,726299,37,,evan-feature22,full_pf_b,,1
13,15379,38,,,,1,1,1.0,1.0,-1.0,0.0,,0.0-40.0,,-1.0,2534.0,1.0,0.739599242,1.0,0.742034978,0.0,0.25397114600000004,0.0,0.25,False,,5d55029618ca41001c7c3583,,738601,38,,evan-feature22,full_pf_b,,1
14,15380,39,,,,2,2,0.0,1.0,-1.0,0.0,,0.0-41.0,,0.0,1665.0,0.0,0.732341315,1.0,0.72735643,0.0,0.25,1.0,0.25,False,,5d55029618ca41001c7c3583,,750039,39,,evan-feature22,full_pf_b,,1
15,15381,40,,,,2,2,1.0,0.0,-1.0,0.0,,0.0-42.0,,-1.0,1587.0,1.0,0.7062287770000001,1.0,0.75,1.0,0.29002151,0.0,0.288256649,False,,5d55029618ca41001c7c3583,,761405,40,,evan-feature22,full_pf_b,,0
16,15382,41,,,,2,2,1.0,0.0,-1.0,0.0,,0.0-43.0,,-1.0,1815.0,1.0,0.7086029209999999,1.0,0.75,1.0,0.274129113,0.0,0.262851608,False,,5d55029618ca41001c7c3583,,772995,41,,evan-feature22,full_pf_b,,0
17,15383,42,,,,2,2,0.0,0.0,-1.0,0.0,,0.0-44.0,,0.0,2153.0,1.0,0.669189651,1.0,0.727614338,0.0,0.298444036,0.0,0.296944518,False,,5d55029618ca41001c7c3583,,784921,42,,evan-feature22,full_pf_b,,0
18,15384,43,,,,2,2,1.0,0.0,-1.0,0.0,,0.0-45.0,,-1.0,1250.0,1.0,0.6819912929999999,1.0,0.7179434290000001,1.0,0.265003961,0.0,0.28157921199999997,False,,5d55029618ca41001c7c3583,,795945,43,,evan-feature22,full_pf_b,,0
19,15385,44,,,,1,1,1.0,1.0,0.0,1.0,,0.0-46.0,,1.0,1309.0,1.0,0.665275002,1.0,0.723065271,0.0,0.260414971,0.0,0.30973870000000003,False,,5d55029618ca41001c7c3583,,807024,44,,evan-feature22,full_pf_b,,1
20,15386,45,,,,2,2,0.0,1.0,-1.0,0.0,,0.0-47.0,,0.0,1518.0,0.0,0.6660593260000001,1.0,0.728032907,0.0,0.30922817,1.0,0.338778608,False,,5d55029618ca41001c7c3583,,818315,45,,evan-feature22,full_pf_b,,1
21,15387,46,,,,2,2,0.0,0.0,-1.0,0.0,,0.0-48.0,,0.0,1347.0,1.0,0.702068785,1.0,0.6528750879999999,0.0,0.287329608,0.0,0.35789613200000003,False,,5d55029618ca41001c7c3583,,829431,46,,evan-feature22,full_pf_b,,0
22,15388,47,,,,2,2,1.0,0.0,-1.0,0.0,,0.0-49.0,,-1.0,1303.0,0.0,0.651939787,1.0,0.636725589,1.0,0.284834488,0.0,0.358563756,False,,5d55029618ca41001c7c3583,,840508,47,,evan-feature22,full_pf_b,,0
23,15389,48,,,,1,1,1.0,1.0,0.0,1.0,,0.0-50.0,,1.0,1296.0,1.0,0.67573929,1.0,0.612550049,0.0,0.37130387600000003,1.0,0.383542402,False,,5d55029618ca41001c7c3583,,851575,48,,evan-feature22,full_pf_b,,1
24,15390,49,,,,1,1,0.0,1.0,0.0,1.0,,0.0-51.0,,1.0,1039.0,0.0,0.620753801,1.0,0.60513644,1.0,0.385529434,0.0,0.340361743,False,,5d55029618ca41001c7c3583,,862393,49,,evan-feature22,full_pf_b,,0
25,15391,50,,,,1,1,1.0,1.0,0.0,1.0,,0.0-52.0,,1.0,1998.0,1.0,0.673564893,1.0,0.672437924,0.0,0.292955382,1.0,0.337633795,False,,5d55029618ca41001c7c3583,,874163,50,,evan-feature22,full_pf_b,,0
26,15392,51,,,,2,2,0.0,0.0,-1.0,0.0,,0.0-53.0,,0.0,1550.0,1.0,0.6749427,1.0,0.724197502,0.0,0.32391132100000003,0.0,0.350995264,False,,5d55029618ca41001c7c3583,,885488,51,,evan-feature22,full_pf_b,,1
27,15393,52,,,,2,2,0.0,1.0,-1.0,0.0,,0.0-54.0,,0.0,1497.0,1.0,0.6940159379999999,0.0,0.75,0.0,0.31710554399999996,1.0,0.413450341,False,,5d55029618ca41001c7c3583,,896759,52,,evan-feature22,full_pf_b,,0
28,15394,53,,,,2,2,0.0,0.0,-1.0,0.0,,0.0-55.0,,0.0,1121.0,1.0,0.6916018270000001,1.0,0.69001187,0.0,0.261817804,0.0,0.40038635,False,,5d55029618ca41001c7c3583,,907655,53,,evan-feature22,full_pf_b,,0
29,15395,54,,,,2,2,0.0,1.0,-1.0,0.0,,0.0-56.0,,0.0,1400.0,1.0,0.641061544,1.0,0.71337992,0.0,0.277296461,1.0,0.47372791700000005,False,,5d55029618ca41001c7c3583,,918826,54,,evan-feature22,full_pf_b,,0
30,15396,55,,,,2,2,0.0,1.0,-1.0,0.0,,0.0-57.0,,0.0,1562.0,0.0,0.6082438520000001,1.0,0.708471106,0.0,0.28745137,1.0,0.564174476,False,,5d55029618ca41001c7c3583,,930160,55,,evan-feature22,full_pf_b,,0
31,15397,56,,,,2,2,0.0,0.0,-1.0,0.0,,0.0-58.0,,0.0,1787.0,1.0,0.6051112120000001,1.0,0.7118147229999999,0.0,0.272390611,0.0,0.5595149939999999,False,,5d55029618ca41001c7c3583,,941721,56,,evan-feature22,full_pf_b,,0
32,15398,57,,,,2,2,1.0,1.0,-1.0,0.0,,0.0-59.0,,-1.0,989.0,0.0,0.582420852,0.0,0.635867583,1.0,0.31089574,1.0,0.5227206520000001,False,,5d55029618ca41001c7c3583,,952479,57,,evan-feature22,full_pf_b,,0
33,15399,58,,,,2,2,0.0,1.0,0.0,1.0,,0.0-60.0,,1.0,2005.0,1.0,0.623195575,1.0,0.655026044,0.0,0.25,1.0,0.560387538,False,,5d55029618ca41001c7c3583,,964257,58,,evan-feature22,full_pf_b,,0
34,15400,59,,,,2,2,0.0,1.0,-1.0,0.0,,0.0-61.0,,0.0,2569.0,1.0,0.601889598,1.0,0.678198724,0.0,0.25,1.0,0.559922936,False,,5d55029618ca41001c7c3583,,976602,59,,evan-feature22,full_pf_b,,0
35,15401,60,,,,2,2,0.0,1.0,-1.0,0.0,,0.0-62.0,,0.0,1971.0,0.0,0.601259914,1.0,0.704681482,0.0,0.33908969299999997,1.0,0.505003715,False,,5d55029618ca41001c7c3583,,988349,60,,evan-feature22,full_pf_b,,0
36,15402,61,,,,2,2,1.0,0.0,-1.0,0.0,,0.0-63.0,,-1.0,2632.0,0.0,0.59645454,0.0,0.710437172,1.0,0.327441879,0.0,0.391749613,False,,5d55029618ca41001c7c3583,,1000754,61,,evan-feature22,full_pf_b,,0
37,15403,62,,,,1,1,1.0,1.0,-1.0,0.0,,0.0-64.0,,-1.0,2855.0,1.0,0.529473,1.0,0.636758527,0.0,0.301338063,0.0,0.365661481,False,,5d55029618ca41001c7c3583,,1013377,62,,evan-feature22,full_pf_b,,1
38,15404,63,,,,2,2,0.0,1.0,0.0,1.0,,0.0-65.0,,1.0,2056.0,1.0,0.541657162,0.0,0.634541962,0.0,0.343535366,1.0,0.371763742,False,,5d55029618ca41001c7c3583,,1025208,63,,evan-feature22,full_pf_b,,1
39,15405,64,,,,2,2,0.0,0.0,-1.0,0.0,,0.0-66.0,,0.0,1419.0,0.0,0.5707533260000001,1.0,0.589121171,0.0,0.326428396,0.0,0.43961622899999997,False,,5d55029618ca41001c7c3583,,1036400,64,,evan-feature22,full_pf_b,,0
40,15406,65,,,,2,2,1.0,1.0,-1.0,0.0,,0.0-67.0,,-1.0,969.0,0.0,0.5707533260000001,1.0,0.589121171,1.0,0.326428396,1.0,0.43961622899999997,False,,5d55029618ca41001c7c3583,,1047145,65,,evan-feature22,full_pf_b,,0
41,15407,66,,,,1,1,1.0,1.0,-1.0,0.0,,0.0-68.0,,-1.0,2260.0,1.0,0.506271295,1.0,0.641775594,0.0,0.37149690700000004,0.0,0.404330166,False,,5d55029618ca41001c7c3583,,1059184,66,,evan-feature22,full_pf_b,,1
42,15408,67,,,,2,2,1.0,0.0,0.0,1.0,,0.0-69.0,,0.0,1252.0,0.0,0.455642565,0.0,0.623605825,1.0,0.358753011,0.0,0.346174041,False,,5d55029618ca41001c7c3583,,1070212,67,,evan-feature22,full_pf_b,,1
43,15409,68,,,,1,1,0.0,1.0,0.0,1.0,,0.0-70.0,,1.0,1925.0,0.0,0.483677308,1.0,0.5904681070000001,0.0,0.402218411,0.0,0.35344697,False,,5d55029618ca41001c7c3583,,1081909,68,,evan-feature22,full_pf_b,,1
44,15410,69,,,,1,1,1.0,0.0,0.0,1.0,,0.0-71.0,,0.0,1255.0,1.0,0.394210977,0.0,0.558925494,1.0,0.540052017,1.0,0.35182128700000004,False,,5d55029618ca41001c7c3583,,1092938,69,,evan-feature22,full_pf_b,,0
45,15411,70,,,,2,2,0.0,0.0,-1.0,0.0,,0.0-72.0,,0.0,908.0,1.0,0.382300414,1.0,0.577670603,0.0,0.607608448,0.0,0.378261578,False,,5d55029618ca41001c7c3583,,1103616,70,,evan-feature22,full_pf_b,,1
46,15412,71,,,,2,2,0.0,1.0,-1.0,0.0,,0.0-73.0,,0.0,1596.0,0.0,0.357596762,1.0,0.5929076529999999,0.0,0.6579790010000001,1.0,0.401326777,False,,5d55029618ca41001c7c3583,,1114986,71,,evan-feature22,full_pf_b,,0
47,15413,72,,,,1,1,0.0,1.0,-1.0,0.0,,0.0-74.0,,0.0,406.0,0.0,0.362033495,1.0,0.582308608,1.0,0.649195052,1.0,0.355158505,False,,5d55029618ca41001c7c3583,,1125169,72,,evan-feature22,full_pf_b,,1
48,15414,73,,,,2,2,1.0,1.0,-1.0,0.0,,0.0-75.0,,-1.0,1646.0,1.0,0.369620635,0.0,0.669100864,1.0,0.706059111,1.0,0.362516241,False,,5d55029618ca41001c7c3583,,1136589,73,,evan-feature22,full_pf_b,,1
49,15415,74,,,,2,2,0.0,0.0,-1.0,0.0,,0.0-76.0,,0.0,3745.0,0.0,0.41477751399999996,0.0,0.7284416779999999,0.0,0.7182656940000001,0.0,0.36228040899999997,False,,5d55029618ca41001c7c3583,,1150107,74,,evan-feature22,full_pf_b,,0
50,15416,75,,,,1,1,0.0,0.0,0.0,1.0,,0.0-77.0,,0.0,659.0,0.0,0.37675460299999997,0.0,0.703250285,1.0,0.75,1.0,0.461979164,False,,5d55029618ca41001c7c3583,,1160539,75,,evan-feature22,full_pf_b,,1
51,15417,76,,,,2,2,0.0,1.0,0.0,1.0,,0.0-78.0,,1.0,685.0,0.0,0.398716075,1.0,0.6723864890000001,0.0,0.674153818,1.0,0.519029516,False,,5d55029618ca41001c7c3583,,1170996,76,,evan-feature22,full_pf_b,,1
52,15418,77,,,,1,1,1.0,0.0,-1.0,0.0,,0.0-79.0,,-1.0,2177.0,1.0,0.34677856700000004,0.0,0.69057175,1.0,0.6822438540000001,0.0,0.477292237,False,,5d55029618ca41001c7c3583,,1182952,77,,evan-feature22,full_pf_b,,1
53,15419,78,,,,2,2,1.0,1.0,0.0,1.0,,0.0-80.0,,1.0,991.0,0.0,0.28580469199999997,1.0,0.68408818,1.0,0.684207565,1.0,0.49780448299999996,False,,5d55029618ca41001c7c3583,,1193715,78,,evan-feature22,full_pf_b,,1
54,15421,80,,,,2,2,0.0,0.0,-1.0,0.0,,0.0-82.0,,0.0,3620.0,0.0,0.25,1.0,0.7405808970000001,0.0,0.679614108,0.0,0.436436964,False,,5d55029618ca41001c7c3583,,1222847,80,,evan-feature22,full_pf_b,,0
55,15422,81,,,,1,1,1.0,1.0,0.0,1.0,,0.0-83.0,,1.0,663.0,1.0,0.29890393,1.0,0.730505706,1.0,0.7328203320000001,0.0,0.439256938,False,,5d55029618ca41001c7c3583,,1233281,81,,evan-feature22,full_pf_b,,1
56,15423,82,,,,1,1,0.0,0.0,-1.0,0.0,,0.0-84.0,,0.0,3385.0,0.0,0.326762398,0.0,0.7148059609999999,1.0,0.75,1.0,0.44389608799999997,False,,5d55029618ca41001c7c3583,,1246439,82,,evan-feature22,full_pf_b,,0
57,15424,83,,,,1,1,0.0,1.0,-1.0,0.0,,0.0-85.0,,0.0,1479.0,0.0,0.295168515,1.0,0.739760854,1.0,0.719947008,1.0,0.35277284600000003,False,,5d55029618ca41001c7c3583,,1257690,83,,evan-feature22,full_pf_b,,0
58,15425,84,,,,1,1,0.0,1.0,-1.0,0.0,,0.0-86.0,,0.0,902.0,0.0,0.25,1.0,0.70781482,1.0,0.75,1.0,0.286095925,False,,5d55029618ca41001c7c3583,,1268357,84,,evan-feature22,full_pf_b,,0
59,15426,85,,,,2,2,1.0,0.0,0.0,1.0,,0.0-87.0,,0.0,1175.0,0.0,0.25638190899999996,1.0,0.704088163,1.0,0.75,0.0,0.26872601399999996,False,,5d55029618ca41001c7c3583,,1279305,85,,evan-feature22,full_pf_b,,1
60,15427,86,,,,1,1,0.0,1.0,0.0,1.0,,0.0-88.0,,1.0,1935.0,0.0,0.271581126,1.0,0.669760107,1.0,0.733896663,1.0,0.273244572,False,,5d55029618ca41001c7c3583,,1291016,86,,evan-feature22,full_pf_b,,1
61,15428,87,,,,1,1,1.0,0.0,0.0,1.0,,0.0-89.0,,0.0,2609.0,1.0,0.257144401,0.0,0.600575706,1.0,0.74488122,0.0,0.25,False,,5d55029618ca41001c7c3583,,1303399,87,,evan-feature22,full_pf_b,,0
62,15429,88,,,,1,1,0.0,1.0,-1.0,0.0,,0.0-90.0,,0.0,3767.0,0.0,0.25,1.0,0.616870026,0.0,0.723610234,0.0,0.25,False,,5d55029618ca41001c7c3583,,1316941,88,,evan-feature22,full_pf_b,,0
63,15430,89,,,,SLOW,SLOW,,,0.0,1.0,,0.0-91.0,,-3.0,,1.0,0.25,1.0,0.583540187,1.0,0.7041042559999999,0.0,0.285961995,False,,5d55029618ca41001c7c3583,,1322749,89,,evan-feature22,full_pf_b,,1
64,15431,90,,,,1,1,0.0,0.0,-1.0,0.0,,0.0-92.0,,0.0,1656.0,0.0,0.27254536,0.0,0.53875765,1.0,0.693783448,0.0,0.284961652,False,,5d55029618ca41001c7c3583,,1334182,90,,evan-feature22,full_pf_b,,1
65,15432,91,,,,2,2,0.0,0.0,0.0,1.0,,0.0-93.0,,0.0,773.0,0.0,0.25,0.0,0.548431252,0.0,0.734221895,0.0,0.279445214,False,,5d55029618ca41001c7c3583,,1344719,91,,evan-feature22,full_pf_b,,1
66,15433,92,,,,1,1,0.0,0.0,-1.0,0.0,,0.0-94.0,,0.0,1702.0,0.0,0.258640684,0.0,0.545878066,0.0,0.725245965,1.0,0.31487537,False,,5d55029618ca41001c7c3583,,1356197,92,,evan-feature22,full_pf_b,,1
67,15434,93,,,,2,2,0.0,1.0,-1.0,0.0,,0.0-95.0,,0.0,795.0,0.0,0.251103711,1.0,0.5776290629999999,0.0,0.696320133,1.0,0.317831047,False,,5d55029618ca41001c7c3583,,1366761,93,,evan-feature22,full_pf_b,,1
68,15435,94,,,,2,2,1.0,1.0,-1.0,0.0,,0.0-96.0,,-1.0,1621.0,1.0,0.276630292,1.0,0.617329858,1.0,0.73838088,1.0,0.261471582,False,,5d55029618ca41001c7c3583,,1378156,94,,evan-feature22,full_pf_b,,0
69,15436,95,,,,2,2,1.0,0.0,0.0,1.0,,0.0-97.0,,0.0,554.0,1.0,0.297716424,0.0,0.618863717,1.0,0.7402358259999999,0.0,0.262600834,False,,5d55029618ca41001c7c3583,,1388478,95,,evan-feature22,full_pf_b,,0
70,15437,96,,,,1,1,0.0,0.0,-1.0,0.0,,0.0-98.0,,0.0,1044.0,0.0,0.290935512,0.0,0.695370945,1.0,0.706570507,1.0,0.280030553,False,,5d55029618ca41001c7c3583,,1399292,96,,evan-feature22,full_pf_b,,1
71,15438,97,,,,1,1,0.0,1.0,-1.0,0.0,,0.0-99.0,,0.0,911.0,0.0,0.25,1.0,0.6465277079999999,1.0,0.67766682,0.0,0.25,False,,5d55029618ca41001c7c3583,,1409974,97,,evan-feature22,full_pf_b,,0
72,15439,98,,,,2,2,1.0,0.0,-1.0,0.0,,0.0-100.0,,-1.0,603.0,1.0,0.26463816,0.0,0.636100213,1.0,0.646048507,0.0,0.265607101,False,,5d55029618ca41001c7c3583,,1420351,98,,evan-feature22,full_pf_b,,1
73,15440,99,,,,1,1,0.0,1.0,-1.0,0.0,,0.0-101.0,,0.0,1035.0,0.0,0.314340707,1.0,0.667795927,0.0,0.613630805,0.0,0.25,False,,5d55029618ca41001c7c3583,,1431156,99,,evan-feature22,full_pf_b,,1
74,15441,100,,,,2,2,0.0,1.0,-1.0,0.0,,0.0-102.0,,0.0,1445.0,0.0,0.28685784,1.0,0.6622549529999999,0.0,0.652154117,1.0,0.25,False,,5d55029618ca41001c7c3583,,1442371,100,,evan-feature22,full_pf_b,,1
75,15442,101,,,,1,1,0.0,1.0,0.0,1.0,,0.0-103.0,,1.0,1198.0,0.0,0.304106554,1.0,0.631289538,1.0,0.707041942,1.0,0.29314237,False,,5d55029618ca41001c7c3583,,1453340,101,,evan-feature22,full_pf_b,,1
76,15443,102,,,,1,1,0.0,1.0,0.0,1.0,,0.0-104.0,,1.0,919.0,0.0,0.304806932,1.0,0.571167718,1.0,0.680472346,1.0,0.25,False,,5d55029618ca41001c7c3583,,1464033,102,,evan-feature22,full_pf_b,,0
77,15444,103,,,,2,2,0.0,0.0,0.0,1.0,,0.0-105.0,,0.0,1550.0,1.0,0.37919861,1.0,0.5724849710000001,0.0,0.705638003,0.0,0.30179300600000003,False,,5d55029618ca41001c7c3583,,1475359,103,,evan-feature22,full_pf_b,,1
78,15445,104,,,,1,1,1.0,1.0,0.0,1.0,,0.0-106.0,,1.0,1901.0,1.0,0.464277969,1.0,0.554034373,1.0,0.7372627340000001,0.0,0.264699741,False,,5d55029618ca41001c7c3583,,1487030,104,,evan-feature22,full_pf_b,,1
79,15446,105,,,,2,2,0.0,1.0,-1.0,0.0,,0.0-107.0,,0.0,1300.0,0.0,0.465104323,1.0,0.530793115,0.0,0.75,1.0,0.31683071,False,,5d55029618ca41001c7c3583,,1498108,105,,evan-feature22,full_pf_b,,1
80,15447,106,,,,2,2,0.0,0.0,0.0,1.0,,0.0-108.0,,0.0,1097.0,1.0,0.465104323,0.0,0.530793115,0.0,0.75,0.0,0.31683071,False,,5d55029618ca41001c7c3583,,1508976,106,,evan-feature22,full_pf_b,,0
81,15448,107,,,,2,2,1.0,0.0,0.0,1.0,,0.0-109.0,,0.0,666.0,1.0,0.46833986,0.0,0.570249239,1.0,0.7244472590000001,0.0,0.364114163,False,,5d55029618ca41001c7c3583,,1519413,107,,evan-feature22,full_pf_b,,0
82,15449,108,,,,2,2,1.0,0.0,0.0,1.0,,0.0-110.0,,0.0,1045.0,0.0,0.445444024,0.0,0.649673355,1.0,0.6845441290000001,0.0,0.300660449,False,,5d55029618ca41001c7c3583,,1530230,108,,evan-feature22,full_pf_b,,0
83,15450,109,,,,1,1,1.0,1.0,0.0,1.0,,0.0-111.0,,1.0,902.0,1.0,0.39909721299999995,1.0,0.6715179509999999,1.0,0.742310028,0.0,0.35496088299999995,False,,5d55029618ca41001c7c3583,,1540903,109,,evan-feature22,full_pf_b,,1
84,15451,110,,,,2,2,0.0,1.0,0.0,1.0,,0.0-112.0,,1.0,1004.0,0.0,0.37956104799999996,1.0,0.694725302,0.0,0.7181651309999999,1.0,0.38726906299999997,False,,5d55029618ca41001c7c3583,,1551683,110,,evan-feature22,full_pf_b,,1
85,15452,111,,,,2,2,0.0,1.0,0.0,1.0,,0.0-113.0,,1.0,731.0,1.0,0.404995034,1.0,0.724375412,0.0,0.6910946859999999,1.0,0.387187347,False,,5d55029618ca41001c7c3583,,1562188,111,,evan-feature22,full_pf_b,,0
86,15453,112,,,,2,2,0.0,0.0,0.0,1.0,,0.0-114.0,,0.0,829.0,0.0,0.461740803,0.0,0.75,0.0,0.75,0.0,0.34872038200000005,False,,5d55029618ca41001c7c3583,,1572785,112,,evan-feature22,full_pf_b,,0
87,15454,113,,,,1,1,1.0,1.0,-1.0,0.0,,0.0-115.0,,-1.0,676.0,1.0,0.43821380600000004,1.0,0.738833273,1.0,0.728286963,0.0,0.399538128,False,,5d55029618ca41001c7c3583,,1583228,113,,evan-feature22,full_pf_b,,1
88,15455,114,,,,2,2,1.0,0.0,0.0,1.0,,0.0-116.0,,0.0,719.0,1.0,0.41709882,1.0,0.736666736,1.0,0.75,0.0,0.389095584,False,,5d55029618ca41001c7c3583,,1593723,114,,evan-feature22,full_pf_b,,1
89,15456,115,,,,1,1,1.0,1.0,0.0,1.0,,0.0-117.0,,1.0,648.0,1.0,0.39749009799999996,1.0,0.744320029,1.0,0.75,1.0,0.363848678,False,,5d55029618ca41001c7c3583,,1604144,115,,evan-feature22,full_pf_b,,1
90,15457,116,,,,2,2,1.0,0.0,-1.0,0.0,,0.0-118.0,,-1.0,1821.0,0.0,0.392653706,1.0,0.75,1.0,0.75,0.0,0.384386976,False,,5d55029618ca41001c7c3583,,1615736,116,,evan-feature22,full_pf_b,,1
91,15458,117,,,,2,2,1.0,0.0,-1.0,0.0,,0.0-119.0,,-1.0,973.0,0.0,0.31190902600000003,1.0,0.75,1.0,0.732413819,0.0,0.413082932,False,,5d55029618ca41001c7c3583,,1626478,117,,evan-feature22,full_pf_b,,0
92,15459,118,,,,1,1,1.0,1.0,0.0,1.0,,0.0-120.0,,1.0,1176.0,1.0,0.366917648,1.0,0.740073855,1.0,0.75,0.0,0.352861979,False,,5d55029618ca41001c7c3583,,1637426,118,,evan-feature22,full_pf_b,,1
93,15460,119,,,,1,1,1.0,1.0,0.0,1.0,,0.0-121.0,,1.0,1032.0,1.0,0.3645172,1.0,0.721770713,1.0,0.75,1.0,0.404074511,False,,5d55029618ca41001c7c3583,,1648233,119,,evan-feature22,full_pf_b,,0
94,15461,120,,,,1,1,0.0,1.0,0.0,1.0,,0.0-122.0,,1.0,865.0,0.0,0.35205600299999995,1.0,0.68983859,0.0,0.739735447,1.0,0.366895945,False,,5d55029618ca41001c7c3583,,1658873,120,,evan-feature22,full_pf_b,,0
95,15462,121,,,,2,2,1.0,0.0,0.0,1.0,,0.0-123.0,,0.0,775.0,1.0,0.40998722600000004,1.0,0.720859127,1.0,0.673854955,0.0,0.368528541,False,,5d55029618ca41001c7c3583,,1669422,121,,evan-feature22,full_pf_b,,1
96,15463,122,,,,2,2,1.0,1.0,-1.0,0.0,,0.0-124.0,,-1.0,1815.0,1.0,0.353625316,1.0,0.75,1.0,0.695605473,1.0,0.38303674200000004,False,,5d55029618ca41001c7c3583,,1681008,122,,evan-feature22,full_pf_b,,0
97,15464,123,,,,2,2,1.0,0.0,0.0,1.0,,0.0-125.0,,0.0,1800.0,0.0,0.359216989,1.0,0.75,1.0,0.6987915090000001,0.0,0.35169046200000004,False,,5d55029618ca41001c7c3583,,1692581,123,,evan-feature22,full_pf_b,,0
98,15465,124,,,,1,1,0.0,0.0,-1.0,0.0,,0.0-126.0,,0.0,1398.0,0.0,0.35834496899999996,0.0,0.75,1.0,0.707067742,0.0,0.416763636,False,,5d55029618ca41001c7c3583,,1703756,124,,evan-feature22,full_pf_b,,1
99,15466,125,,,,1,1,0.0,1.0,-1.0,0.0,,0.0-127.0,,0.0,1205.0,0.0,0.38741613799999997,1.0,0.7177369570000001,1.0,0.734902455,0.0,0.49438664299999996,False,,5d55029618ca41001c7c3583,,1714731,125,,evan-feature22,full_pf_b,,0
100,15467,126,,,,2,2,1.0,0.0,0.0,1.0,,0.0-128.0,,0.0,1631.0,1.0,0.405255252,1.0,0.7300466640000001,1.0,0.7027748070000001,0.0,0.504359668,False,,5d55029618ca41001c7c3583,,1726130,126,,evan-feature22,full_pf_b,,1
101,15468,127,,,,1,1,0.0,1.0,0.0,1.0,,0.0-129.0,,1.0,1222.0,0.0,0.40697073,1.0,0.7260142190000001,1.0,0.724461982,1.0,0.522779179,False,,5d55029618ca41001c7c3583,,1737123,127,,evan-feature22,full_pf_b,,1
102,15469,128,,,,1,1,0.0,1.0,0.0,1.0,,0.0-130.0,,1.0,1108.0,0.0,0.43906215299999996,1.0,0.7252802340000001,1.0,0.719079934,0.0,0.5712990579999999,False,,5d55029618ca41001c7c3583,,1748004,128,,evan-feature22,full_pf_b,,0
103,15470,129,,,,1,1,0.0,1.0,0.0,1.0,,0.0-131.0,,1.0,862.0,0.0,0.4076705,1.0,0.73280499,1.0,0.681313127,0.0,0.523891346,False,,5d55029618ca41001c7c3583,,1758636,129,,evan-feature22,full_pf_b,,0
104,15471,130,,,,1,1,1.0,0.0,0.0,1.0,,0.0-132.0,,0.0,789.0,1.0,0.399102911,0.0,0.730498344,1.0,0.661080239,0.0,0.46742603,False,,5d55029618ca41001c7c3583,,1769202,130,,evan-feature22,full_pf_b,,0
105,15472,131,,,,2,2,1.0,0.0,-1.0,0.0,,0.0-133.0,,-1.0,1941.0,1.0,0.356477282,1.0,0.712296395,1.0,0.641812684,0.0,0.44868414,False,,5d55029618ca41001c7c3583,,1780914,131,,evan-feature22,full_pf_b,,1
106,15473,132,,,,1,1,1.0,0.0,0.0,1.0,,0.0-134.0,,0.0,1166.0,1.0,0.462760722,0.0,0.692349322,1.0,0.700947931,1.0,0.394680266,False,,5d55029618ca41001c7c3583,,1791850,132,,evan-feature22,full_pf_b,,1
107,15474,133,,,,2,2,1.0,0.0,0.0,1.0,,0.0-135.0,,0.0,705.0,0.0,0.422306413,0.0,0.718375916,1.0,0.706340917,0.0,0.367787185,False,,5d55029618ca41001c7c3583,,1802328,133,,evan-feature22,full_pf_b,,1
108,15476,135,,,,2,2,0.0,0.0,0.0,1.0,,0.0-137.0,,0.0,1082.0,1.0,0.4582233,1.0,0.643834117,0.0,0.75,0.0,0.39615823299999997,False,,5d55029618ca41001c7c3583,,1846700,135,,evan-feature22,full_pf_b,,0
109,15477,136,,,,1,1,0.0,1.0,0.0,1.0,,0.0-138.0,,1.0,990.0,0.0,0.43813437899999996,1.0,0.651283804,1.0,0.729674191,0.0,0.37711048,False,,5d55029618ca41001c7c3583,,1857461,136,,evan-feature22,full_pf_b,,1
110,15478,137,,,,1,1,0.0,0.0,0.0,1.0,,0.0-139.0,,0.0,962.0,0.0,0.471199094,0.0,0.6470010979999999,1.0,0.715008097,1.0,0.410656191,False,,5d55029618ca41001c7c3583,,1868198,137,,evan-feature22,full_pf_b,,0
111,15479,138,,,,1,1,1.0,1.0,-1.0,0.0,,0.0-140.0,,-1.0,1459.0,1.0,0.42486406,1.0,0.629771829,0.0,0.6550939960000001,1.0,0.459093873,False,,5d55029618ca41001c7c3583,,1879434,138,,evan-feature22,full_pf_b,,0
112,15480,139,,,,2,2,0.0,1.0,-1.0,0.0,,0.0-141.0,,0.0,1228.0,0.0,0.4803197,1.0,0.645842715,0.0,0.6421749920000001,1.0,0.443092151,False,,5d55029618ca41001c7c3583,,1890428,139,,evan-feature22,full_pf_b,,1
113,15481,140,,,,2,2,1.0,0.0,-1.0,0.0,,0.0-142.0,,-1.0,1219.0,0.0,0.521848997,1.0,0.735801074,1.0,0.6691348460000001,0.0,0.45259351600000003,False,,5d55029618ca41001c7c3583,,1901424,140,,evan-feature22,full_pf_b,,0
114,15482,141,,,,1,1,0.0,1.0,0.0,1.0,,0.0-143.0,,1.0,1140.0,0.0,0.49565621299999996,1.0,0.742400847,1.0,0.661512553,0.0,0.483110831,False,,5d55029618ca41001c7c3583,,1912337,141,,evan-feature22,full_pf_b,,1
115,15483,142,,,,2,2,1.0,1.0,-1.0,0.0,,0.0-144.0,,-1.0,1417.0,1.0,0.521564361,1.0,0.731078632,1.0,0.6774886809999999,1.0,0.483263956,False,,5d55029618ca41001c7c3583,,1923529,142,,evan-feature22,full_pf_b,,1
116,15484,143,,,,2,2,1.0,0.0,-1.0,0.0,,0.0-145.0,,-1.0,790.0,1.0,0.558893102,0.0,0.719810023,1.0,0.67461031,0.0,0.499349834,False,,5d55029618ca41001c7c3583,,1934086,143,,evan-feature22,full_pf_b,,0
117,15485,144,,,,1,1,1.0,0.0,0.0,1.0,,0.0-146.0,,0.0,1046.0,1.0,0.611031046,0.0,0.75,1.0,0.688072995,0.0,0.5321422729999999,False,,5d55029618ca41001c7c3583,,1944900,144,,evan-feature22,full_pf_b,,1
118,15486,145,,,,1,1,1.0,1.0,-1.0,0.0,,0.0-147.0,,-1.0,1652.0,1.0,0.633223941,1.0,0.713567728,1.0,0.75,1.0,0.48185314700000004,False,,5d55029618ca41001c7c3583,,1956315,145,,evan-feature22,full_pf_b,,0
119,15487,146,,,,1,1,1.0,1.0,-1.0,0.0,,0.0-148.0,,-1.0,1103.0,1.0,0.664001694,1.0,0.705509768,0.0,0.75,1.0,0.500211065,False,,5d55029618ca41001c7c3583,,1967186,146,,evan-feature22,full_pf_b,,0
120,15488,147,,,,2,2,1.0,0.0,0.0,1.0,,0.0-149.0,,0.0,684.0,0.0,0.664001694,1.0,0.705509768,1.0,0.75,0.0,0.500211065,False,,5d55029618ca41001c7c3583,,1977646,147,,evan-feature22,full_pf_b,,1
121,15489,148,,,,1,1,1.0,1.0,0.0,1.0,,0.0-150.0,,1.0,1054.0,1.0,0.696508041,1.0,0.71066027,1.0,0.717028709,1.0,0.49792991,False,,5d55029618ca41001c7c3583,,1988470,148,,evan-feature22,full_pf_b,,1
122,15490,149,,,,1,1,1.0,0.0,-1.0,0.0,,0.0-151.0,,-1.0,1143.0,1.0,0.699883272,0.0,0.75,1.0,0.713543895,1.0,0.496962643,False,,5d55029618ca41001c7c3583,,1999381,149,,evan-feature22,full_pf_b,,0
123,15491,150,,,,2,2,1.0,1.0,0.0,1.0,,0.0-152.0,,1.0,658.0,1.0,0.741163419,0.0,0.75,1.0,0.64691024,1.0,0.513858197,False,,5d55029618ca41001c7c3583,,2009803,150,,evan-feature22,full_pf_b,,1
124,15492,151,,,,1,1,1.0,1.0,-1.0,0.0,,0.0-153.0,,-1.0,1249.0,1.0,0.75,1.0,0.70816558,1.0,0.594499079,0.0,0.48502124,False,,5d55029618ca41001c7c3583,,2020827,151,,evan-feature22,full_pf_b,,1
125,15493,152,,,,2,2,0.0,1.0,0.0,1.0,,0.0-154.0,,1.0,1036.0,1.0,0.75,1.0,0.721848901,0.0,0.62197249,1.0,0.48263586399999997,False,,5d55029618ca41001c7c3583,,2031638,152,,evan-feature22,full_pf_b,,1
126,15494,153,,,,1,1,0.0,1.0,-1.0,0.0,,0.0-155.0,,0.0,881.0,0.0,0.75,1.0,0.74813071,0.0,0.584357161,0.0,0.411477782,False,,5d55029618ca41001c7c3583,,2042289,153,,evan-feature22,full_pf_b,,1
127,15495,154,,,,2,2,0.0,1.0,0.0,1.0,,0.0-156.0,,1.0,3884.0,1.0,0.75,1.0,0.75,0.0,0.52287236,1.0,0.488290656,False,,5d55029618ca41001c7c3583,,2055945,154,,evan-feature22,full_pf_b,,1
128,15496,155,,,,2,2,0.0,0.0,0.0,1.0,,0.0-157.0,,0.0,1194.0,1.0,0.75,1.0,0.75,0.0,0.544321581,0.0,0.53143059,False,,5d55029618ca41001c7c3583,,2066917,155,,evan-feature22,full_pf_b,,0
129,15497,156,,,,2,2,1.0,0.0,0.0,1.0,,0.0-158.0,,0.0,635.0,1.0,0.726754564,1.0,0.75,1.0,0.5129306370000001,0.0,0.530592445,False,,5d55029618ca41001c7c3583,,2077328,156,,evan-feature22,full_pf_b,,0
130,15498,157,,,,2,2,0.0,1.0,-1.0,0.0,,0.0-159.0,,0.0,1344.0,1.0,0.75,1.0,0.7392590729999999,0.0,0.479875835,1.0,0.547007051,False,,5d55029618ca41001c7c3583,,2088442,157,,evan-feature22,full_pf_b,,0
131,15499,158,,,,2,2,1.0,1.0,-1.0,0.0,,0.0-160.0,,-1.0,508.0,1.0,0.75,1.0,0.7393376979999999,1.0,0.546045419,1.0,0.541267353,False,,5d55029618ca41001c7c3583,,2098726,158,,evan-feature22,full_pf_b,,0
132,15500,159,,,,1,1,1.0,0.0,-1.0,0.0,,0.0-161.0,,-1.0,1202.0,1.0,0.75,0.0,0.75,0.0,0.485725895,0.0,0.527625395,False,,5d55029618ca41001c7c3583,,2109697,159,,evan-feature22,full_pf_b,,1
133,15501,160,,,,2,2,1.0,1.0,0.0,1.0,,0.0-162.0,,1.0,1543.0,1.0,0.75,0.0,0.725087974,1.0,0.488603595,1.0,0.504019206,False,,5d55029618ca41001c7c3583,,2121011,160,,evan-feature22,full_pf_b,,1
134,15502,161,,,,2,2,0.0,1.0,0.0,1.0,,0.0-163.0,,1.0,646.0,0.0,0.745504295,1.0,0.75,0.0,0.452379914,1.0,0.50131194,False,,5d55029618ca41001c7c3583,,2131434,161,,evan-feature22,full_pf_b,,0
135,15503,162,,,,2,2,0.0,1.0,0.0,1.0,,0.0-164.0,,1.0,674.0,1.0,0.728513874,1.0,0.75,0.0,0.44125567200000004,1.0,0.531454591,False,,5d55029618ca41001c7c3583,,2141877,162,,evan-feature22,full_pf_b,,0
136,15504,163,,,,1,1,0.0,0.0,-1.0,0.0,,0.0-165.0,,0.0,814.0,0.0,0.73790804,0.0,0.75,1.0,0.413036656,0.0,0.524619035,False,,5d55029618ca41001c7c3583,,2152466,163,,evan-feature22,full_pf_b,,1
137,15505,164,,,,2,2,1.0,0.0,0.0,1.0,,0.0-166.0,,0.0,704.0,1.0,0.7080961309999999,0.0,0.708666865,1.0,0.431915581,0.0,0.481819489,False,,5d55029618ca41001c7c3583,,2162943,164,,evan-feature22,full_pf_b,,1
138,15506,165,,,,1,1,1.0,1.0,0.0,1.0,,0.0-167.0,,1.0,621.0,1.0,0.721378003,1.0,0.71605913,1.0,0.36642387,1.0,0.5036739929999999,False,,5d55029618ca41001c7c3583,,2173335,165,,evan-feature22,full_pf_b,,1
139,15507,166,,,,1,1,0.0,1.0,0.0,1.0,,0.0-168.0,,1.0,1561.0,0.0,0.7340618959999999,1.0,0.699323252,1.0,0.35298046299999997,1.0,0.511241692,False,,5d55029618ca41001c7c3583,,2184672,166,,evan-feature22,full_pf_b,,0
140,15508,167,,,,1,1,1.0,0.0,-1.0,0.0,,0.0-169.0,,-1.0,1335.0,1.0,0.75,0.0,0.70412698,1.0,0.380734814,1.0,0.529580116,False,,5d55029618ca41001c7c3583,,2195779,167,,evan-feature22,full_pf_b,,0
141,15509,168,,,,2,2,0.0,0.0,0.0,1.0,,0.0-170.0,,0.0,687.0,1.0,0.7436654909999999,1.0,0.711182751,0.0,0.41125331,0.0,0.49554405,False,,5d55029618ca41001c7c3583,,2206238,168,,evan-feature22,full_pf_b,,1
142,15510,169,,,,2,2,0.0,0.0,0.0,1.0,,0.0-171.0,,0.0,716.0,1.0,0.731607915,1.0,0.651774583,0.0,0.35688023,0.0,0.45194491600000003,False,,5d55029618ca41001c7c3583,,2216725,169,,evan-feature22,full_pf_b,,0
143,15511,170,,,,2,2,1.0,0.0,-1.0,0.0,,0.0-172.0,,-1.0,861.0,1.0,0.75,1.0,0.75,1.0,0.283145374,0.0,0.528608005,False,,5d55029618ca41001c7c3583,,2227359,170,,evan-feature22,full_pf_b,,0
144,15512,171,,,,2,2,0.0,1.0,-1.0,0.0,,0.0-173.0,,0.0,1726.0,0.0,0.7491416890000001,1.0,0.7423785959999999,0.0,0.29135870399999997,1.0,0.498888318,False,,5d55029618ca41001c7c3583,,2238862,171,,evan-feature22,full_pf_b,,0
145,15513,172,,,,2,2,0.0,0.0,-1.0,0.0,,0.0-174.0,,0.0,925.0,1.0,0.708569387,1.0,0.717682277,0.0,0.294421699,0.0,0.493838163,False,,5d55029618ca41001c7c3583,,2249561,172,,evan-feature22,full_pf_b,,0
146,15514,173,,,,2,2,1.0,0.0,0.0,1.0,,0.0-175.0,,0.0,1010.0,1.0,0.75,1.0,0.7383382159999999,1.0,0.356098707,0.0,0.442533405,False,,5d55029618ca41001c7c3583,,2260337,173,,evan-feature22,full_pf_b,,0
147,15515,174,,,,1,1,0.0,1.0,0.0,1.0,,0.0-176.0,,1.0,1094.0,0.0,0.744527075,1.0,0.75,0.0,0.334127506,1.0,0.393165805,False,,5d55029618ca41001c7c3583,,2271208,174,,evan-feature22,full_pf_b,,1
148,15516,175,,,,1,1,1.0,1.0,0.0,1.0,,0.0-177.0,,1.0,1244.0,1.0,0.75,1.0,0.75,1.0,0.33571021799999995,0.0,0.350393962,False,,5d55029618ca41001c7c3583,,2282223,175,,evan-feature22,full_pf_b,,0
149,15517,176,,,,1,1,0.0,1.0,0.0,1.0,,0.0-178.0,,1.0,784.0,0.0,0.75,1.0,0.75,0.0,0.313628297,1.0,0.36349657399999996,False,,5d55029618ca41001c7c3583,,2292777,176,,evan-feature22,full_pf_b,,0
150,15518,177,,,,2,2,0.0,1.0,-1.0,0.0,,0.0-179.0,,0.0,766.0,1.0,0.75,0.0,0.734284182,0.0,0.262667667,1.0,0.380199119,False,,5d55029618ca41001c7c3583,,2303313,177,,evan-feature22,full_pf_b,,1
151,15519,178,,,,2,2,0.0,0.0,0.0,1.0,,0.0-180.0,,0.0,991.0,1.0,0.75,1.0,0.75,0.0,0.25,0.0,0.394494013,False,,5d55029618ca41001c7c3583,,2314082,178,,evan-feature22,full_pf_b,,0
152,15520,179,,,,2,2,0.0,0.0,-1.0,0.0,,0.0-181.0,,0.0,1224.0,0.0,0.722298145,1.0,0.7357822340000001,0.0,0.25,0.0,0.319142121,False,,5d55029618ca41001c7c3583,,2325074,179,,evan-feature22,full_pf_b,,0
153,15521,180,,,,1,1,1.0,1.0,-1.0,0.0,,0.0-182.0,,-1.0,1557.0,1.0,0.73149275,1.0,0.724276446,0.0,0.305856907,0.0,0.281315057,False,,5d55029618ca41001c7c3583,,2336408,180,,evan-feature22,full_pf_b,,1
154,15522,181,,,,2,2,0.0,1.0,0.0,1.0,,0.0-183.0,,1.0,1089.0,1.0,0.7458732690000001,1.0,0.7336382459999999,0.0,0.272571964,1.0,0.266021999,False,,5d55029618ca41001c7c3583,,2347272,181,,evan-feature22,full_pf_b,,1
155,15523,182,,,,2,2,1.0,0.0,0.0,1.0,,0.0-184.0,,0.0,715.0,1.0,0.705579037,1.0,0.720778292,1.0,0.320238144,0.0,0.30971744,False,,5d55029618ca41001c7c3583,,2357762,182,,evan-feature22,full_pf_b,,0
156,15524,183,,,,1,1,1.0,1.0,0.0,1.0,,0.0-185.0,,1.0,1155.0,1.0,0.700425648,1.0,0.7198784009999999,0.0,0.272590393,0.0,0.304182931,False,,5d55029618ca41001c7c3583,,2368692,183,,evan-feature22,full_pf_b,,1
157,15525,184,,,,1,1,0.0,0.0,0.0,1.0,,0.0-186.0,,0.0,769.0,0.0,0.735590785,0.0,0.722714973,0.0,0.25,1.0,0.323421091,False,,5d55029618ca41001c7c3583,,2379234,184,,evan-feature22,full_pf_b,,0
158,15526,185,,,,2,2,0.0,1.0,0.0,1.0,,0.0-187.0,,1.0,1245.0,0.0,0.724807662,0.0,0.63146213,0.0,0.36836492600000004,1.0,0.34592153299999995,False,,5d55029618ca41001c7c3583,,2390253,185,,evan-feature22,full_pf_b,,1
159,15527,186,,,,2,2,0.0,0.0,0.0,1.0,,0.0-188.0,,0.0,821.0,1.0,0.7352796909999999,0.0,0.555111392,0.0,0.36003922,0.0,0.31433779999999995,False,,5d55029618ca41001c7c3583,,2400847,186,,evan-feature22,full_pf_b,,0
160,15528,187,notice,,,,,,,,,,0.0-189.0,"{""Q0"":""More doors had no aliens""}",,25152.0,,,,,,,,,False,,5d55029618ca41001c7c3583,,2426000,187,Q,survey-text,full_pf_b,,1
161,15529,188,track1,,[],,,,,,,,0.0-190.0,"{""Q0"":""""}",,227.0,,,,,,,,,False,,5d55029618ca41001c7c3583,,2426228,188,Q,evan-quiz,full_pf_b,,1
162,15530,189,track2,,[1],,,,,,,,0.0-191.0,"{""Q0"":""no""}",,12176.0,,,,,,,,,False,,5d55029618ca41001c7c3583,,2438404,189,Q,evan-quiz,full_pf_b,,1
163,15531,190,strat,,,,,,,,,,0.0-192.0,"{""Q0"":""used the last door and the aliens in there to base my decision on for the next door, based on whether I was looking for a yellow or black based on the points""}",,38724.0,,,,,,,,,False,,5d55029618ca41001c7c3583,,2477129,190,Q,survey-text,full_pf_b,,1
