,index,Unnamed: 0,Q_name,button_pressed,choice_idxs,chosen_pos,chosen_state,chosen_state_f_1_outcome,chosen_state_f_2_outcome,f_1_reward,f_2_reward,incor_questions,internal_node_id,responses,reward_received,rt,s_1_f_1_outcome,s_1_f_1_prob,s_1_f_2_outcome,s_1_f_2_prob,s_2_f_1_outcome,s_2_f_1_prob,s_2_f_2_outcome,s_2_f_2_prob,safe_first,stimulus,subjectID,success,time_elapsed,trial_index,trial_num,trial_type,version,view_history,switching
0,25205,30,,,,SLOW,SLOW,,,-1.0,0.0,,0.0-27.0,,-3.0,,0.0,0.6,1.0,0.6,0.0,0.4,0.0,0.4,False,,5e3de55071cf2606b45c50a6,,504283,30,,evan-feature22,full_pf_b,,0
1,25206,31,,,,2,2,1.0,0.0,-1.0,0.0,,0.0-28.0,,-1.0,1761.0,0.0,0.608053294,1.0,0.63424552,1.0,0.397152172,0.0,0.347069101,False,,5e3de55071cf2606b45c50a6,,515852,31,,evan-feature22,full_pf_b,,1
2,25207,32,,,,2,2,1.0,0.0,-1.0,0.0,,0.0-29.0,,-1.0,1442.0,1.0,0.642237155,0.0,0.648566321,1.0,0.389407674,0.0,0.285525717,False,,5e3de55071cf2606b45c50a6,,527134,32,,evan-feature22,full_pf_b,,0
3,25208,33,,,,2,2,1.0,0.0,-1.0,0.0,,0.0-30.0,,-1.0,1088.0,1.0,0.661086576,1.0,0.630492543,1.0,0.399058924,0.0,0.25,False,,5e3de55071cf2606b45c50a6,,538021,33,,evan-feature22,full_pf_b,,0
4,25209,34,,,,2,2,0.0,1.0,0.0,1.0,,0.0-31.0,,1.0,1137.0,0.0,0.631324137,1.0,0.6269842929999999,0.0,0.38734784299999997,1.0,0.25,False,,5e3de55071cf2606b45c50a6,,548946,34,,evan-feature22,full_pf_b,,0
5,25210,35,,,,2,2,1.0,0.0,0.0,1.0,,0.0-32.0,,0.0,1131.0,1.0,0.6381991370000001,0.0,0.68987999,1.0,0.384107265,0.0,0.271332943,False,,5e3de55071cf2606b45c50a6,,559890,35,,evan-feature22,full_pf_b,,0
6,25211,36,,,,1,1,0.0,0.0,-1.0,0.0,,0.0-33.0,,0.0,1777.0,0.0,0.66034901,0.0,0.742641349,1.0,0.360225629,0.0,0.25,False,,5e3de55071cf2606b45c50a6,,571473,36,,evan-feature22,full_pf_b,,1
7,25212,37,,,,2,2,0.0,0.0,-1.0,0.0,,0.0-34.0,,0.0,1840.0,0.0,0.638612418,1.0,0.75,0.0,0.367273939,0.0,0.25,False,,5e3de55071cf2606b45c50a6,,583137,37,,evan-feature22,full_pf_b,,1
8,25213,38,,,,SLOW,SLOW,,,0.0,1.0,,0.0-35.0,,-3.0,,1.0,0.624340629,1.0,0.75,1.0,0.425829545,0.0,0.25,False,,5e3de55071cf2606b45c50a6,,588955,38,,evan-feature22,full_pf_b,,1
9,25214,39,,,,2,2,1.0,0.0,0.0,1.0,,0.0-36.0,,0.0,3047.0,1.0,0.621999804,1.0,0.75,1.0,0.368609357,0.0,0.25,False,,5e3de55071cf2606b45c50a6,,601817,39,,evan-feature22,full_pf_b,,1
10,25215,40,,,,2,2,0.0,0.0,-1.0,0.0,,0.0-37.0,,0.0,1232.0,1.0,0.62666403,1.0,0.75,0.0,0.311151498,0.0,0.25,False,,5e3de55071cf2606b45c50a6,,612867,40,,evan-feature22,full_pf_b,,0
11,25216,41,,,,2,2,0.0,0.0,0.0,1.0,,0.0-38.0,,0.0,1018.0,1.0,0.6819650009999999,0.0,0.75,0.0,0.310763048,0.0,0.25,False,,5e3de55071cf2606b45c50a6,,623666,41,,evan-feature22,full_pf_b,,0
12,25217,42,,,,2,2,0.0,0.0,-1.0,0.0,,0.0-39.0,,0.0,1263.0,1.0,0.740626951,1.0,0.75,0.0,0.25,0.0,0.25,False,,5e3de55071cf2606b45c50a6,,634741,42,,evan-feature22,full_pf_b,,0
13,25218,43,,,,2,2,0.0,0.0,-1.0,0.0,,0.0-40.0,,0.0,1826.0,1.0,0.739599242,1.0,0.742034978,0.0,0.25397114600000004,0.0,0.25,False,,5e3de55071cf2606b45c50a6,,646387,43,,evan-feature22,full_pf_b,,0
14,25219,44,,,,1,1,0.0,0.0,-1.0,0.0,,0.0-41.0,,0.0,1676.0,0.0,0.732341315,0.0,0.72735643,1.0,0.25,0.0,0.25,False,,5e3de55071cf2606b45c50a6,,657866,44,,evan-feature22,full_pf_b,,1
15,25220,45,,,,1,1,0.0,0.0,-1.0,0.0,,0.0-42.0,,0.0,2526.0,0.0,0.7062287770000001,0.0,0.75,0.0,0.29002151,1.0,0.288256649,False,,5e3de55071cf2606b45c50a6,,670176,45,,evan-feature22,full_pf_b,,0
16,25221,46,,,,1,1,0.0,1.0,-1.0,0.0,,0.0-43.0,,0.0,2255.0,0.0,0.7086029209999999,1.0,0.75,1.0,0.274129113,0.0,0.262851608,False,,5e3de55071cf2606b45c50a6,,682233,46,,evan-feature22,full_pf_b,,0
17,25222,47,,,,1,1,0.0,1.0,-1.0,0.0,,0.0-44.0,,0.0,1286.0,0.0,0.669189651,1.0,0.727614338,0.0,0.298444036,1.0,0.296944518,False,,5e3de55071cf2606b45c50a6,,693323,47,,evan-feature22,full_pf_b,,0
18,25223,48,,,,1,1,1.0,1.0,-1.0,0.0,,0.0-45.0,,-1.0,1732.0,1.0,0.6819912929999999,1.0,0.7179434290000001,1.0,0.265003961,0.0,0.28157921199999997,False,,5e3de55071cf2606b45c50a6,,704850,48,,evan-feature22,full_pf_b,,0
19,25224,49,,,,2,2,0.0,1.0,0.0,1.0,,0.0-46.0,,1.0,1581.0,1.0,0.665275002,1.0,0.723065271,0.0,0.260414971,1.0,0.30973870000000003,False,,5e3de55071cf2606b45c50a6,,716252,49,,evan-feature22,full_pf_b,,1
20,25225,50,,,,2,2,1.0,0.0,-1.0,0.0,,0.0-47.0,,-1.0,3490.0,1.0,0.6660593260000001,1.0,0.728032907,1.0,0.30922817,0.0,0.338778608,False,,5e3de55071cf2606b45c50a6,,729547,50,,evan-feature22,full_pf_b,,0
21,25226,51,,,,1,1,0.0,1.0,-1.0,0.0,,0.0-48.0,,0.0,1665.0,0.0,0.702068785,1.0,0.6528750879999999,1.0,0.287329608,1.0,0.35789613200000003,False,,5e3de55071cf2606b45c50a6,,741003,51,,evan-feature22,full_pf_b,,1
22,25227,52,,,,1,1,0.0,1.0,-1.0,0.0,,0.0-49.0,,0.0,1827.0,0.0,0.651939787,1.0,0.636725589,0.0,0.284834488,0.0,0.358563756,False,,5e3de55071cf2606b45c50a6,,752641,52,,evan-feature22,full_pf_b,,0
23,25228,53,,,,1,1,1.0,1.0,0.0,1.0,,0.0-50.0,,1.0,2560.0,1.0,0.67573929,1.0,0.612550049,1.0,0.37130387600000003,1.0,0.383542402,False,,5e3de55071cf2606b45c50a6,,765019,53,,evan-feature22,full_pf_b,,0
24,25229,54,,,,1,1,0.0,1.0,0.0,1.0,,0.0-51.0,,1.0,1700.0,0.0,0.620753801,1.0,0.60513644,1.0,0.385529434,0.0,0.340361743,False,,5e3de55071cf2606b45c50a6,,776523,54,,evan-feature22,full_pf_b,,0
25,25230,55,,,,1,1,0.0,0.0,0.0,1.0,,0.0-52.0,,0.0,1958.0,0.0,0.673564893,0.0,0.672437924,0.0,0.292955382,1.0,0.337633795,False,,5e3de55071cf2606b45c50a6,,788293,55,,evan-feature22,full_pf_b,,0
26,25231,56,,,,1,1,0.0,1.0,-1.0,0.0,,0.0-53.0,,0.0,2105.0,0.0,0.6749427,1.0,0.724197502,0.0,0.32391132100000003,0.0,0.350995264,False,,5e3de55071cf2606b45c50a6,,800196,56,,evan-feature22,full_pf_b,,0
27,25232,57,,,,1,1,1.0,1.0,-1.0,0.0,,0.0-54.0,,-1.0,1477.0,1.0,0.6940159379999999,1.0,0.75,0.0,0.31710554399999996,0.0,0.413450341,False,,5e3de55071cf2606b45c50a6,,811481,57,,evan-feature22,full_pf_b,,0
28,25233,58,,,,2,2,0.0,1.0,-1.0,0.0,,0.0-55.0,,0.0,1364.0,1.0,0.6916018270000001,1.0,0.69001187,0.0,0.261817804,1.0,0.40038635,False,,5e3de55071cf2606b45c50a6,,822625,58,,evan-feature22,full_pf_b,,1
29,25234,59,,,,SLOW,SLOW,,,-1.0,0.0,,0.0-56.0,,-3.0,,0.0,0.641061544,1.0,0.71337992,0.0,0.277296461,1.0,0.47372791700000005,False,,5e3de55071cf2606b45c50a6,,828485,59,,evan-feature22,full_pf_b,,1
30,25235,60,,,,SLOW,SLOW,,,-1.0,0.0,,0.0-57.0,,-3.0,,0.0,0.6082438520000001,1.0,0.708471106,1.0,0.28745137,0.0,0.564174476,False,,5e3de55071cf2606b45c50a6,,834312,60,,evan-feature22,full_pf_b,,0
31,25236,61,,,,SLOW,SLOW,,,-1.0,0.0,,0.0-58.0,,-3.0,,1.0,0.6051112120000001,0.0,0.7118147229999999,0.0,0.272390611,1.0,0.5595149939999999,False,,5e3de55071cf2606b45c50a6,,840128,61,,evan-feature22,full_pf_b,,0
32,25237,62,,,,SLOW,SLOW,,,-1.0,0.0,,0.0-59.0,,-3.0,,1.0,0.582420852,1.0,0.635867583,0.0,0.31089574,0.0,0.5227206520000001,False,,5e3de55071cf2606b45c50a6,,845963,62,,evan-feature22,full_pf_b,,0
33,25238,63,,,,SLOW,SLOW,,,0.0,1.0,,0.0-60.0,,-3.0,,1.0,0.623195575,1.0,0.655026044,0.0,0.25,0.0,0.560387538,False,,5e3de55071cf2606b45c50a6,,851797,63,,evan-feature22,full_pf_b,,0
34,25239,64,,,,SLOW,SLOW,,,-1.0,0.0,,0.0-61.0,,-3.0,,1.0,0.601889598,1.0,0.678198724,0.0,0.25,0.0,0.559922936,False,,5e3de55071cf2606b45c50a6,,857616,64,,evan-feature22,full_pf_b,,0
35,25240,65,,,,2,2,1.0,1.0,-1.0,0.0,,0.0-62.0,,-1.0,3374.0,1.0,0.601259914,1.0,0.704681482,1.0,0.33908969299999997,1.0,0.505003715,False,,5e3de55071cf2606b45c50a6,,870767,65,,evan-feature22,full_pf_b,,1
36,25241,66,,,,1,1,1.0,1.0,-1.0,0.0,,0.0-63.0,,-1.0,1737.0,1.0,0.59645454,1.0,0.710437172,0.0,0.327441879,1.0,0.391749613,False,,5e3de55071cf2606b45c50a6,,882324,66,,evan-feature22,full_pf_b,,1
37,25242,67,,,,2,2,0.0,0.0,-1.0,0.0,,0.0-64.0,,0.0,1331.0,1.0,0.529473,1.0,0.636758527,0.0,0.301338063,0.0,0.365661481,False,,5e3de55071cf2606b45c50a6,,893494,67,,evan-feature22,full_pf_b,,1
38,25243,68,,,,2,2,0.0,1.0,0.0,1.0,,0.0-65.0,,1.0,1740.0,0.0,0.541657162,0.0,0.634541962,0.0,0.343535366,1.0,0.371763742,False,,5e3de55071cf2606b45c50a6,,905052,68,,evan-feature22,full_pf_b,,0
39,25244,69,,,,2,2,0.0,1.0,-1.0,0.0,,0.0-66.0,,0.0,350.0,0.0,0.5707533260000001,0.0,0.589121171,0.0,0.326428396,1.0,0.43961622899999997,False,,5e3de55071cf2606b45c50a6,,915191,69,,evan-feature22,full_pf_b,,0
40,25245,70,,,,2,2,0.0,0.0,-1.0,0.0,,0.0-67.0,,0.0,413.0,1.0,0.5707533260000001,1.0,0.589121171,0.0,0.326428396,0.0,0.43961622899999997,False,,5e3de55071cf2606b45c50a6,,925411,70,,evan-feature22,full_pf_b,,0
41,25246,71,,,,2,2,0.0,0.0,-1.0,0.0,,0.0-68.0,,0.0,1112.0,0.0,0.506271295,1.0,0.641775594,0.0,0.37149690700000004,0.0,0.404330166,False,,5e3de55071cf2606b45c50a6,,936317,71,,evan-feature22,full_pf_b,,0
42,25247,72,,,,1,1,1.0,1.0,0.0,1.0,,0.0-69.0,,1.0,1954.0,1.0,0.455642565,1.0,0.623605825,0.0,0.358753011,0.0,0.346174041,False,,5e3de55071cf2606b45c50a6,,948056,72,,evan-feature22,full_pf_b,,1
43,25248,73,,,,1,1,1.0,1.0,0.0,1.0,,0.0-70.0,,1.0,507.0,1.0,0.483677308,1.0,0.5904681070000001,1.0,0.402218411,0.0,0.35344697,False,,5e3de55071cf2606b45c50a6,,958375,73,,evan-feature22,full_pf_b,,0
44,25249,74,,,,1,1,0.0,1.0,0.0,1.0,,0.0-71.0,,1.0,939.0,0.0,0.394210977,1.0,0.558925494,0.0,0.540052017,1.0,0.35182128700000004,False,,5e3de55071cf2606b45c50a6,,969118,74,,evan-feature22,full_pf_b,,0
45,25250,75,,,,1,1,1.0,1.0,-1.0,0.0,,0.0-72.0,,-1.0,1200.0,1.0,0.382300414,1.0,0.577670603,0.0,0.607608448,0.0,0.378261578,False,,5e3de55071cf2606b45c50a6,,980108,75,,evan-feature22,full_pf_b,,0
46,25251,76,,,,2,2,1.0,0.0,-1.0,0.0,,0.0-73.0,,-1.0,1180.0,0.0,0.357596762,1.0,0.5929076529999999,1.0,0.6579790010000001,0.0,0.401326777,False,,5e3de55071cf2606b45c50a6,,991084,76,,evan-feature22,full_pf_b,,1
47,25252,77,,,,1,1,0.0,0.0,-1.0,0.0,,0.0-74.0,,0.0,1761.0,0.0,0.362033495,0.0,0.582308608,0.0,0.649195052,1.0,0.355158505,False,,5e3de55071cf2606b45c50a6,,1002658,77,,evan-feature22,full_pf_b,,1
48,25253,78,,,,2,2,1.0,0.0,-1.0,0.0,,0.0-75.0,,-1.0,2219.0,1.0,0.369620635,1.0,0.669100864,1.0,0.706059111,0.0,0.362516241,False,,5e3de55071cf2606b45c50a6,,1014727,78,,evan-feature22,full_pf_b,,1
49,25254,79,,,,2,2,1.0,0.0,-1.0,0.0,,0.0-76.0,,-1.0,1336.0,1.0,0.41477751399999996,0.0,0.7284416779999999,1.0,0.7182656940000001,0.0,0.36228040899999997,False,,5e3de55071cf2606b45c50a6,,1025886,79,,evan-feature22,full_pf_b,,0
50,25255,80,,,,1,1,1.0,0.0,0.0,1.0,,0.0-77.0,,0.0,1697.0,1.0,0.37675460299999997,0.0,0.703250285,1.0,0.75,0.0,0.461979164,False,,5e3de55071cf2606b45c50a6,,1037380,80,,evan-feature22,full_pf_b,,1
51,25256,81,,,,1,1,0.0,1.0,0.0,1.0,,0.0-78.0,,1.0,1322.0,0.0,0.398716075,1.0,0.6723864890000001,0.0,0.674153818,1.0,0.519029516,False,,5e3de55071cf2606b45c50a6,,1048517,81,,evan-feature22,full_pf_b,,0
52,25257,82,,,,1,1,0.0,1.0,-1.0,0.0,,0.0-79.0,,0.0,1072.0,0.0,0.34677856700000004,1.0,0.69057175,1.0,0.6822438540000001,1.0,0.477292237,False,,5e3de55071cf2606b45c50a6,,1059403,82,,evan-feature22,full_pf_b,,0
53,25258,83,,,,1,1,1.0,0.0,0.0,1.0,,0.0-80.0,,0.0,1040.0,1.0,0.28580469199999997,0.0,0.68408818,1.0,0.684207565,1.0,0.49780448299999996,False,,5e3de55071cf2606b45c50a6,,1070324,83,,evan-feature22,full_pf_b,,0
54,25260,85,,,,2,2,1.0,1.0,-1.0,0.0,,0.0-82.0,,-1.0,2221.0,0.0,0.25,0.0,0.7405808970000001,1.0,0.679614108,1.0,0.436436964,False,,5e3de55071cf2606b45c50a6,,1087020,85,,evan-feature22,full_pf_b,,1
55,25261,86,,,,2,2,1.0,1.0,0.0,1.0,,0.0-83.0,,1.0,1804.0,0.0,0.29890393,1.0,0.730505706,1.0,0.7328203320000001,1.0,0.439256938,False,,5e3de55071cf2606b45c50a6,,1098610,86,,evan-feature22,full_pf_b,,0
56,25262,87,,,,1,1,1.0,0.0,-1.0,0.0,,0.0-84.0,,-1.0,1340.0,1.0,0.326762398,0.0,0.7148059609999999,0.0,0.75,1.0,0.44389608799999997,False,,5e3de55071cf2606b45c50a6,,1109732,87,,evan-feature22,full_pf_b,,1
57,25263,88,,,,2,2,1.0,0.0,-1.0,0.0,,0.0-85.0,,-1.0,2004.0,0.0,0.295168515,1.0,0.739760854,1.0,0.719947008,0.0,0.35277284600000003,False,,5e3de55071cf2606b45c50a6,,1121552,88,,evan-feature22,full_pf_b,,1
58,25264,89,,,,1,1,0.0,1.0,-1.0,0.0,,0.0-86.0,,0.0,2174.0,0.0,0.25,1.0,0.70781482,1.0,0.75,0.0,0.286095925,False,,5e3de55071cf2606b45c50a6,,1133549,89,,evan-feature22,full_pf_b,,1
59,25265,90,,,,1,1,0.0,1.0,0.0,1.0,,0.0-87.0,,1.0,994.0,0.0,0.25638190899999996,1.0,0.704088163,1.0,0.75,0.0,0.26872601399999996,False,,5e3de55071cf2606b45c50a6,,1144338,90,,evan-feature22,full_pf_b,,0
60,25266,91,,,,1,1,1.0,1.0,0.0,1.0,,0.0-88.0,,1.0,2168.0,1.0,0.271581126,1.0,0.669760107,1.0,0.733896663,0.0,0.273244572,False,,5e3de55071cf2606b45c50a6,,1156296,91,,evan-feature22,full_pf_b,,0
61,25267,92,,,,1,1,0.0,1.0,0.0,1.0,,0.0-89.0,,1.0,555.0,0.0,0.257144401,1.0,0.600575706,1.0,0.74488122,1.0,0.25,False,,5e3de55071cf2606b45c50a6,,1166639,92,,evan-feature22,full_pf_b,,0
62,25268,93,,,,1,1,0.0,1.0,-1.0,0.0,,0.0-90.0,,0.0,830.0,0.0,0.25,1.0,0.616870026,0.0,0.723610234,1.0,0.25,False,,5e3de55071cf2606b45c50a6,,1177285,93,,evan-feature22,full_pf_b,,0
63,25269,94,,,,1,1,0.0,0.0,0.0,1.0,,0.0-91.0,,0.0,787.0,0.0,0.25,0.0,0.583540187,1.0,0.7041042559999999,0.0,0.285961995,False,,5e3de55071cf2606b45c50a6,,1187883,94,,evan-feature22,full_pf_b,,0
64,25270,95,,,,1,1,0.0,1.0,-1.0,0.0,,0.0-92.0,,0.0,1052.0,0.0,0.27254536,1.0,0.53875765,1.0,0.693783448,0.0,0.284961652,False,,5e3de55071cf2606b45c50a6,,1198748,95,,evan-feature22,full_pf_b,,0
65,25271,96,,,,1,1,0.0,0.0,0.0,1.0,,0.0-93.0,,0.0,609.0,0.0,0.25,0.0,0.548431252,1.0,0.734221895,0.0,0.279445214,False,,5e3de55071cf2606b45c50a6,,1209152,96,,evan-feature22,full_pf_b,,0
66,25272,97,,,,1,1,0.0,0.0,-1.0,0.0,,0.0-94.0,,0.0,1128.0,0.0,0.258640684,0.0,0.545878066,1.0,0.725245965,0.0,0.31487537,False,,5e3de55071cf2606b45c50a6,,1220099,97,,evan-feature22,full_pf_b,,0
67,25273,98,,,,1,1,0.0,1.0,-1.0,0.0,,0.0-95.0,,0.0,987.0,0.0,0.251103711,1.0,0.5776290629999999,1.0,0.696320133,0.0,0.317831047,False,,5e3de55071cf2606b45c50a6,,1230878,98,,evan-feature22,full_pf_b,,0
68,25274,99,,,,1,1,1.0,1.0,-1.0,0.0,,0.0-96.0,,-1.0,750.0,1.0,0.276630292,1.0,0.617329858,0.0,0.73838088,0.0,0.261471582,False,,5e3de55071cf2606b45c50a6,,1241416,99,,evan-feature22,full_pf_b,,0
69,25275,100,,,,1,1,0.0,0.0,0.0,1.0,,0.0-97.0,,0.0,2869.0,0.0,0.297716424,0.0,0.618863717,1.0,0.7402358259999999,0.0,0.262600834,False,,5e3de55071cf2606b45c50a6,,1254088,100,,evan-feature22,full_pf_b,,0
70,25276,101,,,,1,1,0.0,1.0,-1.0,0.0,,0.0-98.0,,0.0,1463.0,0.0,0.290935512,1.0,0.695370945,1.0,0.706570507,0.0,0.280030553,False,,5e3de55071cf2606b45c50a6,,1265373,101,,evan-feature22,full_pf_b,,0
71,25277,102,,,,1,1,1.0,1.0,-1.0,0.0,,0.0-99.0,,-1.0,1451.0,1.0,0.25,1.0,0.6465277079999999,1.0,0.67766682,0.0,0.25,False,,5e3de55071cf2606b45c50a6,,1276631,102,,evan-feature22,full_pf_b,,0
72,25278,103,,,,1,1,0.0,0.0,-1.0,0.0,,0.0-100.0,,0.0,870.0,0.0,0.26463816,0.0,0.636100213,1.0,0.646048507,0.0,0.265607101,False,,5e3de55071cf2606b45c50a6,,1287307,103,,evan-feature22,full_pf_b,,0
73,25279,104,,,,1,1,0.0,1.0,-1.0,0.0,,0.0-101.0,,0.0,609.0,0.0,0.314340707,1.0,0.667795927,1.0,0.613630805,0.0,0.25,False,,5e3de55071cf2606b45c50a6,,1297721,104,,evan-feature22,full_pf_b,,0
74,25280,105,,,,1,1,0.0,1.0,-1.0,0.0,,0.0-102.0,,0.0,1601.0,0.0,0.28685784,1.0,0.6622549529999999,1.0,0.652154117,0.0,0.25,False,,5e3de55071cf2606b45c50a6,,1309179,105,,evan-feature22,full_pf_b,,0
75,25281,106,,,,1,1,0.0,1.0,0.0,1.0,,0.0-103.0,,1.0,1155.0,0.0,0.304106554,1.0,0.631289538,0.0,0.707041942,0.0,0.29314237,False,,5e3de55071cf2606b45c50a6,,1320142,106,,evan-feature22,full_pf_b,,0
76,25282,107,,,,1,1,0.0,1.0,0.0,1.0,,0.0-104.0,,1.0,742.0,0.0,0.304806932,1.0,0.571167718,1.0,0.680472346,1.0,0.25,False,,5e3de55071cf2606b45c50a6,,1330684,107,,evan-feature22,full_pf_b,,0
77,25283,108,,,,1,1,0.0,0.0,0.0,1.0,,0.0-105.0,,0.0,554.0,0.0,0.37919861,0.0,0.5724849710000001,0.0,0.705638003,0.0,0.30179300600000003,False,,5e3de55071cf2606b45c50a6,,1341033,108,,evan-feature22,full_pf_b,,0
78,25284,109,,,,1,1,0.0,1.0,0.0,1.0,,0.0-106.0,,1.0,565.0,0.0,0.464277969,1.0,0.554034373,1.0,0.7372627340000001,1.0,0.264699741,False,,5e3de55071cf2606b45c50a6,,1351400,109,,evan-feature22,full_pf_b,,0
79,25285,110,,,,1,1,0.0,0.0,-1.0,0.0,,0.0-107.0,,0.0,1218.0,0.0,0.465104323,0.0,0.530793115,1.0,0.75,1.0,0.31683071,False,,5e3de55071cf2606b45c50a6,,1362433,110,,evan-feature22,full_pf_b,,0
80,25286,111,,,,1,1,0.0,1.0,0.0,1.0,,0.0-108.0,,1.0,1132.0,0.0,0.465104323,1.0,0.530793115,1.0,0.75,0.0,0.31683071,False,,5e3de55071cf2606b45c50a6,,1373419,111,,evan-feature22,full_pf_b,,0
81,25287,112,,,,1,1,1.0,0.0,0.0,1.0,,0.0-109.0,,0.0,562.0,1.0,0.46833986,0.0,0.570249239,0.0,0.7244472590000001,1.0,0.364114163,False,,5e3de55071cf2606b45c50a6,,1383795,112,,evan-feature22,full_pf_b,,0
82,25288,113,,,,1,1,0.0,0.0,0.0,1.0,,0.0-110.0,,0.0,711.0,0.0,0.445444024,0.0,0.649673355,1.0,0.6845441290000001,1.0,0.300660449,False,,5e3de55071cf2606b45c50a6,,1394309,113,,evan-feature22,full_pf_b,,0
83,25289,114,,,,1,1,0.0,1.0,0.0,1.0,,0.0-111.0,,1.0,512.0,0.0,0.39909721299999995,1.0,0.6715179509999999,1.0,0.742310028,1.0,0.35496088299999995,False,,5e3de55071cf2606b45c50a6,,1404615,114,,evan-feature22,full_pf_b,,0
84,25290,115,,,,1,1,0.0,1.0,0.0,1.0,,0.0-112.0,,1.0,894.0,0.0,0.37956104799999996,1.0,0.694725302,1.0,0.7181651309999999,0.0,0.38726906299999997,False,,5e3de55071cf2606b45c50a6,,1415320,115,,evan-feature22,full_pf_b,,0
85,25291,116,,,,1,1,0.0,1.0,0.0,1.0,,0.0-113.0,,1.0,689.0,0.0,0.404995034,1.0,0.724375412,1.0,0.6910946859999999,1.0,0.387187347,False,,5e3de55071cf2606b45c50a6,,1425787,116,,evan-feature22,full_pf_b,,0
86,25292,117,,,,1,1,0.0,1.0,0.0,1.0,,0.0-114.0,,1.0,584.0,0.0,0.461740803,1.0,0.75,0.0,0.75,1.0,0.34872038200000005,False,,5e3de55071cf2606b45c50a6,,1436217,117,,evan-feature22,full_pf_b,,0
87,25293,118,,,,1,1,0.0,1.0,-1.0,0.0,,0.0-115.0,,0.0,1626.0,0.0,0.43821380600000004,1.0,0.738833273,1.0,0.728286963,0.0,0.399538128,False,,5e3de55071cf2606b45c50a6,,1447651,118,,evan-feature22,full_pf_b,,0
88,25294,119,,,,1,1,1.0,1.0,0.0,1.0,,0.0-116.0,,1.0,683.0,1.0,0.41709882,1.0,0.736666736,1.0,0.75,0.0,0.389095584,False,,5e3de55071cf2606b45c50a6,,1458126,119,,evan-feature22,full_pf_b,,0
89,25295,120,,,,1,1,0.0,1.0,0.0,1.0,,0.0-117.0,,1.0,493.0,0.0,0.39749009799999996,1.0,0.744320029,0.0,0.75,0.0,0.363848678,False,,5e3de55071cf2606b45c50a6,,1468431,120,,evan-feature22,full_pf_b,,0
90,25296,121,,,,1,1,1.0,1.0,-1.0,0.0,,0.0-118.0,,-1.0,709.0,1.0,0.392653706,1.0,0.75,1.0,0.75,0.0,0.384386976,False,,5e3de55071cf2606b45c50a6,,1478939,121,,evan-feature22,full_pf_b,,0
91,25297,122,,,,1,1,0.0,1.0,-1.0,0.0,,0.0-119.0,,0.0,1032.0,0.0,0.31190902600000003,1.0,0.75,0.0,0.732413819,0.0,0.413082932,False,,5e3de55071cf2606b45c50a6,,1489767,122,,evan-feature22,full_pf_b,,0
92,25298,123,,,,1,1,0.0,1.0,0.0,1.0,,0.0-120.0,,1.0,746.0,0.0,0.366917648,1.0,0.740073855,1.0,0.75,0.0,0.352861979,False,,5e3de55071cf2606b45c50a6,,1500325,123,,evan-feature22,full_pf_b,,0
93,25299,124,,,,2,2,1.0,1.0,0.0,1.0,,0.0-121.0,,1.0,849.0,0.0,0.3645172,1.0,0.721770713,1.0,0.75,1.0,0.404074511,False,,5e3de55071cf2606b45c50a6,,1510991,124,,evan-feature22,full_pf_b,,1
94,25300,125,,,,2,2,1.0,0.0,0.0,1.0,,0.0-122.0,,0.0,815.0,1.0,0.35205600299999995,1.0,0.68983859,1.0,0.739735447,0.0,0.366895945,False,,5e3de55071cf2606b45c50a6,,1521574,125,,evan-feature22,full_pf_b,,0
95,25301,126,,,,1,1,0.0,0.0,0.0,1.0,,0.0-123.0,,0.0,804.0,0.0,0.40998722600000004,0.0,0.720859127,1.0,0.673854955,0.0,0.368528541,False,,5e3de55071cf2606b45c50a6,,1532168,126,,evan-feature22,full_pf_b,,1
96,25302,127,,,,1,1,1.0,1.0,-1.0,0.0,,0.0-124.0,,-1.0,803.0,1.0,0.353625316,1.0,0.75,1.0,0.695605473,1.0,0.38303674200000004,False,,5e3de55071cf2606b45c50a6,,1542748,127,,evan-feature22,full_pf_b,,0
97,25303,128,,,,2,2,0.0,1.0,0.0,1.0,,0.0-125.0,,1.0,1020.0,1.0,0.359216989,1.0,0.75,0.0,0.6987915090000001,1.0,0.35169046200000004,False,,5e3de55071cf2606b45c50a6,,1553630,128,,evan-feature22,full_pf_b,,1
98,25304,129,,,,2,2,1.0,0.0,-1.0,0.0,,0.0-126.0,,-1.0,2288.0,1.0,0.35834496899999996,1.0,0.75,1.0,0.707067742,0.0,0.416763636,False,,5e3de55071cf2606b45c50a6,,1565707,129,,evan-feature22,full_pf_b,,0
99,25305,130,,,,1,1,1.0,1.0,-1.0,0.0,,0.0-127.0,,-1.0,1202.0,1.0,0.38741613799999997,1.0,0.7177369570000001,1.0,0.734902455,0.0,0.49438664299999996,False,,5e3de55071cf2606b45c50a6,,1576703,130,,evan-feature22,full_pf_b,,1
100,25306,131,,,,1,1,0.0,1.0,0.0,1.0,,0.0-128.0,,1.0,1081.0,0.0,0.405255252,1.0,0.7300466640000001,1.0,0.7027748070000001,1.0,0.504359668,False,,5e3de55071cf2606b45c50a6,,1587588,131,,evan-feature22,full_pf_b,,0
101,25307,132,,,,2,2,1.0,0.0,0.0,1.0,,0.0-129.0,,0.0,2237.0,0.0,0.40697073,1.0,0.7260142190000001,1.0,0.724461982,0.0,0.522779179,False,,5e3de55071cf2606b45c50a6,,1599649,132,,evan-feature22,full_pf_b,,1
102,25308,133,,,,1,1,0.0,1.0,0.0,1.0,,0.0-130.0,,1.0,493.0,0.0,0.43906215299999996,1.0,0.7252802340000001,1.0,0.719079934,1.0,0.5712990579999999,False,,5e3de55071cf2606b45c50a6,,1609965,133,,evan-feature22,full_pf_b,,1
103,25309,134,,,,1,1,1.0,1.0,0.0,1.0,,0.0-131.0,,1.0,595.0,1.0,0.4076705,1.0,0.73280499,0.0,0.681313127,0.0,0.523891346,False,,5e3de55071cf2606b45c50a6,,1620356,134,,evan-feature22,full_pf_b,,0
104,25310,135,,,,1,1,1.0,0.0,0.0,1.0,,0.0-132.0,,0.0,842.0,1.0,0.399102911,0.0,0.730498344,1.0,0.661080239,0.0,0.46742603,False,,5e3de55071cf2606b45c50a6,,1630995,135,,evan-feature22,full_pf_b,,0
105,25311,136,,,,2,2,1.0,0.0,-1.0,0.0,,0.0-133.0,,-1.0,911.0,1.0,0.356477282,1.0,0.712296395,1.0,0.641812684,0.0,0.44868414,False,,5e3de55071cf2606b45c50a6,,1641698,136,,evan-feature22,full_pf_b,,1
106,25312,137,,,,1,1,1.0,1.0,0.0,1.0,,0.0-134.0,,1.0,463.0,1.0,0.462760722,1.0,0.692349322,1.0,0.700947931,0.0,0.394680266,False,,5e3de55071cf2606b45c50a6,,1651962,137,,evan-feature22,full_pf_b,,1
107,25313,138,,,,1,1,0.0,1.0,0.0,1.0,,0.0-135.0,,1.0,337.0,0.0,0.422306413,1.0,0.718375916,1.0,0.706340917,0.0,0.367787185,False,,5e3de55071cf2606b45c50a6,,1662089,138,,evan-feature22,full_pf_b,,0
108,25315,140,,,,1,1,0.0,1.0,0.0,1.0,,0.0-137.0,,1.0,1973.0,0.0,0.4582233,1.0,0.643834117,0.0,0.75,1.0,0.39615823299999997,False,,5e3de55071cf2606b45c50a6,,1676045,140,,evan-feature22,full_pf_b,,0
109,25316,141,,,,1,1,0.0,0.0,0.0,1.0,,0.0-138.0,,0.0,538.0,0.0,0.43813437899999996,0.0,0.651283804,1.0,0.729674191,0.0,0.37711048,False,,5e3de55071cf2606b45c50a6,,1686387,141,,evan-feature22,full_pf_b,,0
110,25317,142,,,,1,1,0.0,1.0,0.0,1.0,,0.0-139.0,,1.0,427.0,0.0,0.471199094,1.0,0.6470010979999999,1.0,0.715008097,0.0,0.410656191,False,,5e3de55071cf2606b45c50a6,,1696601,142,,evan-feature22,full_pf_b,,0
111,25318,143,,,,1,1,1.0,1.0,-1.0,0.0,,0.0-140.0,,-1.0,728.0,1.0,0.42486406,1.0,0.629771829,1.0,0.6550939960000001,1.0,0.459093873,False,,5e3de55071cf2606b45c50a6,,1707142,143,,evan-feature22,full_pf_b,,0
112,25319,144,,,,1,1,0.0,1.0,-1.0,0.0,,0.0-141.0,,0.0,682.0,0.0,0.4803197,1.0,0.645842715,0.0,0.6421749920000001,0.0,0.443092151,False,,5e3de55071cf2606b45c50a6,,1717633,144,,evan-feature22,full_pf_b,,0
113,25320,145,,,,SLOW,SLOW,,,-1.0,0.0,,0.0-142.0,,-3.0,,1.0,0.521848997,1.0,0.735801074,1.0,0.6691348460000001,1.0,0.45259351600000003,False,,5e3de55071cf2606b45c50a6,,1723459,145,,evan-feature22,full_pf_b,,1
114,25321,146,,,,SLOW,SLOW,,,0.0,1.0,,0.0-143.0,,-3.0,,1.0,0.49565621299999996,0.0,0.742400847,0.0,0.661512553,0.0,0.483110831,False,,5e3de55071cf2606b45c50a6,,1729294,146,,evan-feature22,full_pf_b,,0
115,25322,147,,,,1,1,0.0,1.0,-1.0,0.0,,0.0-144.0,,0.0,2910.0,0.0,0.521564361,1.0,0.731078632,1.0,0.6774886809999999,0.0,0.483263956,False,,5e3de55071cf2606b45c50a6,,1741987,147,,evan-feature22,full_pf_b,,1
116,25323,148,,,,1,1,0.0,0.0,-1.0,0.0,,0.0-145.0,,0.0,1000.0,0.0,0.558893102,0.0,0.719810023,1.0,0.67461031,0.0,0.499349834,False,,5e3de55071cf2606b45c50a6,,1752785,148,,evan-feature22,full_pf_b,,0
117,25324,149,,,,1,1,1.0,1.0,0.0,1.0,,0.0-146.0,,1.0,684.0,1.0,0.611031046,1.0,0.75,1.0,0.688072995,1.0,0.5321422729999999,False,,5e3de55071cf2606b45c50a6,,1763286,149,,evan-feature22,full_pf_b,,0
118,25325,150,,,,1,1,0.0,1.0,-1.0,0.0,,0.0-147.0,,0.0,771.0,0.0,0.633223941,1.0,0.713567728,1.0,0.75,0.0,0.48185314700000004,False,,5e3de55071cf2606b45c50a6,,1773844,150,,evan-feature22,full_pf_b,,0
119,25326,151,,,,1,1,1.0,1.0,-1.0,0.0,,0.0-148.0,,-1.0,347.0,1.0,0.664001694,1.0,0.705509768,1.0,0.75,1.0,0.500211065,False,,5e3de55071cf2606b45c50a6,,1783993,151,,evan-feature22,full_pf_b,,0
120,25327,152,,,,2,2,1.0,1.0,0.0,1.0,,0.0-149.0,,1.0,11.99999999,1.0,0.664001694,1.0,0.705509768,1.0,0.75,1.0,0.500211065,False,,5e3de55071cf2606b45c50a6,,1793822,152,,evan-feature22,full_pf_b,,1
121,25328,153,,,,1,1,1.0,1.0,0.0,1.0,,0.0-150.0,,1.0,826.0,1.0,0.696508041,1.0,0.71066027,1.0,0.717028709,1.0,0.49792991,False,,5e3de55071cf2606b45c50a6,,1804462,153,,evan-feature22,full_pf_b,,1
122,25329,154,,,,1,1,0.0,1.0,-1.0,0.0,,0.0-151.0,,0.0,833.0,0.0,0.699883272,1.0,0.75,0.0,0.713543895,1.0,0.496962643,False,,5e3de55071cf2606b45c50a6,,1815075,154,,evan-feature22,full_pf_b,,0
123,25330,155,,,,2,2,0.0,1.0,0.0,1.0,,0.0-152.0,,1.0,288.0,1.0,0.741163419,0.0,0.75,0.0,0.64691024,1.0,0.513858197,False,,5e3de55071cf2606b45c50a6,,1825158,155,,evan-feature22,full_pf_b,,1
124,25331,156,,,,1,1,1.0,1.0,-1.0,0.0,,0.0-153.0,,-1.0,558.0,1.0,0.75,1.0,0.70816558,1.0,0.594499079,0.0,0.48502124,False,,5e3de55071cf2606b45c50a6,,1835514,156,,evan-feature22,full_pf_b,,1
125,25332,157,,,,1,1,1.0,1.0,0.0,1.0,,0.0-154.0,,1.0,355.0,1.0,0.75,1.0,0.721848901,1.0,0.62197249,0.0,0.48263586399999997,False,,5e3de55071cf2606b45c50a6,,1845679,157,,evan-feature22,full_pf_b,,0
126,25333,158,,,,1,1,1.0,1.0,-1.0,0.0,,0.0-155.0,,-1.0,665.0,1.0,0.75,1.0,0.74813071,1.0,0.584357161,1.0,0.411477782,False,,5e3de55071cf2606b45c50a6,,1856245,158,,evan-feature22,full_pf_b,,0
127,25334,159,,,,1,1,1.0,1.0,0.0,1.0,,0.0-156.0,,1.0,285.0,1.0,0.75,1.0,0.75,1.0,0.52287236,0.0,0.488290656,False,,5e3de55071cf2606b45c50a6,,1866349,159,,evan-feature22,full_pf_b,,0
128,25335,160,,,,1,1,0.0,1.0,0.0,1.0,,0.0-157.0,,1.0,268.0,0.0,0.75,1.0,0.75,0.0,0.544321581,1.0,0.53143059,False,,5e3de55071cf2606b45c50a6,,1876428,160,,evan-feature22,full_pf_b,,0
129,25336,161,,,,1,1,1.0,1.0,0.0,1.0,,0.0-158.0,,1.0,226.0,1.0,0.726754564,1.0,0.75,1.0,0.5129306370000001,0.0,0.530592445,False,,5e3de55071cf2606b45c50a6,,1886448,161,,evan-feature22,full_pf_b,,0
130,25337,162,,,,1,1,1.0,0.0,-1.0,0.0,,0.0-159.0,,-1.0,275.0,1.0,0.75,0.0,0.7392590729999999,0.0,0.479875835,0.0,0.547007051,False,,5e3de55071cf2606b45c50a6,,1896523,162,,evan-feature22,full_pf_b,,0
131,25338,163,,,,2,2,1.0,1.0,-1.0,0.0,,0.0-160.0,,-1.0,348.0,1.0,0.75,1.0,0.7393376979999999,1.0,0.546045419,1.0,0.541267353,False,,5e3de55071cf2606b45c50a6,,1906681,163,,evan-feature22,full_pf_b,,1
132,25339,164,,,,1,1,0.0,1.0,-1.0,0.0,,0.0-161.0,,0.0,326.0,0.0,0.75,1.0,0.75,1.0,0.485725895,1.0,0.527625395,False,,5e3de55071cf2606b45c50a6,,1916818,164,,evan-feature22,full_pf_b,,1
133,25340,165,,,,1,1,1.0,1.0,0.0,1.0,,0.0-162.0,,1.0,258.0,1.0,0.75,1.0,0.725087974,0.0,0.488603595,0.0,0.504019206,False,,5e3de55071cf2606b45c50a6,,1926875,165,,evan-feature22,full_pf_b,,0
134,25341,166,,,,1,1,1.0,1.0,0.0,1.0,,0.0-163.0,,1.0,154.0,1.0,0.745504295,1.0,0.75,0.0,0.452379914,1.0,0.50131194,False,,5e3de55071cf2606b45c50a6,,1936812,166,,evan-feature22,full_pf_b,,0
135,25342,167,,,,1,1,1.0,0.0,0.0,1.0,,0.0-164.0,,0.0,314.0,1.0,0.728513874,0.0,0.75,0.0,0.44125567200000004,1.0,0.531454591,False,,5e3de55071cf2606b45c50a6,,1946932,167,,evan-feature22,full_pf_b,,0
136,25343,168,,,,1,1,1.0,1.0,-1.0,0.0,,0.0-165.0,,-1.0,336.0,1.0,0.73790804,1.0,0.75,1.0,0.413036656,1.0,0.524619035,False,,5e3de55071cf2606b45c50a6,,1957078,168,,evan-feature22,full_pf_b,,0
137,25344,169,,,,1,1,1.0,0.0,0.0,1.0,,0.0-166.0,,0.0,453.0,1.0,0.7080961309999999,0.0,0.708666865,0.0,0.431915581,1.0,0.481819489,False,,5e3de55071cf2606b45c50a6,,1967317,169,,evan-feature22,full_pf_b,,0
138,25345,170,,,,1,1,1.0,0.0,0.0,1.0,,0.0-167.0,,0.0,253.0,1.0,0.721378003,0.0,0.71605913,0.0,0.36642387,0.0,0.5036739929999999,False,,5e3de55071cf2606b45c50a6,,1977395,170,,evan-feature22,full_pf_b,,0
139,25346,171,,,,1,1,0.0,0.0,0.0,1.0,,0.0-168.0,,0.0,484.0,0.0,0.7340618959999999,0.0,0.699323252,1.0,0.35298046299999997,0.0,0.511241692,False,,5e3de55071cf2606b45c50a6,,1987678,171,,evan-feature22,full_pf_b,,0
140,25347,172,,,,1,1,0.0,0.0,-1.0,0.0,,0.0-169.0,,0.0,592.0,0.0,0.75,0.0,0.70412698,0.0,0.380734814,0.0,0.529580116,False,,5e3de55071cf2606b45c50a6,,1998067,172,,evan-feature22,full_pf_b,,0
141,25348,173,,,,2,2,1.0,0.0,0.0,1.0,,0.0-170.0,,0.0,524.0,0.0,0.7436654909999999,0.0,0.711182751,1.0,0.41125331,0.0,0.49554405,False,,5e3de55071cf2606b45c50a6,,2008392,173,,evan-feature22,full_pf_b,,1
142,25349,174,,,,1,1,0.0,1.0,0.0,1.0,,0.0-171.0,,1.0,311.0,0.0,0.731607915,1.0,0.651774583,0.0,0.35688023,1.0,0.45194491600000003,False,,5e3de55071cf2606b45c50a6,,2018497,174,,evan-feature22,full_pf_b,,1
143,25350,175,,,,1,1,1.0,1.0,-1.0,0.0,,0.0-172.0,,-1.0,2611.0,1.0,0.75,1.0,0.75,0.0,0.283145374,1.0,0.528608005,False,,5e3de55071cf2606b45c50a6,,2030929,175,,evan-feature22,full_pf_b,,0
144,25351,176,,,,1,1,0.0,1.0,-1.0,0.0,,0.0-173.0,,0.0,277.0,0.0,0.7491416890000001,1.0,0.7423785959999999,1.0,0.29135870399999997,1.0,0.498888318,False,,5e3de55071cf2606b45c50a6,,2041003,176,,evan-feature22,full_pf_b,,0
145,25352,177,,,,1,1,0.0,1.0,-1.0,0.0,,0.0-174.0,,0.0,254.0,0.0,0.708569387,1.0,0.717682277,0.0,0.294421699,0.0,0.493838163,False,,5e3de55071cf2606b45c50a6,,2051047,177,,evan-feature22,full_pf_b,,0
146,25353,178,,,,2,2,1.0,0.0,0.0,1.0,,0.0-175.0,,0.0,227.0,1.0,0.75,0.0,0.7383382159999999,1.0,0.356098707,0.0,0.442533405,False,,5e3de55071cf2606b45c50a6,,2061083,178,,evan-feature22,full_pf_b,,1
147,25354,179,,,,1,1,0.0,1.0,0.0,1.0,,0.0-176.0,,1.0,341.0,0.0,0.744527075,1.0,0.75,1.0,0.334127506,0.0,0.393165805,False,,5e3de55071cf2606b45c50a6,,2071239,179,,evan-feature22,full_pf_b,,1
148,25355,180,,,,1,1,0.0,1.0,0.0,1.0,,0.0-177.0,,1.0,856.0,0.0,0.75,1.0,0.75,0.0,0.33571021799999995,0.0,0.350393962,False,,5e3de55071cf2606b45c50a6,,2081901,180,,evan-feature22,full_pf_b,,0
149,25356,181,,,,1,1,0.0,1.0,0.0,1.0,,0.0-178.0,,1.0,412.0,0.0,0.75,1.0,0.75,0.0,0.313628297,1.0,0.36349657399999996,False,,5e3de55071cf2606b45c50a6,,2092129,181,,evan-feature22,full_pf_b,,0
150,25357,182,,,,1,1,1.0,1.0,-1.0,0.0,,0.0-179.0,,-1.0,283.0,1.0,0.75,1.0,0.734284182,0.0,0.262667667,0.0,0.380199119,False,,5e3de55071cf2606b45c50a6,,2102229,182,,evan-feature22,full_pf_b,,0
151,25358,183,,,,1,1,1.0,1.0,0.0,1.0,,0.0-180.0,,1.0,325.0,1.0,0.75,1.0,0.75,1.0,0.25,1.0,0.394494013,False,,5e3de55071cf2606b45c50a6,,2112341,183,,evan-feature22,full_pf_b,,0
152,25359,184,,,,1,1,1.0,1.0,-1.0,0.0,,0.0-181.0,,-1.0,245.0,1.0,0.722298145,1.0,0.7357822340000001,0.0,0.25,0.0,0.319142121,False,,5e3de55071cf2606b45c50a6,,2122389,184,,evan-feature22,full_pf_b,,0
153,25360,185,,,,1,1,1.0,1.0,-1.0,0.0,,0.0-182.0,,-1.0,502.0,1.0,0.73149275,1.0,0.724276446,1.0,0.305856907,0.0,0.281315057,False,,5e3de55071cf2606b45c50a6,,2132704,185,,evan-feature22,full_pf_b,,0
154,25361,186,,,,2,2,0.0,0.0,0.0,1.0,,0.0-183.0,,0.0,285.0,0.0,0.7458732690000001,0.0,0.7336382459999999,0.0,0.272571964,0.0,0.266021999,False,,5e3de55071cf2606b45c50a6,,2142788,186,,evan-feature22,full_pf_b,,1
155,25362,187,,,,1,1,0.0,0.0,0.0,1.0,,0.0-184.0,,0.0,91.00000001,0.0,0.705579037,0.0,0.720778292,0.0,0.320238144,1.0,0.30971744,False,,5e3de55071cf2606b45c50a6,,2152694,187,,evan-feature22,full_pf_b,,1
156,25363,188,,,,1,1,1.0,1.0,0.0,1.0,,0.0-185.0,,1.0,354.0,1.0,0.700425648,1.0,0.7198784009999999,1.0,0.272590393,1.0,0.304182931,False,,5e3de55071cf2606b45c50a6,,2162829,188,,evan-feature22,full_pf_b,,0
157,25364,189,,,,1,1,1.0,1.0,0.0,1.0,,0.0-186.0,,1.0,528.0,1.0,0.735590785,1.0,0.722714973,1.0,0.25,0.0,0.323421091,False,,5e3de55071cf2606b45c50a6,,2173167,189,,evan-feature22,full_pf_b,,0
158,25365,190,,,,1,1,1.0,0.0,0.0,1.0,,0.0-187.0,,0.0,282.0,1.0,0.724807662,0.0,0.63146213,0.0,0.36836492600000004,0.0,0.34592153299999995,False,,5e3de55071cf2606b45c50a6,,2183251,190,,evan-feature22,full_pf_b,,0
159,25366,191,,,,1,1,1.0,0.0,0.0,1.0,,0.0-188.0,,0.0,145.0,1.0,0.7352796909999999,0.0,0.555111392,0.0,0.36003922,0.0,0.31433779999999995,False,,5e3de55071cf2606b45c50a6,,2193201,191,,evan-feature22,full_pf_b,,0
160,25367,192,notice,,,,,,,,,,0.0-189.0,"{""Q0"":""no""}",,4791.0,,,,,,,,,False,,5e3de55071cf2606b45c50a6,,2197993,192,Q,survey-text,full_pf_b,,1
161,25368,193,track1,,[0],,,,,,,,0.0-190.0,"{""Q0"":""yes""}",,3580.0,,,,,,,,,False,,5e3de55071cf2606b45c50a6,,2201578,193,Q,evan-quiz,full_pf_b,,1
162,25369,194,track2,,[0],,,,,,,,0.0-191.0,"{""Q0"":""yes""}",,3541.0,,,,,,,,,False,,5e3de55071cf2606b45c50a6,,2205122,194,Q,evan-quiz,full_pf_b,,1
163,25370,195,strat,,,,,,,,,,0.0-192.0,"{""Q0"":""the colurs of the numbers ""}",,14620.0,,,,,,,,,False,,5e3de55071cf2606b45c50a6,,2219745,195,Q,survey-text,full_pf_b,,1
