,index,Unnamed: 0,Q_name,button_pressed,choice_idxs,chosen_pos,chosen_state,chosen_state_f_1_outcome,chosen_state_f_2_outcome,f_1_reward,f_2_reward,incor_questions,internal_node_id,responses,reward_received,rt,s_1_f_1_outcome,s_1_f_1_prob,s_1_f_2_outcome,s_1_f_2_prob,s_2_f_1_outcome,s_2_f_1_prob,s_2_f_2_outcome,s_2_f_2_prob,safe_first,stimulus,subjectID,success,time_elapsed,trial_index,trial_num,trial_type,version,view_history,switching
0,29063,25,,,,1,1,1.0,0.0,-1.0,0.0,,0.0-27.0,,-1.0,2710.0,1.0,0.6,0.0,0.6,1.0,0.4,1.0,0.4,False,,5b65b2773662a8000158c788,,577004,25,,evan-feature22,full_pf_b,,0
1,29064,26,,,,2,2,1.0,0.0,-1.0,0.0,,0.0-28.0,,-1.0,748.0,1.0,0.608053294,0.0,0.63424552,1.0,0.397152172,0.0,0.347069101,False,,5b65b2773662a8000158c788,,587644,26,,evan-feature22,full_pf_b,,1
2,29065,27,,,,2,2,1.0,0.0,-1.0,0.0,,0.0-29.0,,-1.0,726.0,1.0,0.642237155,1.0,0.648566321,1.0,0.389407674,0.0,0.285525717,False,,5b65b2773662a8000158c788,,598244,27,,evan-feature22,full_pf_b,,0
3,29066,28,,,,2,2,1.0,1.0,-1.0,0.0,,0.0-30.0,,-1.0,855.0,1.0,0.661086576,0.0,0.630492543,1.0,0.399058924,1.0,0.25,False,,5b65b2773662a8000158c788,,608984,28,,evan-feature22,full_pf_b,,0
4,29067,29,,,,1,1,1.0,0.0,0.0,1.0,,0.0-31.0,,0.0,2196.0,1.0,0.631324137,0.0,0.6269842929999999,0.0,0.38734784299999997,0.0,0.25,False,,5b65b2773662a8000158c788,,621054,29,,evan-feature22,full_pf_b,,1
5,29068,30,,,,1,1,1.0,1.0,0.0,1.0,,0.0-32.0,,1.0,475.0,1.0,0.6381991370000001,1.0,0.68987999,1.0,0.384107265,0.0,0.271332943,False,,5b65b2773662a8000158c788,,631414,30,,evan-feature22,full_pf_b,,0
6,29069,31,,,,2,2,0.0,1.0,-1.0,0.0,,0.0-33.0,,0.0,1568.0,1.0,0.66034901,1.0,0.742641349,0.0,0.360225629,1.0,0.25,False,,5b65b2773662a8000158c788,,642854,31,,evan-feature22,full_pf_b,,1
7,29070,32,,,,2,2,0.0,1.0,-1.0,0.0,,0.0-34.0,,0.0,923.0,1.0,0.638612418,0.0,0.75,0.0,0.367273939,1.0,0.25,False,,5b65b2773662a8000158c788,,653653,32,,evan-feature22,full_pf_b,,0
8,29071,33,,,,1,1,0.0,0.0,0.0,1.0,,0.0-35.0,,0.0,729.0,0.0,0.624340629,0.0,0.75,0.0,0.425829545,1.0,0.25,False,,5b65b2773662a8000158c788,,664234,33,,evan-feature22,full_pf_b,,1
9,29072,34,,,,1,1,0.0,1.0,0.0,1.0,,0.0-36.0,,1.0,835.0,0.0,0.621999804,1.0,0.75,0.0,0.368609357,0.0,0.25,False,,5b65b2773662a8000158c788,,674944,34,,evan-feature22,full_pf_b,,0
10,29073,35,,,,2,2,1.0,0.0,-1.0,0.0,,0.0-37.0,,-1.0,1440.0,0.0,0.62666403,1.0,0.75,1.0,0.311151498,0.0,0.25,False,,5b65b2773662a8000158c788,,686221,35,,evan-feature22,full_pf_b,,1
11,29074,36,,,,2,2,0.0,0.0,0.0,1.0,,0.0-38.0,,0.0,591.0,0.0,0.6819650009999999,1.0,0.75,0.0,0.310763048,0.0,0.25,False,,5b65b2773662a8000158c788,,696683,36,,evan-feature22,full_pf_b,,0
12,29075,37,,,,2,2,0.0,1.0,-1.0,0.0,,0.0-39.0,,0.0,1989.0,0.0,0.740626951,1.0,0.75,0.0,0.25,1.0,0.25,False,,5b65b2773662a8000158c788,,708564,37,,evan-feature22,full_pf_b,,0
13,29076,38,,,,1,1,1.0,0.0,-1.0,0.0,,0.0-40.0,,-1.0,395.0,1.0,0.739599242,0.0,0.742034978,0.0,0.25397114600000004,0.0,0.25,False,,5b65b2773662a8000158c788,,718830,38,,evan-feature22,full_pf_b,,1
14,29077,39,,,,1,1,1.0,1.0,-1.0,0.0,,0.0-41.0,,-1.0,725.0,1.0,0.732341315,1.0,0.72735643,0.0,0.25,0.0,0.25,False,,5b65b2773662a8000158c788,,729433,39,,evan-feature22,full_pf_b,,0
15,29078,40,,,,2,2,0.0,1.0,-1.0,0.0,,0.0-42.0,,0.0,1376.0,1.0,0.7062287770000001,1.0,0.75,0.0,0.29002151,1.0,0.288256649,False,,5b65b2773662a8000158c788,,740693,40,,evan-feature22,full_pf_b,,1
16,29079,41,,,,2,2,0.0,1.0,-1.0,0.0,,0.0-43.0,,0.0,1204.0,1.0,0.7086029209999999,1.0,0.75,0.0,0.274129113,1.0,0.262851608,False,,5b65b2773662a8000158c788,,751764,41,,evan-feature22,full_pf_b,,0
17,29080,42,,,,2,2,1.0,0.0,-1.0,0.0,,0.0-44.0,,-1.0,1556.0,1.0,0.669189651,1.0,0.727614338,1.0,0.298444036,0.0,0.296944518,False,,5b65b2773662a8000158c788,,763204,42,,evan-feature22,full_pf_b,,0
18,29081,43,,,,1,1,0.0,1.0,-1.0,0.0,,0.0-45.0,,0.0,1023.0,0.0,0.6819912929999999,1.0,0.7179434290000001,1.0,0.265003961,1.0,0.28157921199999997,False,,5b65b2773662a8000158c788,,774104,43,,evan-feature22,full_pf_b,,1
19,29082,44,,,,1,1,1.0,1.0,0.0,1.0,,0.0-46.0,,1.0,960.0,1.0,0.665275002,1.0,0.723065271,0.0,0.260414971,0.0,0.30973870000000003,False,,5b65b2773662a8000158c788,,784934,44,,evan-feature22,full_pf_b,,0
20,29083,45,,,,1,1,1.0,1.0,-1.0,0.0,,0.0-47.0,,-1.0,1098.0,1.0,0.6660593260000001,1.0,0.728032907,1.0,0.30922817,1.0,0.338778608,False,,5b65b2773662a8000158c788,,795914,45,,evan-feature22,full_pf_b,,0
21,29084,46,,,,2,2,0.0,0.0,-1.0,0.0,,0.0-48.0,,0.0,1186.0,1.0,0.702068785,1.0,0.6528750879999999,0.0,0.287329608,0.0,0.35789613200000003,False,,5b65b2773662a8000158c788,,806944,46,,evan-feature22,full_pf_b,,1
22,29085,47,,,,2,2,1.0,0.0,-1.0,0.0,,0.0-49.0,,-1.0,1048.0,1.0,0.651939787,1.0,0.636725589,1.0,0.284834488,0.0,0.358563756,False,,5b65b2773662a8000158c788,,817883,47,,evan-feature22,full_pf_b,,0
23,29086,48,,,,1,1,1.0,1.0,0.0,1.0,,0.0-50.0,,1.0,989.0,1.0,0.67573929,1.0,0.612550049,0.0,0.37130387600000003,0.0,0.383542402,False,,5b65b2773662a8000158c788,,828764,48,,evan-feature22,full_pf_b,,1
24,29087,49,,,,1,1,0.0,1.0,0.0,1.0,,0.0-51.0,,1.0,736.0,0.0,0.620753801,1.0,0.60513644,0.0,0.385529434,0.0,0.340361743,False,,5b65b2773662a8000158c788,,839384,49,,evan-feature22,full_pf_b,,0
25,29088,50,,,,2,2,1.0,0.0,0.0,1.0,,0.0-52.0,,0.0,1785.0,0.0,0.673564893,0.0,0.672437924,1.0,0.292955382,0.0,0.337633795,False,,5b65b2773662a8000158c788,,851033,50,,evan-feature22,full_pf_b,,1
26,29089,51,,,,1,1,0.0,1.0,-1.0,0.0,,0.0-53.0,,0.0,1449.0,0.0,0.6749427,1.0,0.724197502,1.0,0.32391132100000003,0.0,0.350995264,False,,5b65b2773662a8000158c788,,862323,51,,evan-feature22,full_pf_b,,1
27,29090,52,,,,2,2,1.0,0.0,-1.0,0.0,,0.0-54.0,,-1.0,1214.0,1.0,0.6940159379999999,0.0,0.75,1.0,0.31710554399999996,0.0,0.413450341,False,,5b65b2773662a8000158c788,,873420,52,,evan-feature22,full_pf_b,,1
28,29091,53,,,,2,2,1.0,0.0,-1.0,0.0,,0.0-55.0,,-1.0,967.0,1.0,0.6916018270000001,1.0,0.69001187,1.0,0.261817804,0.0,0.40038635,False,,5b65b2773662a8000158c788,,884264,53,,evan-feature22,full_pf_b,,0
29,29092,54,,,,1,1,0.0,1.0,-1.0,0.0,,0.0-56.0,,0.0,592.0,0.0,0.641061544,1.0,0.71337992,1.0,0.277296461,1.0,0.47372791700000005,False,,5b65b2773662a8000158c788,,894743,54,,evan-feature22,full_pf_b,,1
30,29093,55,,,,1,1,0.0,1.0,-1.0,0.0,,0.0-57.0,,0.0,475.0,0.0,0.6082438520000001,1.0,0.708471106,0.0,0.28745137,0.0,0.564174476,False,,5b65b2773662a8000158c788,,905103,55,,evan-feature22,full_pf_b,,0
31,29094,56,,,,1,1,1.0,0.0,-1.0,0.0,,0.0-58.0,,-1.0,442.0,1.0,0.6051112120000001,0.0,0.7118147229999999,1.0,0.272390611,0.0,0.5595149939999999,False,,5b65b2773662a8000158c788,,915434,56,,evan-feature22,full_pf_b,,0
32,29095,57,,,,2,2,0.0,0.0,-1.0,0.0,,0.0-59.0,,0.0,1138.0,1.0,0.582420852,1.0,0.635867583,0.0,0.31089574,0.0,0.5227206520000001,False,,5b65b2773662a8000158c788,,926423,57,,evan-feature22,full_pf_b,,1
33,29096,58,,,,1,1,0.0,0.0,0.0,1.0,,0.0-60.0,,0.0,2577.0,0.0,0.623195575,0.0,0.655026044,0.0,0.25,0.0,0.560387538,False,,5b65b2773662a8000158c788,,938854,58,,evan-feature22,full_pf_b,,1
34,29097,59,,,,2,2,0.0,1.0,-1.0,0.0,,0.0-61.0,,0.0,891.0,0.0,0.601889598,1.0,0.678198724,0.0,0.25,1.0,0.559922936,False,,5b65b2773662a8000158c788,,949634,59,,evan-feature22,full_pf_b,,1
35,29098,60,,,,1,1,0.0,1.0,-1.0,0.0,,0.0-62.0,,0.0,399.0,0.0,0.601259914,1.0,0.704681482,0.0,0.33908969299999997,1.0,0.505003715,False,,5b65b2773662a8000158c788,,959913,60,,evan-feature22,full_pf_b,,1
36,29099,61,,,,2,2,0.0,0.0,-1.0,0.0,,0.0-63.0,,0.0,528.0,1.0,0.59645454,0.0,0.710437172,0.0,0.327441879,0.0,0.391749613,False,,5b65b2773662a8000158c788,,970323,61,,evan-feature22,full_pf_b,,1
37,29100,62,,,,2,2,0.0,1.0,-1.0,0.0,,0.0-64.0,,0.0,1066.0,0.0,0.529473,0.0,0.636758527,0.0,0.301338063,1.0,0.365661481,False,,5b65b2773662a8000158c788,,981264,62,,evan-feature22,full_pf_b,,0
38,29101,63,,,,1,1,1.0,1.0,0.0,1.0,,0.0-65.0,,1.0,1190.0,1.0,0.541657162,1.0,0.634541962,0.0,0.343535366,0.0,0.371763742,False,,5b65b2773662a8000158c788,,992344,63,,evan-feature22,full_pf_b,,1
39,29102,64,,,,2,2,1.0,0.0,-1.0,0.0,,0.0-66.0,,-1.0,1071.0,1.0,0.5707533260000001,1.0,0.589121171,1.0,0.326428396,0.0,0.43961622899999997,False,,5b65b2773662a8000158c788,,1003305,64,,evan-feature22,full_pf_b,,1
40,29103,65,,,,1,1,1.0,1.0,-1.0,0.0,,0.0-67.0,,-1.0,1417.0,1.0,0.5707533260000001,1.0,0.589121171,0.0,0.326428396,0.0,0.43961622899999997,False,,5b65b2773662a8000158c788,,1014604,65,,evan-feature22,full_pf_b,,1
41,29104,66,,,,1,1,0.0,0.0,-1.0,0.0,,0.0-68.0,,0.0,1842.0,0.0,0.506271295,0.0,0.641775594,1.0,0.37149690700000004,0.0,0.404330166,False,,5b65b2773662a8000158c788,,1026303,66,,evan-feature22,full_pf_b,,0
42,29105,67,,,,2,2,1.0,0.0,0.0,1.0,,0.0-69.0,,0.0,1086.0,1.0,0.455642565,1.0,0.623605825,1.0,0.358753011,0.0,0.346174041,False,,5b65b2773662a8000158c788,,1037253,67,,evan-feature22,full_pf_b,,1
43,29106,68,,,,1,1,1.0,1.0,0.0,1.0,,0.0-70.0,,1.0,809.0,1.0,0.483677308,1.0,0.5904681070000001,1.0,0.402218411,0.0,0.35344697,False,,5b65b2773662a8000158c788,,1047954,68,,evan-feature22,full_pf_b,,1
44,29107,69,,,,1,1,0.0,0.0,0.0,1.0,,0.0-71.0,,0.0,1081.0,0.0,0.394210977,0.0,0.558925494,1.0,0.540052017,0.0,0.35182128700000004,False,,5b65b2773662a8000158c788,,1058914,69,,evan-feature22,full_pf_b,,0
45,29108,70,,,,1,1,1.0,1.0,-1.0,0.0,,0.0-72.0,,-1.0,1801.0,1.0,0.382300414,1.0,0.577670603,1.0,0.607608448,0.0,0.378261578,False,,5b65b2773662a8000158c788,,1070590,70,,evan-feature22,full_pf_b,,0
46,29109,71,,,,1,1,0.0,0.0,-1.0,0.0,,0.0-73.0,,0.0,1417.0,0.0,0.357596762,0.0,0.5929076529999999,1.0,0.6579790010000001,0.0,0.401326777,False,,5b65b2773662a8000158c788,,1081884,71,,evan-feature22,full_pf_b,,0
47,29110,72,,,,2,2,0.0,0.0,-1.0,0.0,,0.0-74.0,,0.0,1673.0,1.0,0.362033495,0.0,0.582308608,0.0,0.649195052,0.0,0.355158505,False,,5b65b2773662a8000158c788,,1093423,72,,evan-feature22,full_pf_b,,1
48,29111,73,,,,2,2,1.0,0.0,-1.0,0.0,,0.0-75.0,,-1.0,1319.0,1.0,0.369620635,1.0,0.669100864,1.0,0.706059111,0.0,0.362516241,False,,5b65b2773662a8000158c788,,1104623,73,,evan-feature22,full_pf_b,,0
49,29112,74,,,,1,1,0.0,1.0,-1.0,0.0,,0.0-76.0,,0.0,1245.0,0.0,0.41477751399999996,1.0,0.7284416779999999,1.0,0.7182656940000001,0.0,0.36228040899999997,False,,5b65b2773662a8000158c788,,1115724,74,,evan-feature22,full_pf_b,,1
50,29113,75,,,,1,1,0.0,1.0,0.0,1.0,,0.0-77.0,,1.0,940.0,0.0,0.37675460299999997,1.0,0.703250285,1.0,0.75,0.0,0.461979164,False,,5b65b2773662a8000158c788,,1126543,75,,evan-feature22,full_pf_b,,0
51,29114,76,,,,1,1,0.0,1.0,0.0,1.0,,0.0-78.0,,1.0,1099.0,0.0,0.398716075,1.0,0.6723864890000001,1.0,0.674153818,1.0,0.519029516,False,,5b65b2773662a8000158c788,,1137509,76,,evan-feature22,full_pf_b,,0
52,29115,77,,,,2,2,1.0,0.0,-1.0,0.0,,0.0-79.0,,-1.0,1594.0,0.0,0.34677856700000004,0.0,0.69057175,1.0,0.6822438540000001,0.0,0.477292237,False,,5b65b2773662a8000158c788,,1148964,77,,evan-feature22,full_pf_b,,1
53,29116,78,,,,1,1,0.0,1.0,0.0,1.0,,0.0-80.0,,1.0,781.0,0.0,0.28580469199999997,1.0,0.68408818,1.0,0.684207565,0.0,0.49780448299999996,False,,5b65b2773662a8000158c788,,1159614,78,,evan-feature22,full_pf_b,,1
54,29118,80,,,,1,1,0.0,0.0,-1.0,0.0,,0.0-82.0,,0.0,1397.0,0.0,0.25,0.0,0.7405808970000001,0.0,0.679614108,1.0,0.436436964,False,,5b65b2773662a8000158c788,,1175543,80,,evan-feature22,full_pf_b,,0
55,29119,81,,,,1,1,0.0,0.0,0.0,1.0,,0.0-83.0,,0.0,1271.0,0.0,0.29890393,0.0,0.730505706,1.0,0.7328203320000001,0.0,0.439256938,False,,5b65b2773662a8000158c788,,1186704,81,,evan-feature22,full_pf_b,,0
56,29120,82,,,,1,1,0.0,1.0,-1.0,0.0,,0.0-84.0,,0.0,1963.0,0.0,0.326762398,1.0,0.7148059609999999,1.0,0.75,1.0,0.44389608799999997,False,,5b65b2773662a8000158c788,,1198544,82,,evan-feature22,full_pf_b,,0
57,29121,83,,,,2,2,0.0,1.0,-1.0,0.0,,0.0-85.0,,0.0,1166.0,0.0,0.295168515,0.0,0.739760854,0.0,0.719947008,1.0,0.35277284600000003,False,,5b65b2773662a8000158c788,,1209574,83,,evan-feature22,full_pf_b,,1
58,29122,84,,,,1,1,1.0,1.0,-1.0,0.0,,0.0-86.0,,-1.0,1131.0,1.0,0.25,1.0,0.70781482,1.0,0.75,0.0,0.286095925,False,,5b65b2773662a8000158c788,,1220594,84,,evan-feature22,full_pf_b,,1
59,29123,85,,,,1,1,1.0,0.0,0.0,1.0,,0.0-87.0,,0.0,1212.0,1.0,0.25638190899999996,0.0,0.704088163,0.0,0.75,1.0,0.26872601399999996,False,,5b65b2773662a8000158c788,,1231683,85,,evan-feature22,full_pf_b,,0
60,29124,86,,,,2,2,0.0,0.0,0.0,1.0,,0.0-88.0,,0.0,1199.0,0.0,0.271581126,0.0,0.669760107,0.0,0.733896663,0.0,0.273244572,False,,5b65b2773662a8000158c788,,1242743,86,,evan-feature22,full_pf_b,,1
61,29125,87,,,,2,2,1.0,0.0,0.0,1.0,,0.0-89.0,,0.0,1991.0,0.0,0.257144401,1.0,0.600575706,1.0,0.74488122,0.0,0.25,False,,5b65b2773662a8000158c788,,1254614,87,,evan-feature22,full_pf_b,,0
62,29126,88,,,,2,2,1.0,1.0,-1.0,0.0,,0.0-90.0,,-1.0,1394.0,0.0,0.25,1.0,0.616870026,1.0,0.723610234,1.0,0.25,False,,5b65b2773662a8000158c788,,1265894,88,,evan-feature22,full_pf_b,,0
63,29127,89,,,,1,1,0.0,1.0,0.0,1.0,,0.0-91.0,,1.0,1235.0,0.0,0.25,1.0,0.583540187,1.0,0.7041042559999999,0.0,0.285961995,False,,5b65b2773662a8000158c788,,1277013,89,,evan-feature22,full_pf_b,,1
64,29128,90,,,,1,1,1.0,0.0,-1.0,0.0,,0.0-92.0,,-1.0,1381.0,1.0,0.27254536,0.0,0.53875765,1.0,0.693783448,0.0,0.284961652,False,,5b65b2773662a8000158c788,,1288273,90,,evan-feature22,full_pf_b,,0
65,29129,91,,,,1,1,0.0,0.0,0.0,1.0,,0.0-93.0,,0.0,1055.0,0.0,0.25,0.0,0.548431252,1.0,0.734221895,1.0,0.279445214,False,,5b65b2773662a8000158c788,,1299183,91,,evan-feature22,full_pf_b,,0
66,29130,92,,,,2,2,1.0,0.0,-1.0,0.0,,0.0-94.0,,-1.0,1364.0,0.0,0.258640684,1.0,0.545878066,1.0,0.725245965,0.0,0.31487537,False,,5b65b2773662a8000158c788,,1310424,92,,evan-feature22,full_pf_b,,1
67,29131,93,,,,1,1,1.0,1.0,-1.0,0.0,,0.0-95.0,,-1.0,1907.0,1.0,0.251103711,1.0,0.5776290629999999,1.0,0.696320133,0.0,0.317831047,False,,5b65b2773662a8000158c788,,1322181,93,,evan-feature22,full_pf_b,,1
68,29132,94,,,,1,1,0.0,1.0,-1.0,0.0,,0.0-96.0,,0.0,1433.0,0.0,0.276630292,1.0,0.617329858,1.0,0.73838088,0.0,0.261471582,False,,5b65b2773662a8000158c788,,1333504,94,,evan-feature22,full_pf_b,,0
69,29133,95,,,,1,1,1.0,1.0,0.0,1.0,,0.0-97.0,,1.0,1109.0,1.0,0.297716424,1.0,0.618863717,1.0,0.7402358259999999,0.0,0.262600834,False,,5b65b2773662a8000158c788,,1344504,95,,evan-feature22,full_pf_b,,0
70,29134,96,,,,2,2,1.0,0.0,-1.0,0.0,,0.0-98.0,,-1.0,1075.0,1.0,0.290935512,1.0,0.695370945,1.0,0.706570507,0.0,0.280030553,False,,5b65b2773662a8000158c788,,1355444,96,,evan-feature22,full_pf_b,,1
71,29135,97,,,,2,2,1.0,0.0,-1.0,0.0,,0.0-99.0,,-1.0,1380.0,1.0,0.25,1.0,0.6465277079999999,1.0,0.67766682,0.0,0.25,False,,5b65b2773662a8000158c788,,1366714,97,,evan-feature22,full_pf_b,,0
72,29136,98,,,,1,1,0.0,1.0,-1.0,0.0,,0.0-100.0,,0.0,1231.0,0.0,0.26463816,1.0,0.636100213,1.0,0.646048507,0.0,0.265607101,False,,5b65b2773662a8000158c788,,1377814,98,,evan-feature22,full_pf_b,,1
73,29137,99,,,,1,1,0.0,0.0,-1.0,0.0,,0.0-101.0,,0.0,1119.0,0.0,0.314340707,0.0,0.667795927,0.0,0.613630805,0.0,0.25,False,,5b65b2773662a8000158c788,,1388774,99,,evan-feature22,full_pf_b,,0
74,29138,100,,,,1,1,0.0,1.0,-1.0,0.0,,0.0-102.0,,0.0,888.0,0.0,0.28685784,1.0,0.6622549529999999,1.0,0.652154117,0.0,0.25,False,,5b65b2773662a8000158c788,,1399553,100,,evan-feature22,full_pf_b,,0
75,29139,101,,,,1,1,0.0,1.0,0.0,1.0,,0.0-103.0,,1.0,1324.0,0.0,0.304106554,1.0,0.631289538,0.0,0.707041942,0.0,0.29314237,False,,5b65b2773662a8000158c788,,1410723,101,,evan-feature22,full_pf_b,,0
76,29140,102,,,,1,1,0.0,0.0,0.0,1.0,,0.0-104.0,,0.0,1076.0,0.0,0.304806932,0.0,0.571167718,1.0,0.680472346,0.0,0.25,False,,5b65b2773662a8000158c788,,1421684,102,,evan-feature22,full_pf_b,,0
77,29141,103,,,,1,1,0.0,0.0,0.0,1.0,,0.0-105.0,,0.0,670.0,0.0,0.37919861,0.0,0.5724849710000001,1.0,0.705638003,0.0,0.30179300600000003,False,,5b65b2773662a8000158c788,,1432244,103,,evan-feature22,full_pf_b,,0
78,29142,104,,,,1,1,0.0,1.0,0.0,1.0,,0.0-106.0,,1.0,824.0,0.0,0.464277969,1.0,0.554034373,0.0,0.7372627340000001,0.0,0.264699741,False,,5b65b2773662a8000158c788,,1442904,104,,evan-feature22,full_pf_b,,0
79,29143,105,,,,2,2,1.0,1.0,-1.0,0.0,,0.0-107.0,,-1.0,1819.0,0.0,0.465104323,0.0,0.530793115,1.0,0.75,1.0,0.31683071,False,,5b65b2773662a8000158c788,,1454594,105,,evan-feature22,full_pf_b,,1
80,29144,106,,,,1,1,0.0,0.0,0.0,1.0,,0.0-108.0,,0.0,939.0,0.0,0.465104323,0.0,0.530793115,0.0,0.75,0.0,0.31683071,False,,5b65b2773662a8000158c788,,1465374,106,,evan-feature22,full_pf_b,,1
81,29145,107,,,,1,1,1.0,1.0,0.0,1.0,,0.0-109.0,,1.0,845.0,1.0,0.46833986,1.0,0.570249239,0.0,0.7244472590000001,1.0,0.364114163,False,,5b65b2773662a8000158c788,,1476071,107,,evan-feature22,full_pf_b,,0
82,29146,108,,,,1,1,1.0,1.0,0.0,1.0,,0.0-110.0,,1.0,615.0,1.0,0.445444024,1.0,0.649673355,1.0,0.6845441290000001,0.0,0.300660449,False,,5b65b2773662a8000158c788,,1486553,108,,evan-feature22,full_pf_b,,0
83,29147,109,,,,1,1,1.0,0.0,0.0,1.0,,0.0-111.0,,0.0,784.0,1.0,0.39909721299999995,0.0,0.6715179509999999,0.0,0.742310028,0.0,0.35496088299999995,False,,5b65b2773662a8000158c788,,1497214,109,,evan-feature22,full_pf_b,,0
84,29148,110,,,,1,1,0.0,1.0,0.0,1.0,,0.0-112.0,,1.0,1022.0,0.0,0.37956104799999996,1.0,0.694725302,1.0,0.7181651309999999,1.0,0.38726906299999997,False,,5b65b2773662a8000158c788,,1508104,110,,evan-feature22,full_pf_b,,0
85,29149,111,,,,1,1,0.0,1.0,0.0,1.0,,0.0-113.0,,1.0,1398.0,0.0,0.404995034,1.0,0.724375412,1.0,0.6910946859999999,1.0,0.387187347,False,,5b65b2773662a8000158c788,,1519383,111,,evan-feature22,full_pf_b,,0
86,29150,112,,,,1,1,1.0,1.0,0.0,1.0,,0.0-114.0,,1.0,955.0,1.0,0.461740803,1.0,0.75,1.0,0.75,0.0,0.34872038200000005,False,,5b65b2773662a8000158c788,,1530204,112,,evan-feature22,full_pf_b,,0
87,29151,113,,,,1,1,1.0,0.0,-1.0,0.0,,0.0-115.0,,-1.0,2701.0,1.0,0.43821380600000004,0.0,0.738833273,1.0,0.728286963,0.0,0.399538128,False,,5b65b2773662a8000158c788,,1542764,113,,evan-feature22,full_pf_b,,0
88,29152,114,,,,1,1,0.0,1.0,0.0,1.0,,0.0-116.0,,1.0,1278.0,0.0,0.41709882,1.0,0.736666736,1.0,0.75,1.0,0.389095584,False,,5b65b2773662a8000158c788,,1553924,114,,evan-feature22,full_pf_b,,0
89,29153,115,,,,1,1,1.0,1.0,0.0,1.0,,0.0-117.0,,1.0,2268.0,1.0,0.39749009799999996,1.0,0.744320029,1.0,0.75,0.0,0.363848678,False,,5b65b2773662a8000158c788,,1566073,115,,evan-feature22,full_pf_b,,0
90,29154,116,,,,2,2,1.0,0.0,-1.0,0.0,,0.0-118.0,,-1.0,941.0,1.0,0.392653706,1.0,0.75,1.0,0.75,0.0,0.384386976,False,,5b65b2773662a8000158c788,,1576894,116,,evan-feature22,full_pf_b,,1
91,29155,117,,,,2,2,1.0,1.0,-1.0,0.0,,0.0-119.0,,-1.0,2267.0,0.0,0.31190902600000003,1.0,0.75,1.0,0.732413819,1.0,0.413082932,False,,5b65b2773662a8000158c788,,1589033,117,,evan-feature22,full_pf_b,,0
92,29156,118,,,,1,1,0.0,0.0,0.0,1.0,,0.0-120.0,,0.0,1145.0,0.0,0.366917648,0.0,0.740073855,1.0,0.75,0.0,0.352861979,False,,5b65b2773662a8000158c788,,1600033,118,,evan-feature22,full_pf_b,,1
93,29157,119,,,,1,1,0.0,1.0,0.0,1.0,,0.0-121.0,,1.0,1086.0,0.0,0.3645172,1.0,0.721770713,1.0,0.75,0.0,0.404074511,False,,5b65b2773662a8000158c788,,1610964,119,,evan-feature22,full_pf_b,,0
94,29158,120,,,,1,1,0.0,0.0,0.0,1.0,,0.0-122.0,,0.0,1188.0,0.0,0.35205600299999995,0.0,0.68983859,0.0,0.739735447,1.0,0.366895945,False,,5b65b2773662a8000158c788,,1622014,120,,evan-feature22,full_pf_b,,0
95,29159,121,,,,1,1,1.0,1.0,0.0,1.0,,0.0-123.0,,1.0,794.0,1.0,0.40998722600000004,1.0,0.720859127,1.0,0.673854955,0.0,0.368528541,False,,5b65b2773662a8000158c788,,1632684,121,,evan-feature22,full_pf_b,,0
96,29160,122,,,,2,2,1.0,1.0,-1.0,0.0,,0.0-124.0,,-1.0,1908.0,1.0,0.353625316,1.0,0.75,1.0,0.695605473,1.0,0.38303674200000004,False,,5b65b2773662a8000158c788,,1644474,122,,evan-feature22,full_pf_b,,1
97,29161,123,,,,1,1,0.0,1.0,0.0,1.0,,0.0-125.0,,1.0,1605.0,0.0,0.359216989,1.0,0.75,0.0,0.6987915090000001,0.0,0.35169046200000004,False,,5b65b2773662a8000158c788,,1655953,123,,evan-feature22,full_pf_b,,1
98,29162,124,,,,2,2,1.0,0.0,-1.0,0.0,,0.0-126.0,,-1.0,1633.0,0.0,0.35834496899999996,1.0,0.75,1.0,0.707067742,0.0,0.416763636,False,,5b65b2773662a8000158c788,,1667434,124,,evan-feature22,full_pf_b,,1
99,29163,125,,,,2,2,1.0,0.0,-1.0,0.0,,0.0-127.0,,-1.0,1201.0,0.0,0.38741613799999997,1.0,0.7177369570000001,1.0,0.734902455,0.0,0.49438664299999996,False,,5b65b2773662a8000158c788,,1678514,125,,evan-feature22,full_pf_b,,0
100,29164,126,,,,1,1,0.0,1.0,0.0,1.0,,0.0-128.0,,1.0,790.0,0.0,0.405255252,1.0,0.7300466640000001,0.0,0.7027748070000001,1.0,0.504359668,False,,5b65b2773662a8000158c788,,1689194,126,,evan-feature22,full_pf_b,,1
101,29165,127,,,,1,1,0.0,1.0,0.0,1.0,,0.0-129.0,,1.0,1394.0,0.0,0.40697073,1.0,0.7260142190000001,1.0,0.724461982,0.0,0.522779179,False,,5b65b2773662a8000158c788,,1700453,127,,evan-feature22,full_pf_b,,0
102,29166,128,,,,1,1,0.0,0.0,0.0,1.0,,0.0-130.0,,0.0,1318.0,0.0,0.43906215299999996,0.0,0.7252802340000001,1.0,0.719079934,1.0,0.5712990579999999,False,,5b65b2773662a8000158c788,,1711643,128,,evan-feature22,full_pf_b,,0
103,29167,129,,,,1,1,1.0,0.0,0.0,1.0,,0.0-131.0,,0.0,1678.0,1.0,0.4076705,0.0,0.73280499,1.0,0.681313127,0.0,0.523891346,False,,5b65b2773662a8000158c788,,1723204,129,,evan-feature22,full_pf_b,,0
104,29168,130,,,,2,2,0.0,0.0,0.0,1.0,,0.0-132.0,,0.0,1861.0,0.0,0.399102911,1.0,0.730498344,0.0,0.661080239,0.0,0.46742603,False,,5b65b2773662a8000158c788,,1734943,130,,evan-feature22,full_pf_b,,1
105,29169,131,,,,2,2,1.0,1.0,-1.0,0.0,,0.0-133.0,,-1.0,1496.0,0.0,0.356477282,1.0,0.712296395,1.0,0.641812684,1.0,0.44868414,False,,5b65b2773662a8000158c788,,1746301,131,,evan-feature22,full_pf_b,,0
106,29170,132,,,,1,1,1.0,1.0,0.0,1.0,,0.0-134.0,,1.0,896.0,1.0,0.462760722,1.0,0.692349322,0.0,0.700947931,0.0,0.394680266,False,,5b65b2773662a8000158c788,,1757084,132,,evan-feature22,full_pf_b,,1
107,29171,133,,,,1,1,0.0,0.0,0.0,1.0,,0.0-135.0,,0.0,1137.0,0.0,0.422306413,0.0,0.718375916,0.0,0.706340917,0.0,0.367787185,False,,5b65b2773662a8000158c788,,1768044,133,,evan-feature22,full_pf_b,,0
108,29173,135,,,,1,1,1.0,1.0,0.0,1.0,,0.0-137.0,,1.0,834.0,1.0,0.4582233,1.0,0.643834117,0.0,0.75,1.0,0.39615823299999997,False,,5b65b2773662a8000158c788,,1782063,135,,evan-feature22,full_pf_b,,0
109,29174,136,,,,1,1,1.0,1.0,0.0,1.0,,0.0-138.0,,1.0,975.0,1.0,0.43813437899999996,1.0,0.651283804,0.0,0.729674191,0.0,0.37711048,False,,5b65b2773662a8000158c788,,1792924,136,,evan-feature22,full_pf_b,,0
110,29175,137,,,,1,1,0.0,1.0,0.0,1.0,,0.0-139.0,,1.0,1409.0,0.0,0.471199094,1.0,0.6470010979999999,1.0,0.715008097,0.0,0.410656191,False,,5b65b2773662a8000158c788,,1804214,137,,evan-feature22,full_pf_b,,0
111,29176,138,,,,1,1,1.0,1.0,-1.0,0.0,,0.0-140.0,,-1.0,866.0,1.0,0.42486406,1.0,0.629771829,1.0,0.6550939960000001,0.0,0.459093873,False,,5b65b2773662a8000158c788,,1814954,138,,evan-feature22,full_pf_b,,0
112,29177,139,,,,2,2,1.0,1.0,-1.0,0.0,,0.0-141.0,,-1.0,1318.0,0.0,0.4803197,1.0,0.645842715,1.0,0.6421749920000001,1.0,0.443092151,False,,5b65b2773662a8000158c788,,1826144,139,,evan-feature22,full_pf_b,,1
113,29178,140,,,,2,2,1.0,0.0,-1.0,0.0,,0.0-142.0,,-1.0,1130.0,1.0,0.521848997,1.0,0.735801074,1.0,0.6691348460000001,0.0,0.45259351600000003,False,,5b65b2773662a8000158c788,,1837163,140,,evan-feature22,full_pf_b,,0
114,29179,141,,,,1,1,0.0,1.0,0.0,1.0,,0.0-143.0,,1.0,1075.0,0.0,0.49565621299999996,1.0,0.742400847,1.0,0.661512553,0.0,0.483110831,False,,5b65b2773662a8000158c788,,1848124,141,,evan-feature22,full_pf_b,,1
115,29180,142,,,,2,2,1.0,1.0,-1.0,0.0,,0.0-144.0,,-1.0,1085.0,0.0,0.521564361,0.0,0.731078632,1.0,0.6774886809999999,1.0,0.483263956,False,,5b65b2773662a8000158c788,,1859073,142,,evan-feature22,full_pf_b,,1
116,29181,143,,,,1,1,0.0,1.0,-1.0,0.0,,0.0-145.0,,0.0,1029.0,0.0,0.558893102,1.0,0.719810023,1.0,0.67461031,1.0,0.499349834,False,,5b65b2773662a8000158c788,,1869993,143,,evan-feature22,full_pf_b,,1
117,29182,144,,,,1,1,0.0,1.0,0.0,1.0,,0.0-146.0,,1.0,1608.0,0.0,0.611031046,1.0,0.75,1.0,0.688072995,1.0,0.5321422729999999,False,,5b65b2773662a8000158c788,,1881473,144,,evan-feature22,full_pf_b,,0
118,29183,145,,,,1,1,0.0,1.0,-1.0,0.0,,0.0-147.0,,0.0,1079.0,0.0,0.633223941,1.0,0.713567728,1.0,0.75,0.0,0.48185314700000004,False,,5b65b2773662a8000158c788,,1892434,145,,evan-feature22,full_pf_b,,0
119,29184,146,,,,1,1,1.0,1.0,-1.0,0.0,,0.0-148.0,,-1.0,1399.0,1.0,0.664001694,1.0,0.705509768,0.0,0.75,1.0,0.500211065,False,,5b65b2773662a8000158c788,,1903714,146,,evan-feature22,full_pf_b,,0
120,29185,147,,,,1,1,1.0,0.0,0.0,1.0,,0.0-149.0,,0.0,1040.0,1.0,0.664001694,0.0,0.705509768,1.0,0.75,1.0,0.500211065,False,,5b65b2773662a8000158c788,,1914634,147,,evan-feature22,full_pf_b,,0
121,29186,148,,,,2,2,1.0,1.0,0.0,1.0,,0.0-150.0,,1.0,829.0,1.0,0.696508041,0.0,0.71066027,1.0,0.717028709,1.0,0.49792991,False,,5b65b2773662a8000158c788,,1925334,148,,evan-feature22,full_pf_b,,1
122,29187,149,,,,2,2,0.0,0.0,-1.0,0.0,,0.0-151.0,,0.0,1847.0,1.0,0.699883272,1.0,0.75,0.0,0.713543895,0.0,0.496962643,False,,5b65b2773662a8000158c788,,1937053,149,,evan-feature22,full_pf_b,,0
123,29188,150,,,,1,1,0.0,1.0,0.0,1.0,,0.0-152.0,,1.0,1101.0,0.0,0.741163419,1.0,0.75,0.0,0.64691024,1.0,0.513858197,False,,5b65b2773662a8000158c788,,1948033,150,,evan-feature22,full_pf_b,,1
124,29189,151,,,,2,2,0.0,1.0,-1.0,0.0,,0.0-153.0,,0.0,1649.0,1.0,0.75,1.0,0.70816558,0.0,0.594499079,1.0,0.48502124,False,,5b65b2773662a8000158c788,,1959564,151,,evan-feature22,full_pf_b,,1
125,29190,152,,,,1,1,1.0,1.0,0.0,1.0,,0.0-154.0,,1.0,1265.0,1.0,0.75,1.0,0.721848901,0.0,0.62197249,0.0,0.48263586399999997,False,,5b65b2773662a8000158c788,,1970704,152,,evan-feature22,full_pf_b,,1
126,29191,153,,,,2,2,1.0,1.0,-1.0,0.0,,0.0-155.0,,-1.0,682.0,1.0,0.75,1.0,0.74813071,1.0,0.584357161,1.0,0.411477782,False,,5b65b2773662a8000158c788,,1981244,153,,evan-feature22,full_pf_b,,1
127,29192,154,,,,1,1,1.0,1.0,0.0,1.0,,0.0-156.0,,1.0,1137.0,1.0,0.75,1.0,0.75,1.0,0.52287236,0.0,0.488290656,False,,5b65b2773662a8000158c788,,1992243,154,,evan-feature22,full_pf_b,,1
128,29193,155,,,,1,1,1.0,1.0,0.0,1.0,,0.0-157.0,,1.0,1110.0,1.0,0.75,1.0,0.75,0.0,0.544321581,1.0,0.53143059,False,,5b65b2773662a8000158c788,,2003214,155,,evan-feature22,full_pf_b,,0
129,29194,156,,,,1,1,0.0,1.0,0.0,1.0,,0.0-158.0,,1.0,792.0,0.0,0.726754564,1.0,0.75,1.0,0.5129306370000001,1.0,0.530592445,False,,5b65b2773662a8000158c788,,2013883,156,,evan-feature22,full_pf_b,,0
130,29195,157,,,,2,2,0.0,0.0,-1.0,0.0,,0.0-159.0,,0.0,1074.0,1.0,0.75,0.0,0.7392590729999999,0.0,0.479875835,0.0,0.547007051,False,,5b65b2773662a8000158c788,,2024843,157,,evan-feature22,full_pf_b,,1
131,29196,158,,,,2,2,1.0,0.0,-1.0,0.0,,0.0-160.0,,-1.0,848.0,1.0,0.75,1.0,0.7393376979999999,1.0,0.546045419,0.0,0.541267353,False,,5b65b2773662a8000158c788,,2035583,158,,evan-feature22,full_pf_b,,0
132,29197,159,,,,2,2,1.0,0.0,-1.0,0.0,,0.0-161.0,,-1.0,1552.0,1.0,0.75,1.0,0.75,1.0,0.485725895,0.0,0.527625395,False,,5b65b2773662a8000158c788,,2047014,159,,evan-feature22,full_pf_b,,0
133,29198,160,,,,1,1,1.0,1.0,0.0,1.0,,0.0-162.0,,1.0,1076.0,1.0,0.75,1.0,0.725087974,1.0,0.488603595,1.0,0.504019206,False,,5b65b2773662a8000158c788,,2057964,160,,evan-feature22,full_pf_b,,1
134,29199,161,,,,1,1,1.0,1.0,0.0,1.0,,0.0-163.0,,1.0,901.0,1.0,0.745504295,1.0,0.75,1.0,0.452379914,1.0,0.50131194,False,,5b65b2773662a8000158c788,,2068744,161,,evan-feature22,full_pf_b,,0
135,29200,162,,,,1,1,1.0,1.0,0.0,1.0,,0.0-164.0,,1.0,1063.0,1.0,0.728513874,1.0,0.75,1.0,0.44125567200000004,1.0,0.531454591,False,,5b65b2773662a8000158c788,,2079684,162,,evan-feature22,full_pf_b,,0
136,29201,163,,,,2,2,0.0,0.0,-1.0,0.0,,0.0-165.0,,0.0,1014.0,1.0,0.73790804,1.0,0.75,0.0,0.413036656,0.0,0.524619035,False,,5b65b2773662a8000158c788,,2090583,163,,evan-feature22,full_pf_b,,1
137,29202,164,,,,1,1,1.0,0.0,0.0,1.0,,0.0-166.0,,0.0,1206.0,1.0,0.7080961309999999,0.0,0.708666865,1.0,0.431915581,0.0,0.481819489,False,,5b65b2773662a8000158c788,,2101664,164,,evan-feature22,full_pf_b,,1
138,29203,165,,,,1,1,0.0,1.0,0.0,1.0,,0.0-167.0,,1.0,902.0,0.0,0.721378003,1.0,0.71605913,0.0,0.36642387,1.0,0.5036739929999999,False,,5b65b2773662a8000158c788,,2112433,165,,evan-feature22,full_pf_b,,0
139,29204,166,,,,1,1,1.0,1.0,0.0,1.0,,0.0-168.0,,1.0,1011.0,1.0,0.7340618959999999,1.0,0.699323252,0.0,0.35298046299999997,0.0,0.511241692,False,,5b65b2773662a8000158c788,,2123334,166,,evan-feature22,full_pf_b,,0
140,29205,167,,,,2,2,1.0,0.0,-1.0,0.0,,0.0-169.0,,-1.0,761.0,1.0,0.75,1.0,0.70412698,1.0,0.380734814,0.0,0.529580116,False,,5b65b2773662a8000158c788,,2133973,167,,evan-feature22,full_pf_b,,1
141,29206,168,,,,1,1,1.0,1.0,0.0,1.0,,0.0-170.0,,1.0,757.0,1.0,0.7436654909999999,1.0,0.711182751,1.0,0.41125331,0.0,0.49554405,False,,5b65b2773662a8000158c788,,2144604,168,,evan-feature22,full_pf_b,,1
142,29207,169,,,,1,1,0.0,1.0,0.0,1.0,,0.0-171.0,,1.0,737.0,0.0,0.731607915,1.0,0.651774583,1.0,0.35688023,1.0,0.45194491600000003,False,,5b65b2773662a8000158c788,,2155224,169,,evan-feature22,full_pf_b,,0
143,29208,170,,,,2,2,0.0,0.0,-1.0,0.0,,0.0-172.0,,0.0,1198.0,1.0,0.75,1.0,0.75,0.0,0.283145374,0.0,0.528608005,False,,5b65b2773662a8000158c788,,2166303,170,,evan-feature22,full_pf_b,,1
144,29209,171,,,,2,2,0.0,1.0,-1.0,0.0,,0.0-173.0,,0.0,945.0,1.0,0.7491416890000001,1.0,0.7423785959999999,0.0,0.29135870399999997,1.0,0.498888318,False,,5b65b2773662a8000158c788,,2177113,171,,evan-feature22,full_pf_b,,0
145,29210,172,,,,2,2,0.0,0.0,-1.0,0.0,,0.0-174.0,,0.0,988.0,1.0,0.708569387,1.0,0.717682277,0.0,0.294421699,0.0,0.493838163,False,,5b65b2773662a8000158c788,,2187974,172,,evan-feature22,full_pf_b,,0
146,29211,173,,,,1,1,1.0,1.0,0.0,1.0,,0.0-175.0,,1.0,634.0,1.0,0.75,1.0,0.7383382159999999,0.0,0.356098707,0.0,0.442533405,False,,5b65b2773662a8000158c788,,2198494,173,,evan-feature22,full_pf_b,,1
147,29212,174,,,,1,1,0.0,1.0,0.0,1.0,,0.0-176.0,,1.0,719.0,0.0,0.744527075,1.0,0.75,0.0,0.334127506,0.0,0.393165805,False,,5b65b2773662a8000158c788,,2209069,174,,evan-feature22,full_pf_b,,0
148,29213,175,,,,1,1,1.0,1.0,0.0,1.0,,0.0-177.0,,1.0,861.0,1.0,0.75,1.0,0.75,1.0,0.33571021799999995,1.0,0.350393962,False,,5b65b2773662a8000158c788,,2219794,175,,evan-feature22,full_pf_b,,0
149,29214,176,,,,1,1,1.0,0.0,0.0,1.0,,0.0-178.0,,0.0,1026.0,1.0,0.75,0.0,0.75,1.0,0.313628297,0.0,0.36349657399999996,False,,5b65b2773662a8000158c788,,2230694,176,,evan-feature22,full_pf_b,,0
150,29215,177,,,,2,2,0.0,1.0,-1.0,0.0,,0.0-179.0,,0.0,913.0,1.0,0.75,1.0,0.734284182,0.0,0.262667667,1.0,0.380199119,False,,5b65b2773662a8000158c788,,2241483,177,,evan-feature22,full_pf_b,,1
151,29216,178,,,,1,1,1.0,1.0,0.0,1.0,,0.0-180.0,,1.0,767.0,1.0,0.75,1.0,0.75,0.0,0.25,0.0,0.394494013,False,,5b65b2773662a8000158c788,,2252104,178,,evan-feature22,full_pf_b,,1
152,29217,179,,,,2,2,0.0,0.0,-1.0,0.0,,0.0-181.0,,0.0,925.0,1.0,0.722298145,0.0,0.7357822340000001,0.0,0.25,0.0,0.319142121,False,,5b65b2773662a8000158c788,,2262904,179,,evan-feature22,full_pf_b,,1
153,29218,180,,,,2,2,0.0,0.0,-1.0,0.0,,0.0-182.0,,0.0,1096.0,0.0,0.73149275,1.0,0.724276446,0.0,0.305856907,0.0,0.281315057,False,,5b65b2773662a8000158c788,,2273864,180,,evan-feature22,full_pf_b,,0
154,29219,181,,,,1,1,1.0,1.0,0.0,1.0,,0.0-183.0,,1.0,1030.0,1.0,0.7458732690000001,1.0,0.7336382459999999,0.0,0.272571964,0.0,0.266021999,False,,5b65b2773662a8000158c788,,2284753,181,,evan-feature22,full_pf_b,,1
155,29220,182,,,,1,1,1.0,0.0,0.0,1.0,,0.0-184.0,,0.0,732.0,1.0,0.705579037,0.0,0.720778292,0.0,0.320238144,0.0,0.30971744,False,,5b65b2773662a8000158c788,,2295363,182,,evan-feature22,full_pf_b,,0
156,29221,183,,,,1,1,1.0,0.0,0.0,1.0,,0.0-185.0,,0.0,1033.0,1.0,0.700425648,0.0,0.7198784009999999,0.0,0.272590393,0.0,0.304182931,False,,5b65b2773662a8000158c788,,2306284,183,,evan-feature22,full_pf_b,,0
157,29222,184,,,,1,1,1.0,1.0,0.0,1.0,,0.0-186.0,,1.0,797.0,1.0,0.735590785,1.0,0.722714973,0.0,0.25,0.0,0.323421091,False,,5b65b2773662a8000158c788,,2316963,184,,evan-feature22,full_pf_b,,0
158,29223,185,,,,1,1,1.0,1.0,0.0,1.0,,0.0-187.0,,1.0,1017.0,1.0,0.724807662,1.0,0.63146213,0.0,0.36836492600000004,0.0,0.34592153299999995,False,,5b65b2773662a8000158c788,,2327854,185,,evan-feature22,full_pf_b,,0
159,29224,186,,,,1,1,1.0,1.0,0.0,1.0,,0.0-188.0,,1.0,725.0,1.0,0.7352796909999999,1.0,0.555111392,0.0,0.36003922,0.0,0.31433779999999995,False,,5b65b2773662a8000158c788,,2338464,186,,evan-feature22,full_pf_b,,0
160,29225,187,notice,,,,,,,,,,0.0-189.0,"{""Q0"":""It was easier to tell which would have a positive outcome in the second half""}",,34649.0,,,,,,,,,False,,5b65b2773662a8000158c788,,2373115,187,Q,survey-text,full_pf_b,,1
161,29226,188,track1,,[0],,,,,,,,0.0-190.0,"{""Q0"":""yes""}",,5612.0,,,,,,,,,False,,5b65b2773662a8000158c788,,2378732,188,Q,evan-quiz,full_pf_b,,1
162,29227,189,track2,,[2],,,,,,,,0.0-191.0,"{""Q0"":""N/A""}",,5239.0,,,,,,,,,False,,5b65b2773662a8000158c788,,2383974,189,Q,evan-quiz,full_pf_b,,1
163,29228,190,strat,,,,,,,,,,0.0-192.0,"{""Q0"":""Black tended to be on the left and yellow on the right. So if a yellow caused a negative, I would go to the left.""}",,60443.0,,,,,,,,,False,,5b65b2773662a8000158c788,,2444421,190,Q,survey-text,full_pf_b,,1
