,index,Unnamed: 0,Q_name,button_pressed,choice_idxs,chosen_pos,chosen_state,chosen_state_f_1_outcome,chosen_state_f_2_outcome,f_1_reward,f_2_reward,incor_questions,internal_node_id,responses,reward_received,rt,s_1_f_1_outcome,s_1_f_1_prob,s_1_f_2_outcome,s_1_f_2_prob,s_2_f_1_outcome,s_2_f_1_prob,s_2_f_2_outcome,s_2_f_2_prob,safe_first,stimulus,subjectID,success,time_elapsed,trial_index,trial_num,trial_type,version,view_history,switching
0,29923,25,,,,1,1,0.0,1.0,-1.0,0.0,,0.0-27.0,,0.0,754.44,0.0,0.6,1.0,0.6,0.0,0.4,1.0,0.4,False,,5e658181af3bd530ce98d4c5,,901344,25,,evan-feature22,full_pf_b,,0
1,29924,26,,,,1,1,1.0,1.0,-1.0,0.0,,0.0-28.0,,-1.0,2386.4,1.0,0.608053294,1.0,0.63424552,1.0,0.397152172,0.0,0.347069101,False,,5e658181af3bd530ce98d4c5,,913497,26,,evan-feature22,full_pf_b,,0
2,29925,27,,,,2,2,0.0,0.0,-1.0,0.0,,0.0-29.0,,0.0,2384.49,1.0,0.642237155,0.0,0.648566321,0.0,0.389407674,0.0,0.285525717,False,,5e658181af3bd530ce98d4c5,,925642,27,,evan-feature22,full_pf_b,,1
3,29926,28,,,,2,2,1.0,0.0,-1.0,0.0,,0.0-30.0,,-1.0,1560.675,1.0,0.661086576,0.0,0.630492543,1.0,0.399058924,0.0,0.25,False,,5e658181af3bd530ce98d4c5,,936965,28,,evan-feature22,full_pf_b,,0
4,29927,29,,,,1,1,1.0,0.0,0.0,1.0,,0.0-31.0,,0.0,1944.485,1.0,0.631324137,0.0,0.6269842929999999,0.0,0.38734784299999997,0.0,0.25,False,,5e658181af3bd530ce98d4c5,,948670,29,,evan-feature22,full_pf_b,,1
5,29928,30,,,,1,1,1.0,0.0,0.0,1.0,,0.0-32.0,,0.0,1530.59,1.0,0.6381991370000001,0.0,0.68987999,1.0,0.384107265,0.0,0.271332943,False,,5e658181af3bd530ce98d4c5,,959964,30,,evan-feature22,full_pf_b,,0
6,29929,31,,,,2,2,1.0,1.0,-1.0,0.0,,0.0-33.0,,-1.0,1659.935,1.0,0.66034901,1.0,0.742641349,1.0,0.360225629,1.0,0.25,False,,5e658181af3bd530ce98d4c5,,971390,31,,evan-feature22,full_pf_b,,1
7,29930,32,,,,2,2,0.0,0.0,-1.0,0.0,,0.0-34.0,,0.0,1897.935,1.0,0.638612418,1.0,0.75,0.0,0.367273939,0.0,0.25,False,,5e658181af3bd530ce98d4c5,,983052,32,,evan-feature22,full_pf_b,,0
8,29931,33,,,,2,2,1.0,1.0,0.0,1.0,,0.0-35.0,,1.0,1291.815,1.0,0.624340629,0.0,0.75,1.0,0.425829545,1.0,0.25,False,,5e658181af3bd530ce98d4c5,,994106,33,,evan-feature22,full_pf_b,,0
9,29932,34,,,,2,2,1.0,0.0,0.0,1.0,,0.0-36.0,,0.0,1655.05,1.0,0.621999804,1.0,0.75,1.0,0.368609357,0.0,0.25,False,,5e658181af3bd530ce98d4c5,,1005523,34,,evan-feature22,full_pf_b,,0
10,29933,35,,,,1,1,0.0,1.0,-1.0,0.0,,0.0-37.0,,0.0,2353.355,0.0,0.62666403,1.0,0.75,0.0,0.311151498,0.0,0.25,False,,5e658181af3bd530ce98d4c5,,1017638,35,,evan-feature22,full_pf_b,,1
11,29934,36,,,,1,1,1.0,1.0,0.0,1.0,,0.0-38.0,,1.0,1157.88,1.0,0.6819650009999999,1.0,0.75,1.0,0.310763048,1.0,0.25,False,,5e658181af3bd530ce98d4c5,,1028560,36,,evan-feature22,full_pf_b,,0
12,29935,37,,,,2,2,0.0,0.0,-1.0,0.0,,0.0-39.0,,0.0,3179.2,1.0,0.740626951,1.0,0.75,0.0,0.25,0.0,0.25,False,,5e658181af3bd530ce98d4c5,,1041501,37,,evan-feature22,full_pf_b,,1
13,29936,38,,,,2,2,1.0,0.0,-1.0,0.0,,0.0-40.0,,-1.0,2944.485,1.0,0.739599242,1.0,0.742034978,1.0,0.25397114600000004,0.0,0.25,False,,5e658181af3bd530ce98d4c5,,1054211,38,,evan-feature22,full_pf_b,,0
14,29937,39,,,,2,2,0.0,0.0,-1.0,0.0,,0.0-41.0,,0.0,3119.57,1.0,0.732341315,1.0,0.72735643,0.0,0.25,0.0,0.25,False,,5e658181af3bd530ce98d4c5,,1067089,39,,evan-feature22,full_pf_b,,0
15,29938,40,,,,2,2,0.0,0.0,-1.0,0.0,,0.0-42.0,,0.0,1879.33,1.0,0.7062287770000001,1.0,0.75,0.0,0.29002151,0.0,0.288256649,False,,5e658181af3bd530ce98d4c5,,1078728,40,,evan-feature22,full_pf_b,,0
16,29939,41,,,,2,2,1.0,1.0,-1.0,0.0,,0.0-43.0,,-1.0,1581.8,1.0,0.7086029209999999,0.0,0.75,1.0,0.274129113,1.0,0.262851608,False,,5e658181af3bd530ce98d4c5,,1090070,41,,evan-feature22,full_pf_b,,0
17,29940,42,,,,2,2,0.0,1.0,-1.0,0.0,,0.0-44.0,,0.0,1845.39,1.0,0.669189651,1.0,0.727614338,0.0,0.298444036,1.0,0.296944518,False,,5e658181af3bd530ce98d4c5,,1101677,42,,evan-feature22,full_pf_b,,0
18,29941,43,,,,2,2,0.0,0.0,-1.0,0.0,,0.0-45.0,,0.0,1866.965,1.0,0.6819912929999999,1.0,0.7179434290000001,0.0,0.265003961,0.0,0.28157921199999997,False,,5e658181af3bd530ce98d4c5,,1113305,43,,evan-feature22,full_pf_b,,0
19,29942,44,,,,1,1,1.0,0.0,0.0,1.0,,0.0-46.0,,0.0,2785.55,1.0,0.665275002,0.0,0.723065271,1.0,0.260414971,0.0,0.30973870000000003,False,,5e658181af3bd530ce98d4c5,,1125854,44,,evan-feature22,full_pf_b,,1
20,29943,45,,,,2,2,0.0,0.0,-1.0,0.0,,0.0-47.0,,0.0,2055.53,1.0,0.6660593260000001,1.0,0.728032907,0.0,0.30922817,0.0,0.338778608,False,,5e658181af3bd530ce98d4c5,,1137672,45,,evan-feature22,full_pf_b,,1
21,29944,46,,,,2,2,1.0,1.0,-1.0,0.0,,0.0-48.0,,-1.0,2515.335,0.0,0.702068785,0.0,0.6528750879999999,1.0,0.287329608,1.0,0.35789613200000003,False,,5e658181af3bd530ce98d4c5,,1149948,46,,evan-feature22,full_pf_b,,0
22,29945,47,,,,1,1,1.0,1.0,-1.0,0.0,,0.0-49.0,,-1.0,2194.055,1.0,0.651939787,1.0,0.636725589,1.0,0.284834488,1.0,0.358563756,False,,5e658181af3bd530ce98d4c5,,1161906,47,,evan-feature22,full_pf_b,,1
23,29946,48,,,,1,1,1.0,0.0,0.0,1.0,,0.0-50.0,,0.0,2046.885,1.0,0.67573929,0.0,0.612550049,1.0,0.37130387600000003,0.0,0.383542402,False,,5e658181af3bd530ce98d4c5,,1173716,48,,evan-feature22,full_pf_b,,0
24,29947,49,,,,1,1,1.0,1.0,0.0,1.0,,0.0-51.0,,1.0,1069.325,1.0,0.620753801,1.0,0.60513644,1.0,0.385529434,1.0,0.340361743,False,,5e658181af3bd530ce98d4c5,,1184549,49,,evan-feature22,full_pf_b,,0
25,29948,50,,,,1,1,1.0,1.0,0.0,1.0,,0.0-52.0,,1.0,1151.235,1.0,0.673564893,1.0,0.672437924,0.0,0.292955382,0.0,0.337633795,False,,5e658181af3bd530ce98d4c5,,1195462,50,,evan-feature22,full_pf_b,,0
26,29949,51,,,,2,2,0.0,1.0,-1.0,0.0,,0.0-53.0,,0.0,1225.51,1.0,0.6749427,1.0,0.724197502,0.0,0.32391132100000003,1.0,0.350995264,False,,5e658181af3bd530ce98d4c5,,1206451,51,,evan-feature22,full_pf_b,,1
27,29950,52,,,,2,2,0.0,0.0,-1.0,0.0,,0.0-54.0,,0.0,990.185,1.0,0.6940159379999999,1.0,0.75,0.0,0.31710554399999996,0.0,0.413450341,False,,5e658181af3bd530ce98d4c5,,1217205,52,,evan-feature22,full_pf_b,,0
28,29951,53,,,,2,2,1.0,1.0,-1.0,0.0,,0.0-55.0,,-1.0,1444.845,1.0,0.6916018270000001,1.0,0.69001187,1.0,0.261817804,1.0,0.40038635,False,,5e658181af3bd530ce98d4c5,,1228414,53,,evan-feature22,full_pf_b,,0
29,29952,54,,,,2,2,1.0,0.0,-1.0,0.0,,0.0-56.0,,-1.0,1127.155,0.0,0.641061544,1.0,0.71337992,1.0,0.277296461,0.0,0.47372791700000005,False,,5e658181af3bd530ce98d4c5,,1239304,54,,evan-feature22,full_pf_b,,0
30,29953,55,,,,2,2,0.0,1.0,-1.0,0.0,,0.0-57.0,,0.0,1748.75,1.0,0.6082438520000001,1.0,0.708471106,0.0,0.28745137,1.0,0.564174476,False,,5e658181af3bd530ce98d4c5,,1250817,55,,evan-feature22,full_pf_b,,0
31,29954,56,,,,1,1,1.0,0.0,-1.0,0.0,,0.0-58.0,,-1.0,2543.83,1.0,0.6051112120000001,0.0,0.7118147229999999,0.0,0.272390611,0.0,0.5595149939999999,False,,5e658181af3bd530ce98d4c5,,1263124,56,,evan-feature22,full_pf_b,,1
32,29955,57,,,,2,2,0.0,0.0,-1.0,0.0,,0.0-59.0,,0.0,3086.05,0.0,0.582420852,1.0,0.635867583,0.0,0.31089574,0.0,0.5227206520000001,False,,5e658181af3bd530ce98d4c5,,1275972,57,,evan-feature22,full_pf_b,,1
33,29956,58,,,,1,1,1.0,1.0,0.0,1.0,,0.0-60.0,,1.0,1413.035,1.0,0.623195575,1.0,0.655026044,0.0,0.25,0.0,0.560387538,False,,5e658181af3bd530ce98d4c5,,1287149,58,,evan-feature22,full_pf_b,,1
34,29957,59,,,,2,2,0.0,1.0,-1.0,0.0,,0.0-61.0,,0.0,1313.235,1.0,0.601889598,1.0,0.678198724,0.0,0.25,1.0,0.559922936,False,,5e658181af3bd530ce98d4c5,,1298224,59,,evan-feature22,full_pf_b,,1
35,29958,60,,,,1,1,1.0,1.0,-1.0,0.0,,0.0-62.0,,-1.0,3149.3,1.0,0.601259914,1.0,0.704681482,0.0,0.33908969299999997,1.0,0.505003715,False,,5e658181af3bd530ce98d4c5,,1311139,60,,evan-feature22,full_pf_b,,1
36,29959,61,,,,2,2,1.0,0.0,-1.0,0.0,,0.0-63.0,,-1.0,2205.42,1.0,0.59645454,1.0,0.710437172,1.0,0.327441879,0.0,0.391749613,False,,5e658181af3bd530ce98d4c5,,1323107,61,,evan-feature22,full_pf_b,,1
37,29960,62,,,,2,2,1.0,0.0,-1.0,0.0,,0.0-64.0,,-1.0,2296.635,1.0,0.529473,0.0,0.636758527,1.0,0.301338063,0.0,0.365661481,False,,5e658181af3bd530ce98d4c5,,1335166,62,,evan-feature22,full_pf_b,,0
38,29961,63,,,,1,1,0.0,1.0,0.0,1.0,,0.0-65.0,,1.0,1328.51,0.0,0.541657162,1.0,0.634541962,1.0,0.343535366,0.0,0.371763742,False,,5e658181af3bd530ce98d4c5,,1346256,63,,evan-feature22,full_pf_b,,1
39,29962,64,,,,2,2,1.0,1.0,-1.0,0.0,,0.0-66.0,,-1.0,1322.785,0.0,0.5707533260000001,1.0,0.589121171,1.0,0.326428396,1.0,0.43961622899999997,False,,5e658181af3bd530ce98d4c5,,1357340,64,,evan-feature22,full_pf_b,,1
40,29963,65,,,,1,1,0.0,0.0,-1.0,0.0,,0.0-67.0,,0.0,1896.51,0.0,0.5707533260000001,0.0,0.589121171,0.0,0.326428396,0.0,0.43961622899999997,False,,5e658181af3bd530ce98d4c5,,1369001,65,,evan-feature22,full_pf_b,,1
41,29964,66,,,,1,1,1.0,0.0,-1.0,0.0,,0.0-68.0,,-1.0,826.205,1.0,0.506271295,0.0,0.641775594,0.0,0.37149690700000004,0.0,0.404330166,False,,5e658181af3bd530ce98d4c5,,1379590,66,,evan-feature22,full_pf_b,,0
42,29965,67,,,,1,1,0.0,1.0,0.0,1.0,,0.0-69.0,,1.0,977.2950001,0.0,0.455642565,1.0,0.623605825,1.0,0.358753011,0.0,0.346174041,False,,5e658181af3bd530ce98d4c5,,1390332,67,,evan-feature22,full_pf_b,,0
43,29966,68,,,,1,1,0.0,0.0,0.0,1.0,,0.0-70.0,,0.0,882.1500002,0.0,0.483677308,0.0,0.5904681070000001,0.0,0.402218411,0.0,0.35344697,False,,5e658181af3bd530ce98d4c5,,1400978,68,,evan-feature22,full_pf_b,,0
44,29967,69,,,,1,1,1.0,1.0,0.0,1.0,,0.0-71.0,,1.0,670.655,1.0,0.394210977,1.0,0.558925494,1.0,0.540052017,1.0,0.35182128700000004,False,,5e658181af3bd530ce98d4c5,,1411412,69,,evan-feature22,full_pf_b,,0
45,29968,70,,,,1,1,0.0,0.0,-1.0,0.0,,0.0-72.0,,0.0,1869.11,0.0,0.382300414,0.0,0.577670603,0.0,0.607608448,1.0,0.378261578,False,,5e658181af3bd530ce98d4c5,,1423043,70,,evan-feature22,full_pf_b,,0
46,29969,71,,,,1,1,1.0,0.0,-1.0,0.0,,0.0-73.0,,-1.0,1849.37,1.0,0.357596762,0.0,0.5929076529999999,1.0,0.6579790010000001,0.0,0.401326777,False,,5e658181af3bd530ce98d4c5,,1434658,71,,evan-feature22,full_pf_b,,0
47,29970,72,,,,2,2,1.0,0.0,-1.0,0.0,,0.0-74.0,,-1.0,1126.905,0.0,0.362033495,0.0,0.582308608,1.0,0.649195052,0.0,0.355158505,False,,5e658181af3bd530ce98d4c5,,1445547,72,,evan-feature22,full_pf_b,,1
48,29971,73,,,,1,1,1.0,0.0,-1.0,0.0,,0.0-75.0,,-1.0,1619.82,1.0,0.369620635,0.0,0.669100864,1.0,0.706059111,1.0,0.362516241,False,,5e658181af3bd530ce98d4c5,,1456932,73,,evan-feature22,full_pf_b,,1
49,29972,74,,,,1,1,0.0,1.0,-1.0,0.0,,0.0-76.0,,0.0,1093.605,0.0,0.41477751399999996,1.0,0.7284416779999999,0.0,0.7182656940000001,1.0,0.36228040899999997,False,,5e658181af3bd530ce98d4c5,,1467790,74,,evan-feature22,full_pf_b,,0
50,29973,75,,,,1,1,0.0,1.0,0.0,1.0,,0.0-77.0,,1.0,1402.515,0.0,0.37675460299999997,1.0,0.703250285,1.0,0.75,1.0,0.461979164,False,,5e658181af3bd530ce98d4c5,,1478954,75,,evan-feature22,full_pf_b,,0
51,29974,76,,,,1,1,0.0,1.0,0.0,1.0,,0.0-78.0,,1.0,759.355,0.0,0.398716075,1.0,0.6723864890000001,0.0,0.674153818,0.0,0.519029516,False,,5e658181af3bd530ce98d4c5,,1489476,76,,evan-feature22,full_pf_b,,0
52,29975,77,,,,2,2,1.0,0.0,-1.0,0.0,,0.0-79.0,,-1.0,1168.595,0.0,0.34677856700000004,1.0,0.69057175,1.0,0.6822438540000001,0.0,0.477292237,False,,5e658181af3bd530ce98d4c5,,1500408,77,,evan-feature22,full_pf_b,,1
53,29976,78,,,,1,1,0.0,1.0,0.0,1.0,,0.0-80.0,,1.0,973.6550001,0.0,0.28580469199999997,1.0,0.68408818,1.0,0.684207565,1.0,0.49780448299999996,False,,5e658181af3bd530ce98d4c5,,1511142,78,,evan-feature22,full_pf_b,,1
54,29978,80,,,,1,1,0.0,1.0,-1.0,0.0,,0.0-82.0,,0.0,1916.45,0.0,0.25,1.0,0.7405808970000001,1.0,0.679614108,0.0,0.436436964,False,,5e658181af3bd530ce98d4c5,,1526136,80,,evan-feature22,full_pf_b,,0
55,29979,81,,,,1,1,1.0,1.0,0.0,1.0,,0.0-83.0,,1.0,1001.57,1.0,0.29890393,1.0,0.730505706,1.0,0.7328203320000001,1.0,0.439256938,False,,5e658181af3bd530ce98d4c5,,1536900,81,,evan-feature22,full_pf_b,,0
56,29980,82,,,,1,1,0.0,1.0,-1.0,0.0,,0.0-84.0,,0.0,1694.965,0.0,0.326762398,1.0,0.7148059609999999,1.0,0.75,0.0,0.44389608799999997,False,,5e658181af3bd530ce98d4c5,,1548358,82,,evan-feature22,full_pf_b,,0
57,29981,83,,,,1,1,0.0,1.0,-1.0,0.0,,0.0-85.0,,0.0,1134.64,0.0,0.295168515,1.0,0.739760854,1.0,0.719947008,0.0,0.35277284600000003,False,,5e658181af3bd530ce98d4c5,,1559254,83,,evan-feature22,full_pf_b,,0
58,29982,84,,,,1,1,0.0,0.0,-1.0,0.0,,0.0-86.0,,0.0,793.7749999,0.0,0.25,0.0,0.70781482,1.0,0.75,0.0,0.286095925,False,,5e658181af3bd530ce98d4c5,,1569807,84,,evan-feature22,full_pf_b,,0
59,29983,85,,,,1,1,1.0,0.0,0.0,1.0,,0.0-87.0,,0.0,1185.22,1.0,0.25638190899999996,0.0,0.704088163,1.0,0.75,0.0,0.26872601399999996,False,,5e658181af3bd530ce98d4c5,,1580753,85,,evan-feature22,full_pf_b,,0
60,29984,86,,,,1,1,1.0,1.0,0.0,1.0,,0.0-88.0,,1.0,750.76,1.0,0.271581126,1.0,0.669760107,0.0,0.733896663,0.0,0.273244572,False,,5e658181af3bd530ce98d4c5,,1591266,86,,evan-feature22,full_pf_b,,0
61,29985,87,,,,1,1,0.0,0.0,0.0,1.0,,0.0-89.0,,0.0,820.4699999,0.0,0.257144401,0.0,0.600575706,1.0,0.74488122,1.0,0.25,False,,5e658181af3bd530ce98d4c5,,1601848,87,,evan-feature22,full_pf_b,,0
62,29986,88,,,,1,1,0.0,1.0,-1.0,0.0,,0.0-90.0,,0.0,2032.725,0.0,0.25,1.0,0.616870026,1.0,0.723610234,0.0,0.25,False,,5e658181af3bd530ce98d4c5,,1613643,88,,evan-feature22,full_pf_b,,0
63,29987,89,,,,1,1,1.0,1.0,0.0,1.0,,0.0-91.0,,1.0,758.7300001,1.0,0.25,1.0,0.583540187,1.0,0.7041042559999999,0.0,0.285961995,False,,5e658181af3bd530ce98d4c5,,1624166,89,,evan-feature22,full_pf_b,,0
64,29988,90,,,,1,1,0.0,0.0,-1.0,0.0,,0.0-92.0,,0.0,998.655,0.0,0.27254536,0.0,0.53875765,1.0,0.693783448,1.0,0.284961652,False,,5e658181af3bd530ce98d4c5,,1634926,90,,evan-feature22,full_pf_b,,0
65,29989,91,,,,1,1,1.0,1.0,0.0,1.0,,0.0-93.0,,1.0,1001.03,1.0,0.25,1.0,0.548431252,1.0,0.734221895,0.0,0.279445214,False,,5e658181af3bd530ce98d4c5,,1645690,91,,evan-feature22,full_pf_b,,0
66,29990,92,,,,1,1,0.0,0.0,-1.0,0.0,,0.0-94.0,,0.0,1201.81,0.0,0.258640684,0.0,0.545878066,1.0,0.725245965,0.0,0.31487537,False,,5e658181af3bd530ce98d4c5,,1656652,92,,evan-feature22,full_pf_b,,0
67,29991,93,,,,1,1,0.0,1.0,-1.0,0.0,,0.0-95.0,,0.0,1239.18,0.0,0.251103711,1.0,0.5776290629999999,0.0,0.696320133,0.0,0.317831047,False,,5e658181af3bd530ce98d4c5,,1667653,93,,evan-feature22,full_pf_b,,0
68,29992,94,,,,1,1,0.0,0.0,-1.0,0.0,,0.0-96.0,,0.0,1530.22,0.0,0.276630292,0.0,0.617329858,1.0,0.73838088,0.0,0.261471582,False,,5e658181af3bd530ce98d4c5,,1678949,94,,evan-feature22,full_pf_b,,0
69,29993,95,,,,1,1,0.0,1.0,0.0,1.0,,0.0-97.0,,1.0,761.71,0.0,0.297716424,1.0,0.618863717,0.0,0.7402358259999999,1.0,0.262600834,False,,5e658181af3bd530ce98d4c5,,1689472,95,,evan-feature22,full_pf_b,,0
70,29994,96,,,,1,1,0.0,1.0,-1.0,0.0,,0.0-98.0,,0.0,995.4950002,0.0,0.290935512,1.0,0.695370945,0.0,0.706570507,0.0,0.280030553,False,,5e658181af3bd530ce98d4c5,,1700227,96,,evan-feature22,full_pf_b,,0
71,29995,97,,,,1,1,0.0,1.0,-1.0,0.0,,0.0-99.0,,0.0,875.82,0.0,0.25,1.0,0.6465277079999999,1.0,0.67766682,0.0,0.25,False,,5e658181af3bd530ce98d4c5,,1710865,97,,evan-feature22,full_pf_b,,0
72,29996,98,,,,1,1,0.0,1.0,-1.0,0.0,,0.0-100.0,,0.0,889.83,0.0,0.26463816,1.0,0.636100213,1.0,0.646048507,0.0,0.265607101,False,,5e658181af3bd530ce98d4c5,,1721516,98,,evan-feature22,full_pf_b,,0
73,29997,99,,,,1,1,0.0,0.0,-1.0,0.0,,0.0-101.0,,0.0,805.9699999,0.0,0.314340707,0.0,0.667795927,0.0,0.613630805,0.0,0.25,False,,5e658181af3bd530ce98d4c5,,1732082,99,,evan-feature22,full_pf_b,,0
74,29998,100,,,,1,1,0.0,0.0,-1.0,0.0,,0.0-102.0,,0.0,992.11,0.0,0.28685784,0.0,0.6622549529999999,0.0,0.652154117,1.0,0.25,False,,5e658181af3bd530ce98d4c5,,1742835,100,,evan-feature22,full_pf_b,,0
75,29999,101,,,,1,1,0.0,1.0,0.0,1.0,,0.0-103.0,,1.0,1072.665,0.0,0.304106554,1.0,0.631289538,1.0,0.707041942,0.0,0.29314237,False,,5e658181af3bd530ce98d4c5,,1753669,101,,evan-feature22,full_pf_b,,0
76,30000,102,,,,1,1,0.0,1.0,0.0,1.0,,0.0-104.0,,1.0,1738.5,0.0,0.304806932,1.0,0.571167718,1.0,0.680472346,1.0,0.25,False,,5e658181af3bd530ce98d4c5,,1765168,102,,evan-feature22,full_pf_b,,0
77,30001,103,,,,1,1,1.0,0.0,0.0,1.0,,0.0-105.0,,0.0,966.825,1.0,0.37919861,0.0,0.5724849710000001,0.0,0.705638003,0.0,0.30179300600000003,False,,5e658181af3bd530ce98d4c5,,1775897,103,,evan-feature22,full_pf_b,,0
78,30002,104,,,,1,1,1.0,0.0,0.0,1.0,,0.0-106.0,,0.0,895.8099999,1.0,0.464277969,0.0,0.554034373,0.0,0.7372627340000001,1.0,0.264699741,False,,5e658181af3bd530ce98d4c5,,1786555,104,,evan-feature22,full_pf_b,,0
79,30003,105,,,,2,2,0.0,1.0,-1.0,0.0,,0.0-107.0,,0.0,1412.6,1.0,0.465104323,1.0,0.530793115,0.0,0.75,1.0,0.31683071,False,,5e658181af3bd530ce98d4c5,,1797730,105,,evan-feature22,full_pf_b,,1
80,30004,106,,,,2,2,1.0,0.0,0.0,1.0,,0.0-108.0,,0.0,828.0100001000001,0.0,0.465104323,1.0,0.530793115,1.0,0.75,0.0,0.31683071,False,,5e658181af3bd530ce98d4c5,,1808322,106,,evan-feature22,full_pf_b,,0
81,30005,107,,,,1,1,0.0,1.0,0.0,1.0,,0.0-109.0,,1.0,917.965,0.0,0.46833986,1.0,0.570249239,1.0,0.7244472590000001,1.0,0.364114163,False,,5e658181af3bd530ce98d4c5,,1819002,107,,evan-feature22,full_pf_b,,1
82,30006,108,,,,1,1,0.0,1.0,0.0,1.0,,0.0-110.0,,1.0,1268.035,0.0,0.445444024,1.0,0.649673355,0.0,0.6845441290000001,0.0,0.300660449,False,,5e658181af3bd530ce98d4c5,,1830031,108,,evan-feature22,full_pf_b,,0
83,30007,109,,,,1,1,1.0,1.0,0.0,1.0,,0.0-111.0,,1.0,838.4449999,1.0,0.39909721299999995,1.0,0.6715179509999999,1.0,0.742310028,0.0,0.35496088299999995,False,,5e658181af3bd530ce98d4c5,,1840633,109,,evan-feature22,full_pf_b,,0
84,30008,110,,,,1,1,1.0,0.0,0.0,1.0,,0.0-112.0,,0.0,771.5450001,1.0,0.37956104799999996,0.0,0.694725302,1.0,0.7181651309999999,0.0,0.38726906299999997,False,,5e658181af3bd530ce98d4c5,,1851166,110,,evan-feature22,full_pf_b,,0
85,30009,111,,,,1,1,0.0,1.0,0.0,1.0,,0.0-113.0,,1.0,862.43,0.0,0.404995034,1.0,0.724375412,1.0,0.6910946859999999,0.0,0.387187347,False,,5e658181af3bd530ce98d4c5,,1861793,111,,evan-feature22,full_pf_b,,0
86,30010,112,,,,1,1,1.0,1.0,0.0,1.0,,0.0-114.0,,1.0,990.2950001,1.0,0.461740803,1.0,0.75,1.0,0.75,0.0,0.34872038200000005,False,,5e658181af3bd530ce98d4c5,,1872545,112,,evan-feature22,full_pf_b,,0
87,30011,113,,,,1,1,0.0,1.0,-1.0,0.0,,0.0-115.0,,0.0,1510.55,0.0,0.43821380600000004,1.0,0.738833273,0.0,0.728286963,0.0,0.399538128,False,,5e658181af3bd530ce98d4c5,,1883816,113,,evan-feature22,full_pf_b,,0
88,30012,114,,,,1,1,1.0,1.0,0.0,1.0,,0.0-116.0,,1.0,812.1799999,1.0,0.41709882,1.0,0.736666736,1.0,0.75,1.0,0.389095584,False,,5e658181af3bd530ce98d4c5,,1894389,114,,evan-feature22,full_pf_b,,0
89,30013,115,,,,1,1,1.0,1.0,0.0,1.0,,0.0-117.0,,1.0,902.6149998,1.0,0.39749009799999996,1.0,0.744320029,1.0,0.75,0.0,0.363848678,False,,5e658181af3bd530ce98d4c5,,1905055,115,,evan-feature22,full_pf_b,,0
90,30014,116,,,,1,1,1.0,1.0,-1.0,0.0,,0.0-118.0,,-1.0,1372.135,1.0,0.392653706,1.0,0.75,1.0,0.75,0.0,0.384386976,False,,5e658181af3bd530ce98d4c5,,1916187,116,,evan-feature22,full_pf_b,,0
91,30015,117,,,,1,1,0.0,1.0,-1.0,0.0,,0.0-119.0,,0.0,1383.145,0.0,0.31190902600000003,1.0,0.75,1.0,0.732413819,0.0,0.413082932,False,,5e658181af3bd530ce98d4c5,,1927333,117,,evan-feature22,full_pf_b,,0
92,30016,118,,,,1,1,1.0,1.0,0.0,1.0,,0.0-120.0,,1.0,750.74,1.0,0.366917648,1.0,0.740073855,1.0,0.75,0.0,0.352861979,False,,5e658181af3bd530ce98d4c5,,1937847,118,,evan-feature22,full_pf_b,,0
93,30017,119,,,,1,1,0.0,1.0,0.0,1.0,,0.0-121.0,,1.0,891.175,0.0,0.3645172,1.0,0.721770713,0.0,0.75,0.0,0.404074511,False,,5e658181af3bd530ce98d4c5,,1948498,119,,evan-feature22,full_pf_b,,0
94,30018,120,,,,1,1,0.0,1.0,0.0,1.0,,0.0-122.0,,1.0,695.5600001,0.0,0.35205600299999995,1.0,0.68983859,1.0,0.739735447,1.0,0.366895945,False,,5e658181af3bd530ce98d4c5,,1958956,120,,evan-feature22,full_pf_b,,0
95,30019,121,,,,1,1,1.0,1.0,0.0,1.0,,0.0-123.0,,1.0,673.22,1.0,0.40998722600000004,1.0,0.720859127,1.0,0.673854955,1.0,0.368528541,False,,5e658181af3bd530ce98d4c5,,1969392,121,,evan-feature22,full_pf_b,,0
96,30020,122,,,,1,1,0.0,0.0,-1.0,0.0,,0.0-124.0,,0.0,1204.71,0.0,0.353625316,0.0,0.75,1.0,0.695605473,0.0,0.38303674200000004,False,,5e658181af3bd530ce98d4c5,,1980358,122,,evan-feature22,full_pf_b,,0
97,30021,123,,,,1,1,0.0,0.0,0.0,1.0,,0.0-125.0,,0.0,793.235,0.0,0.359216989,0.0,0.75,1.0,0.6987915090000001,0.0,0.35169046200000004,False,,5e658181af3bd530ce98d4c5,,1990913,123,,evan-feature22,full_pf_b,,0
98,30022,124,,,,1,1,0.0,1.0,-1.0,0.0,,0.0-126.0,,0.0,1177.585,0.0,0.35834496899999996,1.0,0.75,0.0,0.707067742,0.0,0.416763636,False,,5e658181af3bd530ce98d4c5,,2001854,124,,evan-feature22,full_pf_b,,0
99,30023,125,,,,1,1,0.0,1.0,-1.0,0.0,,0.0-127.0,,0.0,651.6199999,0.0,0.38741613799999997,1.0,0.7177369570000001,1.0,0.734902455,1.0,0.49438664299999996,False,,5e658181af3bd530ce98d4c5,,2012269,125,,evan-feature22,full_pf_b,,0
100,30024,126,,,,1,1,0.0,1.0,0.0,1.0,,0.0-128.0,,1.0,702.5700002,0.0,0.405255252,1.0,0.7300466640000001,0.0,0.7027748070000001,0.0,0.504359668,False,,5e658181af3bd530ce98d4c5,,2022734,126,,evan-feature22,full_pf_b,,0
101,30025,127,,,,1,1,0.0,0.0,0.0,1.0,,0.0-129.0,,0.0,737.5449999,0.0,0.40697073,0.0,0.7260142190000001,1.0,0.724461982,1.0,0.522779179,False,,5e658181af3bd530ce98d4c5,,2033236,127,,evan-feature22,full_pf_b,,0
102,30026,128,,,,1,1,0.0,1.0,0.0,1.0,,0.0-130.0,,1.0,778.5499999,0.0,0.43906215299999996,1.0,0.7252802340000001,0.0,0.719079934,0.0,0.5712990579999999,False,,5e658181af3bd530ce98d4c5,,2043773,128,,evan-feature22,full_pf_b,,0
103,30027,129,,,,1,1,0.0,1.0,0.0,1.0,,0.0-131.0,,1.0,823.54,0.0,0.4076705,1.0,0.73280499,1.0,0.681313127,1.0,0.523891346,False,,5e658181af3bd530ce98d4c5,,2054360,129,,evan-feature22,full_pf_b,,0
104,30028,130,,,,1,1,0.0,1.0,0.0,1.0,,0.0-132.0,,1.0,711.9199999,0.0,0.399102911,1.0,0.730498344,1.0,0.661080239,0.0,0.46742603,False,,5e658181af3bd530ce98d4c5,,2064836,130,,evan-feature22,full_pf_b,,0
105,30029,131,,,,1,1,1.0,1.0,-1.0,0.0,,0.0-133.0,,-1.0,1297.445,1.0,0.356477282,1.0,0.712296395,1.0,0.641812684,0.0,0.44868414,False,,5e658181af3bd530ce98d4c5,,2075895,131,,evan-feature22,full_pf_b,,0
106,30030,132,,,,1,1,1.0,0.0,0.0,1.0,,0.0-134.0,,0.0,721.8250001,1.0,0.462760722,0.0,0.692349322,1.0,0.700947931,0.0,0.394680266,False,,5e658181af3bd530ce98d4c5,,2086380,132,,evan-feature22,full_pf_b,,0
107,30031,133,,,,1,1,1.0,0.0,0.0,1.0,,0.0-135.0,,0.0,767.5900001,1.0,0.422306413,0.0,0.718375916,1.0,0.706340917,0.0,0.367787185,False,,5e658181af3bd530ce98d4c5,,2096911,133,,evan-feature22,full_pf_b,,0
108,30033,135,,,,1,1,1.0,1.0,0.0,1.0,,0.0-137.0,,1.0,1249.965,1.0,0.4582233,1.0,0.643834117,1.0,0.75,0.0,0.39615823299999997,False,,5e658181af3bd530ce98d4c5,,2110107,135,,evan-feature22,full_pf_b,,0
109,30034,136,,,,1,1,0.0,0.0,0.0,1.0,,0.0-138.0,,0.0,645.365,0.0,0.43813437899999996,0.0,0.651283804,0.0,0.729674191,0.0,0.37711048,False,,5e658181af3bd530ce98d4c5,,2120514,136,,evan-feature22,full_pf_b,,0
110,30035,137,,,,1,1,0.0,1.0,0.0,1.0,,0.0-139.0,,1.0,841.0,0.0,0.471199094,1.0,0.6470010979999999,1.0,0.715008097,1.0,0.410656191,False,,5e658181af3bd530ce98d4c5,,2131118,137,,evan-feature22,full_pf_b,,0
111,30036,138,,,,1,1,0.0,1.0,-1.0,0.0,,0.0-140.0,,0.0,1101.715,0.0,0.42486406,1.0,0.629771829,1.0,0.6550939960000001,0.0,0.459093873,False,,5e658181af3bd530ce98d4c5,,2141984,138,,evan-feature22,full_pf_b,,0
112,30037,139,,,,1,1,0.0,1.0,-1.0,0.0,,0.0-141.0,,0.0,971.4599999,0.0,0.4803197,1.0,0.645842715,1.0,0.6421749920000001,0.0,0.443092151,False,,5e658181af3bd530ce98d4c5,,2152716,139,,evan-feature22,full_pf_b,,0
113,30038,140,,,,1,1,1.0,1.0,-1.0,0.0,,0.0-142.0,,-1.0,718.2799999,1.0,0.521848997,1.0,0.735801074,1.0,0.6691348460000001,0.0,0.45259351600000003,False,,5e658181af3bd530ce98d4c5,,2163196,140,,evan-feature22,full_pf_b,,0
114,30039,141,,,,1,1,0.0,1.0,0.0,1.0,,0.0-143.0,,1.0,849.5799999,0.0,0.49565621299999996,1.0,0.742400847,1.0,0.661512553,0.0,0.483110831,False,,5e658181af3bd530ce98d4c5,,2173808,141,,evan-feature22,full_pf_b,,0
115,30040,142,,,,1,1,0.0,1.0,-1.0,0.0,,0.0-144.0,,0.0,945.3049998,0.0,0.521564361,1.0,0.731078632,0.0,0.6774886809999999,1.0,0.483263956,False,,5e658181af3bd530ce98d4c5,,2184516,142,,evan-feature22,full_pf_b,,0
116,30041,143,,,,1,1,1.0,1.0,-1.0,0.0,,0.0-145.0,,-1.0,823.4850001,1.0,0.558893102,1.0,0.719810023,0.0,0.67461031,0.0,0.499349834,False,,5e658181af3bd530ce98d4c5,,2195101,143,,evan-feature22,full_pf_b,,0
117,30042,144,,,,1,1,1.0,1.0,0.0,1.0,,0.0-146.0,,1.0,763.115,1.0,0.611031046,1.0,0.75,1.0,0.688072995,1.0,0.5321422729999999,False,,5e658181af3bd530ce98d4c5,,2205624,144,,evan-feature22,full_pf_b,,0
118,30043,145,,,,1,1,1.0,1.0,-1.0,0.0,,0.0-147.0,,-1.0,1988.66,1.0,0.633223941,1.0,0.713567728,0.0,0.75,1.0,0.48185314700000004,False,,5e658181af3bd530ce98d4c5,,2217376,145,,evan-feature22,full_pf_b,,0
119,30044,146,,,,2,2,1.0,1.0,-1.0,0.0,,0.0-148.0,,-1.0,1081.72,1.0,0.664001694,1.0,0.705509768,1.0,0.75,1.0,0.500211065,False,,5e658181af3bd530ce98d4c5,,2228221,146,,evan-feature22,full_pf_b,,1
120,30045,147,,,,1,1,1.0,1.0,0.0,1.0,,0.0-149.0,,1.0,821.0400001,1.0,0.664001694,1.0,0.705509768,1.0,0.75,0.0,0.500211065,False,,5e658181af3bd530ce98d4c5,,2238804,147,,evan-feature22,full_pf_b,,1
121,30046,148,,,,1,1,1.0,1.0,0.0,1.0,,0.0-150.0,,1.0,664.8049999,1.0,0.696508041,1.0,0.71066027,0.0,0.717028709,1.0,0.49792991,False,,5e658181af3bd530ce98d4c5,,2249234,148,,evan-feature22,full_pf_b,,0
122,30047,149,,,,2,2,1.0,1.0,-1.0,0.0,,0.0-151.0,,-1.0,1286.69,1.0,0.699883272,1.0,0.75,1.0,0.713543895,1.0,0.496962643,False,,5e658181af3bd530ce98d4c5,,2260281,149,,evan-feature22,full_pf_b,,1
123,30048,150,,,,1,1,1.0,1.0,0.0,1.0,,0.0-152.0,,1.0,816.325,1.0,0.741163419,1.0,0.75,1.0,0.64691024,1.0,0.513858197,False,,5e658181af3bd530ce98d4c5,,2270861,150,,evan-feature22,full_pf_b,,1
124,30049,151,,,,2,2,1.0,1.0,-1.0,0.0,,0.0-153.0,,-1.0,924.075,1.0,0.75,1.0,0.70816558,1.0,0.594499079,1.0,0.48502124,False,,5e658181af3bd530ce98d4c5,,2281549,151,,evan-feature22,full_pf_b,,1
125,30050,152,,,,1,1,1.0,1.0,0.0,1.0,,0.0-154.0,,1.0,766.0800002000001,1.0,0.75,1.0,0.721848901,1.0,0.62197249,1.0,0.48263586399999997,False,,5e658181af3bd530ce98d4c5,,2292075,152,,evan-feature22,full_pf_b,,1
126,30051,153,,,,2,2,1.0,1.0,-1.0,0.0,,0.0-155.0,,-1.0,979.1899999,1.0,0.75,1.0,0.74813071,1.0,0.584357161,1.0,0.411477782,False,,5e658181af3bd530ce98d4c5,,2302816,153,,evan-feature22,full_pf_b,,1
127,30052,154,,,,1,1,1.0,1.0,0.0,1.0,,0.0-156.0,,1.0,863.0300001,1.0,0.75,1.0,0.75,0.0,0.52287236,1.0,0.488290656,False,,5e658181af3bd530ce98d4c5,,2313443,154,,evan-feature22,full_pf_b,,1
128,30053,155,,,,1,1,0.0,1.0,0.0,1.0,,0.0-157.0,,1.0,842.3650002,0.0,0.75,1.0,0.75,0.0,0.544321581,0.0,0.53143059,False,,5e658181af3bd530ce98d4c5,,2324046,155,,evan-feature22,full_pf_b,,0
129,30054,156,,,,1,1,0.0,1.0,0.0,1.0,,0.0-158.0,,1.0,767.435,0.0,0.726754564,1.0,0.75,0.0,0.5129306370000001,1.0,0.530592445,False,,5e658181af3bd530ce98d4c5,,2334574,156,,evan-feature22,full_pf_b,,0
130,30055,157,,,,2,2,0.0,1.0,-1.0,0.0,,0.0-159.0,,0.0,979.3499999,1.0,0.75,0.0,0.7392590729999999,0.0,0.479875835,1.0,0.547007051,False,,5e658181af3bd530ce98d4c5,,2345316,157,,evan-feature22,full_pf_b,,1
131,30056,158,,,,2,2,1.0,1.0,-1.0,0.0,,0.0-160.0,,-1.0,1080.155,1.0,0.75,1.0,0.7393376979999999,1.0,0.546045419,1.0,0.541267353,False,,5e658181af3bd530ce98d4c5,,2356163,158,,evan-feature22,full_pf_b,,0
132,30057,159,,,,2,2,1.0,0.0,-1.0,0.0,,0.0-161.0,,-1.0,831.575,1.0,0.75,1.0,0.75,1.0,0.485725895,0.0,0.527625395,False,,5e658181af3bd530ce98d4c5,,2366757,159,,evan-feature22,full_pf_b,,0
133,30058,160,,,,1,1,1.0,1.0,0.0,1.0,,0.0-162.0,,1.0,838.4450001,1.0,0.75,1.0,0.725087974,1.0,0.488603595,1.0,0.504019206,False,,5e658181af3bd530ce98d4c5,,2377361,160,,evan-feature22,full_pf_b,,1
134,30059,161,,,,1,1,1.0,1.0,0.0,1.0,,0.0-163.0,,1.0,692.5100002,1.0,0.745504295,1.0,0.75,1.0,0.452379914,1.0,0.50131194,False,,5e658181af3bd530ce98d4c5,,2387817,161,,evan-feature22,full_pf_b,,0
135,30060,162,,,,1,1,1.0,1.0,0.0,1.0,,0.0-164.0,,1.0,744.4199999,1.0,0.728513874,1.0,0.75,0.0,0.44125567200000004,1.0,0.531454591,False,,5e658181af3bd530ce98d4c5,,2398323,162,,evan-feature22,full_pf_b,,0
136,30061,163,,,,2,2,0.0,0.0,-1.0,0.0,,0.0-165.0,,0.0,844.1399999,0.0,0.73790804,1.0,0.75,0.0,0.413036656,0.0,0.524619035,False,,5e658181af3bd530ce98d4c5,,2408929,163,,evan-feature22,full_pf_b,,1
137,30062,164,,,,1,1,0.0,1.0,0.0,1.0,,0.0-166.0,,1.0,981.53,0.0,0.7080961309999999,1.0,0.708666865,1.0,0.431915581,0.0,0.481819489,False,,5e658181af3bd530ce98d4c5,,2419673,164,,evan-feature22,full_pf_b,,1
138,30063,165,,,,1,1,1.0,1.0,0.0,1.0,,0.0-167.0,,1.0,700.2300001,1.0,0.721378003,1.0,0.71605913,0.0,0.36642387,1.0,0.5036739929999999,False,,5e658181af3bd530ce98d4c5,,2430136,165,,evan-feature22,full_pf_b,,0
139,30064,166,,,,1,1,0.0,1.0,0.0,1.0,,0.0-168.0,,1.0,636.2299998,0.0,0.7340618959999999,1.0,0.699323252,1.0,0.35298046299999997,1.0,0.511241692,False,,5e658181af3bd530ce98d4c5,,2440534,166,,evan-feature22,full_pf_b,,0
140,30065,167,,,,2,2,0.0,1.0,-1.0,0.0,,0.0-169.0,,0.0,966.7750001,1.0,0.75,1.0,0.70412698,0.0,0.380734814,1.0,0.529580116,False,,5e658181af3bd530ce98d4c5,,2451262,167,,evan-feature22,full_pf_b,,1
141,30066,168,,,,1,1,1.0,0.0,0.0,1.0,,0.0-170.0,,0.0,757.8999999,1.0,0.7436654909999999,0.0,0.711182751,0.0,0.41125331,0.0,0.49554405,False,,5e658181af3bd530ce98d4c5,,2461782,168,,evan-feature22,full_pf_b,,1
142,30067,169,,,,1,1,1.0,1.0,0.0,1.0,,0.0-171.0,,1.0,903.93,1.0,0.731607915,1.0,0.651774583,0.0,0.35688023,1.0,0.45194491600000003,False,,5e658181af3bd530ce98d4c5,,2472445,169,,evan-feature22,full_pf_b,,0
143,30068,170,,,,2,2,1.0,1.0,-1.0,0.0,,0.0-172.0,,-1.0,919.9649999,0.0,0.75,0.0,0.75,1.0,0.283145374,1.0,0.528608005,False,,5e658181af3bd530ce98d4c5,,2483127,170,,evan-feature22,full_pf_b,,1
144,30069,171,,,,2,2,0.0,0.0,-1.0,0.0,,0.0-173.0,,0.0,1133.175,1.0,0.7491416890000001,1.0,0.7423785959999999,0.0,0.29135870399999997,0.0,0.498888318,False,,5e658181af3bd530ce98d4c5,,2494022,171,,evan-feature22,full_pf_b,,0
145,30070,172,,,,2,2,0.0,1.0,-1.0,0.0,,0.0-174.0,,0.0,1277.7,1.0,0.708569387,1.0,0.717682277,0.0,0.294421699,1.0,0.493838163,False,,5e658181af3bd530ce98d4c5,,2505061,172,,evan-feature22,full_pf_b,,0
146,30071,173,,,,1,1,1.0,1.0,0.0,1.0,,0.0-175.0,,1.0,726.4399999,1.0,0.75,1.0,0.7383382159999999,0.0,0.356098707,0.0,0.442533405,False,,5e658181af3bd530ce98d4c5,,2515545,173,,evan-feature22,full_pf_b,,1
147,30072,174,,,,1,1,1.0,1.0,0.0,1.0,,0.0-176.0,,1.0,809.44,1.0,0.744527075,1.0,0.75,0.0,0.334127506,1.0,0.393165805,False,,5e658181af3bd530ce98d4c5,,2526120,174,,evan-feature22,full_pf_b,,0
148,30073,175,,,,1,1,0.0,0.0,0.0,1.0,,0.0-177.0,,0.0,632.52,0.0,0.75,0.0,0.75,0.0,0.33571021799999995,1.0,0.350393962,False,,5e658181af3bd530ce98d4c5,,2536514,175,,evan-feature22,full_pf_b,,0
149,30074,176,,,,1,1,1.0,1.0,0.0,1.0,,0.0-178.0,,1.0,768.9199999,1.0,0.75,1.0,0.75,0.0,0.313628297,1.0,0.36349657399999996,False,,5e658181af3bd530ce98d4c5,,2547045,176,,evan-feature22,full_pf_b,,0
150,30075,177,,,,2,2,0.0,0.0,-1.0,0.0,,0.0-179.0,,0.0,1020.87,1.0,0.75,1.0,0.734284182,0.0,0.262667667,0.0,0.380199119,False,,5e658181af3bd530ce98d4c5,,2557830,177,,evan-feature22,full_pf_b,,1
151,30076,178,,,,1,1,1.0,1.0,0.0,1.0,,0.0-180.0,,1.0,752.445,1.0,0.75,1.0,0.75,0.0,0.25,0.0,0.394494013,False,,5e658181af3bd530ce98d4c5,,2568346,178,,evan-feature22,full_pf_b,,1
152,30077,179,,,,2,2,1.0,0.0,-1.0,0.0,,0.0-181.0,,-1.0,887.1249999,1.0,0.722298145,1.0,0.7357822340000001,1.0,0.25,0.0,0.319142121,False,,5e658181af3bd530ce98d4c5,,2578994,179,,evan-feature22,full_pf_b,,1
153,30078,180,,,,2,2,0.0,1.0,-1.0,0.0,,0.0-182.0,,0.0,1063.105,0.0,0.73149275,1.0,0.724276446,0.0,0.305856907,1.0,0.281315057,False,,5e658181af3bd530ce98d4c5,,2589819,180,,evan-feature22,full_pf_b,,0
154,30079,181,,,,1,1,1.0,1.0,0.0,1.0,,0.0-183.0,,1.0,1038.14,1.0,0.7458732690000001,1.0,0.7336382459999999,0.0,0.272571964,0.0,0.266021999,False,,5e658181af3bd530ce98d4c5,,2600617,181,,evan-feature22,full_pf_b,,1
155,30080,182,,,,1,1,1.0,0.0,0.0,1.0,,0.0-184.0,,0.0,851.7499999,1.0,0.705579037,0.0,0.720778292,1.0,0.320238144,0.0,0.30971744,False,,5e658181af3bd530ce98d4c5,,2611232,182,,evan-feature22,full_pf_b,,0
156,30081,183,,,,1,1,0.0,0.0,0.0,1.0,,0.0-185.0,,0.0,964.985,0.0,0.700425648,0.0,0.7198784009999999,0.0,0.272590393,0.0,0.304182931,False,,5e658181af3bd530ce98d4c5,,2621957,183,,evan-feature22,full_pf_b,,0
157,30082,184,,,,1,1,1.0,0.0,0.0,1.0,,0.0-186.0,,0.0,948.725,1.0,0.735590785,0.0,0.722714973,0.0,0.25,0.0,0.323421091,False,,5e658181af3bd530ce98d4c5,,2632667,184,,evan-feature22,full_pf_b,,0
158,30083,185,,,,1,1,1.0,1.0,0.0,1.0,,0.0-187.0,,1.0,557.395,1.0,0.724807662,1.0,0.63146213,0.0,0.36836492600000004,1.0,0.34592153299999995,False,,5e658181af3bd530ce98d4c5,,2642985,185,,evan-feature22,full_pf_b,,0
159,30084,186,,,,1,1,1.0,1.0,0.0,1.0,,0.0-188.0,,1.0,538.4450001,1.0,0.7352796909999999,1.0,0.555111392,0.0,0.36003922,0.0,0.31433779999999995,False,,5e658181af3bd530ce98d4c5,,2653285,186,,evan-feature22,full_pf_b,,0
160,30085,187,notice,,,,,,,,,,0.0-189.0,"{""Q0"":""The first block was a lot of losses and impossible to gain points, especially since the two doors often had the same aliens behind them, the second block had pluses and was easier to gain points. ""}",,71411.0,,,,,,,,,False,,5e658181af3bd530ce98d4c5,,2724699,187,Q,survey-text,full_pf_b,,1
161,30086,188,track1,,[0],,,,,,,,0.0-190.0,"{""Q0"":""yes""}",,9684.0,,,,,,,,,False,,5e658181af3bd530ce98d4c5,,2734389,188,Q,evan-quiz,full_pf_b,,1
162,30087,189,track2,,[1],,,,,,,,0.0-191.0,"{""Q0"":""no""}",,8315.0,,,,,,,,,False,,5e658181af3bd530ce98d4c5,,2742712,189,Q,evan-quiz,full_pf_b,,1
163,30088,190,strat,,,,,,,,,,0.0-192.0,"{""Q0"":""I made sure to try and work out which door the black and gold aliens were behind, and then choose the opposite door if there was a negative and the correct door for a positive. If there was no negative I also went more for the door that often had both aliens behind, rather than the other door which was sometimes empty instead of risking it.""}",,115148.0,,,,,,,,,False,,5e658181af3bd530ce98d4c5,,2857868,190,Q,survey-text,full_pf_b,,1
