,index,Unnamed: 0,Q_name,button_pressed,choice_idxs,chosen_pos,chosen_state,chosen_state_f_1_outcome,chosen_state_f_2_outcome,f_1_reward,f_2_reward,incor_questions,internal_node_id,responses,reward_received,rt,s_1_f_1_outcome,s_1_f_1_prob,s_1_f_2_outcome,s_1_f_2_prob,s_2_f_1_outcome,s_2_f_1_prob,s_2_f_2_outcome,s_2_f_2_prob,safe_first,stimulus,subjectID,success,time_elapsed,trial_index,trial_num,trial_type,version,view_history,switching
0,14984,25,,,,1,1,1.0,1.0,-1.0,0.0,,0.0-27.0,,-1.0,3724.505,1.0,0.6,1.0,0.6,1.0,0.4,1.0,0.4,False,,5ebf08453796e31220358f8b,,383809,25,,evan-feature22,full_pf_b,,0
1,14985,26,,,,2,2,0.0,1.0,-1.0,0.0,,0.0-28.0,,0.0,1230.425,0.0,0.608053294,1.0,0.63424552,0.0,0.397152172,1.0,0.347069101,False,,5ebf08453796e31220358f8b,,394813,26,,evan-feature22,full_pf_b,,1
2,14986,27,,,,2,2,1.0,0.0,-1.0,0.0,,0.0-29.0,,-1.0,950.135,1.0,0.642237155,0.0,0.648566321,1.0,0.389407674,0.0,0.285525717,False,,5ebf08453796e31220358f8b,,405547,27,,evan-feature22,full_pf_b,,0
3,14987,28,,,,2,2,1.0,0.0,-1.0,0.0,,0.0-30.0,,-1.0,2545.13,0.0,0.661086576,0.0,0.630492543,1.0,0.399058924,0.0,0.25,False,,5ebf08453796e31220358f8b,,417861,28,,evan-feature22,full_pf_b,,0
4,14988,29,,,,2,2,0.0,0.0,0.0,1.0,,0.0-31.0,,0.0,2819.73,1.0,0.631324137,0.0,0.6269842929999999,0.0,0.38734784299999997,0.0,0.25,False,,5ebf08453796e31220358f8b,,430456,29,,evan-feature22,full_pf_b,,0
5,14989,30,,,,2,2,1.0,1.0,0.0,1.0,,0.0-32.0,,1.0,2777.385,1.0,0.6381991370000001,1.0,0.68987999,1.0,0.384107265,1.0,0.271332943,False,,5ebf08453796e31220358f8b,,443009,30,,evan-feature22,full_pf_b,,0
6,14990,31,,,,1,1,0.0,1.0,-1.0,0.0,,0.0-33.0,,0.0,2390.535,0.0,0.66034901,1.0,0.742641349,1.0,0.360225629,0.0,0.25,False,,5ebf08453796e31220358f8b,,455170,31,,evan-feature22,full_pf_b,,1
7,14991,32,,,,1,1,1.0,0.0,-1.0,0.0,,0.0-34.0,,-1.0,2170.77,1.0,0.638612418,0.0,0.75,0.0,0.367273939,0.0,0.25,False,,5ebf08453796e31220358f8b,,467111,32,,evan-feature22,full_pf_b,,0
8,14992,33,,,,2,2,0.0,0.0,0.0,1.0,,0.0-35.0,,0.0,1569.74,0.0,0.624340629,0.0,0.75,0.0,0.425829545,0.0,0.25,False,,5ebf08453796e31220358f8b,,478448,33,,evan-feature22,full_pf_b,,1
9,14993,34,,,,2,2,0.0,0.0,0.0,1.0,,0.0-36.0,,0.0,3163.93,1.0,0.621999804,1.0,0.75,0.0,0.368609357,0.0,0.25,False,,5ebf08453796e31220358f8b,,491387,34,,evan-feature22,full_pf_b,,0
10,14994,35,,,,2,2,0.0,1.0,-1.0,0.0,,0.0-37.0,,0.0,2163.5,1.0,0.62666403,0.0,0.75,0.0,0.311151498,1.0,0.25,False,,5ebf08453796e31220358f8b,,503332,35,,evan-feature22,full_pf_b,,0
11,14995,36,,,,2,2,0.0,0.0,0.0,1.0,,0.0-38.0,,0.0,960.725,1.0,0.6819650009999999,1.0,0.75,0.0,0.310763048,0.0,0.25,False,,5ebf08453796e31220358f8b,,514063,36,,evan-feature22,full_pf_b,,0
12,14996,37,,,,2,2,1.0,0.0,-1.0,0.0,,0.0-39.0,,-1.0,2106.64,1.0,0.740626951,1.0,0.75,1.0,0.25,0.0,0.25,False,,5ebf08453796e31220358f8b,,525942,37,,evan-feature22,full_pf_b,,0
13,14997,38,,,,SLOW,SLOW,,,-1.0,0.0,,0.0-40.0,,-3.0,,0.0,0.739599242,1.0,0.742034978,1.0,0.25397114600000004,1.0,0.25,False,,5ebf08453796e31220358f8b,,531756,38,,evan-feature22,full_pf_b,,1
14,14998,39,,,,2,2,0.0,0.0,-1.0,0.0,,0.0-41.0,,0.0,2005.08,1.0,0.732341315,1.0,0.72735643,0.0,0.25,0.0,0.25,False,,5ebf08453796e31220358f8b,,543537,39,,evan-feature22,full_pf_b,,1
15,14999,40,,,,1,1,0.0,1.0,-1.0,0.0,,0.0-42.0,,0.0,1673.01,0.0,0.7062287770000001,1.0,0.75,0.0,0.29002151,0.0,0.288256649,False,,5ebf08453796e31220358f8b,,554988,40,,evan-feature22,full_pf_b,,1
16,15000,41,,,,2,2,0.0,0.0,-1.0,0.0,,0.0-43.0,,0.0,1522.845,1.0,0.7086029209999999,1.0,0.75,0.0,0.274129113,0.0,0.262851608,False,,5ebf08453796e31220358f8b,,566280,41,,evan-feature22,full_pf_b,,1
17,15001,42,,,,1,1,1.0,1.0,-1.0,0.0,,0.0-44.0,,-1.0,1805.19,1.0,0.669189651,1.0,0.727614338,1.0,0.298444036,0.0,0.296944518,False,,5ebf08453796e31220358f8b,,577864,42,,evan-feature22,full_pf_b,,1
18,15002,43,,,,2,2,1.0,1.0,-1.0,0.0,,0.0-45.0,,-1.0,1430.885,1.0,0.6819912929999999,1.0,0.7179434290000001,1.0,0.265003961,1.0,0.28157921199999997,False,,5ebf08453796e31220358f8b,,589062,43,,evan-feature22,full_pf_b,,1
19,15003,44,,,,1,1,0.0,0.0,0.0,1.0,,0.0-46.0,,0.0,325.59,0.0,0.665275002,0.0,0.723065271,1.0,0.260414971,0.0,0.30973870000000003,False,,5ebf08453796e31220358f8b,,599157,44,,evan-feature22,full_pf_b,,1
20,15004,45,,,,2,2,0.0,0.0,-1.0,0.0,,0.0-47.0,,0.0,3009.475,0.0,0.6660593260000001,1.0,0.728032907,0.0,0.30922817,0.0,0.338778608,False,,5ebf08453796e31220358f8b,,611940,45,,evan-feature22,full_pf_b,,1
21,15005,46,,,,2,2,0.0,0.0,-1.0,0.0,,0.0-48.0,,0.0,1415.285,1.0,0.702068785,0.0,0.6528750879999999,0.0,0.287329608,0.0,0.35789613200000003,False,,5ebf08453796e31220358f8b,,623131,46,,evan-feature22,full_pf_b,,0
22,15006,47,,,,2,2,0.0,1.0,-1.0,0.0,,0.0-49.0,,0.0,1253.635,0.0,0.651939787,0.0,0.636725589,0.0,0.284834488,1.0,0.358563756,False,,5ebf08453796e31220358f8b,,634156,47,,evan-feature22,full_pf_b,,0
23,15007,48,,,,2,2,0.0,0.0,0.0,1.0,,0.0-50.0,,0.0,2674.355,1.0,0.67573929,1.0,0.612550049,0.0,0.37130387600000003,0.0,0.383542402,False,,5ebf08453796e31220358f8b,,646607,48,,evan-feature22,full_pf_b,,0
24,15008,49,,,,1,1,0.0,1.0,0.0,1.0,,0.0-51.0,,1.0,1895.975,0.0,0.620753801,1.0,0.60513644,1.0,0.385529434,0.0,0.340361743,False,,5ebf08453796e31220358f8b,,658274,49,,evan-feature22,full_pf_b,,1
25,15009,50,,,,1,1,1.0,0.0,0.0,1.0,,0.0-52.0,,0.0,3430.15,1.0,0.673564893,0.0,0.672437924,1.0,0.292955382,0.0,0.337633795,False,,5ebf08453796e31220358f8b,,671479,50,,evan-feature22,full_pf_b,,0
26,15010,51,,,,2,2,1.0,0.0,-1.0,0.0,,0.0-53.0,,-1.0,1893.64,1.0,0.6749427,1.0,0.724197502,1.0,0.32391132100000003,0.0,0.350995264,False,,5ebf08453796e31220358f8b,,683150,51,,evan-feature22,full_pf_b,,1
27,15011,52,,,,1,1,1.0,0.0,-1.0,0.0,,0.0-54.0,,-1.0,2450.585,1.0,0.6940159379999999,0.0,0.75,0.0,0.31710554399999996,1.0,0.413450341,False,,5ebf08453796e31220358f8b,,695376,52,,evan-feature22,full_pf_b,,1
28,15012,53,,,,2,2,0.0,1.0,-1.0,0.0,,0.0-55.0,,0.0,1382.65,1.0,0.6916018270000001,1.0,0.69001187,0.0,0.261817804,1.0,0.40038635,False,,5ebf08453796e31220358f8b,,706539,53,,evan-feature22,full_pf_b,,1
29,15013,54,,,,2,2,0.0,0.0,-1.0,0.0,,0.0-56.0,,0.0,3631.18,1.0,0.641061544,1.0,0.71337992,0.0,0.277296461,0.0,0.47372791700000005,False,,5ebf08453796e31220358f8b,,719946,54,,evan-feature22,full_pf_b,,0
30,15014,55,,,,2,2,0.0,1.0,-1.0,0.0,,0.0-57.0,,0.0,616.325,1.0,0.6082438520000001,1.0,0.708471106,0.0,0.28745137,1.0,0.564174476,False,,5ebf08453796e31220358f8b,,730332,55,,evan-feature22,full_pf_b,,0
31,15015,56,,,,2,2,0.0,0.0,-1.0,0.0,,0.0-58.0,,0.0,791.73,0.0,0.6051112120000001,1.0,0.7118147229999999,0.0,0.272390611,0.0,0.5595149939999999,False,,5ebf08453796e31220358f8b,,740897,56,,evan-feature22,full_pf_b,,0
32,15016,57,,,,2,2,0.0,1.0,-1.0,0.0,,0.0-59.0,,0.0,2286.395,1.0,0.582420852,1.0,0.635867583,0.0,0.31089574,1.0,0.5227206520000001,False,,5ebf08453796e31220358f8b,,752948,57,,evan-feature22,full_pf_b,,0
33,15017,58,,,,2,2,0.0,0.0,0.0,1.0,,0.0-60.0,,0.0,1186.385,1.0,0.623195575,1.0,0.655026044,0.0,0.25,0.0,0.560387538,False,,5ebf08453796e31220358f8b,,763907,58,,evan-feature22,full_pf_b,,0
34,15018,59,,,,2,2,1.0,0.0,-1.0,0.0,,0.0-61.0,,-1.0,2529.475,1.0,0.601889598,1.0,0.678198724,1.0,0.25,0.0,0.559922936,False,,5ebf08453796e31220358f8b,,776212,59,,evan-feature22,full_pf_b,,0
35,15019,60,,,,2,2,0.0,0.0,-1.0,0.0,,0.0-62.0,,0.0,1521.815,1.0,0.601259914,0.0,0.704681482,0.0,0.33908969299999997,0.0,0.505003715,False,,5ebf08453796e31220358f8b,,787504,60,,evan-feature22,full_pf_b,,0
36,15020,61,,,,2,2,0.0,0.0,-1.0,0.0,,0.0-63.0,,0.0,3275.16,1.0,0.59645454,1.0,0.710437172,0.0,0.327441879,0.0,0.391749613,False,,5ebf08453796e31220358f8b,,800554,61,,evan-feature22,full_pf_b,,0
37,15021,62,,,,1,1,1.0,1.0,-1.0,0.0,,0.0-64.0,,-1.0,2078.845,1.0,0.529473,1.0,0.636758527,1.0,0.301338063,1.0,0.365661481,False,,5ebf08453796e31220358f8b,,812408,62,,evan-feature22,full_pf_b,,1
38,15022,63,,,,2,2,1.0,0.0,0.0,1.0,,0.0-65.0,,0.0,1831.83,0.0,0.541657162,1.0,0.634541962,1.0,0.343535366,0.0,0.371763742,False,,5ebf08453796e31220358f8b,,824014,63,,evan-feature22,full_pf_b,,1
39,15023,64,,,,1,1,0.0,1.0,-1.0,0.0,,0.0-66.0,,0.0,3113.18,0.0,0.5707533260000001,1.0,0.589121171,1.0,0.326428396,0.0,0.43961622899999997,False,,5ebf08453796e31220358f8b,,836900,64,,evan-feature22,full_pf_b,,1
40,15024,65,,,,1,1,0.0,0.0,-1.0,0.0,,0.0-67.0,,0.0,815.525,0.0,0.5707533260000001,0.0,0.589121171,0.0,0.326428396,0.0,0.43961622899999997,False,,5ebf08453796e31220358f8b,,847488,65,,evan-feature22,full_pf_b,,0
41,15025,66,,,,1,1,0.0,1.0,-1.0,0.0,,0.0-68.0,,0.0,3608.36,0.0,0.506271295,1.0,0.641775594,0.0,0.37149690700000004,1.0,0.404330166,False,,5ebf08453796e31220358f8b,,860871,66,,evan-feature22,full_pf_b,,0
42,15026,67,,,,2,2,0.0,0.0,0.0,1.0,,0.0-69.0,,0.0,2604.015,1.0,0.455642565,1.0,0.623605825,0.0,0.358753011,0.0,0.346174041,False,,5ebf08453796e31220358f8b,,873258,67,,evan-feature22,full_pf_b,,1
43,15027,68,,,,1,1,1.0,1.0,0.0,1.0,,0.0-70.0,,1.0,2529.285,1.0,0.483677308,1.0,0.5904681070000001,1.0,0.402218411,1.0,0.35344697,False,,5ebf08453796e31220358f8b,,885558,68,,evan-feature22,full_pf_b,,1
44,15028,69,,,,2,2,1.0,0.0,0.0,1.0,,0.0-71.0,,0.0,2036.24,1.0,0.394210977,1.0,0.558925494,1.0,0.540052017,0.0,0.35182128700000004,False,,5ebf08453796e31220358f8b,,897365,69,,evan-feature22,full_pf_b,,1
45,15029,70,,,,2,2,0.0,1.0,-1.0,0.0,,0.0-72.0,,0.0,1614.05,1.0,0.382300414,1.0,0.577670603,0.0,0.607608448,1.0,0.378261578,False,,5ebf08453796e31220358f8b,,908755,70,,evan-feature22,full_pf_b,,0
46,15030,71,,,,2,2,0.0,0.0,-1.0,0.0,,0.0-73.0,,0.0,2448.985,1.0,0.357596762,1.0,0.5929076529999999,0.0,0.6579790010000001,0.0,0.401326777,False,,5ebf08453796e31220358f8b,,920979,71,,evan-feature22,full_pf_b,,0
47,15031,72,,,,2,2,0.0,1.0,-1.0,0.0,,0.0-74.0,,0.0,1803.44,0.0,0.362033495,0.0,0.582308608,0.0,0.649195052,1.0,0.355158505,False,,5ebf08453796e31220358f8b,,932558,72,,evan-feature22,full_pf_b,,0
48,15032,73,,,,2,2,0.0,1.0,-1.0,0.0,,0.0-75.0,,0.0,890.075,0.0,0.369620635,0.0,0.669100864,0.0,0.706059111,1.0,0.362516241,False,,5ebf08453796e31220358f8b,,943218,73,,evan-feature22,full_pf_b,,0
49,15033,74,,,,2,2,1.0,0.0,-1.0,0.0,,0.0-76.0,,-1.0,1914.315,0.0,0.41477751399999996,1.0,0.7284416779999999,1.0,0.7182656940000001,0.0,0.36228040899999997,False,,5ebf08453796e31220358f8b,,954909,74,,evan-feature22,full_pf_b,,0
50,15034,75,,,,2,2,0.0,1.0,0.0,1.0,,0.0-77.0,,1.0,2599.965,0.0,0.37675460299999997,1.0,0.703250285,0.0,0.75,1.0,0.461979164,False,,5ebf08453796e31220358f8b,,967290,75,,evan-feature22,full_pf_b,,0
51,15035,76,,,,1,1,1.0,0.0,0.0,1.0,,0.0-78.0,,0.0,3330.14,1.0,0.398716075,0.0,0.6723864890000001,1.0,0.674153818,1.0,0.519029516,False,,5ebf08453796e31220358f8b,,980400,76,,evan-feature22,full_pf_b,,1
52,15036,77,,,,2,2,0.0,0.0,-1.0,0.0,,0.0-79.0,,0.0,1975.36,1.0,0.34677856700000004,1.0,0.69057175,0.0,0.6822438540000001,0.0,0.477292237,False,,5ebf08453796e31220358f8b,,992142,77,,evan-feature22,full_pf_b,,1
53,15037,78,,,,2,2,0.0,0.0,0.0,1.0,,0.0-80.0,,0.0,2341.86,1.0,0.28580469199999997,0.0,0.68408818,0.0,0.684207565,0.0,0.49780448299999996,False,,5ebf08453796e31220358f8b,,1004257,78,,evan-feature22,full_pf_b,,0
54,15039,80,,,,SLOW,SLOW,,,-1.0,0.0,,0.0-82.0,,-3.0,,0.0,0.25,1.0,0.7405808970000001,1.0,0.679614108,1.0,0.436436964,False,,5ebf08453796e31220358f8b,,1012325,80,,evan-feature22,full_pf_b,,1
55,15040,81,,,,1,1,0.0,1.0,0.0,1.0,,0.0-83.0,,1.0,2587.915,0.0,0.29890393,1.0,0.730505706,1.0,0.7328203320000001,0.0,0.439256938,False,,5ebf08453796e31220358f8b,,1024687,81,,evan-feature22,full_pf_b,,1
56,15041,82,,,,1,1,1.0,0.0,-1.0,0.0,,0.0-84.0,,-1.0,2121.9,1.0,0.326762398,0.0,0.7148059609999999,0.0,0.75,1.0,0.44389608799999997,False,,5ebf08453796e31220358f8b,,1036571,82,,evan-feature22,full_pf_b,,0
57,15042,83,,,,SLOW,SLOW,,,-1.0,0.0,,0.0-85.0,,-3.0,,0.0,0.295168515,0.0,0.739760854,0.0,0.719947008,1.0,0.35277284600000003,False,,5ebf08453796e31220358f8b,,1042382,83,,evan-feature22,full_pf_b,,1
58,15043,84,,,,1,1,1.0,1.0,-1.0,0.0,,0.0-86.0,,-1.0,1884.98,1.0,0.25,1.0,0.70781482,1.0,0.75,0.0,0.286095925,False,,5ebf08453796e31220358f8b,,1054045,84,,evan-feature22,full_pf_b,,1
59,15044,85,,,,2,2,1.0,0.0,0.0,1.0,,0.0-87.0,,0.0,1894.235,0.0,0.25638190899999996,1.0,0.704088163,1.0,0.75,0.0,0.26872601399999996,False,,5ebf08453796e31220358f8b,,1065706,85,,evan-feature22,full_pf_b,,1
60,15045,86,,,,1,1,0.0,1.0,0.0,1.0,,0.0-88.0,,1.0,2263.14,0.0,0.271581126,1.0,0.669760107,1.0,0.733896663,0.0,0.273244572,False,,5ebf08453796e31220358f8b,,1077743,86,,evan-feature22,full_pf_b,,1
61,15046,87,,,,1,1,0.0,1.0,0.0,1.0,,0.0-89.0,,1.0,1356.58,0.0,0.257144401,1.0,0.600575706,1.0,0.74488122,0.0,0.25,False,,5ebf08453796e31220358f8b,,1088872,87,,evan-feature22,full_pf_b,,0
62,15047,88,,,,1,1,0.0,1.0,-1.0,0.0,,0.0-90.0,,0.0,3444.13,0.0,0.25,1.0,0.616870026,0.0,0.723610234,0.0,0.25,False,,5ebf08453796e31220358f8b,,1102089,88,,evan-feature22,full_pf_b,,0
63,15048,89,,,,1,1,0.0,1.0,0.0,1.0,,0.0-91.0,,1.0,1447.835,0.0,0.25,1.0,0.583540187,1.0,0.7041042559999999,1.0,0.285961995,False,,5ebf08453796e31220358f8b,,1113317,89,,evan-feature22,full_pf_b,,0
64,15049,90,,,,2,2,1.0,1.0,-1.0,0.0,,0.0-92.0,,-1.0,3256.195,0.0,0.27254536,0.0,0.53875765,1.0,0.693783448,1.0,0.284961652,False,,5ebf08453796e31220358f8b,,1126346,90,,evan-feature22,full_pf_b,,1
65,15050,91,,,,1,1,0.0,1.0,0.0,1.0,,0.0-93.0,,1.0,1775.375,0.0,0.25,1.0,0.548431252,0.0,0.734221895,0.0,0.279445214,False,,5ebf08453796e31220358f8b,,1137892,91,,evan-feature22,full_pf_b,,1
66,15051,92,,,,1,1,0.0,0.0,-1.0,0.0,,0.0-94.0,,0.0,3127.725,0.0,0.258640684,0.0,0.545878066,1.0,0.725245965,1.0,0.31487537,False,,5ebf08453796e31220358f8b,,1150783,92,,evan-feature22,full_pf_b,,0
67,15052,93,,,,1,1,1.0,1.0,-1.0,0.0,,0.0-95.0,,-1.0,917.565,1.0,0.251103711,1.0,0.5776290629999999,0.0,0.696320133,0.0,0.317831047,False,,5ebf08453796e31220358f8b,,1161470,93,,evan-feature22,full_pf_b,,0
68,15053,94,,,,1,1,1.0,1.0,-1.0,0.0,,0.0-96.0,,-1.0,2070.01,1.0,0.276630292,1.0,0.617329858,0.0,0.73838088,0.0,0.261471582,False,,5ebf08453796e31220358f8b,,1173308,94,,evan-feature22,full_pf_b,,0
69,15054,95,,,,2,2,0.0,0.0,0.0,1.0,,0.0-97.0,,0.0,3007.115,0.0,0.297716424,0.0,0.618863717,0.0,0.7402358259999999,0.0,0.262600834,False,,5ebf08453796e31220358f8b,,1186087,95,,evan-feature22,full_pf_b,,1
70,15055,96,,,,1,1,0.0,0.0,-1.0,0.0,,0.0-98.0,,0.0,1767.84,0.0,0.290935512,0.0,0.695370945,1.0,0.706570507,0.0,0.280030553,False,,5ebf08453796e31220358f8b,,1197627,96,,evan-feature22,full_pf_b,,1
71,15056,97,,,,1,1,0.0,1.0,-1.0,0.0,,0.0-99.0,,0.0,1043.495,0.0,0.25,1.0,0.6465277079999999,1.0,0.67766682,0.0,0.25,False,,5ebf08453796e31220358f8b,,1208443,97,,evan-feature22,full_pf_b,,0
72,15057,98,,,,1,1,0.0,1.0,-1.0,0.0,,0.0-100.0,,0.0,2297.725,0.0,0.26463816,1.0,0.636100213,1.0,0.646048507,1.0,0.265607101,False,,5ebf08453796e31220358f8b,,1220512,98,,evan-feature22,full_pf_b,,0
73,15058,99,,,,1,1,0.0,1.0,-1.0,0.0,,0.0-101.0,,0.0,1512.665,0.0,0.314340707,1.0,0.667795927,1.0,0.613630805,0.0,0.25,False,,5ebf08453796e31220358f8b,,1231799,99,,evan-feature22,full_pf_b,,0
74,15059,100,,,,1,1,0.0,1.0,-1.0,0.0,,0.0-102.0,,0.0,2226.925,0.0,0.28685784,1.0,0.6622549529999999,1.0,0.652154117,0.0,0.25,False,,5ebf08453796e31220358f8b,,1243803,100,,evan-feature22,full_pf_b,,0
75,15060,101,,,,1,1,1.0,1.0,0.0,1.0,,0.0-103.0,,1.0,2688.775,1.0,0.304106554,1.0,0.631289538,1.0,0.707041942,0.0,0.29314237,False,,5ebf08453796e31220358f8b,,1256268,101,,evan-feature22,full_pf_b,,0
76,15061,102,,,,2,2,1.0,0.0,0.0,1.0,,0.0-104.0,,0.0,1395.875,0.0,0.304806932,1.0,0.571167718,1.0,0.680472346,0.0,0.25,False,,5ebf08453796e31220358f8b,,1267440,102,,evan-feature22,full_pf_b,,1
77,15062,103,,,,2,2,1.0,1.0,0.0,1.0,,0.0-105.0,,1.0,2567.195,0.0,0.37919861,0.0,0.5724849710000001,1.0,0.705638003,1.0,0.30179300600000003,False,,5ebf08453796e31220358f8b,,1279783,103,,evan-feature22,full_pf_b,,0
78,15063,104,,,,2,2,0.0,0.0,0.0,1.0,,0.0-106.0,,0.0,1939.82,0.0,0.464277969,1.0,0.554034373,0.0,0.7372627340000001,0.0,0.264699741,False,,5ebf08453796e31220358f8b,,1291496,104,,evan-feature22,full_pf_b,,0
79,15064,105,,,,1,1,0.0,1.0,-1.0,0.0,,0.0-107.0,,0.0,1465.135,0.0,0.465104323,1.0,0.530793115,1.0,0.75,1.0,0.31683071,False,,5ebf08453796e31220358f8b,,1302731,105,,evan-feature22,full_pf_b,,1
80,15065,106,,,,2,2,1.0,0.0,0.0,1.0,,0.0-108.0,,0.0,1657.895,1.0,0.465104323,0.0,0.530793115,1.0,0.75,0.0,0.31683071,False,,5ebf08453796e31220358f8b,,1314165,106,,evan-feature22,full_pf_b,,1
81,15066,107,,,,2,2,1.0,0.0,0.0,1.0,,0.0-109.0,,0.0,1129.12,0.0,0.46833986,0.0,0.570249239,1.0,0.7244472590000001,0.0,0.364114163,False,,5ebf08453796e31220358f8b,,1325071,107,,evan-feature22,full_pf_b,,0
82,15067,108,,,,2,2,1.0,0.0,0.0,1.0,,0.0-110.0,,0.0,891.015,1.0,0.445444024,1.0,0.649673355,1.0,0.6845441290000001,0.0,0.300660449,False,,5ebf08453796e31220358f8b,,1335733,108,,evan-feature22,full_pf_b,,0
83,15068,109,,,,2,2,1.0,0.0,0.0,1.0,,0.0-111.0,,0.0,1116.485,1.0,0.39909721299999995,1.0,0.6715179509999999,1.0,0.742310028,0.0,0.35496088299999995,False,,5ebf08453796e31220358f8b,,1346625,109,,evan-feature22,full_pf_b,,0
84,15069,110,,,,SLOW,SLOW,,,0.0,1.0,,0.0-112.0,,-3.0,,0.0,0.37956104799999996,0.0,0.694725302,1.0,0.7181651309999999,1.0,0.38726906299999997,False,,5ebf08453796e31220358f8b,,1352433,110,,evan-feature22,full_pf_b,,1
85,15070,111,,,,2,2,1.0,0.0,0.0,1.0,,0.0-113.0,,0.0,1071.79,0.0,0.404995034,1.0,0.724375412,1.0,0.6910946859999999,0.0,0.387187347,False,,5ebf08453796e31220358f8b,,1363277,111,,evan-feature22,full_pf_b,,1
86,15071,112,,,,2,2,1.0,1.0,0.0,1.0,,0.0-114.0,,1.0,755.855,1.0,0.461740803,1.0,0.75,1.0,0.75,1.0,0.34872038200000005,False,,5ebf08453796e31220358f8b,,1373799,112,,evan-feature22,full_pf_b,,0
87,15072,113,,,,1,1,0.0,1.0,-1.0,0.0,,0.0-115.0,,0.0,1874.815,0.0,0.43821380600000004,1.0,0.738833273,1.0,0.728286963,0.0,0.399538128,False,,5ebf08453796e31220358f8b,,1385444,113,,evan-feature22,full_pf_b,,1
88,15073,114,,,,1,1,0.0,1.0,0.0,1.0,,0.0-116.0,,1.0,2016.36,0.0,0.41709882,1.0,0.736666736,1.0,0.75,0.0,0.389095584,False,,5ebf08453796e31220358f8b,,1397231,114,,evan-feature22,full_pf_b,,0
89,15074,115,,,,2,2,0.0,0.0,0.0,1.0,,0.0-117.0,,0.0,1481.845,0.0,0.39749009799999996,1.0,0.744320029,0.0,0.75,0.0,0.363848678,False,,5ebf08453796e31220358f8b,,1408481,115,,evan-feature22,full_pf_b,,1
90,15075,116,,,,1,1,0.0,1.0,-1.0,0.0,,0.0-118.0,,0.0,1808.945,0.0,0.392653706,1.0,0.75,1.0,0.75,1.0,0.384386976,False,,5ebf08453796e31220358f8b,,1420066,116,,evan-feature22,full_pf_b,,1
91,15076,117,,,,1,1,1.0,1.0,-1.0,0.0,,0.0-119.0,,-1.0,2029.415,1.0,0.31190902600000003,1.0,0.75,0.0,0.732413819,1.0,0.413082932,False,,5ebf08453796e31220358f8b,,1431875,117,,evan-feature22,full_pf_b,,0
92,15077,118,,,,2,2,1.0,0.0,0.0,1.0,,0.0-120.0,,0.0,1937.42,0.0,0.366917648,1.0,0.740073855,1.0,0.75,0.0,0.352861979,False,,5ebf08453796e31220358f8b,,1443589,118,,evan-feature22,full_pf_b,,1
93,15078,119,,,,2,2,0.0,1.0,0.0,1.0,,0.0-121.0,,1.0,2058.025,0.0,0.3645172,1.0,0.721770713,0.0,0.75,1.0,0.404074511,False,,5ebf08453796e31220358f8b,,1455418,119,,evan-feature22,full_pf_b,,0
94,15079,120,,,,2,2,0.0,1.0,0.0,1.0,,0.0-122.0,,1.0,2216.545,1.0,0.35205600299999995,1.0,0.68983859,0.0,0.739735447,1.0,0.366895945,False,,5ebf08453796e31220358f8b,,1467410,120,,evan-feature22,full_pf_b,,0
95,15080,121,,,,1,1,0.0,1.0,0.0,1.0,,0.0-123.0,,1.0,2897.72,0.0,0.40998722600000004,1.0,0.720859127,1.0,0.673854955,0.0,0.368528541,False,,5ebf08453796e31220358f8b,,1480079,121,,evan-feature22,full_pf_b,,1
96,15081,122,,,,1,1,0.0,0.0,-1.0,0.0,,0.0-124.0,,0.0,2980.445,0.0,0.353625316,0.0,0.75,1.0,0.695605473,0.0,0.38303674200000004,False,,5ebf08453796e31220358f8b,,1492829,122,,evan-feature22,full_pf_b,,0
97,15082,123,,,,2,2,0.0,0.0,0.0,1.0,,0.0-125.0,,0.0,2051.27,0.0,0.359216989,1.0,0.75,0.0,0.6987915090000001,0.0,0.35169046200000004,False,,5ebf08453796e31220358f8b,,1504647,123,,evan-feature22,full_pf_b,,1
98,15083,124,,,,1,1,1.0,1.0,-1.0,0.0,,0.0-126.0,,-1.0,2338.76,1.0,0.35834496899999996,1.0,0.75,1.0,0.707067742,0.0,0.416763636,False,,5ebf08453796e31220358f8b,,1516757,124,,evan-feature22,full_pf_b,,1
99,15084,125,,,,1,1,1.0,1.0,-1.0,0.0,,0.0-127.0,,-1.0,2196.875,1.0,0.38741613799999997,1.0,0.7177369570000001,0.0,0.734902455,1.0,0.49438664299999996,False,,5ebf08453796e31220358f8b,,1528726,125,,evan-feature22,full_pf_b,,0
100,15085,126,,,,2,2,1.0,0.0,0.0,1.0,,0.0-128.0,,0.0,1986.335,0.0,0.405255252,1.0,0.7300466640000001,1.0,0.7027748070000001,0.0,0.504359668,False,,5ebf08453796e31220358f8b,,1540496,126,,evan-feature22,full_pf_b,,1
101,15086,127,,,,2,2,1.0,0.0,0.0,1.0,,0.0-129.0,,0.0,2519.69,1.0,0.40697073,1.0,0.7260142190000001,1.0,0.724461982,0.0,0.522779179,False,,5ebf08453796e31220358f8b,,1552786,127,,evan-feature22,full_pf_b,,0
102,15087,128,,,,1,1,0.0,1.0,0.0,1.0,,0.0-130.0,,1.0,1386.76,0.0,0.43906215299999996,1.0,0.7252802340000001,1.0,0.719079934,1.0,0.5712990579999999,False,,5ebf08453796e31220358f8b,,1563953,128,,evan-feature22,full_pf_b,,1
103,15088,129,,,,1,1,0.0,1.0,0.0,1.0,,0.0-131.0,,1.0,2910.405,0.0,0.4076705,1.0,0.73280499,0.0,0.681313127,0.0,0.523891346,False,,5ebf08453796e31220358f8b,,1576640,129,,evan-feature22,full_pf_b,,0
104,15089,130,,,,1,1,0.0,1.0,0.0,1.0,,0.0-132.0,,1.0,1790.79,0.0,0.399102911,1.0,0.730498344,0.0,0.661080239,1.0,0.46742603,False,,5ebf08453796e31220358f8b,,1588205,130,,evan-feature22,full_pf_b,,0
105,15090,131,,,,1,1,0.0,1.0,-1.0,0.0,,0.0-133.0,,0.0,2000.335,0.0,0.356477282,1.0,0.712296395,1.0,0.641812684,1.0,0.44868414,False,,5ebf08453796e31220358f8b,,1599977,131,,evan-feature22,full_pf_b,,0
106,15091,132,,,,1,1,1.0,1.0,0.0,1.0,,0.0-134.0,,1.0,1809.38,1.0,0.462760722,1.0,0.692349322,1.0,0.700947931,0.0,0.394680266,False,,5ebf08453796e31220358f8b,,1611557,132,,evan-feature22,full_pf_b,,0
107,15092,133,,,,1,1,1.0,1.0,0.0,1.0,,0.0-135.0,,1.0,1402.43,1.0,0.422306413,1.0,0.718375916,1.0,0.706340917,0.0,0.367787185,False,,5ebf08453796e31220358f8b,,1622731,133,,evan-feature22,full_pf_b,,0
108,15094,135,,,,1,1,0.0,0.0,0.0,1.0,,0.0-137.0,,0.0,2325.125,0.0,0.4582233,0.0,0.643834117,0.0,0.75,0.0,0.39615823299999997,False,,5ebf08453796e31220358f8b,,1645782,135,,evan-feature22,full_pf_b,,0
109,15095,136,,,,1,1,0.0,1.0,0.0,1.0,,0.0-138.0,,1.0,973.025,0.0,0.43813437899999996,1.0,0.651283804,1.0,0.729674191,1.0,0.37711048,False,,5ebf08453796e31220358f8b,,1656530,136,,evan-feature22,full_pf_b,,0
110,15096,137,,,,1,1,1.0,1.0,0.0,1.0,,0.0-139.0,,1.0,1191.41,1.0,0.471199094,1.0,0.6470010979999999,0.0,0.715008097,0.0,0.410656191,False,,5ebf08453796e31220358f8b,,1667492,137,,evan-feature22,full_pf_b,,0
111,15097,138,,,,1,1,1.0,0.0,-1.0,0.0,,0.0-140.0,,-1.0,1929.06,1.0,0.42486406,0.0,0.629771829,0.0,0.6550939960000001,0.0,0.459093873,False,,5ebf08453796e31220358f8b,,1679197,138,,evan-feature22,full_pf_b,,0
112,15098,139,,,,2,2,1.0,0.0,-1.0,0.0,,0.0-141.0,,-1.0,2269.43,1.0,0.4803197,1.0,0.645842715,1.0,0.6421749920000001,0.0,0.443092151,False,,5ebf08453796e31220358f8b,,1691237,139,,evan-feature22,full_pf_b,,1
113,15099,140,,,,1,1,1.0,1.0,-1.0,0.0,,0.0-142.0,,-1.0,2304.945,1.0,0.521848997,1.0,0.735801074,1.0,0.6691348460000001,0.0,0.45259351600000003,False,,5ebf08453796e31220358f8b,,1703322,140,,evan-feature22,full_pf_b,,1
114,15100,141,,,,1,1,1.0,0.0,0.0,1.0,,0.0-143.0,,0.0,74.12,1.0,0.49565621299999996,0.0,0.742400847,0.0,0.661512553,0.0,0.483110831,False,,5ebf08453796e31220358f8b,,1713161,141,,evan-feature22,full_pf_b,,0
115,15101,142,,,,1,1,1.0,1.0,-1.0,0.0,,0.0-144.0,,-1.0,885.075,1.0,0.521564361,1.0,0.731078632,0.0,0.6774886809999999,1.0,0.483263956,False,,5ebf08453796e31220358f8b,,1723825,142,,evan-feature22,full_pf_b,,0
116,15102,143,,,,1,1,1.0,1.0,-1.0,0.0,,0.0-145.0,,-1.0,2026.185,1.0,0.558893102,1.0,0.719810023,1.0,0.67461031,1.0,0.499349834,False,,5ebf08453796e31220358f8b,,1735624,143,,evan-feature22,full_pf_b,,0
117,15103,144,,,,2,2,0.0,1.0,0.0,1.0,,0.0-146.0,,1.0,1237.095,1.0,0.611031046,1.0,0.75,0.0,0.688072995,1.0,0.5321422729999999,False,,5ebf08453796e31220358f8b,,1746634,144,,evan-feature22,full_pf_b,,1
118,15104,145,,,,1,1,1.0,1.0,-1.0,0.0,,0.0-147.0,,-1.0,1809.285,1.0,0.633223941,1.0,0.713567728,1.0,0.75,1.0,0.48185314700000004,False,,5ebf08453796e31220358f8b,,1758214,145,,evan-feature22,full_pf_b,,1
119,15105,146,,,,2,2,1.0,0.0,-1.0,0.0,,0.0-148.0,,-1.0,2530.965,1.0,0.664001694,1.0,0.705509768,1.0,0.75,0.0,0.500211065,False,,5ebf08453796e31220358f8b,,1770522,146,,evan-feature22,full_pf_b,,1
120,15106,147,,,,2,2,1.0,0.0,0.0,1.0,,0.0-149.0,,0.0,586.575,0.0,0.664001694,0.0,0.705509768,1.0,0.75,0.0,0.500211065,False,,5ebf08453796e31220358f8b,,1780881,147,,evan-feature22,full_pf_b,,0
121,15107,148,,,,1,1,0.0,0.0,0.0,1.0,,0.0-150.0,,0.0,950.225,0.0,0.696508041,0.0,0.71066027,1.0,0.717028709,0.0,0.49792991,False,,5ebf08453796e31220358f8b,,1791604,148,,evan-feature22,full_pf_b,,1
122,15108,149,,,,1,1,1.0,0.0,-1.0,0.0,,0.0-151.0,,-1.0,2049.965,1.0,0.699883272,0.0,0.75,0.0,0.713543895,0.0,0.496962643,False,,5ebf08453796e31220358f8b,,1803429,149,,evan-feature22,full_pf_b,,0
123,15109,150,,,,2,2,1.0,1.0,0.0,1.0,,0.0-152.0,,1.0,2164.44,1.0,0.741163419,1.0,0.75,1.0,0.64691024,1.0,0.513858197,False,,5ebf08453796e31220358f8b,,1815367,150,,evan-feature22,full_pf_b,,1
124,15110,151,,,,1,1,1.0,0.0,-1.0,0.0,,0.0-153.0,,-1.0,2211.8,1.0,0.75,0.0,0.70816558,1.0,0.594499079,0.0,0.48502124,False,,5ebf08453796e31220358f8b,,1827357,151,,evan-feature22,full_pf_b,,1
125,15111,152,,,,1,1,1.0,0.0,0.0,1.0,,0.0-154.0,,0.0,961.56,1.0,0.75,0.0,0.721848901,1.0,0.62197249,0.0,0.48263586399999997,False,,5ebf08453796e31220358f8b,,1838096,152,,evan-feature22,full_pf_b,,0
126,15112,153,,,,1,1,1.0,1.0,-1.0,0.0,,0.0-155.0,,-1.0,946.74,1.0,0.75,1.0,0.74813071,0.0,0.584357161,0.0,0.411477782,False,,5ebf08453796e31220358f8b,,1848816,153,,evan-feature22,full_pf_b,,0
127,15113,154,,,,1,1,1.0,1.0,0.0,1.0,,0.0-156.0,,1.0,1431.43,1.0,0.75,1.0,0.75,0.0,0.52287236,1.0,0.488290656,False,,5ebf08453796e31220358f8b,,1860027,154,,evan-feature22,full_pf_b,,0
128,15114,155,,,,1,1,1.0,1.0,0.0,1.0,,0.0-157.0,,1.0,679.835,1.0,0.75,1.0,0.75,0.0,0.544321581,1.0,0.53143059,False,,5ebf08453796e31220358f8b,,1870478,155,,evan-feature22,full_pf_b,,0
129,15115,156,,,,1,1,0.0,1.0,0.0,1.0,,0.0-158.0,,1.0,784.99,0.0,0.726754564,1.0,0.75,0.0,0.5129306370000001,0.0,0.530592445,False,,5ebf08453796e31220358f8b,,1881042,156,,evan-feature22,full_pf_b,,0
130,15116,157,,,,1,1,0.0,1.0,-1.0,0.0,,0.0-159.0,,0.0,1344.49,0.0,0.75,1.0,0.7392590729999999,1.0,0.479875835,1.0,0.547007051,False,,5ebf08453796e31220358f8b,,1892154,157,,evan-feature22,full_pf_b,,0
131,15117,158,,,,1,1,1.0,1.0,-1.0,0.0,,0.0-160.0,,-1.0,1082.715,1.0,0.75,1.0,0.7393376979999999,0.0,0.546045419,1.0,0.541267353,False,,5ebf08453796e31220358f8b,,1903008,158,,evan-feature22,full_pf_b,,0
132,15118,159,,,,2,2,0.0,0.0,-1.0,0.0,,0.0-161.0,,0.0,1108.23,0.0,0.75,0.0,0.75,0.0,0.485725895,0.0,0.527625395,False,,5ebf08453796e31220358f8b,,1913888,159,,evan-feature22,full_pf_b,,1
133,15119,160,,,,1,1,1.0,0.0,0.0,1.0,,0.0-162.0,,0.0,1087.985,1.0,0.75,0.0,0.725087974,1.0,0.488603595,0.0,0.504019206,False,,5ebf08453796e31220358f8b,,1924750,160,,evan-feature22,full_pf_b,,1
134,15120,161,,,,1,1,0.0,1.0,0.0,1.0,,0.0-163.0,,1.0,1704.74,0.0,0.745504295,1.0,0.75,0.0,0.452379914,1.0,0.50131194,False,,5ebf08453796e31220358f8b,,1936229,161,,evan-feature22,full_pf_b,,0
135,15121,162,,,,1,1,1.0,1.0,0.0,1.0,,0.0-164.0,,1.0,902.855,1.0,0.728513874,1.0,0.75,0.0,0.44125567200000004,0.0,0.531454591,False,,5ebf08453796e31220358f8b,,1946906,162,,evan-feature22,full_pf_b,,0
136,15122,163,,,,2,2,0.0,1.0,-1.0,0.0,,0.0-165.0,,0.0,2524.925,0.0,0.73790804,0.0,0.75,0.0,0.413036656,1.0,0.524619035,False,,5ebf08453796e31220358f8b,,1959211,163,,evan-feature22,full_pf_b,,1
137,15123,164,,,,1,1,0.0,1.0,0.0,1.0,,0.0-166.0,,1.0,1354.355,0.0,0.7080961309999999,1.0,0.708666865,0.0,0.431915581,1.0,0.481819489,False,,5ebf08453796e31220358f8b,,1970339,164,,evan-feature22,full_pf_b,,1
138,15124,165,,,,1,1,1.0,1.0,0.0,1.0,,0.0-167.0,,1.0,1006.085,1.0,0.721378003,1.0,0.71605913,0.0,0.36642387,1.0,0.5036739929999999,False,,5ebf08453796e31220358f8b,,1981124,165,,evan-feature22,full_pf_b,,0
139,15125,166,,,,1,1,0.0,1.0,0.0,1.0,,0.0-168.0,,1.0,859.94,0.0,0.7340618959999999,1.0,0.699323252,0.0,0.35298046299999997,1.0,0.511241692,False,,5ebf08453796e31220358f8b,,1991756,166,,evan-feature22,full_pf_b,,0
140,15126,167,,,,1,1,0.0,1.0,-1.0,0.0,,0.0-169.0,,0.0,1238.705,0.0,0.75,1.0,0.70412698,0.0,0.380734814,0.0,0.529580116,False,,5ebf08453796e31220358f8b,,2002762,167,,evan-feature22,full_pf_b,,0
141,15127,168,,,,1,1,1.0,1.0,0.0,1.0,,0.0-170.0,,1.0,3384.995,1.0,0.7436654909999999,1.0,0.711182751,0.0,0.41125331,1.0,0.49554405,False,,5ebf08453796e31220358f8b,,2015917,168,,evan-feature22,full_pf_b,,0
142,15128,169,,,,1,1,1.0,0.0,0.0,1.0,,0.0-171.0,,0.0,3913.7,1.0,0.731607915,0.0,0.651774583,0.0,0.35688023,1.0,0.45194491600000003,False,,5ebf08453796e31220358f8b,,2029603,169,,evan-feature22,full_pf_b,,0
143,15129,170,,,,1,1,0.0,1.0,-1.0,0.0,,0.0-172.0,,0.0,996.815,0.0,0.75,1.0,0.75,1.0,0.283145374,0.0,0.528608005,False,,5ebf08453796e31220358f8b,,2040374,170,,evan-feature22,full_pf_b,,0
144,15130,171,,,,1,1,1.0,1.0,-1.0,0.0,,0.0-173.0,,-1.0,1190.535,1.0,0.7491416890000001,1.0,0.7423785959999999,0.0,0.29135870399999997,0.0,0.498888318,False,,5ebf08453796e31220358f8b,,2051338,171,,evan-feature22,full_pf_b,,0
145,15131,172,,,,2,2,0.0,1.0,-1.0,0.0,,0.0-174.0,,0.0,499.97,1.0,0.708569387,1.0,0.717682277,0.0,0.294421699,1.0,0.493838163,False,,5ebf08453796e31220358f8b,,2061601,172,,evan-feature22,full_pf_b,,1
146,15132,173,,,,1,1,1.0,1.0,0.0,1.0,,0.0-175.0,,1.0,1134.425,1.0,0.75,1.0,0.7383382159999999,1.0,0.356098707,0.0,0.442533405,False,,5ebf08453796e31220358f8b,,2072508,173,,evan-feature22,full_pf_b,,1
147,15133,174,,,,1,1,0.0,0.0,0.0,1.0,,0.0-176.0,,0.0,2780.045,0.0,0.744527075,0.0,0.75,0.0,0.334127506,0.0,0.393165805,False,,5ebf08453796e31220358f8b,,2085062,174,,evan-feature22,full_pf_b,,0
148,15134,175,,,,2,2,0.0,0.0,0.0,1.0,,0.0-177.0,,0.0,1314.25,1.0,0.75,1.0,0.75,0.0,0.33571021799999995,0.0,0.350393962,False,,5ebf08453796e31220358f8b,,2096144,175,,evan-feature22,full_pf_b,,1
149,15135,176,,,,1,1,0.0,0.0,0.0,1.0,,0.0-178.0,,0.0,604.415,0.0,0.75,0.0,0.75,0.0,0.313628297,0.0,0.36349657399999996,False,,5ebf08453796e31220358f8b,,2106523,176,,evan-feature22,full_pf_b,,1
150,15136,177,,,,1,1,1.0,1.0,-1.0,0.0,,0.0-179.0,,-1.0,1521.325,1.0,0.75,1.0,0.734284182,0.0,0.262667667,1.0,0.380199119,False,,5ebf08453796e31220358f8b,,2117825,177,,evan-feature22,full_pf_b,,0
151,15137,178,,,,1,1,1.0,1.0,0.0,1.0,,0.0-180.0,,1.0,729.485,1.0,0.75,1.0,0.75,0.0,0.25,0.0,0.394494013,False,,5ebf08453796e31220358f8b,,2128332,178,,evan-feature22,full_pf_b,,0
152,15138,179,,,,1,1,1.0,1.0,-1.0,0.0,,0.0-181.0,,-1.0,756.505,1.0,0.722298145,1.0,0.7357822340000001,0.0,0.25,1.0,0.319142121,False,,5ebf08453796e31220358f8b,,2138860,179,,evan-feature22,full_pf_b,,0
153,15139,180,,,,1,1,1.0,0.0,-1.0,0.0,,0.0-182.0,,-1.0,1257.39,1.0,0.73149275,0.0,0.724276446,1.0,0.305856907,1.0,0.281315057,False,,5ebf08453796e31220358f8b,,2149884,180,,evan-feature22,full_pf_b,,0
154,15140,181,,,,1,1,1.0,0.0,0.0,1.0,,0.0-183.0,,0.0,2110.29,1.0,0.7458732690000001,0.0,0.7336382459999999,0.0,0.272571964,1.0,0.266021999,False,,5ebf08453796e31220358f8b,,2161766,181,,evan-feature22,full_pf_b,,0
155,15141,182,,,,1,1,1.0,1.0,0.0,1.0,,0.0-184.0,,1.0,2501.29,1.0,0.705579037,1.0,0.720778292,1.0,0.320238144,0.0,0.30971744,False,,5ebf08453796e31220358f8b,,2174040,182,,evan-feature22,full_pf_b,,0
156,15142,183,,,,1,1,1.0,0.0,0.0,1.0,,0.0-185.0,,0.0,2424.2,1.0,0.700425648,0.0,0.7198784009999999,0.0,0.272590393,0.0,0.304182931,False,,5ebf08453796e31220358f8b,,2186234,183,,evan-feature22,full_pf_b,,0
157,15143,184,,,,1,1,1.0,1.0,0.0,1.0,,0.0-186.0,,1.0,981.135,1.0,0.735590785,1.0,0.722714973,0.0,0.25,0.0,0.323421091,False,,5ebf08453796e31220358f8b,,2196990,184,,evan-feature22,full_pf_b,,0
158,15144,185,,,,2,2,1.0,0.0,0.0,1.0,,0.0-187.0,,0.0,1447.3,1.0,0.724807662,1.0,0.63146213,1.0,0.36836492600000004,0.0,0.34592153299999995,False,,5ebf08453796e31220358f8b,,2208211,185,,evan-feature22,full_pf_b,,1
159,15145,186,,,,1,1,1.0,1.0,0.0,1.0,,0.0-188.0,,1.0,1205.71,1.0,0.7352796909999999,1.0,0.555111392,0.0,0.36003922,1.0,0.31433779999999995,False,,5ebf08453796e31220358f8b,,2219191,186,,evan-feature22,full_pf_b,,1
160,15146,187,notice,,,,,,,,,,0.0-189.0,"{""Q0"":""Quiz moved quicker?""}",,14996.0,,,,,,,,,False,,5ebf08453796e31220358f8b,,2234187,187,Q,survey-text,full_pf_b,,1
161,15147,188,track1,,[1],,,,,,,,0.0-190.0,"{""Q0"":""no""}",,4696.0,,,,,,,,,False,,5ebf08453796e31220358f8b,,2238888,188,Q,evan-quiz,full_pf_b,,1
162,15148,189,track2,,[0],,,,,,,,0.0-191.0,"{""Q0"":""yes""}",,5110.0,,,,,,,,,False,,5ebf08453796e31220358f8b,,2244002,189,Q,evan-quiz,full_pf_b,,1
163,15149,190,strat,,,,,,,,,,0.0-192.0,"{""Q0"":""Not really""}",,6130.0,,,,,,,,,False,,5ebf08453796e31220358f8b,,2250137,190,Q,survey-text,full_pf_b,,1
