,index,Unnamed: 0,Q_name,button_pressed,choice_idxs,chosen_pos,chosen_state,chosen_state_f_1_outcome,chosen_state_f_2_outcome,f_1_reward,f_2_reward,incor_questions,internal_node_id,responses,reward_received,rt,s_1_f_1_outcome,s_1_f_1_prob,s_1_f_2_outcome,s_1_f_2_prob,s_2_f_1_outcome,s_2_f_1_prob,s_2_f_2_outcome,s_2_f_2_prob,safe_first,stimulus,subjectID,success,time_elapsed,trial_index,trial_num,trial_type,version,view_history,switching
0,21536,30,,,,2,2,0.0,0.0,0.0,1.0,,0.0-27.0,,0.0,834.13,0.0,0.6,0.0,0.6,0.0,0.4,0.0,0.4,True,,5f158dba6daab4067326b511,,420436,30,,evan-feature22,full_rf_b,,0
1,21537,31,,,,2,2,1.0,0.0,0.0,1.0,,0.0-28.0,,0.0,497.22,1.0,0.608053294,1.0,0.63424552,1.0,0.397152172,0.0,0.347069101,True,,5f158dba6daab4067326b511,,430708,31,,evan-feature22,full_rf_b,,0
2,21538,32,,,,1,1,1.0,1.0,0.0,1.0,,0.0-29.0,,1.0,434.3,1.0,0.642237155,1.0,0.648566321,0.0,0.389407674,1.0,0.285525717,True,,5f158dba6daab4067326b511,,440919,32,,evan-feature22,full_rf_b,,1
3,21539,33,,,,1,1,1.0,1.0,0.0,1.0,,0.0-30.0,,1.0,335.425,1.0,0.661086576,1.0,0.630492543,1.0,0.399058924,0.0,0.25,True,,5f158dba6daab4067326b511,,451033,33,,evan-feature22,full_rf_b,,0
4,21540,34,,,,2,2,0.0,0.0,0.0,1.0,,0.0-31.0,,0.0,356.58,0.0,0.631324137,0.0,0.6269842929999999,0.0,0.38734784299999997,0.0,0.25,True,,5f158dba6daab4067326b511,,461166,34,,evan-feature22,full_rf_b,,1
5,21541,35,,,,1,1,1.0,1.0,0.0,1.0,,0.0-32.0,,1.0,1271.535,1.0,0.6381991370000001,1.0,0.68987999,0.0,0.384107265,0.0,0.271332943,True,,5f158dba6daab4067326b511,,472214,35,,evan-feature22,full_rf_b,,1
6,21542,36,,,,1,1,1.0,1.0,0.0,1.0,,0.0-33.0,,1.0,414.105,1.0,0.66034901,1.0,0.742641349,0.0,0.360225629,1.0,0.25,True,,5f158dba6daab4067326b511,,482404,36,,evan-feature22,full_rf_b,,0
7,21543,37,,,,1,1,1.0,1.0,-1.0,0.0,,0.0-34.0,,-1.0,471.28,1.0,0.638612418,1.0,0.75,0.0,0.367273939,0.0,0.25,True,,5f158dba6daab4067326b511,,492649,37,,evan-feature22,full_rf_b,,0
8,21544,38,,,,2,2,1.0,0.0,0.0,1.0,,0.0-35.0,,0.0,578.83,1.0,0.624340629,1.0,0.75,1.0,0.425829545,0.0,0.25,True,,5f158dba6daab4067326b511,,502999,38,,evan-feature22,full_rf_b,,1
9,21545,39,,,,2,2,0.0,1.0,0.0,1.0,,0.0-36.0,,1.0,419.48,1.0,0.621999804,0.0,0.75,0.0,0.368609357,1.0,0.25,True,,5f158dba6daab4067326b511,,513191,39,,evan-feature22,full_rf_b,,0
10,21546,40,,,,2,2,1.0,0.0,-1.0,0.0,,0.0-37.0,,-1.0,308.745,1.0,0.62666403,1.0,0.75,1.0,0.311151498,0.0,0.25,True,,5f158dba6daab4067326b511,,523283,40,,evan-feature22,full_rf_b,,0
11,21547,41,,,,1,1,1.0,1.0,-1.0,0.0,,0.0-38.0,,-1.0,353.49,1.0,0.6819650009999999,1.0,0.75,0.0,0.310763048,0.0,0.25,True,,5f158dba6daab4067326b511,,533412,41,,evan-feature22,full_rf_b,,1
12,21548,42,,,,1,1,1.0,0.0,0.0,1.0,,0.0-39.0,,0.0,360.345,1.0,0.740626951,0.0,0.75,0.0,0.25,1.0,0.25,True,,5f158dba6daab4067326b511,,543541,42,,evan-feature22,full_rf_b,,0
13,21549,43,,,,1,1,1.0,1.0,0.0,1.0,,0.0-40.0,,1.0,597.335,1.0,0.739599242,1.0,0.742034978,0.0,0.25397114600000004,0.0,0.25,True,,5f158dba6daab4067326b511,,553911,43,,evan-feature22,full_rf_b,,0
14,21550,44,,,,2,2,1.0,1.0,0.0,1.0,,0.0-41.0,,1.0,529.66,0.0,0.732341315,0.0,0.72735643,1.0,0.25,1.0,0.25,True,,5f158dba6daab4067326b511,,564204,44,,evan-feature22,full_rf_b,,1
15,21551,45,,,,2,2,0.0,0.0,0.0,1.0,,0.0-42.0,,0.0,872.57,0.0,0.7062287770000001,1.0,0.75,0.0,0.29002151,0.0,0.288256649,True,,5f158dba6daab4067326b511,,574840,45,,evan-feature22,full_rf_b,,0
16,21552,46,,,,1,1,1.0,0.0,-1.0,0.0,,0.0-43.0,,-1.0,1857.95,1.0,0.7086029209999999,0.0,0.75,0.0,0.274129113,0.0,0.262851608,True,,5f158dba6daab4067326b511,,586468,46,,evan-feature22,full_rf_b,,1
17,21553,47,,,,2,2,1.0,0.0,0.0,1.0,,0.0-44.0,,0.0,2837.41,1.0,0.669189651,0.0,0.727614338,1.0,0.298444036,0.0,0.296944518,True,,5f158dba6daab4067326b511,,599082,47,,evan-feature22,full_rf_b,,1
18,21554,48,,,,2,2,0.0,1.0,-1.0,0.0,,0.0-45.0,,0.0,2375.34,1.0,0.6819912929999999,0.0,0.7179434290000001,0.0,0.265003961,1.0,0.28157921199999997,True,,5f158dba6daab4067326b511,,611225,48,,evan-feature22,full_rf_b,,0
19,21555,49,,,,2,2,0.0,0.0,-1.0,0.0,,0.0-46.0,,0.0,607.43,0.0,0.665275002,1.0,0.723065271,0.0,0.260414971,0.0,0.30973870000000003,True,,5f158dba6daab4067326b511,,621605,49,,evan-feature22,full_rf_b,,0
20,21556,50,,,,1,1,0.0,1.0,0.0,1.0,,0.0-47.0,,1.0,785.99,0.0,0.6660593260000001,1.0,0.728032907,0.0,0.30922817,0.0,0.338778608,True,,5f158dba6daab4067326b511,,632169,50,,evan-feature22,full_rf_b,,1
21,21557,51,,,,SLOW,SLOW,,,0.0,1.0,,0.0-48.0,,-3.0,,1.0,0.702068785,1.0,0.6528750879999999,0.0,0.287329608,1.0,0.35789613200000003,True,,5f158dba6daab4067326b511,,637983,51,,evan-feature22,full_rf_b,,1
22,21558,52,,,,1,1,1.0,1.0,0.0,1.0,,0.0-49.0,,1.0,1014.75,1.0,0.651939787,1.0,0.636725589,0.0,0.284834488,0.0,0.358563756,True,,5f158dba6daab4067326b511,,648773,52,,evan-feature22,full_rf_b,,1
23,21559,53,,,,2,2,0.0,1.0,0.0,1.0,,0.0-50.0,,1.0,2201.12,1.0,0.67573929,1.0,0.612550049,0.0,0.37130387600000003,1.0,0.383542402,True,,5f158dba6daab4067326b511,,660752,53,,evan-feature22,full_rf_b,,1
24,21560,54,,,,2,2,1.0,1.0,0.0,1.0,,0.0-51.0,,1.0,31.09,0.0,0.620753801,1.0,0.60513644,1.0,0.385529434,1.0,0.340361743,True,,5f158dba6daab4067326b511,,670556,54,,evan-feature22,full_rf_b,,0
25,21561,55,,,,2,2,1.0,0.0,-1.0,0.0,,0.0-52.0,,-1.0,1529.775,1.0,0.673564893,1.0,0.672437924,1.0,0.292955382,0.0,0.337633795,True,,5f158dba6daab4067326b511,,681864,55,,evan-feature22,full_rf_b,,0
26,21562,56,,,,1,1,1.0,1.0,0.0,1.0,,0.0-53.0,,1.0,1224.35,1.0,0.6749427,1.0,0.724197502,0.0,0.32391132100000003,0.0,0.350995264,True,,5f158dba6daab4067326b511,,692859,56,,evan-feature22,full_rf_b,,1
27,21563,57,,,,2,2,0.0,1.0,0.0,1.0,,0.0-54.0,,1.0,465.29,1.0,0.6940159379999999,1.0,0.75,0.0,0.31710554399999996,1.0,0.413450341,True,,5f158dba6daab4067326b511,,703092,57,,evan-feature22,full_rf_b,,1
28,21564,58,,,,2,2,0.0,0.0,0.0,1.0,,0.0-55.0,,0.0,879.955,0.0,0.6916018270000001,1.0,0.69001187,0.0,0.261817804,0.0,0.40038635,True,,5f158dba6daab4067326b511,,713749,58,,evan-feature22,full_rf_b,,0
29,21565,59,,,,2,2,0.0,1.0,0.0,1.0,,0.0-56.0,,1.0,1263.005,1.0,0.641061544,1.0,0.71337992,0.0,0.277296461,1.0,0.47372791700000005,True,,5f158dba6daab4067326b511,,724785,59,,evan-feature22,full_rf_b,,0
30,21566,60,,,,2,2,0.0,0.0,0.0,1.0,,0.0-57.0,,0.0,2779.79,0.0,0.6082438520000001,0.0,0.708471106,0.0,0.28745137,0.0,0.564174476,True,,5f158dba6daab4067326b511,,737337,60,,evan-feature22,full_rf_b,,0
31,21567,61,,,,2,2,1.0,1.0,-1.0,0.0,,0.0-58.0,,-1.0,947.315,1.0,0.6051112120000001,1.0,0.7118147229999999,1.0,0.272390611,1.0,0.5595149939999999,True,,5f158dba6daab4067326b511,,748057,61,,evan-feature22,full_rf_b,,0
32,21568,62,,,,2,2,1.0,1.0,-1.0,0.0,,0.0-59.0,,-1.0,1340.005,0.0,0.582420852,1.0,0.635867583,1.0,0.31089574,1.0,0.5227206520000001,True,,5f158dba6daab4067326b511,,759181,62,,evan-feature22,full_rf_b,,0
33,21569,63,,,,1,1,1.0,1.0,-1.0,0.0,,0.0-60.0,,-1.0,448.5,1.0,0.623195575,1.0,0.655026044,0.0,0.25,0.0,0.560387538,True,,5f158dba6daab4067326b511,,769401,63,,evan-feature22,full_rf_b,,1
34,21570,64,,,,1,1,1.0,1.0,0.0,1.0,,0.0-61.0,,1.0,353.71,1.0,0.601889598,1.0,0.678198724,0.0,0.25,1.0,0.559922936,True,,5f158dba6daab4067326b511,,779530,64,,evan-feature22,full_rf_b,,0
35,21571,65,,,,1,1,1.0,1.0,-1.0,0.0,,0.0-62.0,,-1.0,1841.165,1.0,0.601259914,1.0,0.704681482,0.0,0.33908969299999997,1.0,0.505003715,True,,5f158dba6daab4067326b511,,791146,65,,evan-feature22,full_rf_b,,0
36,21572,66,,,,1,1,0.0,1.0,-1.0,0.0,,0.0-63.0,,0.0,379.365,0.0,0.59645454,1.0,0.710437172,1.0,0.327441879,1.0,0.391749613,True,,5f158dba6daab4067326b511,,801298,66,,evan-feature22,full_rf_b,,0
37,21573,67,,,,1,1,1.0,1.0,0.0,1.0,,0.0-64.0,,1.0,1951.405,1.0,0.529473,1.0,0.636758527,1.0,0.301338063,1.0,0.365661481,True,,5f158dba6daab4067326b511,,813021,67,,evan-feature22,full_rf_b,,0
38,21574,68,,,,1,1,0.0,0.0,-1.0,0.0,,0.0-65.0,,0.0,791.54,0.0,0.541657162,0.0,0.634541962,0.0,0.343535366,1.0,0.371763742,True,,5f158dba6daab4067326b511,,823583,68,,evan-feature22,full_rf_b,,0
39,21575,69,,,,1,1,1.0,0.0,-1.0,0.0,,0.0-66.0,,-1.0,1251.23,1.0,0.5707533260000001,0.0,0.589121171,1.0,0.326428396,1.0,0.43961622899999997,True,,5f158dba6daab4067326b511,,834600,69,,evan-feature22,full_rf_b,,0
40,21576,70,,,,1,1,1.0,1.0,0.0,1.0,,0.0-67.0,,1.0,1241.075,1.0,0.5707533260000001,1.0,0.589121171,0.0,0.326428396,1.0,0.43961622899999997,True,,5f158dba6daab4067326b511,,845612,70,,evan-feature22,full_rf_b,,0
41,21577,71,,,,2,2,1.0,1.0,0.0,1.0,,0.0-68.0,,1.0,531.475,1.0,0.506271295,0.0,0.641775594,1.0,0.37149690700000004,1.0,0.404330166,True,,5f158dba6daab4067326b511,,855921,71,,evan-feature22,full_rf_b,,1
42,21578,72,,,,2,2,1.0,1.0,-1.0,0.0,,0.0-69.0,,-1.0,807.99,0.0,0.455642565,0.0,0.623605825,1.0,0.358753011,1.0,0.346174041,True,,5f158dba6daab4067326b511,,866504,72,,evan-feature22,full_rf_b,,0
43,21579,73,,,,2,2,0.0,0.0,0.0,1.0,,0.0-70.0,,0.0,1585.175,0.0,0.483677308,1.0,0.5904681070000001,0.0,0.402218411,0.0,0.35344697,True,,5f158dba6daab4067326b511,,877864,73,,evan-feature22,full_rf_b,,0
44,21580,74,,,,2,2,1.0,1.0,-1.0,0.0,,0.0-71.0,,-1.0,976.65,0.0,0.394210977,0.0,0.558925494,1.0,0.540052017,1.0,0.35182128700000004,True,,5f158dba6daab4067326b511,,888610,74,,evan-feature22,full_rf_b,,0
45,21581,75,,,,2,2,0.0,0.0,0.0,1.0,,0.0-72.0,,0.0,479.525,0.0,0.382300414,0.0,0.577670603,0.0,0.607608448,0.0,0.378261578,True,,5f158dba6daab4067326b511,,898860,75,,evan-feature22,full_rf_b,,0
46,21582,76,,,,2,2,1.0,0.0,-1.0,0.0,,0.0-73.0,,-1.0,1076.325,0.0,0.357596762,0.0,0.5929076529999999,1.0,0.6579790010000001,0.0,0.401326777,True,,5f158dba6daab4067326b511,,909708,76,,evan-feature22,full_rf_b,,0
47,21583,77,,,,2,2,1.0,0.0,0.0,1.0,,0.0-74.0,,0.0,2932.84,1.0,0.362033495,0.0,0.582308608,1.0,0.649195052,0.0,0.355158505,True,,5f158dba6daab4067326b511,,922412,77,,evan-feature22,full_rf_b,,0
48,21584,78,,,,SLOW,SLOW,,,0.0,1.0,,0.0-75.0,,-3.0,,0.0,0.369620635,1.0,0.669100864,1.0,0.706059111,0.0,0.362516241,True,,5f158dba6daab4067326b511,,928220,78,,evan-feature22,full_rf_b,,1
49,21585,79,,,,2,2,0.0,0.0,0.0,1.0,,0.0-76.0,,0.0,2905.43,0.0,0.41477751399999996,0.0,0.7284416779999999,0.0,0.7182656940000001,0.0,0.36228040899999997,True,,5f158dba6daab4067326b511,,940888,79,,evan-feature22,full_rf_b,,1
50,21586,80,,,,1,1,0.0,0.0,-1.0,0.0,,0.0-77.0,,0.0,448.63,0.0,0.37675460299999997,0.0,0.703250285,1.0,0.75,0.0,0.461979164,True,,5f158dba6daab4067326b511,,951109,80,,evan-feature22,full_rf_b,,1
51,21587,81,,,,1,1,1.0,1.0,-1.0,0.0,,0.0-78.0,,-1.0,323.675,1.0,0.398716075,1.0,0.6723864890000001,0.0,0.674153818,0.0,0.519029516,True,,5f158dba6daab4067326b511,,961209,81,,evan-feature22,full_rf_b,,0
52,21588,82,,,,2,2,1.0,1.0,-1.0,0.0,,0.0-79.0,,-1.0,1708.77,0.0,0.34677856700000004,1.0,0.69057175,1.0,0.6822438540000001,1.0,0.477292237,True,,5f158dba6daab4067326b511,,972693,82,,evan-feature22,full_rf_b,,1
53,21589,83,,,,2,2,1.0,0.0,0.0,1.0,,0.0-80.0,,0.0,1615.11,0.0,0.28580469199999997,1.0,0.68408818,1.0,0.684207565,0.0,0.49780448299999996,True,,5f158dba6daab4067326b511,,984088,83,,evan-feature22,full_rf_b,,0
54,21591,85,,,,1,1,1.0,1.0,0.0,1.0,,0.0-82.0,,1.0,2179.53,1.0,0.25,1.0,0.7405808970000001,1.0,0.679614108,1.0,0.436436964,True,,5f158dba6daab4067326b511,,998273,85,,evan-feature22,full_rf_b,,1
55,21592,86,,,,1,1,1.0,1.0,0.0,1.0,,0.0-83.0,,1.0,563.77,1.0,0.29890393,1.0,0.730505706,1.0,0.7328203320000001,0.0,0.439256938,True,,5f158dba6daab4067326b511,,1008616,86,,evan-feature22,full_rf_b,,0
56,21593,87,,,,SLOW,SLOW,,,-1.0,0.0,,0.0-84.0,,-3.0,,0.0,0.326762398,0.0,0.7148059609999999,1.0,0.75,0.0,0.44389608799999997,True,,5f158dba6daab4067326b511,,1014427,87,,evan-feature22,full_rf_b,,1
57,21594,88,,,,2,2,1.0,0.0,0.0,1.0,,0.0-85.0,,0.0,416.165,0.0,0.295168515,0.0,0.739760854,1.0,0.719947008,0.0,0.35277284600000003,True,,5f158dba6daab4067326b511,,1024615,88,,evan-feature22,full_rf_b,,1
58,21595,89,,,,2,2,0.0,0.0,0.0,1.0,,0.0-86.0,,0.0,1132.93,0.0,0.25,0.0,0.70781482,0.0,0.75,0.0,0.286095925,True,,5f158dba6daab4067326b511,,1035522,89,,evan-feature22,full_rf_b,,0
59,21596,90,,,,2,2,1.0,0.0,0.0,1.0,,0.0-87.0,,0.0,1217.495,1.0,0.25638190899999996,0.0,0.704088163,1.0,0.75,0.0,0.26872601399999996,True,,5f158dba6daab4067326b511,,1046510,90,,evan-feature22,full_rf_b,,0
60,21597,91,,,,2,2,0.0,0.0,-1.0,0.0,,0.0-88.0,,0.0,2830.425,0.0,0.271581126,0.0,0.669760107,0.0,0.733896663,0.0,0.273244572,True,,5f158dba6daab4067326b511,,1059106,91,,evan-feature22,full_rf_b,,0
61,21598,92,,,,1,1,0.0,1.0,0.0,1.0,,0.0-89.0,,1.0,968.15,0.0,0.257144401,1.0,0.600575706,1.0,0.74488122,0.0,0.25,True,,5f158dba6daab4067326b511,,1069852,92,,evan-feature22,full_rf_b,,1
62,21599,93,,,,2,2,1.0,0.0,0.0,1.0,,0.0-90.0,,0.0,1758.465,0.0,0.25,1.0,0.616870026,1.0,0.723610234,0.0,0.25,True,,5f158dba6daab4067326b511,,1081386,93,,evan-feature22,full_rf_b,,1
63,21600,94,,,,2,2,1.0,1.0,-1.0,0.0,,0.0-91.0,,-1.0,2696.055,0.0,0.25,1.0,0.583540187,1.0,0.7041042559999999,1.0,0.285961995,True,,5f158dba6daab4067326b511,,1093855,94,,evan-feature22,full_rf_b,,0
64,21601,95,,,,2,2,1.0,1.0,-1.0,0.0,,0.0-92.0,,-1.0,1530.925,1.0,0.27254536,1.0,0.53875765,1.0,0.693783448,1.0,0.284961652,True,,5f158dba6daab4067326b511,,1105163,95,,evan-feature22,full_rf_b,,0
65,21602,96,,,,2,2,1.0,0.0,-1.0,0.0,,0.0-93.0,,-1.0,438.725,1.0,0.25,1.0,0.548431252,1.0,0.734221895,0.0,0.279445214,True,,5f158dba6daab4067326b511,,1115367,96,,evan-feature22,full_rf_b,,0
66,21603,97,,,,1,1,0.0,0.0,0.0,1.0,,0.0-94.0,,0.0,544.295,0.0,0.258640684,0.0,0.545878066,0.0,0.725245965,0.0,0.31487537,True,,5f158dba6daab4067326b511,,1125682,97,,evan-feature22,full_rf_b,,1
67,21604,98,,,,2,2,1.0,0.0,0.0,1.0,,0.0-95.0,,0.0,2590.44,0.0,0.251103711,0.0,0.5776290629999999,1.0,0.696320133,0.0,0.317831047,True,,5f158dba6daab4067326b511,,1138048,98,,evan-feature22,full_rf_b,,1
68,21605,99,,,,2,2,1.0,0.0,0.0,1.0,,0.0-96.0,,0.0,1141.75,0.0,0.276630292,1.0,0.617329858,1.0,0.73838088,0.0,0.261471582,True,,5f158dba6daab4067326b511,,1148965,99,,evan-feature22,full_rf_b,,0
69,21606,100,,,,1,1,0.0,0.0,0.0,1.0,,0.0-97.0,,0.0,581.185,0.0,0.297716424,0.0,0.618863717,0.0,0.7402358259999999,0.0,0.262600834,True,,5f158dba6daab4067326b511,,1159321,100,,evan-feature22,full_rf_b,,1
70,21607,101,,,,2,2,1.0,1.0,-1.0,0.0,,0.0-98.0,,-1.0,376.675,1.0,0.290935512,1.0,0.695370945,1.0,0.706570507,1.0,0.280030553,True,,5f158dba6daab4067326b511,,1169473,101,,evan-feature22,full_rf_b,,1
71,21608,102,,,,SLOW,SLOW,,,0.0,1.0,,0.0-99.0,,-3.0,,0.0,0.25,1.0,0.6465277079999999,0.0,0.67766682,0.0,0.25,True,,5f158dba6daab4067326b511,,1175284,102,,evan-feature22,full_rf_b,,1
72,21609,103,,,,2,2,0.0,0.0,-1.0,0.0,,0.0-100.0,,0.0,1571.895,1.0,0.26463816,0.0,0.636100213,0.0,0.646048507,0.0,0.265607101,True,,5f158dba6daab4067326b511,,1186621,103,,evan-feature22,full_rf_b,,1
73,21610,104,,,,1,1,0.0,1.0,-1.0,0.0,,0.0-101.0,,0.0,384.125,0.0,0.314340707,1.0,0.667795927,0.0,0.613630805,1.0,0.25,True,,5f158dba6daab4067326b511,,1196780,104,,evan-feature22,full_rf_b,,1
74,21611,105,,,,2,2,0.0,0.0,0.0,1.0,,0.0-102.0,,0.0,3072.74,1.0,0.28685784,1.0,0.6622549529999999,0.0,0.652154117,0.0,0.25,True,,5f158dba6daab4067326b511,,1212888,105,,evan-feature22,full_rf_b,,1
75,21612,106,,,,1,1,1.0,1.0,0.0,1.0,,0.0-103.0,,1.0,535.38,1.0,0.304106554,1.0,0.631289538,1.0,0.707041942,0.0,0.29314237,True,,5f158dba6daab4067326b511,,1224010,106,,evan-feature22,full_rf_b,,1
76,21613,107,,,,1,1,0.0,1.0,0.0,1.0,,0.0-104.0,,1.0,371.765,0.0,0.304806932,1.0,0.571167718,1.0,0.680472346,0.0,0.25,True,,5f158dba6daab4067326b511,,1234158,107,,evan-feature22,full_rf_b,,0
77,21614,108,,,,SLOW,SLOW,,,0.0,1.0,,0.0-105.0,,-3.0,,0.0,0.37919861,1.0,0.5724849710000001,1.0,0.705638003,0.0,0.30179300600000003,True,,5f158dba6daab4067326b511,,1240474,108,,evan-feature22,full_rf_b,,1
78,21615,109,,,,1,1,0.0,1.0,0.0,1.0,,0.0-106.0,,1.0,448.245,0.0,0.464277969,1.0,0.554034373,0.0,0.7372627340000001,1.0,0.264699741,True,,5f158dba6daab4067326b511,,1250692,109,,evan-feature22,full_rf_b,,1
79,21616,110,,,,1,1,0.0,1.0,0.0,1.0,,0.0-107.0,,1.0,650.67,0.0,0.465104323,1.0,0.530793115,1.0,0.75,1.0,0.31683071,True,,5f158dba6daab4067326b511,,1263758,110,,evan-feature22,full_rf_b,,0
80,21617,111,,,,1,1,0.0,1.0,-1.0,0.0,,0.0-108.0,,0.0,344.73,0.0,0.465104323,1.0,0.530793115,1.0,0.75,1.0,0.31683071,True,,5f158dba6daab4067326b511,,1273876,111,,evan-feature22,full_rf_b,,0
81,21618,112,,,,2,2,1.0,0.0,-1.0,0.0,,0.0-109.0,,-1.0,1302.61,0.0,0.46833986,0.0,0.570249239,1.0,0.7244472590000001,0.0,0.364114163,True,,5f158dba6daab4067326b511,,1284955,112,,evan-feature22,full_rf_b,,1
82,21619,113,,,,2,2,1.0,0.0,-1.0,0.0,,0.0-110.0,,-1.0,1375.395,1.0,0.445444024,1.0,0.649673355,1.0,0.6845441290000001,0.0,0.300660449,True,,5f158dba6daab4067326b511,,1296106,113,,evan-feature22,full_rf_b,,0
83,21620,114,,,,2,2,1.0,1.0,-1.0,0.0,,0.0-111.0,,-1.0,2364.085,0.0,0.39909721299999995,0.0,0.6715179509999999,1.0,0.742310028,1.0,0.35496088299999995,True,,5f158dba6daab4067326b511,,1308244,114,,evan-feature22,full_rf_b,,0
84,21621,115,,,,2,2,1.0,1.0,0.0,1.0,,0.0-112.0,,1.0,982.21,1.0,0.37956104799999996,1.0,0.694725302,1.0,0.7181651309999999,1.0,0.38726906299999997,True,,5f158dba6daab4067326b511,,1319000,115,,evan-feature22,full_rf_b,,0
85,21622,116,,,,2,2,1.0,0.0,0.0,1.0,,0.0-113.0,,0.0,900.155,0.0,0.404995034,0.0,0.724375412,1.0,0.6910946859999999,0.0,0.387187347,True,,5f158dba6daab4067326b511,,1329676,116,,evan-feature22,full_rf_b,,0
86,21623,117,,,,2,2,1.0,0.0,-1.0,0.0,,0.0-114.0,,-1.0,1548.57,0.0,0.461740803,1.0,0.75,1.0,0.75,0.0,0.34872038200000005,True,,5f158dba6daab4067326b511,,1340998,117,,evan-feature22,full_rf_b,,0
87,21624,118,,,,2,2,0.0,0.0,-1.0,0.0,,0.0-115.0,,0.0,1524.175,1.0,0.43821380600000004,1.0,0.738833273,0.0,0.728286963,0.0,0.399538128,True,,5f158dba6daab4067326b511,,1352298,118,,evan-feature22,full_rf_b,,0
88,21625,119,,,,SLOW,SLOW,,,0.0,1.0,,0.0-116.0,,-3.0,,0.0,0.41709882,1.0,0.736666736,1.0,0.75,0.0,0.389095584,True,,5f158dba6daab4067326b511,,1358107,119,,evan-feature22,full_rf_b,,1
89,21626,120,,,,2,2,1.0,0.0,0.0,1.0,,0.0-117.0,,0.0,2790.67,0.0,0.39749009799999996,0.0,0.744320029,1.0,0.75,0.0,0.363848678,True,,5f158dba6daab4067326b511,,1370672,120,,evan-feature22,full_rf_b,,1
90,21627,121,,,,2,2,1.0,0.0,-1.0,0.0,,0.0-118.0,,-1.0,2200.34,0.0,0.392653706,0.0,0.75,1.0,0.75,0.0,0.384386976,True,,5f158dba6daab4067326b511,,1382644,121,,evan-feature22,full_rf_b,,0
91,21628,122,,,,2,2,1.0,0.0,0.0,1.0,,0.0-119.0,,0.0,2059.625,0.0,0.31190902600000003,0.0,0.75,1.0,0.732413819,0.0,0.413082932,True,,5f158dba6daab4067326b511,,1394474,122,,evan-feature22,full_rf_b,,0
92,21629,123,,,,1,1,0.0,1.0,-1.0,0.0,,0.0-120.0,,0.0,2326.065,0.0,0.366917648,1.0,0.740073855,1.0,0.75,1.0,0.352861979,True,,5f158dba6daab4067326b511,,1406577,123,,evan-feature22,full_rf_b,,1
93,21630,124,,,,1,1,0.0,1.0,-1.0,0.0,,0.0-121.0,,0.0,1231.195,0.0,0.3645172,1.0,0.721770713,1.0,0.75,1.0,0.404074511,True,,5f158dba6daab4067326b511,,1417577,124,,evan-feature22,full_rf_b,,0
94,21631,125,,,,1,1,1.0,1.0,-1.0,0.0,,0.0-122.0,,-1.0,967.965,1.0,0.35205600299999995,1.0,0.68983859,0.0,0.739735447,0.0,0.366895945,True,,5f158dba6daab4067326b511,,1428316,125,,evan-feature22,full_rf_b,,0
95,21632,126,,,,1,1,1.0,1.0,-1.0,0.0,,0.0-123.0,,-1.0,1601.64,1.0,0.40998722600000004,1.0,0.720859127,1.0,0.673854955,0.0,0.368528541,True,,5f158dba6daab4067326b511,,1439687,126,,evan-feature22,full_rf_b,,0
96,21633,127,,,,1,1,0.0,1.0,-1.0,0.0,,0.0-124.0,,0.0,1189.625,0.0,0.353625316,1.0,0.75,0.0,0.695605473,0.0,0.38303674200000004,True,,5f158dba6daab4067326b511,,1450650,127,,evan-feature22,full_rf_b,,0
97,21634,128,,,,1,1,0.0,1.0,-1.0,0.0,,0.0-125.0,,0.0,1404.365,0.0,0.359216989,1.0,0.75,0.0,0.6987915090000001,1.0,0.35169046200000004,True,,5f158dba6daab4067326b511,,1461823,128,,evan-feature22,full_rf_b,,0
98,21635,129,,,,1,1,0.0,0.0,-1.0,0.0,,0.0-126.0,,0.0,629.935,0.0,0.35834496899999996,0.0,0.75,0.0,0.707067742,0.0,0.416763636,True,,5f158dba6daab4067326b511,,1472220,129,,evan-feature22,full_rf_b,,0
99,21636,130,,,,SLOW,SLOW,,,0.0,1.0,,0.0-127.0,,-3.0,,0.0,0.38741613799999997,1.0,0.7177369570000001,1.0,0.734902455,0.0,0.49438664299999996,True,,5f158dba6daab4067326b511,,1478026,130,,evan-feature22,full_rf_b,,1
100,21637,131,,,,1,1,0.0,0.0,-1.0,0.0,,0.0-128.0,,0.0,1098.42,0.0,0.405255252,0.0,0.7300466640000001,1.0,0.7027748070000001,1.0,0.504359668,True,,5f158dba6daab4067326b511,,1488895,131,,evan-feature22,full_rf_b,,1
101,21638,132,,,,SLOW,SLOW,,,-1.0,0.0,,0.0-129.0,,-3.0,,0.0,0.40697073,1.0,0.7260142190000001,1.0,0.724461982,0.0,0.522779179,True,,5f158dba6daab4067326b511,,1494707,132,,evan-feature22,full_rf_b,,1
102,21639,133,,,,1,1,0.0,0.0,-1.0,0.0,,0.0-130.0,,0.0,1660.17,0.0,0.43906215299999996,0.0,0.7252802340000001,1.0,0.719079934,1.0,0.5712990579999999,True,,5f158dba6daab4067326b511,,1506135,133,,evan-feature22,full_rf_b,,1
103,21640,134,,,,2,2,0.0,1.0,0.0,1.0,,0.0-131.0,,1.0,2223.09,1.0,0.4076705,1.0,0.73280499,0.0,0.681313127,1.0,0.523891346,True,,5f158dba6daab4067326b511,,1518134,134,,evan-feature22,full_rf_b,,1
104,21641,135,,,,1,1,1.0,1.0,0.0,1.0,,0.0-132.0,,1.0,3780.72,1.0,0.399102911,1.0,0.730498344,1.0,0.661080239,0.0,0.46742603,True,,5f158dba6daab4067326b511,,1531692,135,,evan-feature22,full_rf_b,,1
105,21642,136,,,,1,1,1.0,0.0,0.0,1.0,,0.0-133.0,,0.0,3678.9,1.0,0.356477282,0.0,0.712296395,1.0,0.641812684,0.0,0.44868414,True,,5f158dba6daab4067326b511,,1545138,136,,evan-feature22,full_rf_b,,0
106,21643,137,,,,2,2,1.0,1.0,-1.0,0.0,,0.0-134.0,,-1.0,3273.235,0.0,0.462760722,1.0,0.692349322,1.0,0.700947931,1.0,0.394680266,True,,5f158dba6daab4067326b511,,1558187,137,,evan-feature22,full_rf_b,,1
107,21644,138,,,,2,2,1.0,1.0,-1.0,0.0,,0.0-135.0,,-1.0,1775.62,0.0,0.422306413,1.0,0.718375916,1.0,0.706340917,1.0,0.367787185,True,,5f158dba6daab4067326b511,,1571463,138,,evan-feature22,full_rf_b,,0
108,21646,140,,,,2,2,0.0,0.0,-1.0,0.0,,0.0-137.0,,0.0,1479.63,0.0,0.4582233,1.0,0.643834117,0.0,0.75,0.0,0.39615823299999997,True,,5f158dba6daab4067326b511,,1616346,140,,evan-feature22,full_rf_b,,0
109,21647,141,,,,2,2,0.0,0.0,-1.0,0.0,,0.0-138.0,,0.0,984.155,0.0,0.43813437899999996,1.0,0.651283804,0.0,0.729674191,0.0,0.37711048,True,,5f158dba6daab4067326b511,,1627101,141,,evan-feature22,full_rf_b,,0
110,21648,142,,,,2,2,1.0,0.0,-1.0,0.0,,0.0-139.0,,-1.0,1465.905,1.0,0.471199094,1.0,0.6470010979999999,1.0,0.715008097,0.0,0.410656191,True,,5f158dba6daab4067326b511,,1638332,142,,evan-feature22,full_rf_b,,0
111,21649,143,,,,2,2,1.0,0.0,-1.0,0.0,,0.0-140.0,,-1.0,2201.1,0.0,0.42486406,0.0,0.629771829,1.0,0.6550939960000001,0.0,0.459093873,True,,5f158dba6daab4067326b511,,1650307,143,,evan-feature22,full_rf_b,,0
112,21650,144,,,,2,2,0.0,1.0,-1.0,0.0,,0.0-141.0,,0.0,1862.185,1.0,0.4803197,0.0,0.645842715,0.0,0.6421749920000001,1.0,0.443092151,True,,5f158dba6daab4067326b511,,1661941,144,,evan-feature22,full_rf_b,,0
113,21651,145,,,,2,2,1.0,1.0,0.0,1.0,,0.0-142.0,,1.0,1337.07,1.0,0.521848997,0.0,0.735801074,1.0,0.6691348460000001,1.0,0.45259351600000003,True,,5f158dba6daab4067326b511,,1673049,145,,evan-feature22,full_rf_b,,0
114,21652,146,,,,2,2,1.0,0.0,-1.0,0.0,,0.0-143.0,,-1.0,421.775,1.0,0.49565621299999996,1.0,0.742400847,1.0,0.661512553,0.0,0.483110831,True,,5f158dba6daab4067326b511,,1683241,146,,evan-feature22,full_rf_b,,0
115,21653,147,,,,2,2,0.0,0.0,-1.0,0.0,,0.0-144.0,,0.0,1128.32,0.0,0.521564361,1.0,0.731078632,0.0,0.6774886809999999,0.0,0.483263956,True,,5f158dba6daab4067326b511,,1694137,147,,evan-feature22,full_rf_b,,0
116,21654,148,,,,2,2,1.0,0.0,-1.0,0.0,,0.0-145.0,,-1.0,3415.995,1.0,0.558893102,0.0,0.719810023,1.0,0.67461031,0.0,0.499349834,True,,5f158dba6daab4067326b511,,1707322,148,,evan-feature22,full_rf_b,,0
117,21655,149,,,,2,2,1.0,1.0,-1.0,0.0,,0.0-146.0,,-1.0,2294.86,0.0,0.611031046,1.0,0.75,1.0,0.688072995,1.0,0.5321422729999999,True,,5f158dba6daab4067326b511,,1719381,149,,evan-feature22,full_rf_b,,0
118,21656,150,,,,SLOW,SLOW,,,0.0,1.0,,0.0-147.0,,-3.0,,1.0,0.633223941,1.0,0.713567728,1.0,0.75,1.0,0.48185314700000004,True,,5f158dba6daab4067326b511,,1725188,150,,evan-feature22,full_rf_b,,1
119,21657,151,,,,2,2,0.0,0.0,-1.0,0.0,,0.0-148.0,,0.0,2844.615,0.0,0.664001694,1.0,0.705509768,0.0,0.75,0.0,0.500211065,True,,5f158dba6daab4067326b511,,1737802,151,,evan-feature22,full_rf_b,,1
120,21658,152,,,,2,2,1.0,1.0,-1.0,0.0,,0.0-149.0,,-1.0,1329.31,1.0,0.664001694,1.0,0.705509768,1.0,0.75,1.0,0.500211065,True,,5f158dba6daab4067326b511,,1748909,152,,evan-feature22,full_rf_b,,0
121,21659,153,,,,2,2,1.0,0.0,-1.0,0.0,,0.0-150.0,,-1.0,413.46,1.0,0.696508041,0.0,0.71066027,1.0,0.717028709,0.0,0.49792991,True,,5f158dba6daab4067326b511,,1759090,153,,evan-feature22,full_rf_b,,0
122,21660,154,,,,2,2,1.0,1.0,0.0,1.0,,0.0-151.0,,1.0,1177.44,0.0,0.699883272,0.0,0.75,1.0,0.713543895,1.0,0.496962643,True,,5f158dba6daab4067326b511,,1770038,154,,evan-feature22,full_rf_b,,0
123,21661,155,,,,2,2,0.0,0.0,0.0,1.0,,0.0-152.0,,0.0,1501.945,1.0,0.741163419,1.0,0.75,0.0,0.64691024,0.0,0.513858197,True,,5f158dba6daab4067326b511,,1781305,155,,evan-feature22,full_rf_b,,0
124,21662,156,,,,2,2,1.0,1.0,0.0,1.0,,0.0-153.0,,1.0,1722.08,1.0,0.75,1.0,0.70816558,1.0,0.594499079,1.0,0.48502124,True,,5f158dba6daab4067326b511,,1792805,156,,evan-feature22,full_rf_b,,0
125,21663,157,,,,2,2,1.0,1.0,-1.0,0.0,,0.0-154.0,,-1.0,1991.755,1.0,0.75,1.0,0.721848901,1.0,0.62197249,1.0,0.48263586399999997,True,,5f158dba6daab4067326b511,,1804565,157,,evan-feature22,full_rf_b,,0
126,21664,158,,,,2,2,0.0,1.0,-1.0,0.0,,0.0-155.0,,0.0,2389.035,1.0,0.75,1.0,0.74813071,0.0,0.584357161,1.0,0.411477782,True,,5f158dba6daab4067326b511,,1816734,158,,evan-feature22,full_rf_b,,0
127,21665,159,,,,2,2,1.0,0.0,-1.0,0.0,,0.0-156.0,,-1.0,3045.68,0.0,0.75,1.0,0.75,1.0,0.52287236,0.0,0.488290656,True,,5f158dba6daab4067326b511,,1829557,159,,evan-feature22,full_rf_b,,0
128,21666,160,,,,2,2,0.0,1.0,-1.0,0.0,,0.0-157.0,,0.0,3104.08,0.0,0.75,1.0,0.75,0.0,0.544321581,1.0,0.53143059,True,,5f158dba6daab4067326b511,,1842430,160,,evan-feature22,full_rf_b,,0
129,21667,161,,,,2,2,1.0,0.0,-1.0,0.0,,0.0-158.0,,-1.0,3379.185,1.0,0.726754564,1.0,0.75,1.0,0.5129306370000001,0.0,0.530592445,True,,5f158dba6daab4067326b511,,1855578,161,,evan-feature22,full_rf_b,,0
130,21668,162,,,,SLOW,SLOW,,,0.0,1.0,,0.0-159.0,,-3.0,,1.0,0.75,0.0,0.7392590729999999,1.0,0.479875835,0.0,0.547007051,True,,5f158dba6daab4067326b511,,1861387,162,,evan-feature22,full_rf_b,,1
131,21669,163,,,,2,2,0.0,1.0,0.0,1.0,,0.0-160.0,,1.0,595.575,1.0,0.75,1.0,0.7393376979999999,0.0,0.546045419,1.0,0.541267353,True,,5f158dba6daab4067326b511,,1871756,163,,evan-feature22,full_rf_b,,1
132,21670,164,,,,2,2,0.0,0.0,-1.0,0.0,,0.0-161.0,,0.0,1204.715,1.0,0.75,0.0,0.75,0.0,0.485725895,0.0,0.527625395,True,,5f158dba6daab4067326b511,,1882728,164,,evan-feature22,full_rf_b,,0
133,21671,165,,,,2,2,1.0,1.0,0.0,1.0,,0.0-162.0,,1.0,2702.69,1.0,0.75,0.0,0.725087974,1.0,0.488603595,1.0,0.504019206,True,,5f158dba6daab4067326b511,,1895204,165,,evan-feature22,full_rf_b,,0
134,21672,166,,,,2,2,1.0,1.0,-1.0,0.0,,0.0-163.0,,-1.0,1380.835,1.0,0.745504295,1.0,0.75,1.0,0.452379914,1.0,0.50131194,True,,5f158dba6daab4067326b511,,1906357,166,,evan-feature22,full_rf_b,,0
135,21673,167,,,,2,2,0.0,1.0,0.0,1.0,,0.0-164.0,,1.0,3719.55,0.0,0.728513874,1.0,0.75,0.0,0.44125567200000004,1.0,0.531454591,True,,5f158dba6daab4067326b511,,1919850,167,,evan-feature22,full_rf_b,,0
136,21674,168,,,,SLOW,SLOW,,,-1.0,0.0,,0.0-165.0,,-3.0,,1.0,0.73790804,1.0,0.75,0.0,0.413036656,0.0,0.524619035,True,,5f158dba6daab4067326b511,,1925659,168,,evan-feature22,full_rf_b,,1
137,21675,169,,,,2,2,0.0,1.0,-1.0,0.0,,0.0-166.0,,0.0,619.12,0.0,0.7080961309999999,1.0,0.708666865,0.0,0.431915581,1.0,0.481819489,True,,5f158dba6daab4067326b511,,1936050,169,,evan-feature22,full_rf_b,,1
138,21676,170,,,,1,1,1.0,0.0,-1.0,0.0,,0.0-167.0,,-1.0,1668.65,1.0,0.721378003,0.0,0.71605913,0.0,0.36642387,0.0,0.5036739929999999,True,,5f158dba6daab4067326b511,,1947493,170,,evan-feature22,full_rf_b,,1
139,21677,171,,,,2,2,1.0,1.0,0.0,1.0,,0.0-168.0,,1.0,364.05,1.0,0.7340618959999999,1.0,0.699323252,1.0,0.35298046299999997,1.0,0.511241692,True,,5f158dba6daab4067326b511,,1957631,171,,evan-feature22,full_rf_b,,1
140,21678,172,,,,2,2,0.0,1.0,0.0,1.0,,0.0-169.0,,1.0,896.88,1.0,0.75,1.0,0.70412698,0.0,0.380734814,1.0,0.529580116,True,,5f158dba6daab4067326b511,,1968298,172,,evan-feature22,full_rf_b,,0
141,21679,173,,,,2,2,0.0,0.0,0.0,1.0,,0.0-170.0,,0.0,2025.745,0.0,0.7436654909999999,1.0,0.711182751,0.0,0.41125331,0.0,0.49554405,True,,5f158dba6daab4067326b511,,1980104,173,,evan-feature22,full_rf_b,,0
142,21680,174,,,,2,2,0.0,0.0,-1.0,0.0,,0.0-171.0,,0.0,1372.195,1.0,0.731607915,0.0,0.651774583,0.0,0.35688023,0.0,0.45194491600000003,True,,5f158dba6daab4067326b511,,1991613,174,,evan-feature22,full_rf_b,,0
143,21681,175,,,,2,2,1.0,1.0,0.0,1.0,,0.0-172.0,,1.0,254.41,1.0,0.75,1.0,0.75,1.0,0.283145374,1.0,0.528608005,True,,5f158dba6daab4067326b511,,2001636,175,,evan-feature22,full_rf_b,,0
144,21682,176,,,,2,2,0.0,1.0,-1.0,0.0,,0.0-173.0,,0.0,1173.13,1.0,0.7491416890000001,1.0,0.7423785959999999,0.0,0.29135870399999997,1.0,0.498888318,True,,5f158dba6daab4067326b511,,2012580,176,,evan-feature22,full_rf_b,,0
145,21683,177,,,,2,2,0.0,1.0,0.0,1.0,,0.0-174.0,,1.0,1640.2,1.0,0.708569387,1.0,0.717682277,0.0,0.294421699,1.0,0.493838163,True,,5f158dba6daab4067326b511,,2023993,177,,evan-feature22,full_rf_b,,0
146,21684,178,,,,2,2,1.0,0.0,-1.0,0.0,,0.0-175.0,,-1.0,1794.69,1.0,0.75,1.0,0.7383382159999999,1.0,0.356098707,0.0,0.442533405,True,,5f158dba6daab4067326b511,,2035564,178,,evan-feature22,full_rf_b,,0
147,21685,179,,,,2,2,1.0,0.0,-1.0,0.0,,0.0-176.0,,-1.0,792.6,1.0,0.744527075,0.0,0.75,1.0,0.334127506,0.0,0.393165805,True,,5f158dba6daab4067326b511,,2046129,179,,evan-feature22,full_rf_b,,0
148,21686,180,,,,2,2,0.0,0.0,-1.0,0.0,,0.0-177.0,,0.0,2026.81,0.0,0.75,1.0,0.75,0.0,0.33571021799999995,0.0,0.350393962,True,,5f158dba6daab4067326b511,,2057923,180,,evan-feature22,full_rf_b,,0
149,21687,181,,,,2,2,1.0,0.0,0.0,1.0,,0.0-178.0,,0.0,1640.025,1.0,0.75,1.0,0.75,1.0,0.313628297,0.0,0.36349657399999996,True,,5f158dba6daab4067326b511,,2069325,181,,evan-feature22,full_rf_b,,0
150,21688,182,,,,2,2,0.0,1.0,-1.0,0.0,,0.0-179.0,,0.0,2245.24,1.0,0.75,0.0,0.734284182,0.0,0.262667667,1.0,0.380199119,True,,5f158dba6daab4067326b511,,2081345,182,,evan-feature22,full_rf_b,,0
151,21689,183,,,,2,2,1.0,0.0,-1.0,0.0,,0.0-180.0,,-1.0,1627.335,0.0,0.75,1.0,0.75,1.0,0.25,0.0,0.394494013,True,,5f158dba6daab4067326b511,,2092751,183,,evan-feature22,full_rf_b,,0
152,21690,184,,,,2,2,0.0,1.0,-1.0,0.0,,0.0-181.0,,0.0,1883.61,1.0,0.722298145,1.0,0.7357822340000001,0.0,0.25,1.0,0.319142121,True,,5f158dba6daab4067326b511,,2104408,184,,evan-feature22,full_rf_b,,0
153,21691,185,,,,2,2,0.0,0.0,-1.0,0.0,,0.0-182.0,,0.0,1808.235,0.0,0.73149275,1.0,0.724276446,0.0,0.305856907,0.0,0.281315057,True,,5f158dba6daab4067326b511,,2115981,185,,evan-feature22,full_rf_b,,0
154,21692,186,,,,2,2,1.0,0.0,-1.0,0.0,,0.0-183.0,,-1.0,1384.2,1.0,0.7458732690000001,1.0,0.7336382459999999,1.0,0.272571964,0.0,0.266021999,True,,5f158dba6daab4067326b511,,2127138,186,,evan-feature22,full_rf_b,,0
155,21693,187,,,,2,2,0.0,0.0,0.0,1.0,,0.0-184.0,,0.0,525.13,1.0,0.705579037,1.0,0.720778292,0.0,0.320238144,0.0,0.30971744,True,,5f158dba6daab4067326b511,,2137430,187,,evan-feature22,full_rf_b,,0
156,21694,188,,,,1,1,1.0,1.0,0.0,1.0,,0.0-185.0,,1.0,3225.385,1.0,0.700425648,1.0,0.7198784009999999,0.0,0.272590393,0.0,0.304182931,True,,5f158dba6daab4067326b511,,2150433,188,,evan-feature22,full_rf_b,,1
157,21695,189,,,,1,1,0.0,1.0,0.0,1.0,,0.0-186.0,,1.0,1388.23,0.0,0.735590785,1.0,0.722714973,1.0,0.25,0.0,0.323421091,True,,5f158dba6daab4067326b511,,2161590,189,,evan-feature22,full_rf_b,,0
158,21696,190,,,,1,1,1.0,1.0,0.0,1.0,,0.0-187.0,,1.0,369.45,1.0,0.724807662,1.0,0.63146213,1.0,0.36836492600000004,1.0,0.34592153299999995,True,,5f158dba6daab4067326b511,,2171739,190,,evan-feature22,full_rf_b,,0
159,21697,191,,,,1,1,1.0,1.0,-1.0,0.0,,0.0-188.0,,-1.0,1659.715,1.0,0.7352796909999999,1.0,0.555111392,0.0,0.36003922,0.0,0.31433779999999995,True,,5f158dba6daab4067326b511,,2183166,191,,evan-feature22,full_rf_b,,0
160,21698,192,notice,,,,,,,,,,0.0-189.0,"{""Q0"":""Not sure""}",,7870.0,,,,,,,,,True,,5f158dba6daab4067326b511,,2191038,192,Q,survey-text,full_rf_b,,1
161,21699,193,track1,,[1],,,,,,,,0.0-190.0,"{""Q0"":""no""}",,4390.0,,,,,,,,,True,,5f158dba6daab4067326b511,,2195431,193,Q,evan-quiz,full_rf_b,,1
162,21700,194,track2,,[0],,,,,,,,0.0-191.0,"{""Q0"":""yes""}",,5508.0,,,,,,,,,True,,5f158dba6daab4067326b511,,2200941,194,Q,evan-quiz,full_rf_b,,1
163,21701,195,strat,,,,,,,,,,0.0-192.0,"{""Q0"":""I tried to focus on one of the aliens, but kept getting it wrong for some reason""}",,18879.0,,,,,,,,,True,,5f158dba6daab4067326b511,,2219822,195,Q,survey-text,full_rf_b,,1
