,index,Unnamed: 0,Q_name,button_pressed,choice_idxs,chosen_pos,chosen_state,chosen_state_f_1_outcome,chosen_state_f_2_outcome,f_1_reward,f_2_reward,incor_questions,internal_node_id,responses,reward_received,rt,s_1_f_1_outcome,s_1_f_1_prob,s_1_f_2_outcome,s_1_f_2_prob,s_2_f_1_outcome,s_2_f_1_prob,s_2_f_2_outcome,s_2_f_2_prob,safe_first,stimulus,subjectID,success,time_elapsed,trial_index,trial_num,trial_type,version,view_history,switching
0,19798,30,,,,2,2,0.0,1.0,1.0,0.0,,0.0-27.0,,0.0,1334.0,1.0,0.6,0.0,0.6,0.0,0.4,1.0,0.4,True,,5ea34772360fe42be0e09295,,564583,30,,evan-feature22,full_rf_a,,0
1,19799,31,,,,1,1,1.0,1.0,1.0,0.0,,0.0-28.0,,1.0,571.0,1.0,0.608053294,1.0,0.63424552,0.0,0.397152172,1.0,0.347069101,True,,5ea34772360fe42be0e09295,,575030,31,,evan-feature22,full_rf_a,,1
2,19800,32,,,,2,2,1.0,0.0,1.0,0.0,,0.0-29.0,,1.0,321.0,0.0,0.642237155,0.0,0.648566321,1.0,0.389407674,0.0,0.285525717,True,,5ea34772360fe42be0e09295,,585207,32,,evan-feature22,full_rf_a,,1
3,19801,33,,,,2,2,0.0,1.0,1.0,0.0,,0.0-30.0,,0.0,263.0,1.0,0.661086576,0.0,0.630492543,0.0,0.399058924,1.0,0.25,True,,5ea34772360fe42be0e09295,,595349,33,,evan-feature22,full_rf_a,,0
4,19802,34,,,,2,2,0.0,0.0,0.0,-1.0,,0.0-31.0,,0.0,273.0,0.0,0.631324137,0.0,0.6269842929999999,0.0,0.38734784299999997,0.0,0.25,True,,5ea34772360fe42be0e09295,,605457,34,,evan-feature22,full_rf_a,,0
5,19803,35,,,,1,1,0.0,1.0,0.0,-1.0,,0.0-32.0,,-1.0,314.0,0.0,0.6381991370000001,1.0,0.68987999,0.0,0.384107265,0.0,0.271332943,True,,5ea34772360fe42be0e09295,,615615,35,,evan-feature22,full_rf_a,,1
6,19804,36,,,,1,1,0.0,0.0,1.0,0.0,,0.0-33.0,,0.0,334.0,0.0,0.66034901,0.0,0.742641349,1.0,0.360225629,1.0,0.25,True,,5ea34772360fe42be0e09295,,625788,36,,evan-feature22,full_rf_a,,0
7,19805,37,,,,2,2,1.0,0.0,1.0,0.0,,0.0-34.0,,1.0,328.0,1.0,0.638612418,1.0,0.75,1.0,0.367273939,0.0,0.25,True,,5ea34772360fe42be0e09295,,635972,37,,evan-feature22,full_rf_a,,1
8,19806,38,,,,1,1,0.0,1.0,0.0,-1.0,,0.0-35.0,,-1.0,365.0,0.0,0.624340629,1.0,0.75,1.0,0.425829545,0.0,0.25,True,,5ea34772360fe42be0e09295,,646209,38,,evan-feature22,full_rf_a,,1
9,19807,39,,,,2,2,0.0,0.0,0.0,-1.0,,0.0-36.0,,0.0,331.0,1.0,0.621999804,1.0,0.75,0.0,0.368609357,0.0,0.25,True,,5ea34772360fe42be0e09295,,656411,39,,evan-feature22,full_rf_a,,1
10,19808,40,,,,1,1,0.0,1.0,1.0,0.0,,0.0-37.0,,0.0,323.0,0.0,0.62666403,1.0,0.75,0.0,0.311151498,0.0,0.25,True,,5ea34772360fe42be0e09295,,666583,40,,evan-feature22,full_rf_a,,1
11,19809,41,,,,1,1,1.0,1.0,0.0,-1.0,,0.0-38.0,,-1.0,273.0,1.0,0.6819650009999999,1.0,0.75,0.0,0.310763048,0.0,0.25,True,,5ea34772360fe42be0e09295,,676740,41,,evan-feature22,full_rf_a,,0
12,19810,42,,,,2,2,0.0,1.0,1.0,0.0,,0.0-39.0,,0.0,308.0,1.0,0.740626951,1.0,0.75,0.0,0.25,1.0,0.25,True,,5ea34772360fe42be0e09295,,686916,42,,evan-feature22,full_rf_a,,1
13,19811,43,,,,1,1,1.0,1.0,1.0,0.0,,0.0-40.0,,1.0,322.0,1.0,0.739599242,1.0,0.742034978,0.0,0.25397114600000004,1.0,0.25,True,,5ea34772360fe42be0e09295,,697102,43,,evan-feature22,full_rf_a,,1
14,19812,44,,,,1,1,1.0,0.0,1.0,0.0,,0.0-41.0,,1.0,781.0,1.0,0.732341315,0.0,0.72735643,0.0,0.25,0.0,0.25,True,,5ea34772360fe42be0e09295,,707741,44,,evan-feature22,full_rf_a,,0
15,19813,45,,,,2,2,1.0,1.0,1.0,0.0,,0.0-42.0,,1.0,891.0,1.0,0.7062287770000001,0.0,0.75,1.0,0.29002151,1.0,0.288256649,True,,5ea34772360fe42be0e09295,,718509,45,,evan-feature22,full_rf_a,,1
16,19814,46,,,,2,2,0.0,1.0,1.0,0.0,,0.0-43.0,,0.0,530.0,1.0,0.7086029209999999,0.0,0.75,0.0,0.274129113,1.0,0.262851608,True,,5ea34772360fe42be0e09295,,728903,46,,evan-feature22,full_rf_a,,0
17,19815,47,,,,1,1,1.0,1.0,1.0,0.0,,0.0-44.0,,1.0,1440.0,1.0,0.669189651,1.0,0.727614338,0.0,0.298444036,0.0,0.296944518,True,,5ea34772360fe42be0e09295,,740182,47,,evan-feature22,full_rf_a,,1
18,19816,48,,,,2,2,1.0,0.0,1.0,0.0,,0.0-45.0,,1.0,785.0,1.0,0.6819912929999999,1.0,0.7179434290000001,1.0,0.265003961,0.0,0.28157921199999997,True,,5ea34772360fe42be0e09295,,750825,48,,evan-feature22,full_rf_a,,1
19,19817,49,,,,1,1,0.0,0.0,0.0,-1.0,,0.0-46.0,,0.0,2280.0,0.0,0.665275002,0.0,0.723065271,0.0,0.260414971,1.0,0.30973870000000003,True,,5ea34772360fe42be0e09295,,762981,49,,evan-feature22,full_rf_a,,1
20,19818,50,,,,1,1,1.0,0.0,1.0,0.0,,0.0-47.0,,1.0,1648.0,1.0,0.6660593260000001,0.0,0.728032907,0.0,0.30922817,0.0,0.338778608,True,,5ea34772360fe42be0e09295,,774478,50,,evan-feature22,full_rf_a,,0
21,19819,51,,,,1,1,1.0,0.0,1.0,0.0,,0.0-48.0,,1.0,1056.0,1.0,0.702068785,0.0,0.6528750879999999,1.0,0.287329608,1.0,0.35789613200000003,True,,5ea34772360fe42be0e09295,,785407,51,,evan-feature22,full_rf_a,,0
22,19820,52,,,,2,2,1.0,1.0,1.0,0.0,,0.0-49.0,,1.0,1319.0,1.0,0.651939787,1.0,0.636725589,1.0,0.284834488,1.0,0.358563756,True,,5ea34772360fe42be0e09295,,796591,52,,evan-feature22,full_rf_a,,1
23,19821,53,,,,1,1,1.0,0.0,0.0,-1.0,,0.0-50.0,,0.0,1413.0,1.0,0.67573929,0.0,0.612550049,0.0,0.37130387600000003,1.0,0.383542402,True,,5ea34772360fe42be0e09295,,807859,53,,evan-feature22,full_rf_a,,1
24,19822,54,,,,1,1,1.0,0.0,0.0,-1.0,,0.0-51.0,,0.0,1563.0,1.0,0.620753801,0.0,0.60513644,0.0,0.385529434,0.0,0.340361743,True,,5ea34772360fe42be0e09295,,819263,54,,evan-feature22,full_rf_a,,0
25,19823,55,,,,1,1,1.0,1.0,0.0,-1.0,,0.0-52.0,,-1.0,1636.0,1.0,0.673564893,1.0,0.672437924,0.0,0.292955382,1.0,0.337633795,True,,5ea34772360fe42be0e09295,,830764,55,,evan-feature22,full_rf_a,,0
26,19824,56,,,,2,2,1.0,0.0,1.0,0.0,,0.0-53.0,,1.0,576.0,1.0,0.6749427,1.0,0.724197502,1.0,0.32391132100000003,0.0,0.350995264,True,,5ea34772360fe42be0e09295,,841201,56,,evan-feature22,full_rf_a,,1
27,19825,57,,,,1,1,0.0,1.0,1.0,0.0,,0.0-54.0,,0.0,694.0,0.0,0.6940159379999999,1.0,0.75,0.0,0.31710554399999996,0.0,0.413450341,True,,5ea34772360fe42be0e09295,,851750,57,,evan-feature22,full_rf_a,,1
28,19826,58,,,,1,1,1.0,1.0,1.0,0.0,,0.0-55.0,,1.0,1463.0,1.0,0.6916018270000001,1.0,0.69001187,0.0,0.261817804,1.0,0.40038635,True,,5ea34772360fe42be0e09295,,863063,58,,evan-feature22,full_rf_a,,0
29,19827,59,,,,1,1,1.0,0.0,1.0,0.0,,0.0-56.0,,1.0,1058.0,1.0,0.641061544,0.0,0.71337992,0.0,0.277296461,0.0,0.47372791700000005,True,,5ea34772360fe42be0e09295,,873969,59,,evan-feature22,full_rf_a,,0
30,19828,60,,,,1,1,0.0,1.0,1.0,0.0,,0.0-57.0,,0.0,2217.0,0.0,0.6082438520000001,1.0,0.708471106,1.0,0.28745137,1.0,0.564174476,True,,5ea34772360fe42be0e09295,,886049,60,,evan-feature22,full_rf_a,,0
31,19829,61,,,,2,2,0.0,1.0,1.0,0.0,,0.0-58.0,,0.0,1037.0,1.0,0.6051112120000001,1.0,0.7118147229999999,0.0,0.272390611,1.0,0.5595149939999999,True,,5ea34772360fe42be0e09295,,896954,61,,evan-feature22,full_rf_a,,1
32,19830,62,,,,1,1,1.0,0.0,1.0,0.0,,0.0-59.0,,1.0,302.0,1.0,0.582420852,0.0,0.635867583,1.0,0.31089574,1.0,0.5227206520000001,True,,5ea34772360fe42be0e09295,,907111,62,,evan-feature22,full_rf_a,,1
33,19831,63,,,,1,1,1.0,1.0,0.0,-1.0,,0.0-60.0,,-1.0,544.0,1.0,0.623195575,1.0,0.655026044,0.0,0.25,0.0,0.560387538,True,,5ea34772360fe42be0e09295,,917503,63,,evan-feature22,full_rf_a,,0
34,19832,64,,,,2,2,1.0,0.0,1.0,0.0,,0.0-61.0,,1.0,570.0,0.0,0.601889598,1.0,0.678198724,1.0,0.25,0.0,0.559922936,True,,5ea34772360fe42be0e09295,,927939,64,,evan-feature22,full_rf_a,,1
35,19833,65,,,,1,1,0.0,1.0,1.0,0.0,,0.0-62.0,,0.0,1311.0,0.0,0.601259914,1.0,0.704681482,0.0,0.33908969299999997,0.0,0.505003715,True,,5ea34772360fe42be0e09295,,939114,65,,evan-feature22,full_rf_a,,1
36,19834,66,,,,1,1,0.0,1.0,1.0,0.0,,0.0-63.0,,0.0,999.0,0.0,0.59645454,1.0,0.710437172,0.0,0.327441879,1.0,0.391749613,True,,5ea34772360fe42be0e09295,,949973,66,,evan-feature22,full_rf_a,,0
37,19835,67,,,,2,2,1.0,0.0,1.0,0.0,,0.0-64.0,,1.0,279.0,0.0,0.529473,1.0,0.636758527,1.0,0.301338063,0.0,0.365661481,True,,5ea34772360fe42be0e09295,,960117,67,,evan-feature22,full_rf_a,,1
38,19836,68,,,,2,2,1.0,0.0,0.0,-1.0,,0.0-65.0,,0.0,478.0,1.0,0.541657162,1.0,0.634541962,1.0,0.343535366,0.0,0.371763742,True,,5ea34772360fe42be0e09295,,970457,68,,evan-feature22,full_rf_a,,0
39,19837,69,,,,1,1,0.0,1.0,1.0,0.0,,0.0-66.0,,0.0,1230.0,0.0,0.5707533260000001,1.0,0.589121171,0.0,0.326428396,1.0,0.43961622899999997,True,,5ea34772360fe42be0e09295,,981530,69,,evan-feature22,full_rf_a,,1
40,19838,70,,,,2,2,0.0,0.0,1.0,0.0,,0.0-67.0,,0.0,293.0,1.0,0.5707533260000001,1.0,0.589121171,0.0,0.326428396,0.0,0.43961622899999997,True,,5ea34772360fe42be0e09295,,991676,70,,evan-feature22,full_rf_a,,1
41,19839,71,,,,1,1,1.0,0.0,1.0,0.0,,0.0-68.0,,1.0,710.0,1.0,0.506271295,0.0,0.641775594,0.0,0.37149690700000004,1.0,0.404330166,True,,5ea34772360fe42be0e09295,,1002260,71,,evan-feature22,full_rf_a,,1
42,19840,72,,,,1,1,1.0,1.0,0.0,-1.0,,0.0-69.0,,-1.0,384.0,1.0,0.455642565,1.0,0.623605825,0.0,0.358753011,0.0,0.346174041,True,,5ea34772360fe42be0e09295,,1012490,72,,evan-feature22,full_rf_a,,0
43,19841,73,,,,2,2,1.0,0.0,0.0,-1.0,,0.0-70.0,,0.0,317.0,0.0,0.483677308,1.0,0.5904681070000001,1.0,0.402218411,0.0,0.35344697,True,,5ea34772360fe42be0e09295,,1022667,73,,evan-feature22,full_rf_a,,1
44,19842,74,,,,2,2,0.0,1.0,0.0,-1.0,,0.0-71.0,,-1.0,515.0,0.0,0.394210977,1.0,0.558925494,0.0,0.540052017,1.0,0.35182128700000004,True,,5ea34772360fe42be0e09295,,1033041,74,,evan-feature22,full_rf_a,,0
45,19843,75,,,,1,1,1.0,0.0,1.0,0.0,,0.0-72.0,,1.0,282.0,1.0,0.382300414,0.0,0.577670603,1.0,0.607608448,0.0,0.378261578,True,,5ea34772360fe42be0e09295,,1043199,75,,evan-feature22,full_rf_a,,1
46,19844,76,,,,1,1,0.0,0.0,1.0,0.0,,0.0-73.0,,0.0,352.0,0.0,0.357596762,0.0,0.5929076529999999,1.0,0.6579790010000001,0.0,0.401326777,True,,5ea34772360fe42be0e09295,,1053418,76,,evan-feature22,full_rf_a,,0
47,19845,77,,,,2,2,1.0,0.0,1.0,0.0,,0.0-74.0,,1.0,419.0,0.0,0.362033495,1.0,0.582308608,1.0,0.649195052,0.0,0.355158505,True,,5ea34772360fe42be0e09295,,1063700,77,,evan-feature22,full_rf_a,,1
48,19846,78,,,,2,2,1.0,0.0,1.0,0.0,,0.0-75.0,,1.0,479.0,1.0,0.369620635,1.0,0.669100864,1.0,0.706059111,0.0,0.362516241,True,,5ea34772360fe42be0e09295,,1074042,78,,evan-feature22,full_rf_a,,0
49,19847,79,,,,1,1,0.0,1.0,1.0,0.0,,0.0-76.0,,0.0,455.0,0.0,0.41477751399999996,1.0,0.7284416779999999,1.0,0.7182656940000001,0.0,0.36228040899999997,True,,5ea34772360fe42be0e09295,,1084356,79,,evan-feature22,full_rf_a,,1
50,19848,80,,,,2,2,1.0,1.0,0.0,-1.0,,0.0-77.0,,-1.0,273.0,1.0,0.37675460299999997,1.0,0.703250285,1.0,0.75,1.0,0.461979164,True,,5ea34772360fe42be0e09295,,1094494,80,,evan-feature22,full_rf_a,,1
51,19849,81,,,,1,1,0.0,1.0,0.0,-1.0,,0.0-78.0,,-1.0,268.0,0.0,0.398716075,1.0,0.6723864890000001,0.0,0.674153818,1.0,0.519029516,True,,5ea34772360fe42be0e09295,,1104641,81,,evan-feature22,full_rf_a,,1
52,19850,82,,,,1,1,1.0,1.0,1.0,0.0,,0.0-79.0,,1.0,339.0,1.0,0.34677856700000004,1.0,0.69057175,1.0,0.6822438540000001,0.0,0.477292237,True,,5ea34772360fe42be0e09295,,1114841,82,,evan-feature22,full_rf_a,,0
53,19851,83,,,,1,1,0.0,0.0,0.0,-1.0,,0.0-80.0,,0.0,1417.0,0.0,0.28580469199999997,0.0,0.68408818,1.0,0.684207565,0.0,0.49780448299999996,True,,5ea34772360fe42be0e09295,,1126110,83,,evan-feature22,full_rf_a,,0
54,19853,85,,,,2,2,0.0,0.0,1.0,0.0,,0.0-82.0,,0.0,776.0,1.0,0.25,1.0,0.7405808970000001,0.0,0.679614108,0.0,0.436436964,True,,5ea34772360fe42be0e09295,,1141511,85,,evan-feature22,full_rf_a,,1
55,19854,86,,,,1,1,0.0,1.0,0.0,-1.0,,0.0-83.0,,-1.0,265.0,0.0,0.29890393,1.0,0.730505706,1.0,0.7328203320000001,1.0,0.439256938,True,,5ea34772360fe42be0e09295,,1151637,86,,evan-feature22,full_rf_a,,1
56,19855,87,,,,1,1,0.0,1.0,1.0,0.0,,0.0-84.0,,0.0,310.0,0.0,0.326762398,1.0,0.7148059609999999,1.0,0.75,1.0,0.44389608799999997,True,,5ea34772360fe42be0e09295,,1161783,87,,evan-feature22,full_rf_a,,0
57,19856,88,,,,1,1,1.0,0.0,1.0,0.0,,0.0-85.0,,1.0,353.0,1.0,0.295168515,0.0,0.739760854,1.0,0.719947008,1.0,0.35277284600000003,True,,5ea34772360fe42be0e09295,,1171999,88,,evan-feature22,full_rf_a,,0
58,19857,89,,,,1,1,0.0,1.0,1.0,0.0,,0.0-86.0,,0.0,300.0,0.0,0.25,1.0,0.70781482,0.0,0.75,1.0,0.286095925,True,,5ea34772360fe42be0e09295,,1182173,89,,evan-feature22,full_rf_a,,0
59,19858,90,,,,2,2,1.0,1.0,0.0,-1.0,,0.0-87.0,,-1.0,237.0,0.0,0.25638190899999996,1.0,0.704088163,1.0,0.75,1.0,0.26872601399999996,True,,5ea34772360fe42be0e09295,,1192268,90,,evan-feature22,full_rf_a,,1
60,19859,91,,,,2,2,1.0,0.0,0.0,-1.0,,0.0-88.0,,0.0,285.0,0.0,0.271581126,0.0,0.669760107,1.0,0.733896663,0.0,0.273244572,True,,5ea34772360fe42be0e09295,,1202392,91,,evan-feature22,full_rf_a,,0
61,19860,92,,,,1,1,0.0,0.0,0.0,-1.0,,0.0-89.0,,0.0,291.0,0.0,0.257144401,0.0,0.600575706,1.0,0.74488122,1.0,0.25,True,,5ea34772360fe42be0e09295,,1212550,92,,evan-feature22,full_rf_a,,1
62,19861,93,,,,2,2,1.0,0.0,1.0,0.0,,0.0-90.0,,1.0,735.0,0.0,0.25,1.0,0.616870026,1.0,0.723610234,0.0,0.25,True,,5ea34772360fe42be0e09295,,1223143,93,,evan-feature22,full_rf_a,,1
63,19862,94,,,,1,1,0.0,1.0,0.0,-1.0,,0.0-91.0,,-1.0,1253.0,0.0,0.25,1.0,0.583540187,1.0,0.7041042559999999,0.0,0.285961995,True,,5ea34772360fe42be0e09295,,1234240,94,,evan-feature22,full_rf_a,,1
64,19863,95,,,,2,2,1.0,0.0,1.0,0.0,,0.0-92.0,,1.0,635.0,0.0,0.27254536,1.0,0.53875765,1.0,0.693783448,0.0,0.284961652,True,,5ea34772360fe42be0e09295,,1244740,95,,evan-feature22,full_rf_a,,1
65,19864,96,,,,1,1,0.0,0.0,0.0,-1.0,,0.0-93.0,,0.0,1759.0,0.0,0.25,0.0,0.548431252,0.0,0.734221895,1.0,0.279445214,True,,5ea34772360fe42be0e09295,,1256350,96,,evan-feature22,full_rf_a,,1
66,19865,97,,,,1,1,0.0,1.0,1.0,0.0,,0.0-94.0,,0.0,1181.0,0.0,0.258640684,1.0,0.545878066,1.0,0.725245965,0.0,0.31487537,True,,5ea34772360fe42be0e09295,,1267397,97,,evan-feature22,full_rf_a,,0
67,19866,98,,,,2,2,0.0,1.0,1.0,0.0,,0.0-95.0,,0.0,517.0,0.0,0.251103711,0.0,0.5776290629999999,0.0,0.696320133,1.0,0.317831047,True,,5ea34772360fe42be0e09295,,1277786,98,,evan-feature22,full_rf_a,,1
68,19867,99,,,,1,1,0.0,1.0,1.0,0.0,,0.0-96.0,,0.0,458.0,0.0,0.276630292,1.0,0.617329858,1.0,0.73838088,0.0,0.261471582,True,,5ea34772360fe42be0e09295,,1288102,99,,evan-feature22,full_rf_a,,1
69,19868,100,,,,1,1,1.0,0.0,0.0,-1.0,,0.0-97.0,,0.0,389.0,1.0,0.297716424,0.0,0.618863717,1.0,0.7402358259999999,0.0,0.262600834,True,,5ea34772360fe42be0e09295,,1298347,100,,evan-feature22,full_rf_a,,0
70,19869,101,,,,1,1,1.0,0.0,1.0,0.0,,0.0-98.0,,1.0,374.0,1.0,0.290935512,0.0,0.695370945,1.0,0.706570507,0.0,0.280030553,True,,5ea34772360fe42be0e09295,,1308582,101,,evan-feature22,full_rf_a,,0
71,19870,102,,,,2,2,1.0,1.0,1.0,0.0,,0.0-99.0,,1.0,340.0,0.0,0.25,1.0,0.6465277079999999,1.0,0.67766682,1.0,0.25,True,,5ea34772360fe42be0e09295,,1318790,102,,evan-feature22,full_rf_a,,1
72,19871,103,,,,2,2,1.0,0.0,1.0,0.0,,0.0-100.0,,1.0,378.0,1.0,0.26463816,1.0,0.636100213,1.0,0.646048507,0.0,0.265607101,True,,5ea34772360fe42be0e09295,,1329010,103,,evan-feature22,full_rf_a,,0
73,19872,104,,,,1,1,1.0,0.0,1.0,0.0,,0.0-101.0,,1.0,502.0,1.0,0.314340707,0.0,0.667795927,0.0,0.613630805,0.0,0.25,True,,5ea34772360fe42be0e09295,,1339371,104,,evan-feature22,full_rf_a,,1
74,19873,105,,,,1,1,1.0,1.0,1.0,0.0,,0.0-102.0,,1.0,606.0,1.0,0.28685784,1.0,0.6622549529999999,0.0,0.652154117,0.0,0.25,True,,5ea34772360fe42be0e09295,,1349853,105,,evan-feature22,full_rf_a,,0
75,19874,106,,,,1,1,0.0,1.0,0.0,-1.0,,0.0-103.0,,-1.0,1363.0,0.0,0.304106554,1.0,0.631289538,1.0,0.707041942,0.0,0.29314237,True,,5ea34772360fe42be0e09295,,1361069,106,,evan-feature22,full_rf_a,,0
76,19875,107,,,,2,2,0.0,0.0,0.0,-1.0,,0.0-104.0,,0.0,446.0,1.0,0.304806932,1.0,0.571167718,0.0,0.680472346,0.0,0.25,True,,5ea34772360fe42be0e09295,,1371385,107,,evan-feature22,full_rf_a,,1
77,19876,108,,,,1,1,0.0,0.0,0.0,-1.0,,0.0-105.0,,0.0,2149.0,0.0,0.37919861,0.0,0.5724849710000001,1.0,0.705638003,0.0,0.30179300600000003,True,,5ea34772360fe42be0e09295,,1383402,108,,evan-feature22,full_rf_a,,1
78,19877,109,,,,1,1,1.0,0.0,0.0,-1.0,,0.0-106.0,,0.0,906.0,1.0,0.464277969,0.0,0.554034373,1.0,0.7372627340000001,0.0,0.264699741,True,,5ea34772360fe42be0e09295,,1394169,109,,evan-feature22,full_rf_a,,0
79,19878,110,,,,2,2,0.0,1.0,1.0,0.0,,0.0-107.0,,0.0,634.0,1.0,0.465104323,1.0,0.530793115,0.0,0.75,1.0,0.31683071,True,,5ea34772360fe42be0e09295,,1404670,110,,evan-feature22,full_rf_a,,1
80,19879,111,,,,2,2,1.0,1.0,0.0,-1.0,,0.0-108.0,,-1.0,304.0,0.0,0.465104323,1.0,0.530793115,1.0,0.75,1.0,0.31683071,True,,5ea34772360fe42be0e09295,,1414840,111,,evan-feature22,full_rf_a,,0
81,19880,112,,,,2,2,1.0,0.0,0.0,-1.0,,0.0-109.0,,0.0,238.0,1.0,0.46833986,1.0,0.570249239,1.0,0.7244472590000001,0.0,0.364114163,True,,5ea34772360fe42be0e09295,,1424969,112,,evan-feature22,full_rf_a,,0
82,19881,113,,,,1,1,0.0,0.0,0.0,-1.0,,0.0-110.0,,0.0,297.0,0.0,0.445444024,0.0,0.649673355,1.0,0.6845441290000001,1.0,0.300660449,True,,5ea34772360fe42be0e09295,,1435121,113,,evan-feature22,full_rf_a,,1
83,19882,114,,,,1,1,0.0,1.0,0.0,-1.0,,0.0-111.0,,-1.0,337.0,0.0,0.39909721299999995,1.0,0.6715179509999999,1.0,0.742310028,1.0,0.35496088299999995,True,,5ea34772360fe42be0e09295,,1445322,114,,evan-feature22,full_rf_a,,0
84,19883,115,,,,2,2,1.0,0.0,0.0,-1.0,,0.0-112.0,,0.0,903.0,1.0,0.37956104799999996,1.0,0.694725302,1.0,0.7181651309999999,0.0,0.38726906299999997,True,,5ea34772360fe42be0e09295,,1456092,115,,evan-feature22,full_rf_a,,1
85,19884,116,,,,2,2,1.0,0.0,0.0,-1.0,,0.0-113.0,,0.0,682.0,0.0,0.404995034,0.0,0.724375412,1.0,0.6910946859999999,0.0,0.387187347,True,,5ea34772360fe42be0e09295,,1466640,116,,evan-feature22,full_rf_a,,0
86,19885,117,,,,1,1,1.0,1.0,0.0,-1.0,,0.0-114.0,,-1.0,395.0,1.0,0.461740803,1.0,0.75,1.0,0.75,0.0,0.34872038200000005,True,,5ea34772360fe42be0e09295,,1476891,117,,evan-feature22,full_rf_a,,1
87,19886,118,,,,1,1,1.0,1.0,1.0,0.0,,0.0-115.0,,1.0,409.0,1.0,0.43821380600000004,1.0,0.738833273,1.0,0.728286963,1.0,0.399538128,True,,5ea34772360fe42be0e09295,,1487157,118,,evan-feature22,full_rf_a,,0
88,19887,119,,,,1,1,0.0,1.0,0.0,-1.0,,0.0-116.0,,-1.0,352.0,0.0,0.41709882,1.0,0.736666736,1.0,0.75,1.0,0.389095584,True,,5ea34772360fe42be0e09295,,1497377,119,,evan-feature22,full_rf_a,,0
89,19888,120,,,,2,2,1.0,1.0,0.0,-1.0,,0.0-117.0,,-1.0,229.0,1.0,0.39749009799999996,1.0,0.744320029,1.0,0.75,1.0,0.363848678,True,,5ea34772360fe42be0e09295,,1507470,120,,evan-feature22,full_rf_a,,1
90,19889,121,,,,2,2,1.0,0.0,1.0,0.0,,0.0-118.0,,1.0,292.0,0.0,0.392653706,0.0,0.75,1.0,0.75,0.0,0.384386976,True,,5ea34772360fe42be0e09295,,1517611,121,,evan-feature22,full_rf_a,,0
91,19890,122,,,,1,1,0.0,1.0,1.0,0.0,,0.0-119.0,,0.0,339.0,0.0,0.31190902600000003,1.0,0.75,1.0,0.732413819,0.0,0.413082932,True,,5ea34772360fe42be0e09295,,1527831,122,,evan-feature22,full_rf_a,,1
92,19891,123,,,,1,1,0.0,0.0,0.0,-1.0,,0.0-120.0,,0.0,994.0,0.0,0.366917648,0.0,0.740073855,1.0,0.75,1.0,0.352861979,True,,5ea34772360fe42be0e09295,,1538691,123,,evan-feature22,full_rf_a,,0
93,19892,124,,,,1,1,0.0,1.0,0.0,-1.0,,0.0-121.0,,-1.0,382.0,0.0,0.3645172,1.0,0.721770713,1.0,0.75,1.0,0.404074511,True,,5ea34772360fe42be0e09295,,1548925,124,,evan-feature22,full_rf_a,,0
94,19893,125,,,,1,1,1.0,1.0,0.0,-1.0,,0.0-122.0,,-1.0,250.0,1.0,0.35205600299999995,1.0,0.68983859,1.0,0.739735447,1.0,0.366895945,True,,5ea34772360fe42be0e09295,,1559031,125,,evan-feature22,full_rf_a,,0
95,19894,126,,,,2,2,1.0,0.0,0.0,-1.0,,0.0-123.0,,0.0,156.0,1.0,0.40998722600000004,1.0,0.720859127,1.0,0.673854955,0.0,0.368528541,True,,5ea34772360fe42be0e09295,,1569050,126,,evan-feature22,full_rf_a,,1
96,19895,127,,,,2,2,1.0,1.0,1.0,0.0,,0.0-124.0,,1.0,240.0,0.0,0.353625316,0.0,0.75,1.0,0.695605473,1.0,0.38303674200000004,True,,5ea34772360fe42be0e09295,,1579141,127,,evan-feature22,full_rf_a,,0
97,19896,128,,,,2,2,1.0,1.0,0.0,-1.0,,0.0-125.0,,-1.0,274.0,1.0,0.359216989,1.0,0.75,1.0,0.6987915090000001,1.0,0.35169046200000004,True,,5ea34772360fe42be0e09295,,1589287,128,,evan-feature22,full_rf_a,,0
98,19897,129,,,,1,1,0.0,1.0,1.0,0.0,,0.0-126.0,,0.0,287.0,0.0,0.35834496899999996,1.0,0.75,1.0,0.707067742,1.0,0.416763636,True,,5ea34772360fe42be0e09295,,1599442,129,,evan-feature22,full_rf_a,,1
99,19898,130,,,,1,1,0.0,1.0,1.0,0.0,,0.0-127.0,,0.0,469.0,0.0,0.38741613799999997,1.0,0.7177369570000001,1.0,0.734902455,1.0,0.49438664299999996,True,,5ea34772360fe42be0e09295,,1609771,130,,evan-feature22,full_rf_a,,0
100,19899,131,,,,2,2,1.0,0.0,0.0,-1.0,,0.0-128.0,,0.0,202.0,0.0,0.405255252,1.0,0.7300466640000001,1.0,0.7027748070000001,0.0,0.504359668,True,,5ea34772360fe42be0e09295,,1619836,131,,evan-feature22,full_rf_a,,1
101,19900,132,,,,2,2,1.0,1.0,0.0,-1.0,,0.0-129.0,,-1.0,1563.0,1.0,0.40697073,1.0,0.7260142190000001,1.0,0.724461982,1.0,0.522779179,True,,5ea34772360fe42be0e09295,,1631270,132,,evan-feature22,full_rf_a,,0
102,19901,133,,,,2,2,1.0,0.0,0.0,-1.0,,0.0-130.0,,0.0,860.0,1.0,0.43906215299999996,1.0,0.7252802340000001,1.0,0.719079934,0.0,0.5712990579999999,True,,5ea34772360fe42be0e09295,,1641991,133,,evan-feature22,full_rf_a,,0
103,19902,134,,,,1,1,1.0,1.0,0.0,-1.0,,0.0-131.0,,-1.0,798.0,1.0,0.4076705,1.0,0.73280499,0.0,0.681313127,0.0,0.523891346,True,,5ea34772360fe42be0e09295,,1652632,134,,evan-feature22,full_rf_a,,1
104,19903,135,,,,2,2,1.0,0.0,0.0,-1.0,,0.0-132.0,,0.0,248.0,0.0,0.399102911,1.0,0.730498344,1.0,0.661080239,0.0,0.46742603,True,,5ea34772360fe42be0e09295,,1662741,135,,evan-feature22,full_rf_a,,1
105,19904,136,,,,1,1,1.0,0.0,1.0,0.0,,0.0-133.0,,1.0,256.0,1.0,0.356477282,0.0,0.712296395,0.0,0.641812684,1.0,0.44868414,True,,5ea34772360fe42be0e09295,,1672871,136,,evan-feature22,full_rf_a,,1
106,19905,137,,,,1,1,1.0,0.0,0.0,-1.0,,0.0-134.0,,0.0,599.0,1.0,0.462760722,0.0,0.692349322,1.0,0.700947931,0.0,0.394680266,True,,5ea34772360fe42be0e09295,,1683337,137,,evan-feature22,full_rf_a,,0
107,19906,138,,,,2,2,1.0,1.0,0.0,-1.0,,0.0-135.0,,-1.0,684.0,0.0,0.422306413,1.0,0.718375916,1.0,0.706340917,1.0,0.367787185,True,,5ea34772360fe42be0e09295,,1693883,138,,evan-feature22,full_rf_a,,1
108,19908,140,,,,2,2,1.0,1.0,0.0,-1.0,,0.0-137.0,,-1.0,471.0,1.0,0.4582233,0.0,0.643834117,1.0,0.75,1.0,0.39615823299999997,True,,5ea34772360fe42be0e09295,,1707323,140,,evan-feature22,full_rf_a,,0
109,19909,141,,,,1,1,0.0,1.0,0.0,-1.0,,0.0-138.0,,-1.0,351.0,0.0,0.43813437899999996,1.0,0.651283804,0.0,0.729674191,0.0,0.37711048,True,,5ea34772360fe42be0e09295,,1717539,141,,evan-feature22,full_rf_a,,1
110,19910,142,,,,2,2,1.0,0.0,0.0,-1.0,,0.0-139.0,,0.0,310.0,1.0,0.471199094,1.0,0.6470010979999999,1.0,0.715008097,0.0,0.410656191,True,,5ea34772360fe42be0e09295,,1727715,142,,evan-feature22,full_rf_a,,1
111,19911,143,,,,2,2,0.0,1.0,1.0,0.0,,0.0-140.0,,0.0,740.0,0.0,0.42486406,1.0,0.629771829,0.0,0.6550939960000001,1.0,0.459093873,True,,5ea34772360fe42be0e09295,,1738326,143,,evan-feature22,full_rf_a,,0
112,19912,144,,,,1,1,0.0,1.0,1.0,0.0,,0.0-141.0,,0.0,293.0,0.0,0.4803197,1.0,0.645842715,1.0,0.6421749920000001,1.0,0.443092151,True,,5ea34772360fe42be0e09295,,1748463,144,,evan-feature22,full_rf_a,,1
113,19913,145,,,,1,1,1.0,0.0,1.0,0.0,,0.0-142.0,,1.0,574.0,1.0,0.521848997,0.0,0.735801074,1.0,0.6691348460000001,1.0,0.45259351600000003,True,,5ea34772360fe42be0e09295,,1758887,145,,evan-feature22,full_rf_a,,0
114,19914,146,,,,2,2,1.0,1.0,0.0,-1.0,,0.0-143.0,,-1.0,486.0,1.0,0.49565621299999996,1.0,0.742400847,1.0,0.661512553,1.0,0.483110831,True,,5ea34772360fe42be0e09295,,1769232,146,,evan-feature22,full_rf_a,,1
115,19915,147,,,,2,2,1.0,0.0,1.0,0.0,,0.0-144.0,,1.0,301.0,1.0,0.521564361,0.0,0.731078632,1.0,0.6774886809999999,0.0,0.483263956,True,,5ea34772360fe42be0e09295,,1779390,147,,evan-feature22,full_rf_a,,0
116,19916,148,,,,2,2,1.0,1.0,1.0,0.0,,0.0-145.0,,1.0,415.0,1.0,0.558893102,1.0,0.719810023,1.0,0.67461031,1.0,0.499349834,True,,5ea34772360fe42be0e09295,,1789656,148,,evan-feature22,full_rf_a,,0
117,19917,149,,,,1,1,0.0,1.0,0.0,-1.0,,0.0-146.0,,-1.0,71.0,0.0,0.611031046,1.0,0.75,1.0,0.688072995,0.0,0.5321422729999999,True,,5ea34772360fe42be0e09295,,1799591,149,,evan-feature22,full_rf_a,,1
118,19918,150,,,,1,1,0.0,1.0,1.0,0.0,,0.0-147.0,,0.0,560.0,0.0,0.633223941,1.0,0.713567728,1.0,0.75,1.0,0.48185314700000004,True,,5ea34772360fe42be0e09295,,1810013,150,,evan-feature22,full_rf_a,,0
119,19919,151,,,,1,1,1.0,1.0,1.0,0.0,,0.0-148.0,,1.0,525.0,1.0,0.664001694,1.0,0.705509768,1.0,0.75,0.0,0.500211065,True,,5ea34772360fe42be0e09295,,1820407,151,,evan-feature22,full_rf_a,,0
120,19920,152,,,,1,1,1.0,1.0,0.0,-1.0,,0.0-149.0,,-1.0,357.0,1.0,0.664001694,1.0,0.705509768,0.0,0.75,0.0,0.500211065,True,,5ea34772360fe42be0e09295,,1830624,152,,evan-feature22,full_rf_a,,0
121,19921,153,,,,2,2,1.0,0.0,0.0,-1.0,,0.0-150.0,,0.0,436.0,1.0,0.696508041,1.0,0.71066027,1.0,0.717028709,0.0,0.49792991,True,,5ea34772360fe42be0e09295,,1840940,153,,evan-feature22,full_rf_a,,1
122,19922,154,,,,2,2,1.0,0.0,1.0,0.0,,0.0-151.0,,1.0,1485.0,1.0,0.699883272,1.0,0.75,1.0,0.713543895,0.0,0.496962643,True,,5ea34772360fe42be0e09295,,1852280,154,,evan-feature22,full_rf_a,,0
123,19923,155,,,,2,2,0.0,0.0,0.0,-1.0,,0.0-152.0,,0.0,383.0,1.0,0.741163419,1.0,0.75,0.0,0.64691024,0.0,0.513858197,True,,5ea34772360fe42be0e09295,,1862517,155,,evan-feature22,full_rf_a,,0
124,19924,156,,,,1,1,1.0,0.0,1.0,0.0,,0.0-153.0,,1.0,506.0,1.0,0.75,0.0,0.70816558,0.0,0.594499079,1.0,0.48502124,True,,5ea34772360fe42be0e09295,,1872891,156,,evan-feature22,full_rf_a,,1
125,19925,157,,,,2,2,1.0,0.0,0.0,-1.0,,0.0-154.0,,0.0,521.0,1.0,0.75,0.0,0.721848901,1.0,0.62197249,0.0,0.48263586399999997,True,,5ea34772360fe42be0e09295,,1883271,157,,evan-feature22,full_rf_a,,1
126,19926,158,,,,2,2,0.0,1.0,1.0,0.0,,0.0-155.0,,0.0,863.0,1.0,0.75,1.0,0.74813071,0.0,0.584357161,1.0,0.411477782,True,,5ea34772360fe42be0e09295,,1894003,158,,evan-feature22,full_rf_a,,0
127,19927,159,,,,1,1,0.0,0.0,0.0,-1.0,,0.0-156.0,,0.0,1547.0,0.0,0.75,0.0,0.75,1.0,0.52287236,0.0,0.488290656,True,,5ea34772360fe42be0e09295,,1905412,159,,evan-feature22,full_rf_a,,1
128,19928,160,,,,1,1,1.0,1.0,0.0,-1.0,,0.0-157.0,,-1.0,459.0,1.0,0.75,1.0,0.75,1.0,0.544321581,1.0,0.53143059,True,,5ea34772360fe42be0e09295,,1915740,160,,evan-feature22,full_rf_a,,0
129,19929,161,,,,2,2,1.0,1.0,0.0,-1.0,,0.0-158.0,,-1.0,289.0,1.0,0.726754564,1.0,0.75,1.0,0.5129306370000001,1.0,0.530592445,True,,5ea34772360fe42be0e09295,,1925897,161,,evan-feature22,full_rf_a,,1
130,19930,162,,,,2,2,0.0,1.0,1.0,0.0,,0.0-159.0,,0.0,300.0,0.0,0.75,1.0,0.7392590729999999,0.0,0.479875835,1.0,0.547007051,True,,5ea34772360fe42be0e09295,,1936039,162,,evan-feature22,full_rf_a,,0
131,19931,163,,,,2,2,0.0,0.0,1.0,0.0,,0.0-160.0,,0.0,300.0,1.0,0.75,0.0,0.7393376979999999,0.0,0.546045419,0.0,0.541267353,True,,5ea34772360fe42be0e09295,,1946225,163,,evan-feature22,full_rf_a,,0
132,19932,164,,,,2,2,0.0,1.0,1.0,0.0,,0.0-161.0,,0.0,510.0,0.0,0.75,1.0,0.75,0.0,0.485725895,1.0,0.527625395,True,,5ea34772360fe42be0e09295,,1956601,164,,evan-feature22,full_rf_a,,0
133,19933,165,,,,2,2,1.0,0.0,0.0,-1.0,,0.0-162.0,,0.0,242.0,1.0,0.75,1.0,0.725087974,1.0,0.488603595,0.0,0.504019206,True,,5ea34772360fe42be0e09295,,1966712,165,,evan-feature22,full_rf_a,,0
134,19934,166,,,,2,2,1.0,1.0,0.0,-1.0,,0.0-163.0,,-1.0,361.0,1.0,0.745504295,1.0,0.75,1.0,0.452379914,1.0,0.50131194,True,,5ea34772360fe42be0e09295,,1976931,166,,evan-feature22,full_rf_a,,0
135,19935,167,,,,1,1,1.0,1.0,0.0,-1.0,,0.0-164.0,,-1.0,326.0,1.0,0.728513874,1.0,0.75,0.0,0.44125567200000004,1.0,0.531454591,True,,5ea34772360fe42be0e09295,,1987107,167,,evan-feature22,full_rf_a,,1
136,19936,168,,,,1,1,1.0,1.0,1.0,0.0,,0.0-165.0,,1.0,231.0,1.0,0.73790804,1.0,0.75,0.0,0.413036656,1.0,0.524619035,True,,5ea34772360fe42be0e09295,,1997193,168,,evan-feature22,full_rf_a,,0
137,19937,169,,,,2,2,1.0,0.0,0.0,-1.0,,0.0-166.0,,0.0,321.0,0.0,0.7080961309999999,1.0,0.708666865,1.0,0.431915581,0.0,0.481819489,True,,5ea34772360fe42be0e09295,,2007370,169,,evan-feature22,full_rf_a,,1
138,19938,170,,,,1,1,1.0,1.0,0.0,-1.0,,0.0-167.0,,-1.0,1407.0,1.0,0.721378003,1.0,0.71605913,0.0,0.36642387,0.0,0.5036739929999999,True,,5ea34772360fe42be0e09295,,2018634,170,,evan-feature22,full_rf_a,,1
139,19939,171,,,,2,2,0.0,1.0,0.0,-1.0,,0.0-168.0,,-1.0,425.0,1.0,0.7340618959999999,1.0,0.699323252,0.0,0.35298046299999997,1.0,0.511241692,True,,5ea34772360fe42be0e09295,,2028916,171,,evan-feature22,full_rf_a,,1
140,19940,172,,,,2,2,0.0,1.0,1.0,0.0,,0.0-169.0,,0.0,286.0,1.0,0.75,1.0,0.70412698,0.0,0.380734814,1.0,0.529580116,True,,5ea34772360fe42be0e09295,,2039059,172,,evan-feature22,full_rf_a,,0
141,19941,173,,,,2,2,0.0,0.0,0.0,-1.0,,0.0-170.0,,0.0,309.0,1.0,0.7436654909999999,0.0,0.711182751,0.0,0.41125331,0.0,0.49554405,True,,5ea34772360fe42be0e09295,,2049247,173,,evan-feature22,full_rf_a,,0
142,19942,174,,,,1,1,1.0,1.0,0.0,-1.0,,0.0-171.0,,-1.0,1466.0,1.0,0.731607915,1.0,0.651774583,0.0,0.35688023,0.0,0.45194491600000003,True,,5ea34772360fe42be0e09295,,2060558,174,,evan-feature22,full_rf_a,,1
143,19943,175,,,,1,1,1.0,1.0,1.0,0.0,,0.0-172.0,,1.0,317.0,1.0,0.75,1.0,0.75,0.0,0.283145374,0.0,0.528608005,True,,5ea34772360fe42be0e09295,,2070714,175,,evan-feature22,full_rf_a,,0
144,19944,176,,,,1,1,1.0,1.0,1.0,0.0,,0.0-173.0,,1.0,331.0,1.0,0.7491416890000001,1.0,0.7423785959999999,0.0,0.29135870399999997,1.0,0.498888318,True,,5ea34772360fe42be0e09295,,2080887,176,,evan-feature22,full_rf_a,,0
145,19945,177,,,,2,2,0.0,1.0,1.0,0.0,,0.0-174.0,,0.0,509.0,1.0,0.708569387,0.0,0.717682277,0.0,0.294421699,1.0,0.493838163,True,,5ea34772360fe42be0e09295,,2091263,177,,evan-feature22,full_rf_a,,1
146,19946,178,,,,2,2,1.0,1.0,0.0,-1.0,,0.0-175.0,,-1.0,299.0,0.0,0.75,0.0,0.7383382159999999,1.0,0.356098707,1.0,0.442533405,True,,5ea34772360fe42be0e09295,,2101420,178,,evan-feature22,full_rf_a,,0
147,19947,179,,,,1,1,0.0,1.0,0.0,-1.0,,0.0-176.0,,-1.0,296.0,0.0,0.744527075,1.0,0.75,0.0,0.334127506,0.0,0.393165805,True,,5ea34772360fe42be0e09295,,2111561,179,,evan-feature22,full_rf_a,,1
148,19948,180,,,,1,1,1.0,1.0,0.0,-1.0,,0.0-177.0,,-1.0,255.0,1.0,0.75,1.0,0.75,1.0,0.33571021799999995,0.0,0.350393962,True,,5ea34772360fe42be0e09295,,2121672,180,,evan-feature22,full_rf_a,,0
149,19949,181,,,,2,2,1.0,1.0,0.0,-1.0,,0.0-178.0,,-1.0,291.0,1.0,0.75,1.0,0.75,1.0,0.313628297,1.0,0.36349657399999996,True,,5ea34772360fe42be0e09295,,2131829,181,,evan-feature22,full_rf_a,,1
150,19950,182,,,,1,1,1.0,1.0,1.0,0.0,,0.0-179.0,,1.0,256.0,1.0,0.75,1.0,0.734284182,0.0,0.262667667,1.0,0.380199119,True,,5ea34772360fe42be0e09295,,2141937,182,,evan-feature22,full_rf_a,,1
151,19951,183,,,,1,1,1.0,1.0,0.0,-1.0,,0.0-180.0,,-1.0,310.0,1.0,0.75,1.0,0.75,1.0,0.25,0.0,0.394494013,True,,5ea34772360fe42be0e09295,,2152127,183,,evan-feature22,full_rf_a,,0
152,19952,184,,,,2,2,0.0,0.0,1.0,0.0,,0.0-181.0,,0.0,437.0,0.0,0.722298145,1.0,0.7357822340000001,0.0,0.25,0.0,0.319142121,True,,5ea34772360fe42be0e09295,,2162410,184,,evan-feature22,full_rf_a,,1
153,19953,185,,,,2,2,0.0,0.0,1.0,0.0,,0.0-182.0,,0.0,738.0,0.0,0.73149275,0.0,0.724276446,0.0,0.305856907,0.0,0.281315057,True,,5ea34772360fe42be0e09295,,2172984,185,,evan-feature22,full_rf_a,,0
154,19954,186,,,,2,2,0.0,0.0,0.0,-1.0,,0.0-183.0,,0.0,547.0,1.0,0.7458732690000001,1.0,0.7336382459999999,0.0,0.272571964,0.0,0.266021999,True,,5ea34772360fe42be0e09295,,2183361,186,,evan-feature22,full_rf_a,,0
155,19955,187,,,,1,1,0.0,0.0,0.0,-1.0,,0.0-184.0,,0.0,535.0,0.0,0.705579037,0.0,0.720778292,0.0,0.320238144,0.0,0.30971744,True,,5ea34772360fe42be0e09295,,2193738,187,,evan-feature22,full_rf_a,,1
156,19956,188,,,,1,1,1.0,0.0,0.0,-1.0,,0.0-185.0,,0.0,384.0,1.0,0.700425648,0.0,0.7198784009999999,1.0,0.272590393,0.0,0.304182931,True,,5ea34772360fe42be0e09295,,2203969,188,,evan-feature22,full_rf_a,,0
157,19957,189,,,,2,2,0.0,0.0,0.0,-1.0,,0.0-186.0,,0.0,592.0,1.0,0.735590785,0.0,0.722714973,0.0,0.25,0.0,0.323421091,True,,5ea34772360fe42be0e09295,,2214411,189,,evan-feature22,full_rf_a,,1
158,19958,190,,,,2,2,0.0,1.0,0.0,-1.0,,0.0-187.0,,-1.0,1206.0,1.0,0.724807662,0.0,0.63146213,0.0,0.36836492600000004,1.0,0.34592153299999995,True,,5ea34772360fe42be0e09295,,2225457,190,,evan-feature22,full_rf_a,,0
159,19959,191,,,,1,1,0.0,1.0,0.0,-1.0,,0.0-188.0,,-1.0,631.0,0.0,0.7352796909999999,1.0,0.555111392,0.0,0.36003922,0.0,0.31433779999999995,True,,5ea34772360fe42be0e09295,,2235924,191,,evan-feature22,full_rf_a,,1
160,19960,192,notice,,,,,,,,,,0.0-189.0,"{""Q0"":""The second seemed harder to gain""}",,22971.0,,,,,,,,,True,,5ea34772360fe42be0e09295,,2258903,192,Q,survey-text,full_rf_a,,1
161,19961,193,track1,,[1],,,,,,,,0.0-190.0,"{""Q0"":""no""}",,3999.0,,,,,,,,,True,,5ea34772360fe42be0e09295,,2262911,193,Q,evan-quiz,full_rf_a,,1
162,19962,194,track2,,[0],,,,,,,,0.0-191.0,"{""Q0"":""yes""}",,11321.0,,,,,,,,,True,,5ea34772360fe42be0e09295,,2274240,194,Q,evan-quiz,full_rf_a,,1
