,index,Unnamed: 0,Q_name,button_pressed,choice_idxs,chosen_pos,chosen_state,chosen_state_f_1_outcome,chosen_state_f_2_outcome,f_1_reward,f_2_reward,incor_questions,internal_node_id,responses,reward_received,rt,s_1_f_1_outcome,s_1_f_1_prob,s_1_f_2_outcome,s_1_f_2_prob,s_2_f_1_outcome,s_2_f_1_prob,s_2_f_2_outcome,s_2_f_2_prob,safe_first,stimulus,subjectID,success,time_elapsed,trial_index,trial_num,trial_type,version,view_history,switching
0,7054,25,,,,2,2,1.0,0.0,0.0,1.0,,0.0-27.0,,0.0,863.07,0.0,0.6,1.0,0.6,1.0,0.4,0.0,0.4,True,,5e152c33814bbab3e0eb7371,,1060786,25,,evan-feature22,full_rf_b,,0
1,7055,26,,,,2,2,1.0,0.0,0.0,1.0,,0.0-28.0,,0.0,729.135,1.0,0.608053294,0.0,0.63424552,1.0,0.397152172,0.0,0.347069101,True,,5e152c33814bbab3e0eb7371,,1071272,26,,evan-feature22,full_rf_b,,0
2,7056,27,,,,1,1,1.0,0.0,0.0,1.0,,0.0-29.0,,0.0,852.61,1.0,0.642237155,0.0,0.648566321,0.0,0.389407674,0.0,0.285525717,True,,5e152c33814bbab3e0eb7371,,1081880,27,,evan-feature22,full_rf_b,,1
3,7057,28,,,,2,2,0.0,0.0,0.0,1.0,,0.0-30.0,,0.0,801.465,1.0,0.661086576,1.0,0.630492543,0.0,0.399058924,0.0,0.25,True,,5e152c33814bbab3e0eb7371,,1092438,28,,evan-feature22,full_rf_b,,1
4,7058,29,,,,2,2,0.0,0.0,0.0,1.0,,0.0-31.0,,0.0,1717.275,1.0,0.631324137,0.0,0.6269842929999999,0.0,0.38734784299999997,0.0,0.25,True,,5e152c33814bbab3e0eb7371,,1103912,29,,evan-feature22,full_rf_b,,0
5,7059,30,,,,1,1,0.0,0.0,0.0,1.0,,0.0-32.0,,0.0,946.43,0.0,0.6381991370000001,0.0,0.68987999,0.0,0.384107265,0.0,0.271332943,True,,5e152c33814bbab3e0eb7371,,1114613,30,,evan-feature22,full_rf_b,,1
6,7060,31,,,,2,2,0.0,0.0,0.0,1.0,,0.0-33.0,,0.0,359.14,1.0,0.66034901,1.0,0.742641349,0.0,0.360225629,0.0,0.25,True,,5e152c33814bbab3e0eb7371,,1124729,31,,evan-feature22,full_rf_b,,1
7,7061,32,,,,1,1,0.0,1.0,-1.0,0.0,,0.0-34.0,,0.0,319.54,0.0,0.638612418,1.0,0.75,0.0,0.367273939,0.0,0.25,True,,5e152c33814bbab3e0eb7371,,1134804,32,,evan-feature22,full_rf_b,,1
8,7062,33,,,,1,1,1.0,1.0,0.0,1.0,,0.0-35.0,,1.0,295.765,1.0,0.624340629,1.0,0.75,0.0,0.425829545,1.0,0.25,True,,5e152c33814bbab3e0eb7371,,1144858,33,,evan-feature22,full_rf_b,,0
9,7063,34,,,,2,2,0.0,0.0,0.0,1.0,,0.0-36.0,,0.0,784.21,1.0,0.621999804,1.0,0.75,0.0,0.368609357,0.0,0.25,True,,5e152c33814bbab3e0eb7371,,1155398,34,,evan-feature22,full_rf_b,,1
10,7064,35,,,,2,2,0.0,0.0,-1.0,0.0,,0.0-37.0,,0.0,1076.75,0.0,0.62666403,1.0,0.75,0.0,0.311151498,0.0,0.25,True,,5e152c33814bbab3e0eb7371,,1166233,35,,evan-feature22,full_rf_b,,0
11,7065,36,,,,1,1,1.0,1.0,-1.0,0.0,,0.0-38.0,,-1.0,583.195,1.0,0.6819650009999999,1.0,0.75,0.0,0.310763048,0.0,0.25,True,,5e152c33814bbab3e0eb7371,,1176575,36,,evan-feature22,full_rf_b,,1
12,7066,37,,,,1,1,0.0,0.0,0.0,1.0,,0.0-39.0,,0.0,918.275,0.0,0.740626951,0.0,0.75,0.0,0.25,0.0,0.25,True,,5e152c33814bbab3e0eb7371,,1187250,37,,evan-feature22,full_rf_b,,0
13,7067,38,,,,2,2,1.0,0.0,0.0,1.0,,0.0-40.0,,0.0,474.145,1.0,0.739599242,1.0,0.742034978,1.0,0.25397114600000004,0.0,0.25,True,,5e152c33814bbab3e0eb7371,,1197479,38,,evan-feature22,full_rf_b,,1
14,7068,39,,,,2,2,0.0,0.0,0.0,1.0,,0.0-41.0,,0.0,369.29,0.0,0.732341315,1.0,0.72735643,0.0,0.25,0.0,0.25,True,,5e152c33814bbab3e0eb7371,,1207606,39,,evan-feature22,full_rf_b,,0
15,7069,40,,,,1,1,1.0,0.0,0.0,1.0,,0.0-42.0,,0.0,466.635,1.0,0.7062287770000001,0.0,0.75,1.0,0.29002151,0.0,0.288256649,True,,5e152c33814bbab3e0eb7371,,1217829,40,,evan-feature22,full_rf_b,,1
16,7070,41,,,,1,1,0.0,1.0,-1.0,0.0,,0.0-43.0,,0.0,595.885,0.0,0.7086029209999999,1.0,0.75,0.0,0.274129113,0.0,0.262851608,True,,5e152c33814bbab3e0eb7371,,1228182,41,,evan-feature22,full_rf_b,,0
17,7071,42,,,,2,2,0.0,0.0,0.0,1.0,,0.0-44.0,,0.0,462.27,1.0,0.669189651,0.0,0.727614338,0.0,0.298444036,0.0,0.296944518,True,,5e152c33814bbab3e0eb7371,,1238401,42,,evan-feature22,full_rf_b,,1
18,7072,43,,,,2,2,0.0,0.0,-1.0,0.0,,0.0-45.0,,0.0,731.545,0.0,0.6819912929999999,1.0,0.7179434290000001,0.0,0.265003961,0.0,0.28157921199999997,True,,5e152c33814bbab3e0eb7371,,1248890,43,,evan-feature22,full_rf_b,,0
19,7073,44,,,,2,2,0.0,0.0,-1.0,0.0,,0.0-46.0,,0.0,762.59,0.0,0.665275002,1.0,0.723065271,0.0,0.260414971,0.0,0.30973870000000003,True,,5e152c33814bbab3e0eb7371,,1259407,44,,evan-feature22,full_rf_b,,0
20,7074,45,,,,1,1,1.0,1.0,0.0,1.0,,0.0-47.0,,1.0,356.455,1.0,0.6660593260000001,1.0,0.728032907,0.0,0.30922817,0.0,0.338778608,True,,5e152c33814bbab3e0eb7371,,1269521,45,,evan-feature22,full_rf_b,,1
21,7075,46,,,,1,1,1.0,1.0,0.0,1.0,,0.0-48.0,,1.0,1021.75,1.0,0.702068785,1.0,0.6528750879999999,0.0,0.287329608,0.0,0.35789613200000003,True,,5e152c33814bbab3e0eb7371,,1280299,46,,evan-feature22,full_rf_b,,0
22,7076,47,,,,SLOW,SLOW,,,0.0,1.0,,0.0-49.0,,-3.0,,0.0,0.651939787,0.0,0.636725589,0.0,0.284834488,0.0,0.358563756,True,,5e152c33814bbab3e0eb7371,,1286102,47,,evan-feature22,full_rf_b,,1
23,7077,48,,,,2,2,1.0,0.0,0.0,1.0,,0.0-50.0,,0.0,1922.23,1.0,0.67573929,0.0,0.612550049,1.0,0.37130387600000003,0.0,0.383542402,True,,5e152c33814bbab3e0eb7371,,1297782,48,,evan-feature22,full_rf_b,,1
24,7078,49,,,,SLOW,SLOW,,,0.0,1.0,,0.0-51.0,,-3.0,,1.0,0.620753801,1.0,0.60513644,0.0,0.385529434,0.0,0.340361743,True,,5e152c33814bbab3e0eb7371,,1303585,49,,evan-feature22,full_rf_b,,1
25,7079,50,,,,1,1,1.0,0.0,-1.0,0.0,,0.0-52.0,,-1.0,792.165,1.0,0.673564893,0.0,0.672437924,0.0,0.292955382,0.0,0.337633795,True,,5e152c33814bbab3e0eb7371,,1314133,50,,evan-feature22,full_rf_b,,1
26,7080,51,,,,2,2,0.0,0.0,0.0,1.0,,0.0-53.0,,0.0,237.36,0.0,0.6749427,1.0,0.724197502,0.0,0.32391132100000003,0.0,0.350995264,True,,5e152c33814bbab3e0eb7371,,1324128,51,,evan-feature22,full_rf_b,,1
27,7081,52,,,,1,1,1.0,1.0,0.0,1.0,,0.0-54.0,,1.0,509.015,1.0,0.6940159379999999,1.0,0.75,0.0,0.31710554399999996,1.0,0.413450341,True,,5e152c33814bbab3e0eb7371,,1334396,52,,evan-feature22,full_rf_b,,1
28,7082,53,,,,2,2,1.0,0.0,0.0,1.0,,0.0-55.0,,0.0,572.16,0.0,0.6916018270000001,1.0,0.69001187,1.0,0.261817804,0.0,0.40038635,True,,5e152c33814bbab3e0eb7371,,1344724,53,,evan-feature22,full_rf_b,,1
29,7083,54,,,,1,1,0.0,0.0,0.0,1.0,,0.0-56.0,,0.0,639.435,0.0,0.641061544,0.0,0.71337992,0.0,0.277296461,1.0,0.47372791700000005,True,,5e152c33814bbab3e0eb7371,,1355119,54,,evan-feature22,full_rf_b,,1
30,7084,55,,,,1,1,0.0,1.0,0.0,1.0,,0.0-57.0,,1.0,400.52,0.0,0.6082438520000001,1.0,0.708471106,0.0,0.28745137,0.0,0.564174476,True,,5e152c33814bbab3e0eb7371,,1365275,55,,evan-feature22,full_rf_b,,0
31,7085,56,,,,2,2,1.0,1.0,-1.0,0.0,,0.0-58.0,,-1.0,295.78,1.0,0.6051112120000001,0.0,0.7118147229999999,1.0,0.272390611,1.0,0.5595149939999999,True,,5e152c33814bbab3e0eb7371,,1375328,56,,evan-feature22,full_rf_b,,1
32,7086,57,,,,1,1,0.0,1.0,-1.0,0.0,,0.0-59.0,,0.0,1950.04,0.0,0.582420852,1.0,0.635867583,1.0,0.31089574,0.0,0.5227206520000001,True,,5e152c33814bbab3e0eb7371,,1387035,57,,evan-feature22,full_rf_b,,1
33,7087,58,,,,1,1,0.0,1.0,-1.0,0.0,,0.0-60.0,,0.0,891.81,0.0,0.623195575,1.0,0.655026044,1.0,0.25,1.0,0.560387538,True,,5e152c33814bbab3e0eb7371,,1397682,58,,evan-feature22,full_rf_b,,0
34,7088,59,,,,2,2,1.0,1.0,0.0,1.0,,0.0-61.0,,1.0,1879.315,1.0,0.601889598,0.0,0.678198724,1.0,0.25,1.0,0.559922936,True,,5e152c33814bbab3e0eb7371,,1409317,59,,evan-feature22,full_rf_b,,1
35,7089,60,,,,2,2,0.0,1.0,-1.0,0.0,,0.0-62.0,,0.0,2388.16,0.0,0.601259914,1.0,0.704681482,0.0,0.33908969299999997,1.0,0.505003715,True,,5e152c33814bbab3e0eb7371,,1421461,60,,evan-feature22,full_rf_b,,0
36,7090,61,,,,2,2,1.0,1.0,-1.0,0.0,,0.0-63.0,,-1.0,809.555,1.0,0.59645454,1.0,0.710437172,1.0,0.327441879,1.0,0.391749613,True,,5e152c33814bbab3e0eb7371,,1432027,61,,evan-feature22,full_rf_b,,0
37,7091,62,,,,1,1,1.0,1.0,0.0,1.0,,0.0-64.0,,1.0,1043.435,1.0,0.529473,1.0,0.636758527,1.0,0.301338063,0.0,0.365661481,True,,5e152c33814bbab3e0eb7371,,1442828,62,,evan-feature22,full_rf_b,,1
38,7092,63,,,,2,2,0.0,0.0,-1.0,0.0,,0.0-65.0,,0.0,1428.14,0.0,0.541657162,1.0,0.634541962,0.0,0.343535366,0.0,0.371763742,True,,5e152c33814bbab3e0eb7371,,1454014,63,,evan-feature22,full_rf_b,,1
39,7093,64,,,,2,2,0.0,0.0,-1.0,0.0,,0.0-66.0,,0.0,925.055,1.0,0.5707533260000001,1.0,0.589121171,0.0,0.326428396,0.0,0.43961622899999997,True,,5e152c33814bbab3e0eb7371,,1464694,64,,evan-feature22,full_rf_b,,0
40,7094,65,,,,1,1,1.0,0.0,0.0,1.0,,0.0-67.0,,0.0,1161.79,1.0,0.5707533260000001,0.0,0.589121171,1.0,0.326428396,0.0,0.43961622899999997,True,,5e152c33814bbab3e0eb7371,,1475613,65,,evan-feature22,full_rf_b,,1
41,7095,66,,,,2,2,1.0,1.0,0.0,1.0,,0.0-68.0,,1.0,952.335,1.0,0.506271295,0.0,0.641775594,1.0,0.37149690700000004,1.0,0.404330166,True,,5e152c33814bbab3e0eb7371,,1486323,66,,evan-feature22,full_rf_b,,1
42,7096,67,,,,2,2,0.0,0.0,-1.0,0.0,,0.0-69.0,,0.0,306.06,0.0,0.455642565,1.0,0.623605825,0.0,0.358753011,0.0,0.346174041,True,,5e152c33814bbab3e0eb7371,,1496385,67,,evan-feature22,full_rf_b,,0
43,7097,68,,,,1,1,0.0,1.0,0.0,1.0,,0.0-70.0,,1.0,443.415,0.0,0.483677308,1.0,0.5904681070000001,0.0,0.402218411,0.0,0.35344697,True,,5e152c33814bbab3e0eb7371,,1506586,68,,evan-feature22,full_rf_b,,1
44,7098,69,,,,2,2,0.0,1.0,-1.0,0.0,,0.0-71.0,,0.0,917.19,1.0,0.394210977,0.0,0.558925494,0.0,0.540052017,1.0,0.35182128700000004,True,,5e152c33814bbab3e0eb7371,,1517258,69,,evan-feature22,full_rf_b,,1
45,7099,70,,,,2,2,1.0,0.0,0.0,1.0,,0.0-72.0,,0.0,585.995,1.0,0.382300414,1.0,0.577670603,1.0,0.607608448,0.0,0.378261578,True,,5e152c33814bbab3e0eb7371,,1527600,70,,evan-feature22,full_rf_b,,0
46,7100,71,,,,2,2,1.0,1.0,-1.0,0.0,,0.0-73.0,,-1.0,789.985,0.0,0.357596762,1.0,0.5929076529999999,1.0,0.6579790010000001,1.0,0.401326777,True,,5e152c33814bbab3e0eb7371,,1538146,71,,evan-feature22,full_rf_b,,0
47,7101,72,,,,1,1,0.0,0.0,0.0,1.0,,0.0-74.0,,0.0,907.08,0.0,0.362033495,0.0,0.582308608,1.0,0.649195052,0.0,0.355158505,True,,5e152c33814bbab3e0eb7371,,1548809,72,,evan-feature22,full_rf_b,,1
48,7102,73,,,,1,1,0.0,1.0,0.0,1.0,,0.0-75.0,,1.0,813.85,0.0,0.369620635,1.0,0.669100864,1.0,0.706059111,0.0,0.362516241,True,,5e152c33814bbab3e0eb7371,,1559379,73,,evan-feature22,full_rf_b,,0
49,7103,74,,,,1,1,0.0,1.0,0.0,1.0,,0.0-76.0,,1.0,714.605,0.0,0.41477751399999996,1.0,0.7284416779999999,1.0,0.7182656940000001,1.0,0.36228040899999997,True,,5e152c33814bbab3e0eb7371,,1569850,74,,evan-feature22,full_rf_b,,0
50,7104,75,,,,1,1,1.0,0.0,-1.0,0.0,,0.0-77.0,,-1.0,777.58,1.0,0.37675460299999997,0.0,0.703250285,1.0,0.75,0.0,0.461979164,True,,5e152c33814bbab3e0eb7371,,1580385,75,,evan-feature22,full_rf_b,,0
51,7105,76,,,,2,2,1.0,1.0,-1.0,0.0,,0.0-78.0,,-1.0,337.655,1.0,0.398716075,1.0,0.6723864890000001,1.0,0.674153818,1.0,0.519029516,True,,5e152c33814bbab3e0eb7371,,1590479,76,,evan-feature22,full_rf_b,,1
52,7106,77,,,,2,2,0.0,0.0,-1.0,0.0,,0.0-79.0,,0.0,915.31,1.0,0.34677856700000004,0.0,0.69057175,0.0,0.6822438540000001,0.0,0.477292237,True,,5e152c33814bbab3e0eb7371,,1601151,77,,evan-feature22,full_rf_b,,0
53,7107,78,,,,2,2,0.0,0.0,0.0,1.0,,0.0-80.0,,0.0,664.08,1.0,0.28580469199999997,0.0,0.68408818,0.0,0.684207565,0.0,0.49780448299999996,True,,5e152c33814bbab3e0eb7371,,1611572,78,,evan-feature22,full_rf_b,,0
54,7109,80,,,,1,1,0.0,0.0,0.0,1.0,,0.0-82.0,,0.0,614.86,0.0,0.25,0.0,0.7405808970000001,0.0,0.679614108,0.0,0.436436964,True,,5e152c33814bbab3e0eb7371,,1625526,80,,evan-feature22,full_rf_b,,1
55,7110,81,,,,2,2,1.0,0.0,0.0,1.0,,0.0-83.0,,0.0,296.965,0.0,0.29890393,1.0,0.730505706,1.0,0.7328203320000001,0.0,0.439256938,True,,5e152c33814bbab3e0eb7371,,1635580,81,,evan-feature22,full_rf_b,,1
56,7111,82,,,,2,2,1.0,0.0,-1.0,0.0,,0.0-84.0,,-1.0,322.51499989999996,0.0,0.326762398,0.0,0.7148059609999999,1.0,0.75,0.0,0.44389608799999997,True,,5e152c33814bbab3e0eb7371,,1645659,82,,evan-feature22,full_rf_b,,0
57,7112,83,,,,1,1,1.0,1.0,0.0,1.0,,0.0-85.0,,1.0,683.675,1.0,0.295168515,1.0,0.739760854,0.0,0.719947008,1.0,0.35277284600000003,True,,5e152c33814bbab3e0eb7371,,1656100,83,,evan-feature22,full_rf_b,,1
58,7113,84,,,,1,1,1.0,1.0,0.0,1.0,,0.0-86.0,,1.0,590.885,1.0,0.25,1.0,0.70781482,1.0,0.75,0.0,0.286095925,True,,5e152c33814bbab3e0eb7371,,1666448,84,,evan-feature22,full_rf_b,,0
59,7114,85,,,,1,1,0.0,1.0,0.0,1.0,,0.0-87.0,,1.0,664.765,0.0,0.25638190899999996,1.0,0.704088163,1.0,0.75,0.0,0.26872601399999996,True,,5e152c33814bbab3e0eb7371,,1676871,85,,evan-feature22,full_rf_b,,0
60,7115,86,,,,2,2,0.0,0.0,-1.0,0.0,,0.0-88.0,,0.0,1524.795,0.0,0.271581126,1.0,0.669760107,0.0,0.733896663,0.0,0.273244572,True,,5e152c33814bbab3e0eb7371,,1688152,86,,evan-feature22,full_rf_b,,1
61,7116,87,,,,2,2,0.0,1.0,0.0,1.0,,0.0-89.0,,1.0,540.565,0.0,0.257144401,1.0,0.600575706,0.0,0.74488122,1.0,0.25,True,,5e152c33814bbab3e0eb7371,,1698450,87,,evan-feature22,full_rf_b,,0
62,7117,88,,,,1,1,0.0,0.0,0.0,1.0,,0.0-90.0,,0.0,457.675,0.0,0.25,0.0,0.616870026,1.0,0.723610234,0.0,0.25,True,,5e152c33814bbab3e0eb7371,,1708664,88,,evan-feature22,full_rf_b,,1
63,7118,89,,,,2,2,1.0,0.0,-1.0,0.0,,0.0-91.0,,-1.0,495.78,0.0,0.25,1.0,0.583540187,1.0,0.7041042559999999,0.0,0.285961995,True,,5e152c33814bbab3e0eb7371,,1718917,89,,evan-feature22,full_rf_b,,1
64,7119,90,,,,2,2,0.0,0.0,-1.0,0.0,,0.0-92.0,,0.0,494.035,0.0,0.27254536,1.0,0.53875765,0.0,0.693783448,0.0,0.284961652,True,,5e152c33814bbab3e0eb7371,,1729167,90,,evan-feature22,full_rf_b,,0
65,7120,91,,,,1,1,0.0,0.0,-1.0,0.0,,0.0-93.0,,0.0,285.315,0.0,0.25,0.0,0.548431252,1.0,0.734221895,0.0,0.279445214,True,,5e152c33814bbab3e0eb7371,,1739208,91,,evan-feature22,full_rf_b,,1
66,7121,92,,,,1,1,0.0,0.0,0.0,1.0,,0.0-94.0,,0.0,370.585,0.0,0.258640684,0.0,0.545878066,1.0,0.725245965,0.0,0.31487537,True,,5e152c33814bbab3e0eb7371,,1749336,92,,evan-feature22,full_rf_b,,0
67,7122,93,,,,1,1,1.0,0.0,0.0,1.0,,0.0-95.0,,0.0,484.875,1.0,0.251103711,0.0,0.5776290629999999,1.0,0.696320133,1.0,0.317831047,True,,5e152c33814bbab3e0eb7371,,1759580,93,,evan-feature22,full_rf_b,,0
68,7123,94,,,,2,2,1.0,0.0,0.0,1.0,,0.0-96.0,,0.0,668.605,0.0,0.276630292,1.0,0.617329858,1.0,0.73838088,0.0,0.261471582,True,,5e152c33814bbab3e0eb7371,,1770005,94,,evan-feature22,full_rf_b,,1
69,7124,95,,,,1,1,1.0,1.0,0.0,1.0,,0.0-97.0,,1.0,821.625,1.0,0.297716424,1.0,0.618863717,1.0,0.7402358259999999,0.0,0.262600834,True,,5e152c33814bbab3e0eb7371,,1780583,95,,evan-feature22,full_rf_b,,1
70,7125,96,,,,2,2,1.0,0.0,-1.0,0.0,,0.0-98.0,,-1.0,1174.51,1.0,0.290935512,1.0,0.695370945,1.0,0.706570507,0.0,0.280030553,True,,5e152c33814bbab3e0eb7371,,1791515,96,,evan-feature22,full_rf_b,,1
71,7126,97,,,,2,2,0.0,0.0,0.0,1.0,,0.0-99.0,,0.0,1367.94,0.0,0.25,0.0,0.6465277079999999,0.0,0.67766682,0.0,0.25,True,,5e152c33814bbab3e0eb7371,,1802640,97,,evan-feature22,full_rf_b,,0
72,7127,98,,,,2,2,1.0,0.0,-1.0,0.0,,0.0-100.0,,-1.0,823.35,0.0,0.26463816,0.0,0.636100213,1.0,0.646048507,0.0,0.265607101,True,,5e152c33814bbab3e0eb7371,,1813219,98,,evan-feature22,full_rf_b,,0
73,7128,99,,,,2,2,0.0,0.0,-1.0,0.0,,0.0-101.0,,0.0,850.325,0.0,0.314340707,0.0,0.667795927,0.0,0.613630805,0.0,0.25,True,,5e152c33814bbab3e0eb7371,,1823826,99,,evan-feature22,full_rf_b,,0
74,7129,100,,,,1,1,0.0,1.0,0.0,1.0,,0.0-102.0,,1.0,1369.145,0.0,0.28685784,1.0,0.6622549529999999,1.0,0.652154117,1.0,0.25,True,,5e152c33814bbab3e0eb7371,,1834951,100,,evan-feature22,full_rf_b,,1
75,7130,101,,,,1,1,1.0,1.0,0.0,1.0,,0.0-103.0,,1.0,799.335,1.0,0.304106554,1.0,0.631289538,0.0,0.707041942,1.0,0.29314237,True,,5e152c33814bbab3e0eb7371,,1845507,101,,evan-feature22,full_rf_b,,0
76,7131,102,,,,2,2,1.0,0.0,0.0,1.0,,0.0-104.0,,0.0,725.925,0.0,0.304806932,1.0,0.571167718,1.0,0.680472346,0.0,0.25,True,,5e152c33814bbab3e0eb7371,,1855988,102,,evan-feature22,full_rf_b,,1
77,7132,103,,,,1,1,1.0,1.0,0.0,1.0,,0.0-105.0,,1.0,384.92,1.0,0.37919861,1.0,0.5724849710000001,0.0,0.705638003,0.0,0.30179300600000003,True,,5e152c33814bbab3e0eb7371,,1866130,103,,evan-feature22,full_rf_b,,1
78,7133,104,,,,2,2,1.0,0.0,0.0,1.0,,0.0-106.0,,0.0,488.22,1.0,0.464277969,0.0,0.554034373,1.0,0.7372627340000001,0.0,0.264699741,True,,5e152c33814bbab3e0eb7371,,1876374,104,,evan-feature22,full_rf_b,,1
79,7134,105,,,,2,2,1.0,0.0,0.0,1.0,,0.0-107.0,,0.0,719.29,0.0,0.465104323,1.0,0.530793115,1.0,0.75,0.0,0.31683071,True,,5e152c33814bbab3e0eb7371,,1886851,105,,evan-feature22,full_rf_b,,0
80,7135,106,,,,1,1,1.0,1.0,-1.0,0.0,,0.0-108.0,,-1.0,1123.32,1.0,0.465104323,1.0,0.530793115,1.0,0.75,1.0,0.31683071,True,,5e152c33814bbab3e0eb7371,,1897730,106,,evan-feature22,full_rf_b,,1
81,7136,107,,,,2,2,1.0,0.0,-1.0,0.0,,0.0-109.0,,-1.0,1181.95,0.0,0.46833986,0.0,0.570249239,1.0,0.7244472590000001,0.0,0.364114163,True,,5e152c33814bbab3e0eb7371,,1908668,107,,evan-feature22,full_rf_b,,1
82,7137,108,,,,2,2,1.0,1.0,-1.0,0.0,,0.0-110.0,,-1.0,738.47,0.0,0.445444024,1.0,0.649673355,1.0,0.6845441290000001,1.0,0.300660449,True,,5e152c33814bbab3e0eb7371,,1919162,108,,evan-feature22,full_rf_b,,0
83,7138,109,,,,2,2,1.0,0.0,-1.0,0.0,,0.0-111.0,,-1.0,903.47,1.0,0.39909721299999995,1.0,0.6715179509999999,1.0,0.742310028,0.0,0.35496088299999995,True,,5e152c33814bbab3e0eb7371,,1929823,109,,evan-feature22,full_rf_b,,0
84,7139,110,,,,2,2,1.0,0.0,0.0,1.0,,0.0-112.0,,0.0,740.765,0.0,0.37956104799999996,1.0,0.694725302,1.0,0.7181651309999999,0.0,0.38726906299999997,True,,5e152c33814bbab3e0eb7371,,1940321,110,,evan-feature22,full_rf_b,,0
85,7140,111,,,,1,1,1.0,0.0,0.0,1.0,,0.0-113.0,,0.0,715.71,1.0,0.404995034,0.0,0.724375412,1.0,0.6910946859999999,1.0,0.387187347,True,,5e152c33814bbab3e0eb7371,,1950794,111,,evan-feature22,full_rf_b,,1
86,7141,112,,,,1,1,0.0,1.0,-1.0,0.0,,0.0-114.0,,0.0,372.38,0.0,0.461740803,1.0,0.75,1.0,0.75,1.0,0.34872038200000005,True,,5e152c33814bbab3e0eb7371,,1960924,112,,evan-feature22,full_rf_b,,0
87,7142,113,,,,2,2,0.0,0.0,-1.0,0.0,,0.0-115.0,,0.0,578.055,1.0,0.43821380600000004,1.0,0.738833273,0.0,0.728286963,0.0,0.399538128,True,,5e152c33814bbab3e0eb7371,,1971258,113,,evan-feature22,full_rf_b,,1
88,7143,114,,,,2,2,1.0,1.0,0.0,1.0,,0.0-116.0,,1.0,298.0449999,1.0,0.41709882,0.0,0.736666736,1.0,0.75,1.0,0.389095584,True,,5e152c33814bbab3e0eb7371,,1981311,114,,evan-feature22,full_rf_b,,0
89,7144,115,,,,1,1,0.0,1.0,0.0,1.0,,0.0-117.0,,1.0,489.48,0.0,0.39749009799999996,1.0,0.744320029,0.0,0.75,0.0,0.363848678,True,,5e152c33814bbab3e0eb7371,,1991557,115,,evan-feature22,full_rf_b,,1
90,7145,116,,,,1,1,0.0,1.0,-1.0,0.0,,0.0-118.0,,0.0,479.09,0.0,0.392653706,1.0,0.75,1.0,0.75,0.0,0.384386976,True,,5e152c33814bbab3e0eb7371,,2001794,116,,evan-feature22,full_rf_b,,0
91,7146,117,,,,1,1,1.0,1.0,0.0,1.0,,0.0-119.0,,1.0,710.35,1.0,0.31190902600000003,1.0,0.75,1.0,0.732413819,0.0,0.413082932,True,,5e152c33814bbab3e0eb7371,,2012264,117,,evan-feature22,full_rf_b,,0
92,7147,118,,,,2,2,1.0,0.0,-1.0,0.0,,0.0-120.0,,-1.0,381.22,0.0,0.366917648,1.0,0.740073855,1.0,0.75,0.0,0.352861979,True,,5e152c33814bbab3e0eb7371,,2022402,118,,evan-feature22,full_rf_b,,1
93,7148,119,,,,1,1,1.0,1.0,-1.0,0.0,,0.0-121.0,,-1.0,423.655,1.0,0.3645172,1.0,0.721770713,1.0,0.75,0.0,0.404074511,True,,5e152c33814bbab3e0eb7371,,2032583,119,,evan-feature22,full_rf_b,,1
94,7149,120,,,,2,2,1.0,0.0,-1.0,0.0,,0.0-122.0,,-1.0,702.77,0.0,0.35205600299999995,1.0,0.68983859,1.0,0.739735447,0.0,0.366895945,True,,5e152c33814bbab3e0eb7371,,2043044,120,,evan-feature22,full_rf_b,,1
95,7150,121,,,,2,2,1.0,0.0,-1.0,0.0,,0.0-123.0,,-1.0,912.775,0.0,0.40998722600000004,0.0,0.720859127,1.0,0.673854955,0.0,0.368528541,True,,5e152c33814bbab3e0eb7371,,2053714,121,,evan-feature22,full_rf_b,,0
96,7151,122,,,,1,1,0.0,1.0,-1.0,0.0,,0.0-124.0,,0.0,813.505,0.0,0.353625316,1.0,0.75,1.0,0.695605473,0.0,0.38303674200000004,True,,5e152c33814bbab3e0eb7371,,2064282,122,,evan-feature22,full_rf_b,,1
97,7152,123,,,,1,1,0.0,1.0,-1.0,0.0,,0.0-125.0,,0.0,692.93,0.0,0.359216989,1.0,0.75,1.0,0.6987915090000001,1.0,0.35169046200000004,True,,5e152c33814bbab3e0eb7371,,2074731,123,,evan-feature22,full_rf_b,,0
98,7153,124,,,,2,2,1.0,1.0,-1.0,0.0,,0.0-126.0,,-1.0,361.39,0.0,0.35834496899999996,1.0,0.75,1.0,0.707067742,1.0,0.416763636,True,,5e152c33814bbab3e0eb7371,,2084850,124,,evan-feature22,full_rf_b,,1
99,7154,125,,,,2,2,1.0,1.0,0.0,1.0,,0.0-127.0,,1.0,397.785,0.0,0.38741613799999997,1.0,0.7177369570000001,1.0,0.734902455,1.0,0.49438664299999996,True,,5e152c33814bbab3e0eb7371,,2095006,125,,evan-feature22,full_rf_b,,0
100,7155,126,,,,1,1,0.0,1.0,-1.0,0.0,,0.0-128.0,,0.0,815.105,0.0,0.405255252,1.0,0.7300466640000001,0.0,0.7027748070000001,0.0,0.504359668,True,,5e152c33814bbab3e0eb7371,,2105578,126,,evan-feature22,full_rf_b,,1
101,7156,127,,,,2,2,0.0,1.0,-1.0,0.0,,0.0-129.0,,0.0,1011.89,1.0,0.40697073,1.0,0.7260142190000001,0.0,0.724461982,1.0,0.522779179,True,,5e152c33814bbab3e0eb7371,,2116349,127,,evan-feature22,full_rf_b,,1
102,7157,128,,,,2,2,1.0,1.0,-1.0,0.0,,0.0-130.0,,-1.0,832.575,1.0,0.43906215299999996,1.0,0.7252802340000001,1.0,0.719079934,1.0,0.5712990579999999,True,,5e152c33814bbab3e0eb7371,,2126936,128,,evan-feature22,full_rf_b,,0
103,7158,129,,,,1,1,1.0,1.0,0.0,1.0,,0.0-131.0,,1.0,313.365,1.0,0.4076705,1.0,0.73280499,1.0,0.681313127,0.0,0.523891346,True,,5e152c33814bbab3e0eb7371,,2137006,129,,evan-feature22,full_rf_b,,1
104,7159,130,,,,1,1,1.0,0.0,0.0,1.0,,0.0-132.0,,0.0,644.935,1.0,0.399102911,0.0,0.730498344,1.0,0.661080239,0.0,0.46742603,True,,5e152c33814bbab3e0eb7371,,2147408,130,,evan-feature22,full_rf_b,,0
105,7160,131,,,,2,2,0.0,0.0,0.0,1.0,,0.0-133.0,,0.0,520.36,0.0,0.356477282,1.0,0.712296395,0.0,0.641812684,0.0,0.44868414,True,,5e152c33814bbab3e0eb7371,,2157685,131,,evan-feature22,full_rf_b,,1
106,7161,132,,,,2,2,1.0,1.0,-1.0,0.0,,0.0-134.0,,-1.0,521.575,0.0,0.462760722,1.0,0.692349322,1.0,0.700947931,1.0,0.394680266,True,,5e152c33814bbab3e0eb7371,,2167963,132,,evan-feature22,full_rf_b,,0
107,7162,133,,,,1,1,0.0,1.0,-1.0,0.0,,0.0-135.0,,0.0,958.62,0.0,0.422306413,1.0,0.718375916,0.0,0.706340917,0.0,0.367787185,True,,5e152c33814bbab3e0eb7371,,2178678,133,,evan-feature22,full_rf_b,,1
108,7164,135,,,,2,2,1.0,1.0,-1.0,0.0,,0.0-137.0,,-1.0,1644.955,1.0,0.4582233,1.0,0.643834117,1.0,0.75,1.0,0.39615823299999997,True,,5e152c33814bbab3e0eb7371,,2214583,135,,evan-feature22,full_rf_b,,1
109,7165,136,,,,2,2,0.0,0.0,-1.0,0.0,,0.0-138.0,,0.0,478.13,1.0,0.43813437899999996,0.0,0.651283804,0.0,0.729674191,0.0,0.37711048,True,,5e152c33814bbab3e0eb7371,,2224818,136,,evan-feature22,full_rf_b,,0
110,7166,137,,,,1,1,1.0,1.0,-1.0,0.0,,0.0-139.0,,-1.0,641.44,1.0,0.471199094,1.0,0.6470010979999999,1.0,0.715008097,1.0,0.410656191,True,,5e152c33814bbab3e0eb7371,,2235217,137,,evan-feature22,full_rf_b,,1
111,7167,138,,,,2,2,0.0,0.0,-1.0,0.0,,0.0-140.0,,0.0,378.475,1.0,0.42486406,0.0,0.629771829,0.0,0.6550939960000001,0.0,0.459093873,True,,5e152c33814bbab3e0eb7371,,2245353,138,,evan-feature22,full_rf_b,,1
112,7168,139,,,,2,2,1.0,1.0,-1.0,0.0,,0.0-141.0,,-1.0,564.225,0.0,0.4803197,1.0,0.645842715,1.0,0.6421749920000001,1.0,0.443092151,True,,5e152c33814bbab3e0eb7371,,2255675,139,,evan-feature22,full_rf_b,,0
113,7169,140,,,,2,2,0.0,0.0,0.0,1.0,,0.0-142.0,,0.0,243.215,0.0,0.521848997,1.0,0.735801074,0.0,0.6691348460000001,0.0,0.45259351600000003,True,,5e152c33814bbab3e0eb7371,,2265674,140,,evan-feature22,full_rf_b,,0
114,7170,141,,,,1,1,0.0,1.0,-1.0,0.0,,0.0-143.0,,0.0,1220.72,0.0,0.49565621299999996,1.0,0.742400847,1.0,0.661512553,0.0,0.483110831,True,,5e152c33814bbab3e0eb7371,,2276651,141,,evan-feature22,full_rf_b,,1
115,7171,142,,,,1,1,0.0,1.0,-1.0,0.0,,0.0-144.0,,0.0,545.245,0.0,0.521564361,1.0,0.731078632,1.0,0.6774886809999999,0.0,0.483263956,True,,5e152c33814bbab3e0eb7371,,2286953,142,,evan-feature22,full_rf_b,,0
116,7172,143,,,,1,1,1.0,1.0,-1.0,0.0,,0.0-145.0,,-1.0,1704.415,1.0,0.558893102,1.0,0.719810023,1.0,0.67461031,0.0,0.499349834,True,,5e152c33814bbab3e0eb7371,,2298413,143,,evan-feature22,full_rf_b,,0
117,7173,144,,,,2,2,1.0,1.0,-1.0,0.0,,0.0-146.0,,-1.0,2113.35,0.0,0.611031046,0.0,0.75,1.0,0.688072995,1.0,0.5321422729999999,True,,5e152c33814bbab3e0eb7371,,2310285,144,,evan-feature22,full_rf_b,,1
118,7174,145,,,,1,1,0.0,0.0,0.0,1.0,,0.0-147.0,,0.0,738.215,0.0,0.633223941,0.0,0.713567728,1.0,0.75,0.0,0.48185314700000004,True,,5e152c33814bbab3e0eb7371,,2320781,145,,evan-feature22,full_rf_b,,1
119,7175,146,,,,1,1,1.0,1.0,-1.0,0.0,,0.0-148.0,,-1.0,478.14,1.0,0.664001694,1.0,0.705509768,1.0,0.75,1.0,0.500211065,True,,5e152c33814bbab3e0eb7371,,2331015,146,,evan-feature22,full_rf_b,,0
120,7176,147,,,,2,2,1.0,1.0,-1.0,0.0,,0.0-149.0,,-1.0,973.33,1.0,0.664001694,1.0,0.705509768,1.0,0.75,1.0,0.500211065,True,,5e152c33814bbab3e0eb7371,,2341745,147,,evan-feature22,full_rf_b,,1
121,7177,148,,,,2,2,1.0,1.0,-1.0,0.0,,0.0-150.0,,-1.0,320.675,1.0,0.696508041,0.0,0.71066027,1.0,0.717028709,1.0,0.49792991,True,,5e152c33814bbab3e0eb7371,,2351824,148,,evan-feature22,full_rf_b,,0
122,7178,149,,,,2,2,0.0,1.0,0.0,1.0,,0.0-151.0,,1.0,961.95,1.0,0.699883272,1.0,0.75,0.0,0.713543895,1.0,0.496962643,True,,5e152c33814bbab3e0eb7371,,2362542,149,,evan-feature22,full_rf_b,,0
123,7179,150,,,,2,2,1.0,1.0,0.0,1.0,,0.0-152.0,,1.0,646.75,0.0,0.741163419,1.0,0.75,1.0,0.64691024,1.0,0.513858197,True,,5e152c33814bbab3e0eb7371,,2372948,150,,evan-feature22,full_rf_b,,0
124,7180,151,,,,2,2,0.0,0.0,0.0,1.0,,0.0-153.0,,0.0,666.755,1.0,0.75,1.0,0.70816558,0.0,0.594499079,0.0,0.48502124,True,,5e152c33814bbab3e0eb7371,,2383371,151,,evan-feature22,full_rf_b,,0
125,7181,152,,,,2,2,1.0,0.0,-1.0,0.0,,0.0-154.0,,-1.0,858.6,0.0,0.75,1.0,0.721848901,1.0,0.62197249,0.0,0.48263586399999997,True,,5e152c33814bbab3e0eb7371,,2393985,152,,evan-feature22,full_rf_b,,0
126,7182,153,,,,2,2,1.0,1.0,-1.0,0.0,,0.0-155.0,,-1.0,816.575,0.0,0.75,1.0,0.74813071,1.0,0.584357161,1.0,0.411477782,True,,5e152c33814bbab3e0eb7371,,2404558,153,,evan-feature22,full_rf_b,,0
127,7183,154,,,,2,2,1.0,0.0,-1.0,0.0,,0.0-156.0,,-1.0,415.405,1.0,0.75,1.0,0.75,1.0,0.52287236,0.0,0.488290656,True,,5e152c33814bbab3e0eb7371,,2414731,154,,evan-feature22,full_rf_b,,0
128,7184,155,,,,2,2,1.0,1.0,-1.0,0.0,,0.0-157.0,,-1.0,538.245,0.0,0.75,1.0,0.75,1.0,0.544321581,1.0,0.53143059,True,,5e152c33814bbab3e0eb7371,,2425028,155,,evan-feature22,full_rf_b,,0
129,7185,156,,,,1,1,0.0,0.0,-1.0,0.0,,0.0-158.0,,0.0,1459.265,0.0,0.726754564,0.0,0.75,1.0,0.5129306370000001,1.0,0.530592445,True,,5e152c33814bbab3e0eb7371,,2436244,156,,evan-feature22,full_rf_b,,1
130,7186,157,,,,2,2,0.0,1.0,0.0,1.0,,0.0-159.0,,1.0,693.585,1.0,0.75,1.0,0.7392590729999999,0.0,0.479875835,1.0,0.547007051,True,,5e152c33814bbab3e0eb7371,,2446695,157,,evan-feature22,full_rf_b,,1
131,7187,158,,,,2,2,1.0,1.0,0.0,1.0,,0.0-160.0,,1.0,612.675,1.0,0.75,1.0,0.7393376979999999,1.0,0.546045419,1.0,0.541267353,True,,5e152c33814bbab3e0eb7371,,2457065,158,,evan-feature22,full_rf_b,,0
132,7188,159,,,,1,1,1.0,1.0,-1.0,0.0,,0.0-161.0,,-1.0,453.715,1.0,0.75,1.0,0.75,1.0,0.485725895,1.0,0.527625395,True,,5e152c33814bbab3e0eb7371,,2467275,159,,evan-feature22,full_rf_b,,1
133,7189,160,,,,1,1,1.0,0.0,0.0,1.0,,0.0-162.0,,0.0,1401.91,1.0,0.75,0.0,0.725087974,0.0,0.488603595,1.0,0.504019206,True,,5e152c33814bbab3e0eb7371,,2478434,160,,evan-feature22,full_rf_b,,0
134,7190,161,,,,2,2,0.0,0.0,-1.0,0.0,,0.0-163.0,,0.0,466.085,1.0,0.745504295,1.0,0.75,0.0,0.452379914,0.0,0.50131194,True,,5e152c33814bbab3e0eb7371,,2488657,161,,evan-feature22,full_rf_b,,1
135,7191,162,,,,2,2,0.0,0.0,0.0,1.0,,0.0-164.0,,0.0,610.385,1.0,0.728513874,1.0,0.75,0.0,0.44125567200000004,0.0,0.531454591,True,,5e152c33814bbab3e0eb7371,,2499024,162,,evan-feature22,full_rf_b,,0
136,7192,163,,,,2,2,1.0,1.0,-1.0,0.0,,0.0-165.0,,-1.0,510.06,0.0,0.73790804,1.0,0.75,1.0,0.413036656,1.0,0.524619035,True,,5e152c33814bbab3e0eb7371,,2509293,163,,evan-feature22,full_rf_b,,0
137,7193,164,,,,2,2,1.0,1.0,-1.0,0.0,,0.0-166.0,,-1.0,596.14,1.0,0.7080961309999999,1.0,0.708666865,1.0,0.431915581,1.0,0.481819489,True,,5e152c33814bbab3e0eb7371,,2519646,164,,evan-feature22,full_rf_b,,0
138,7194,165,,,,2,2,0.0,0.0,-1.0,0.0,,0.0-167.0,,0.0,428.185,1.0,0.721378003,1.0,0.71605913,0.0,0.36642387,0.0,0.5036739929999999,True,,5e152c33814bbab3e0eb7371,,2529831,165,,evan-feature22,full_rf_b,,0
139,7195,166,,,,2,2,0.0,1.0,0.0,1.0,,0.0-168.0,,1.0,698.435,1.0,0.7340618959999999,0.0,0.699323252,0.0,0.35298046299999997,1.0,0.511241692,True,,5e152c33814bbab3e0eb7371,,2540286,166,,evan-feature22,full_rf_b,,0
140,7196,167,,,,2,2,0.0,1.0,0.0,1.0,,0.0-169.0,,1.0,660.425,0.0,0.75,0.0,0.70412698,0.0,0.380734814,1.0,0.529580116,True,,5e152c33814bbab3e0eb7371,,2550702,167,,evan-feature22,full_rf_b,,0
141,7197,168,,,,2,2,1.0,0.0,0.0,1.0,,0.0-170.0,,0.0,723.445,1.0,0.7436654909999999,0.0,0.711182751,1.0,0.41125331,0.0,0.49554405,True,,5e152c33814bbab3e0eb7371,,2561182,168,,evan-feature22,full_rf_b,,0
142,7198,169,,,,2,2,0.0,1.0,-1.0,0.0,,0.0-171.0,,0.0,595.49,1.0,0.731607915,1.0,0.651774583,0.0,0.35688023,1.0,0.45194491600000003,True,,5e152c33814bbab3e0eb7371,,2571535,169,,evan-feature22,full_rf_b,,0
143,7199,170,,,,2,2,1.0,0.0,0.0,1.0,,0.0-172.0,,0.0,557.01,1.0,0.75,1.0,0.75,1.0,0.283145374,0.0,0.528608005,True,,5e152c33814bbab3e0eb7371,,2581851,170,,evan-feature22,full_rf_b,,0
144,7200,171,,,,2,2,0.0,1.0,-1.0,0.0,,0.0-173.0,,0.0,686.94,1.0,0.7491416890000001,1.0,0.7423785959999999,0.0,0.29135870399999997,1.0,0.498888318,True,,5e152c33814bbab3e0eb7371,,2592294,171,,evan-feature22,full_rf_b,,0
145,7201,172,,,,2,2,1.0,0.0,0.0,1.0,,0.0-174.0,,0.0,1243.145,1.0,0.708569387,1.0,0.717682277,1.0,0.294421699,0.0,0.493838163,True,,5e152c33814bbab3e0eb7371,,2603295,172,,evan-feature22,full_rf_b,,0
146,7202,173,,,,1,1,1.0,1.0,-1.0,0.0,,0.0-175.0,,-1.0,1141.715,1.0,0.75,1.0,0.7383382159999999,0.0,0.356098707,0.0,0.442533405,True,,5e152c33814bbab3e0eb7371,,2614192,173,,evan-feature22,full_rf_b,,1
147,7203,174,,,,2,2,0.0,0.0,-1.0,0.0,,0.0-176.0,,0.0,857.09,1.0,0.744527075,1.0,0.75,0.0,0.334127506,0.0,0.393165805,True,,5e152c33814bbab3e0eb7371,,2624805,174,,evan-feature22,full_rf_b,,1
148,7204,175,,,,1,1,1.0,1.0,-1.0,0.0,,0.0-177.0,,-1.0,1504.015,1.0,0.75,1.0,0.75,1.0,0.33571021799999995,0.0,0.350393962,True,,5e152c33814bbab3e0eb7371,,2636067,175,,evan-feature22,full_rf_b,,1
149,7205,176,,,,1,1,1.0,1.0,0.0,1.0,,0.0-178.0,,1.0,813.285,1.0,0.75,1.0,0.75,1.0,0.313628297,0.0,0.36349657399999996,True,,5e152c33814bbab3e0eb7371,,2646637,176,,evan-feature22,full_rf_b,,0
150,7206,177,,,,2,2,0.0,0.0,-1.0,0.0,,0.0-179.0,,0.0,537.25,1.0,0.75,1.0,0.734284182,0.0,0.262667667,0.0,0.380199119,True,,5e152c33814bbab3e0eb7371,,2656932,177,,evan-feature22,full_rf_b,,1
151,7207,178,,,,2,2,0.0,1.0,-1.0,0.0,,0.0-180.0,,0.0,986.765,1.0,0.75,1.0,0.75,0.0,0.25,1.0,0.394494013,True,,5e152c33814bbab3e0eb7371,,2667678,178,,evan-feature22,full_rf_b,,0
152,7208,179,,,,2,2,0.0,0.0,-1.0,0.0,,0.0-181.0,,0.0,833.575,0.0,0.722298145,0.0,0.7357822340000001,0.0,0.25,0.0,0.319142121,True,,5e152c33814bbab3e0eb7371,,2678269,179,,evan-feature22,full_rf_b,,0
153,7209,180,,,,1,1,1.0,0.0,-1.0,0.0,,0.0-182.0,,-1.0,780.375,1.0,0.73149275,0.0,0.724276446,0.0,0.305856907,0.0,0.281315057,True,,5e152c33814bbab3e0eb7371,,2688805,180,,evan-feature22,full_rf_b,,1
154,7210,181,,,,1,1,0.0,0.0,-1.0,0.0,,0.0-183.0,,0.0,850.33,0.0,0.7458732690000001,0.0,0.7336382459999999,1.0,0.272571964,0.0,0.266021999,True,,5e152c33814bbab3e0eb7371,,2699412,181,,evan-feature22,full_rf_b,,0
155,7211,182,,,,2,2,0.0,0.0,0.0,1.0,,0.0-184.0,,0.0,615.175,1.0,0.705579037,1.0,0.720778292,0.0,0.320238144,0.0,0.30971744,True,,5e152c33814bbab3e0eb7371,,2709784,182,,evan-feature22,full_rf_b,,1
156,7212,183,,,,1,1,1.0,1.0,0.0,1.0,,0.0-185.0,,1.0,697.22,1.0,0.700425648,1.0,0.7198784009999999,0.0,0.272590393,0.0,0.304182931,True,,5e152c33814bbab3e0eb7371,,2720239,183,,evan-feature22,full_rf_b,,1
157,7213,184,,,,2,2,0.0,1.0,0.0,1.0,,0.0-186.0,,1.0,911.275,1.0,0.735590785,1.0,0.722714973,0.0,0.25,1.0,0.323421091,True,,5e152c33814bbab3e0eb7371,,2730907,184,,evan-feature22,full_rf_b,,1
158,7214,185,,,,2,2,1.0,0.0,0.0,1.0,,0.0-187.0,,0.0,757.085,1.0,0.724807662,1.0,0.63146213,1.0,0.36836492600000004,0.0,0.34592153299999995,True,,5e152c33814bbab3e0eb7371,,2741420,185,,evan-feature22,full_rf_b,,0
159,7215,186,,,,2,2,1.0,0.0,-1.0,0.0,,0.0-188.0,,-1.0,1159.56,1.0,0.7352796909999999,0.0,0.555111392,1.0,0.36003922,0.0,0.31433779999999995,True,,5e152c33814bbab3e0eb7371,,2752335,186,,evan-feature22,full_rf_b,,0
160,7216,187,notice,,,,,,,,,,0.0-189.0,"{""Q0"":""No""}",,33261.0,,,,,,,,,True,,5e152c33814bbab3e0eb7371,,2785597,187,Q,survey-text,full_rf_b,,1
161,7217,188,track1,,[1],,,,,,,,0.0-190.0,"{""Q0"":""no""}",,5843.0,,,,,,,,,True,,5e152c33814bbab3e0eb7371,,2791442,188,Q,evan-quiz,full_rf_b,,1
162,7218,189,track2,,[0],,,,,,,,0.0-191.0,"{""Q0"":""yes""}",,10864.0,,,,,,,,,True,,5e152c33814bbab3e0eb7371,,2802307,189,Q,evan-quiz,full_rf_b,,1
163,7219,190,strat,,,,,,,,,,0.0-192.0,"{""Q0"":""I don't know if I did well but I guessed which ones were more likely to contain a certain colour and how often I noticed it appeared.  I don't think I really had a strategy other than just trying to remember ""}",,314799.0,,,,,,,,,True,,5e152c33814bbab3e0eb7371,,3117109,190,Q,survey-text,full_rf_b,,1
