,index,Unnamed: 0,Q_name,button_pressed,choice_idxs,chosen_pos,chosen_state,chosen_state_f_1_outcome,chosen_state_f_2_outcome,f_1_reward,f_2_reward,incor_questions,internal_node_id,responses,reward_received,rt,s_1_f_1_outcome,s_1_f_1_prob,s_1_f_2_outcome,s_1_f_2_prob,s_2_f_1_outcome,s_2_f_1_prob,s_2_f_2_outcome,s_2_f_2_prob,safe_first,stimulus,subjectID,success,time_elapsed,trial_index,trial_num,trial_type,version,view_history,switching
0,20948,25,,,,2,2,1.0,0.0,0.0,-1.0,,0.0-27.0,,0.0,230.0,0.0,0.6,0.0,0.6,1.0,0.4,0.0,0.4,False,,5f7620b93a2dd30771bb322e,,626335,25,,evan-feature22,full_pf_a,,0
1,20949,26,,,,2,2,0.0,0.0,0.0,-1.0,,0.0-28.0,,0.0,3914.0,0.0,0.608053294,0.0,0.63424552,0.0,0.397152172,0.0,0.347069101,False,,5f7620b93a2dd30771bb322e,,640125,26,,evan-feature22,full_pf_a,,0
2,20950,27,,,,2,2,0.0,1.0,0.0,-1.0,,0.0-29.0,,-1.0,2247.0,1.0,0.642237155,1.0,0.648566321,0.0,0.389407674,1.0,0.285525717,False,,5f7620b93a2dd30771bb322e,,652209,27,,evan-feature22,full_pf_a,,0
3,20951,28,,,,SLOW,SLOW,,,0.0,-1.0,,0.0-30.0,,-3.0,,1.0,0.661086576,1.0,0.630492543,0.0,0.399058924,1.0,0.25,False,,5f7620b93a2dd30771bb322e,,658035,28,,evan-feature22,full_pf_a,,1
4,20952,29,,,,1,1,0.0,0.0,0.0,-1.0,,0.0-31.0,,0.0,2271.0,0.0,0.631324137,0.0,0.6269842929999999,0.0,0.38734784299999997,0.0,0.25,False,,5f7620b93a2dd30771bb322e,,670125,29,,evan-feature22,full_pf_a,,1
5,20953,30,,,,1,1,0.0,1.0,0.0,-1.0,,0.0-32.0,,-1.0,913.0,0.0,0.6381991370000001,1.0,0.68987999,0.0,0.384107265,0.0,0.271332943,False,,5f7620b93a2dd30771bb322e,,680895,30,,evan-feature22,full_pf_a,,0
6,20954,31,,,,2,2,0.0,0.0,0.0,-1.0,,0.0-33.0,,0.0,984.0,0.0,0.66034901,1.0,0.742641349,0.0,0.360225629,0.0,0.25,False,,5f7620b93a2dd30771bb322e,,691674,31,,evan-feature22,full_pf_a,,1
7,20955,32,,,,2,2,0.0,0.0,1.0,0.0,,0.0-34.0,,0.0,1776.0,1.0,0.638612418,1.0,0.75,0.0,0.367273939,0.0,0.25,False,,5f7620b93a2dd30771bb322e,,703294,32,,evan-feature22,full_pf_a,,0
8,20956,33,,,,2,2,0.0,0.0,0.0,-1.0,,0.0-35.0,,0.0,1164.0,0.0,0.624340629,1.0,0.75,0.0,0.425829545,0.0,0.25,False,,5f7620b93a2dd30771bb322e,,714295,33,,evan-feature22,full_pf_a,,0
9,20957,34,,,,2,2,0.0,0.0,0.0,-1.0,,0.0-36.0,,0.0,1066.0,1.0,0.621999804,1.0,0.75,0.0,0.368609357,0.0,0.25,False,,5f7620b93a2dd30771bb322e,,725195,34,,evan-feature22,full_pf_a,,0
10,20958,35,,,,1,1,0.0,1.0,1.0,0.0,,0.0-37.0,,0.0,926.0,0.0,0.62666403,1.0,0.75,0.0,0.311151498,0.0,0.25,False,,5f7620b93a2dd30771bb322e,,735945,35,,evan-feature22,full_pf_a,,1
11,20959,36,,,,1,1,1.0,0.0,1.0,0.0,,0.0-38.0,,1.0,1459.0,1.0,0.6819650009999999,0.0,0.75,1.0,0.310763048,0.0,0.25,False,,5f7620b93a2dd30771bb322e,,747264,36,,evan-feature22,full_pf_a,,0
12,20960,37,,,,1,1,0.0,1.0,0.0,-1.0,,0.0-39.0,,-1.0,1801.0,0.0,0.740626951,1.0,0.75,1.0,0.25,0.0,0.25,False,,5f7620b93a2dd30771bb322e,,758914,37,,evan-feature22,full_pf_a,,0
13,20961,38,,,,2,2,0.0,0.0,0.0,-1.0,,0.0-40.0,,0.0,590.0,0.0,0.739599242,1.0,0.742034978,0.0,0.25397114600000004,0.0,0.25,False,,5f7620b93a2dd30771bb322e,,769364,38,,evan-feature22,full_pf_a,,1
14,20962,39,,,,2,2,1.0,0.0,0.0,-1.0,,0.0-41.0,,0.0,781.0,0.0,0.732341315,1.0,0.72735643,1.0,0.25,0.0,0.25,False,,5f7620b93a2dd30771bb322e,,779975,39,,evan-feature22,full_pf_a,,0
15,20963,40,,,,2,2,0.0,1.0,0.0,-1.0,,0.0-42.0,,-1.0,672.0,1.0,0.7062287770000001,1.0,0.75,0.0,0.29002151,1.0,0.288256649,False,,5f7620b93a2dd30771bb322e,,790455,40,,evan-feature22,full_pf_a,,0
16,20964,41,,,,1,1,1.0,0.0,1.0,0.0,,0.0-43.0,,1.0,1057.0,1.0,0.7086029209999999,0.0,0.75,0.0,0.274129113,0.0,0.262851608,False,,5f7620b93a2dd30771bb322e,,801355,41,,evan-feature22,full_pf_a,,1
17,20965,42,,,,1,1,0.0,0.0,0.0,-1.0,,0.0-44.0,,0.0,1892.0,0.0,0.669189651,0.0,0.727614338,0.0,0.298444036,0.0,0.296944518,False,,5f7620b93a2dd30771bb322e,,813074,42,,evan-feature22,full_pf_a,,0
18,20966,43,,,,1,1,1.0,1.0,1.0,0.0,,0.0-45.0,,1.0,1122.0,1.0,0.6819912929999999,1.0,0.7179434290000001,1.0,0.265003961,0.0,0.28157921199999997,False,,5f7620b93a2dd30771bb322e,,824045,43,,evan-feature22,full_pf_a,,0
19,20967,44,,,,2,2,0.0,0.0,1.0,0.0,,0.0-46.0,,0.0,2196.0,1.0,0.665275002,1.0,0.723065271,0.0,0.260414971,0.0,0.30973870000000003,False,,5f7620b93a2dd30771bb322e,,836095,44,,evan-feature22,full_pf_a,,1
20,20968,45,,,,2,2,0.0,0.0,0.0,-1.0,,0.0-47.0,,0.0,1153.0,0.0,0.6660593260000001,1.0,0.728032907,0.0,0.30922817,0.0,0.338778608,False,,5f7620b93a2dd30771bb322e,,847064,45,,evan-feature22,full_pf_a,,0
21,20969,46,,,,2,2,0.0,0.0,0.0,-1.0,,0.0-48.0,,0.0,711.0,1.0,0.702068785,1.0,0.6528750879999999,0.0,0.287329608,0.0,0.35789613200000003,False,,5f7620b93a2dd30771bb322e,,857605,46,,evan-feature22,full_pf_a,,0
22,20970,47,,,,2,2,0.0,1.0,0.0,-1.0,,0.0-49.0,,-1.0,714.0,0.0,0.651939787,1.0,0.636725589,0.0,0.284834488,1.0,0.358563756,False,,5f7620b93a2dd30771bb322e,,868163,47,,evan-feature22,full_pf_a,,0
23,20971,48,,,,1,1,1.0,0.0,0.0,-1.0,,0.0-50.0,,0.0,1929.0,1.0,0.67573929,0.0,0.612550049,1.0,0.37130387600000003,0.0,0.383542402,False,,5f7620b93a2dd30771bb322e,,879944,48,,evan-feature22,full_pf_a,,1
24,20972,49,,,,1,1,0.0,0.0,0.0,-1.0,,0.0-51.0,,0.0,1216.0,0.0,0.620753801,0.0,0.60513644,0.0,0.385529434,0.0,0.340361743,False,,5f7620b93a2dd30771bb322e,,890995,49,,evan-feature22,full_pf_a,,0
25,20973,50,,,,1,1,0.0,1.0,1.0,0.0,,0.0-52.0,,0.0,845.0,0.0,0.673564893,1.0,0.672437924,1.0,0.292955382,0.0,0.337633795,False,,5f7620b93a2dd30771bb322e,,901694,50,,evan-feature22,full_pf_a,,0
26,20974,51,,,,2,2,1.0,1.0,0.0,-1.0,,0.0-53.0,,-1.0,2007.0,1.0,0.6749427,1.0,0.724197502,1.0,0.32391132100000003,1.0,0.350995264,False,,5f7620b93a2dd30771bb322e,,913524,51,,evan-feature22,full_pf_a,,1
27,20975,52,,,,2,2,1.0,1.0,0.0,-1.0,,0.0-54.0,,-1.0,864.0,1.0,0.6940159379999999,1.0,0.75,1.0,0.31710554399999996,1.0,0.413450341,False,,5f7620b93a2dd30771bb322e,,924235,52,,evan-feature22,full_pf_a,,0
28,20976,53,,,,2,2,0.0,1.0,0.0,-1.0,,0.0-55.0,,-1.0,1360.0,1.0,0.6916018270000001,1.0,0.69001187,0.0,0.261817804,1.0,0.40038635,False,,5f7620b93a2dd30771bb322e,,935474,53,,evan-feature22,full_pf_a,,0
29,20977,54,,,,2,2,0.0,0.0,0.0,-1.0,,0.0-56.0,,0.0,2354.0,0.0,0.641061544,1.0,0.71337992,0.0,0.277296461,0.0,0.47372791700000005,False,,5f7620b93a2dd30771bb322e,,947674,54,,evan-feature22,full_pf_a,,0
30,20978,55,,,,2,2,1.0,1.0,0.0,-1.0,,0.0-57.0,,-1.0,2675.0,1.0,0.6082438520000001,1.0,0.708471106,1.0,0.28745137,1.0,0.564174476,False,,5f7620b93a2dd30771bb322e,,960185,55,,evan-feature22,full_pf_a,,0
31,20979,56,,,,1,1,1.0,1.0,1.0,0.0,,0.0-58.0,,1.0,2270.0,1.0,0.6051112120000001,1.0,0.7118147229999999,0.0,0.272390611,0.0,0.5595149939999999,False,,5f7620b93a2dd30771bb322e,,972324,56,,evan-feature22,full_pf_a,,1
32,20980,57,,,,1,1,1.0,1.0,1.0,0.0,,0.0-59.0,,1.0,591.0,1.0,0.582420852,1.0,0.635867583,1.0,0.31089574,1.0,0.5227206520000001,False,,5f7620b93a2dd30771bb322e,,982784,57,,evan-feature22,full_pf_a,,0
33,20981,58,,,,1,1,0.0,1.0,1.0,0.0,,0.0-60.0,,0.0,468.0,0.0,0.623195575,1.0,0.655026044,0.0,0.25,1.0,0.560387538,False,,5f7620b93a2dd30771bb322e,,993084,58,,evan-feature22,full_pf_a,,0
34,20982,59,,,,2,2,1.0,1.0,0.0,-1.0,,0.0-61.0,,-1.0,1577.0,0.0,0.601889598,1.0,0.678198724,1.0,0.25,1.0,0.559922936,False,,5f7620b93a2dd30771bb322e,,1004494,59,,evan-feature22,full_pf_a,,1
35,20983,60,,,,2,2,0.0,1.0,1.0,0.0,,0.0-62.0,,0.0,1132.0,0.0,0.601259914,1.0,0.704681482,0.0,0.33908969299999997,1.0,0.505003715,False,,5f7620b93a2dd30771bb322e,,1015474,60,,evan-feature22,full_pf_a,,0
36,20984,61,,,,2,2,0.0,0.0,1.0,0.0,,0.0-63.0,,0.0,640.0,1.0,0.59645454,1.0,0.710437172,0.0,0.327441879,0.0,0.391749613,False,,5f7620b93a2dd30771bb322e,,1025923,61,,evan-feature22,full_pf_a,,0
37,20985,62,,,,2,2,0.0,0.0,0.0,-1.0,,0.0-64.0,,0.0,1351.0,1.0,0.529473,1.0,0.636758527,0.0,0.301338063,0.0,0.365661481,False,,5f7620b93a2dd30771bb322e,,1037104,62,,evan-feature22,full_pf_a,,0
38,20986,63,,,,1,1,0.0,0.0,1.0,0.0,,0.0-65.0,,0.0,815.0,0.0,0.541657162,0.0,0.634541962,1.0,0.343535366,1.0,0.371763742,False,,5f7620b93a2dd30771bb322e,,1047753,63,,evan-feature22,full_pf_a,,1
39,20987,64,,,,1,1,1.0,0.0,1.0,0.0,,0.0-66.0,,1.0,1151.0,1.0,0.5707533260000001,0.0,0.589121171,0.0,0.326428396,0.0,0.43961622899999997,False,,5f7620b93a2dd30771bb322e,,1058724,64,,evan-feature22,full_pf_a,,0
40,20988,65,,,,1,1,0.0,1.0,0.0,-1.0,,0.0-67.0,,-1.0,1128.0,0.0,0.5707533260000001,1.0,0.589121171,1.0,0.326428396,1.0,0.43961622899999997,False,,5f7620b93a2dd30771bb322e,,1069694,65,,evan-feature22,full_pf_a,,0
41,20989,66,,,,1,1,0.0,1.0,0.0,-1.0,,0.0-68.0,,-1.0,1121.0,0.0,0.506271295,1.0,0.641775594,0.0,0.37149690700000004,1.0,0.404330166,False,,5f7620b93a2dd30771bb322e,,1080653,66,,evan-feature22,full_pf_a,,0
42,20990,67,,,,1,1,0.0,1.0,1.0,0.0,,0.0-69.0,,0.0,859.0,0.0,0.455642565,1.0,0.623605825,1.0,0.358753011,0.0,0.346174041,False,,5f7620b93a2dd30771bb322e,,1091384,67,,evan-feature22,full_pf_a,,0
43,20991,68,,,,2,2,1.0,1.0,0.0,-1.0,,0.0-70.0,,-1.0,1201.0,0.0,0.483677308,0.0,0.5904681070000001,1.0,0.402218411,1.0,0.35344697,False,,5f7620b93a2dd30771bb322e,,1102423,68,,evan-feature22,full_pf_a,,1
44,20992,69,,,,1,1,0.0,1.0,1.0,0.0,,0.0-71.0,,0.0,1603.0,0.0,0.394210977,1.0,0.558925494,0.0,0.540052017,0.0,0.35182128700000004,False,,5f7620b93a2dd30771bb322e,,1113884,69,,evan-feature22,full_pf_a,,1
45,20993,70,,,,2,2,0.0,0.0,0.0,-1.0,,0.0-72.0,,0.0,997.0,1.0,0.382300414,1.0,0.577670603,0.0,0.607608448,0.0,0.378261578,False,,5f7620b93a2dd30771bb322e,,1124705,70,,evan-feature22,full_pf_a,,1
46,20994,71,,,,1,1,1.0,1.0,1.0,0.0,,0.0-73.0,,1.0,907.0,1.0,0.357596762,1.0,0.5929076529999999,1.0,0.6579790010000001,0.0,0.401326777,False,,5f7620b93a2dd30771bb322e,,1135454,71,,evan-feature22,full_pf_a,,1
47,20995,72,,,,2,2,1.0,0.0,0.0,-1.0,,0.0-74.0,,0.0,515.0,1.0,0.362033495,1.0,0.582308608,1.0,0.649195052,0.0,0.355158505,False,,5f7620b93a2dd30771bb322e,,1145814,72,,evan-feature22,full_pf_a,,1
48,20996,73,,,,2,2,1.0,0.0,0.0,-1.0,,0.0-75.0,,0.0,769.0,0.0,0.369620635,1.0,0.669100864,1.0,0.706059111,0.0,0.362516241,False,,5f7620b93a2dd30771bb322e,,1156424,73,,evan-feature22,full_pf_a,,0
49,20997,74,,,,2,2,0.0,0.0,0.0,-1.0,,0.0-76.0,,0.0,727.0,0.0,0.41477751399999996,1.0,0.7284416779999999,0.0,0.7182656940000001,0.0,0.36228040899999997,False,,5f7620b93a2dd30771bb322e,,1167014,74,,evan-feature22,full_pf_a,,0
50,20998,75,,,,1,1,1.0,0.0,1.0,0.0,,0.0-77.0,,1.0,1816.0,1.0,0.37675460299999997,0.0,0.703250285,1.0,0.75,0.0,0.461979164,False,,5f7620b93a2dd30771bb322e,,1178664,75,,evan-feature22,full_pf_a,,1
51,20999,76,,,,1,1,0.0,1.0,1.0,0.0,,0.0-78.0,,0.0,556.0,0.0,0.398716075,1.0,0.6723864890000001,0.0,0.674153818,0.0,0.519029516,False,,5f7620b93a2dd30771bb322e,,1189044,76,,evan-feature22,full_pf_a,,0
52,21000,77,,,,1,1,1.0,1.0,1.0,0.0,,0.0-79.0,,1.0,1522.0,1.0,0.34677856700000004,1.0,0.69057175,1.0,0.6822438540000001,1.0,0.477292237,False,,5f7620b93a2dd30771bb322e,,1200384,77,,evan-feature22,full_pf_a,,0
53,21001,78,,,,2,2,1.0,1.0,0.0,-1.0,,0.0-80.0,,-1.0,1943.0,0.0,0.28580469199999997,1.0,0.68408818,1.0,0.684207565,1.0,0.49780448299999996,False,,5f7620b93a2dd30771bb322e,,1212183,78,,evan-feature22,full_pf_a,,1
54,21003,80,,,,2,2,0.0,0.0,0.0,-1.0,,0.0-82.0,,0.0,937.0,0.0,0.25,1.0,0.7405808970000001,0.0,0.679614108,0.0,0.436436964,False,,5f7620b93a2dd30771bb322e,,1226004,80,,evan-feature22,full_pf_a,,0
55,21004,81,,,,2,2,1.0,1.0,0.0,-1.0,,0.0-83.0,,-1.0,3095.0,0.0,0.29890393,0.0,0.730505706,1.0,0.7328203320000001,1.0,0.439256938,False,,5f7620b93a2dd30771bb322e,,1238914,81,,evan-feature22,full_pf_a,,0
56,21005,82,,,,2,2,1.0,0.0,1.0,0.0,,0.0-84.0,,1.0,1700.0,0.0,0.326762398,0.0,0.7148059609999999,1.0,0.75,0.0,0.44389608799999997,False,,5f7620b93a2dd30771bb322e,,1250448,82,,evan-feature22,full_pf_a,,0
57,21006,83,,,,1,1,0.0,0.0,0.0,-1.0,,0.0-85.0,,0.0,671.0,0.0,0.295168515,0.0,0.739760854,0.0,0.719947008,1.0,0.35277284600000003,False,,5f7620b93a2dd30771bb322e,,1260953,83,,evan-feature22,full_pf_a,,1
58,21007,84,,,,1,1,1.0,0.0,0.0,-1.0,,0.0-86.0,,0.0,811.0,1.0,0.25,0.0,0.70781482,1.0,0.75,0.0,0.286095925,False,,5f7620b93a2dd30771bb322e,,1271604,84,,evan-feature22,full_pf_a,,0
59,21008,85,,,,1,1,0.0,1.0,0.0,-1.0,,0.0-87.0,,-1.0,833.0,0.0,0.25638190899999996,1.0,0.704088163,1.0,0.75,0.0,0.26872601399999996,False,,5f7620b93a2dd30771bb322e,,1282284,85,,evan-feature22,full_pf_a,,0
60,21009,86,,,,2,2,1.0,0.0,1.0,0.0,,0.0-88.0,,1.0,1070.0,1.0,0.271581126,0.0,0.669760107,1.0,0.733896663,0.0,0.273244572,False,,5f7620b93a2dd30771bb322e,,1293173,86,,evan-feature22,full_pf_a,,1
61,21010,87,,,,2,2,1.0,0.0,0.0,-1.0,,0.0-89.0,,0.0,2141.0,0.0,0.257144401,0.0,0.600575706,1.0,0.74488122,0.0,0.25,False,,5f7620b93a2dd30771bb322e,,1305154,87,,evan-feature22,full_pf_a,,0
62,21011,88,,,,1,1,0.0,1.0,0.0,-1.0,,0.0-90.0,,-1.0,1200.0,0.0,0.25,1.0,0.616870026,1.0,0.723610234,1.0,0.25,False,,5f7620b93a2dd30771bb322e,,1316204,88,,evan-feature22,full_pf_a,,1
63,21012,89,,,,2,2,0.0,0.0,1.0,0.0,,0.0-91.0,,0.0,586.0,0.0,0.25,0.0,0.583540187,0.0,0.7041042559999999,0.0,0.285961995,False,,5f7620b93a2dd30771bb322e,,1326643,89,,evan-feature22,full_pf_a,,1
64,21013,90,,,,2,2,1.0,0.0,1.0,0.0,,0.0-92.0,,1.0,490.0,0.0,0.27254536,1.0,0.53875765,1.0,0.693783448,0.0,0.284961652,False,,5f7620b93a2dd30771bb322e,,1336993,90,,evan-feature22,full_pf_a,,0
65,21014,91,,,,2,2,0.0,0.0,1.0,0.0,,0.0-93.0,,0.0,729.0,0.0,0.25,1.0,0.548431252,0.0,0.734221895,0.0,0.279445214,False,,5f7620b93a2dd30771bb322e,,1347543,91,,evan-feature22,full_pf_a,,0
66,21015,92,,,,2,2,0.0,1.0,0.0,-1.0,,0.0-94.0,,-1.0,944.0,0.0,0.258640684,1.0,0.545878066,0.0,0.725245965,1.0,0.31487537,False,,5f7620b93a2dd30771bb322e,,1358314,92,,evan-feature22,full_pf_a,,0
67,21016,93,,,,2,2,0.0,0.0,0.0,-1.0,,0.0-95.0,,0.0,1456.0,0.0,0.251103711,0.0,0.5776290629999999,0.0,0.696320133,0.0,0.317831047,False,,5f7620b93a2dd30771bb322e,,1369603,93,,evan-feature22,full_pf_a,,0
68,21017,94,,,,1,1,0.0,0.0,0.0,-1.0,,0.0-96.0,,0.0,1418.0,0.0,0.276630292,0.0,0.617329858,1.0,0.73838088,0.0,0.261471582,False,,5f7620b93a2dd30771bb322e,,1380843,94,,evan-feature22,full_pf_a,,1
69,21018,95,,,,1,1,0.0,1.0,0.0,-1.0,,0.0-97.0,,-1.0,1225.0,0.0,0.297716424,1.0,0.618863717,1.0,0.7402358259999999,0.0,0.262600834,False,,5f7620b93a2dd30771bb322e,,1391909,95,,evan-feature22,full_pf_a,,0
70,21019,96,,,,2,2,1.0,0.0,1.0,0.0,,0.0-98.0,,1.0,1001.0,0.0,0.290935512,1.0,0.695370945,1.0,0.706570507,0.0,0.280030553,False,,5f7620b93a2dd30771bb322e,,1402753,96,,evan-feature22,full_pf_a,,1
71,21020,97,,,,2,2,0.0,1.0,0.0,-1.0,,0.0-99.0,,-1.0,2879.0,1.0,0.25,1.0,0.6465277079999999,0.0,0.67766682,1.0,0.25,False,,5f7620b93a2dd30771bb322e,,1415473,97,,evan-feature22,full_pf_a,,0
72,21021,98,,,,2,2,0.0,0.0,1.0,0.0,,0.0-100.0,,0.0,1944.0,1.0,0.26463816,0.0,0.636100213,0.0,0.646048507,0.0,0.265607101,False,,5f7620b93a2dd30771bb322e,,1427253,98,,evan-feature22,full_pf_a,,0
73,21022,99,,,,1,1,0.0,1.0,1.0,0.0,,0.0-101.0,,0.0,905.0,0.0,0.314340707,1.0,0.667795927,1.0,0.613630805,0.0,0.25,False,,5f7620b93a2dd30771bb322e,,1438003,99,,evan-feature22,full_pf_a,,1
74,21023,100,,,,1,1,0.0,1.0,0.0,-1.0,,0.0-102.0,,-1.0,748.0,0.0,0.28685784,1.0,0.6622549529999999,1.0,0.652154117,0.0,0.25,False,,5f7620b93a2dd30771bb322e,,1448604,100,,evan-feature22,full_pf_a,,0
75,21024,101,,,,2,2,1.0,1.0,0.0,-1.0,,0.0-103.0,,-1.0,803.0,0.0,0.304106554,1.0,0.631289538,1.0,0.707041942,1.0,0.29314237,False,,5f7620b93a2dd30771bb322e,,1459223,101,,evan-feature22,full_pf_a,,1
76,21025,102,,,,2,2,0.0,0.0,0.0,-1.0,,0.0-104.0,,0.0,1511.0,0.0,0.304806932,0.0,0.571167718,0.0,0.680472346,0.0,0.25,False,,5f7620b93a2dd30771bb322e,,1470573,102,,evan-feature22,full_pf_a,,0
77,21026,103,,,,2,2,0.0,0.0,0.0,-1.0,,0.0-105.0,,0.0,604.0,0.0,0.37919861,1.0,0.5724849710000001,0.0,0.705638003,0.0,0.30179300600000003,False,,5f7620b93a2dd30771bb322e,,1481013,103,,evan-feature22,full_pf_a,,0
78,21027,104,,,,2,2,0.0,0.0,0.0,-1.0,,0.0-106.0,,0.0,867.0,0.0,0.464277969,1.0,0.554034373,0.0,0.7372627340000001,0.0,0.264699741,False,,5f7620b93a2dd30771bb322e,,1491694,104,,evan-feature22,full_pf_a,,0
79,21028,105,,,,2,2,0.0,0.0,0.0,-1.0,,0.0-107.0,,0.0,645.0,0.0,0.465104323,0.0,0.530793115,0.0,0.75,0.0,0.31683071,False,,5f7620b93a2dd30771bb322e,,1502173,105,,evan-feature22,full_pf_a,,0
80,21029,106,,,,2,2,1.0,0.0,1.0,0.0,,0.0-108.0,,1.0,2095.0,1.0,0.465104323,0.0,0.530793115,1.0,0.75,0.0,0.31683071,False,,5f7620b93a2dd30771bb322e,,1514123,106,,evan-feature22,full_pf_a,,0
81,21030,107,,,,2,2,1.0,0.0,1.0,0.0,,0.0-109.0,,1.0,517.0,1.0,0.46833986,1.0,0.570249239,1.0,0.7244472590000001,0.0,0.364114163,False,,5f7620b93a2dd30771bb322e,,1524483,107,,evan-feature22,full_pf_a,,0
82,21031,108,,,,2,2,1.0,0.0,1.0,0.0,,0.0-110.0,,1.0,579.0,0.0,0.445444024,1.0,0.649673355,1.0,0.6845441290000001,0.0,0.300660449,False,,5f7620b93a2dd30771bb322e,,1534893,108,,evan-feature22,full_pf_a,,0
83,21032,109,,,,2,2,1.0,1.0,1.0,0.0,,0.0-111.0,,1.0,597.0,0.0,0.39909721299999995,1.0,0.6715179509999999,1.0,0.742310028,1.0,0.35496088299999995,False,,5f7620b93a2dd30771bb322e,,1545313,109,,evan-feature22,full_pf_a,,0
84,21033,110,,,,1,1,1.0,0.0,0.0,-1.0,,0.0-112.0,,0.0,855.0,1.0,0.37956104799999996,0.0,0.694725302,1.0,0.7181651309999999,0.0,0.38726906299999997,False,,5f7620b93a2dd30771bb322e,,1556013,110,,evan-feature22,full_pf_a,,1
85,21034,111,,,,1,1,0.0,1.0,0.0,-1.0,,0.0-113.0,,-1.0,531.0,0.0,0.404995034,1.0,0.724375412,1.0,0.6910946859999999,0.0,0.387187347,False,,5f7620b93a2dd30771bb322e,,1566413,111,,evan-feature22,full_pf_a,,0
86,21035,112,,,,2,2,1.0,0.0,1.0,0.0,,0.0-114.0,,1.0,633.0,0.0,0.461740803,1.0,0.75,1.0,0.75,0.0,0.34872038200000005,False,,5f7620b93a2dd30771bb322e,,1576873,112,,evan-feature22,full_pf_a,,1
87,21036,113,,,,2,2,1.0,0.0,1.0,0.0,,0.0-115.0,,1.0,537.0,1.0,0.43821380600000004,1.0,0.738833273,1.0,0.728286963,0.0,0.399538128,False,,5f7620b93a2dd30771bb322e,,1587243,113,,evan-feature22,full_pf_a,,0
88,21037,114,,,,1,1,0.0,1.0,0.0,-1.0,,0.0-116.0,,-1.0,649.0,0.0,0.41709882,1.0,0.736666736,1.0,0.75,0.0,0.389095584,False,,5f7620b93a2dd30771bb322e,,1597762,114,,evan-feature22,full_pf_a,,1
89,21038,115,,,,2,2,1.0,1.0,0.0,-1.0,,0.0-117.0,,-1.0,463.0,1.0,0.39749009799999996,1.0,0.744320029,1.0,0.75,1.0,0.363848678,False,,5f7620b93a2dd30771bb322e,,1608073,115,,evan-feature22,full_pf_a,,1
90,21039,116,,,,1,1,0.0,0.0,1.0,0.0,,0.0-118.0,,0.0,3077.0,0.0,0.392653706,0.0,0.75,1.0,0.75,1.0,0.384386976,False,,5f7620b93a2dd30771bb322e,,1620993,116,,evan-feature22,full_pf_a,,1
91,21040,117,,,,1,1,0.0,1.0,0.0,-1.0,,0.0-119.0,,-1.0,976.0,0.0,0.31190902600000003,1.0,0.75,1.0,0.732413819,1.0,0.413082932,False,,5f7620b93a2dd30771bb322e,,1631823,117,,evan-feature22,full_pf_a,,0
92,21041,118,,,,2,2,0.0,0.0,1.0,0.0,,0.0-120.0,,0.0,1342.0,1.0,0.366917648,0.0,0.740073855,0.0,0.75,0.0,0.352861979,False,,5f7620b93a2dd30771bb322e,,1642983,118,,evan-feature22,full_pf_a,,1
93,21042,119,,,,1,1,0.0,1.0,1.0,0.0,,0.0-121.0,,0.0,419.0,0.0,0.3645172,1.0,0.721770713,1.0,0.75,0.0,0.404074511,False,,5f7620b93a2dd30771bb322e,,1653249,119,,evan-feature22,full_pf_a,,1
94,21043,120,,,,1,1,0.0,1.0,1.0,0.0,,0.0-122.0,,0.0,827.0,0.0,0.35205600299999995,1.0,0.68983859,1.0,0.739735447,0.0,0.366895945,False,,5f7620b93a2dd30771bb322e,,1663943,120,,evan-feature22,full_pf_a,,0
95,21044,121,,,,2,2,1.0,1.0,1.0,0.0,,0.0-123.0,,1.0,462.0,1.0,0.40998722600000004,1.0,0.720859127,1.0,0.673854955,1.0,0.368528541,False,,5f7620b93a2dd30771bb322e,,1674233,121,,evan-feature22,full_pf_a,,1
96,21045,122,,,,2,2,0.0,1.0,1.0,0.0,,0.0-124.0,,0.0,546.0,1.0,0.353625316,1.0,0.75,0.0,0.695605473,1.0,0.38303674200000004,False,,5f7620b93a2dd30771bb322e,,1684593,122,,evan-feature22,full_pf_a,,0
97,21046,123,,,,1,1,1.0,1.0,1.0,0.0,,0.0-125.0,,1.0,610.0,1.0,0.359216989,1.0,0.75,1.0,0.6987915090000001,1.0,0.35169046200000004,False,,5f7620b93a2dd30771bb322e,,1695074,123,,evan-feature22,full_pf_a,,1
98,21047,124,,,,1,1,0.0,1.0,1.0,0.0,,0.0-126.0,,0.0,2242.0,0.0,0.35834496899999996,1.0,0.75,1.0,0.707067742,0.0,0.416763636,False,,5f7620b93a2dd30771bb322e,,1707163,124,,evan-feature22,full_pf_a,,0
99,21048,125,,,,2,2,1.0,0.0,0.0,-1.0,,0.0-127.0,,0.0,1649.0,0.0,0.38741613799999997,1.0,0.7177369570000001,1.0,0.734902455,0.0,0.49438664299999996,False,,5f7620b93a2dd30771bb322e,,1718643,125,,evan-feature22,full_pf_a,,1
100,21049,126,,,,2,2,1.0,1.0,1.0,0.0,,0.0-128.0,,1.0,841.0,1.0,0.405255252,1.0,0.7300466640000001,1.0,0.7027748070000001,1.0,0.504359668,False,,5f7620b93a2dd30771bb322e,,1729331,126,,evan-feature22,full_pf_a,,0
101,21050,127,,,,2,2,1.0,0.0,1.0,0.0,,0.0-129.0,,1.0,587.0,1.0,0.40697073,0.0,0.7260142190000001,1.0,0.724461982,0.0,0.522779179,False,,5f7620b93a2dd30771bb322e,,1739743,127,,evan-feature22,full_pf_a,,0
102,21051,128,,,,2,2,1.0,0.0,1.0,0.0,,0.0-130.0,,1.0,390.0,0.0,0.43906215299999996,0.0,0.7252802340000001,1.0,0.719079934,0.0,0.5712990579999999,False,,5f7620b93a2dd30771bb322e,,1749963,128,,evan-feature22,full_pf_a,,0
103,21052,129,,,,2,2,0.0,0.0,0.0,-1.0,,0.0-131.0,,0.0,1781.0,0.0,0.4076705,1.0,0.73280499,0.0,0.681313127,0.0,0.523891346,False,,5f7620b93a2dd30771bb322e,,1761603,129,,evan-feature22,full_pf_a,,0
104,21053,130,,,,2,2,1.0,0.0,0.0,-1.0,,0.0-132.0,,0.0,1004.0,1.0,0.399102911,0.0,0.730498344,1.0,0.661080239,0.0,0.46742603,False,,5f7620b93a2dd30771bb322e,,1772463,130,,evan-feature22,full_pf_a,,0
105,21054,131,,,,1,1,0.0,1.0,0.0,-1.0,,0.0-133.0,,-1.0,715.0,0.0,0.356477282,1.0,0.712296395,0.0,0.641812684,0.0,0.44868414,False,,5f7620b93a2dd30771bb322e,,1783013,131,,evan-feature22,full_pf_a,,1
106,21055,132,,,,2,2,1.0,1.0,1.0,0.0,,0.0-134.0,,1.0,2858.0,1.0,0.462760722,1.0,0.692349322,1.0,0.700947931,1.0,0.394680266,False,,5f7620b93a2dd30771bb322e,,1795733,132,,evan-feature22,full_pf_a,,1
107,21056,133,,,,1,1,1.0,0.0,1.0,0.0,,0.0-135.0,,1.0,1699.0,1.0,0.422306413,0.0,0.718375916,0.0,0.706340917,1.0,0.367787185,False,,5f7620b93a2dd30771bb322e,,1807292,133,,evan-feature22,full_pf_a,,1
108,21058,135,,,,1,1,0.0,0.0,1.0,0.0,,0.0-137.0,,0.0,1522.0,0.0,0.4582233,0.0,0.643834117,1.0,0.75,1.0,0.39615823299999997,False,,5f7620b93a2dd30771bb322e,,1823563,135,,evan-feature22,full_pf_a,,0
109,21059,136,,,,2,2,1.0,1.0,1.0,0.0,,0.0-138.0,,1.0,1797.0,0.0,0.43813437899999996,1.0,0.651283804,1.0,0.729674191,1.0,0.37711048,False,,5f7620b93a2dd30771bb322e,,1835198,136,,evan-feature22,full_pf_a,,1
110,21060,137,,,,2,2,1.0,1.0,1.0,0.0,,0.0-139.0,,1.0,514.0,1.0,0.471199094,1.0,0.6470010979999999,1.0,0.715008097,1.0,0.410656191,False,,5f7620b93a2dd30771bb322e,,1845564,137,,evan-feature22,full_pf_a,,0
111,21061,138,,,,2,2,1.0,0.0,1.0,0.0,,0.0-140.0,,1.0,540.0,0.0,0.42486406,0.0,0.629771829,1.0,0.6550939960000001,0.0,0.459093873,False,,5f7620b93a2dd30771bb322e,,1855964,138,,evan-feature22,full_pf_a,,0
112,21062,139,,,,2,2,0.0,0.0,1.0,0.0,,0.0-141.0,,0.0,505.0,0.0,0.4803197,0.0,0.645842715,0.0,0.6421749920000001,0.0,0.443092151,False,,5f7620b93a2dd30771bb322e,,1866304,139,,evan-feature22,full_pf_a,,0
113,21063,140,,,,1,1,0.0,1.0,0.0,-1.0,,0.0-142.0,,-1.0,1207.0,0.0,0.521848997,1.0,0.735801074,1.0,0.6691348460000001,0.0,0.45259351600000003,False,,5f7620b93a2dd30771bb322e,,1877374,140,,evan-feature22,full_pf_a,,1
114,21064,141,,,,2,2,1.0,1.0,1.0,0.0,,0.0-143.0,,1.0,1703.0,0.0,0.49565621299999996,0.0,0.742400847,1.0,0.661512553,1.0,0.483110831,False,,5f7620b93a2dd30771bb322e,,1888933,141,,evan-feature22,full_pf_a,,1
115,21065,142,,,,2,2,1.0,0.0,1.0,0.0,,0.0-144.0,,1.0,579.0,0.0,0.521564361,0.0,0.731078632,1.0,0.6774886809999999,0.0,0.483263956,False,,5f7620b93a2dd30771bb322e,,1899343,142,,evan-feature22,full_pf_a,,0
116,21066,143,,,,2,2,1.0,1.0,1.0,0.0,,0.0-145.0,,1.0,591.0,0.0,0.558893102,0.0,0.719810023,1.0,0.67461031,1.0,0.499349834,False,,5f7620b93a2dd30771bb322e,,1909764,143,,evan-feature22,full_pf_a,,0
117,21067,144,,,,2,2,1.0,1.0,1.0,0.0,,0.0-146.0,,1.0,436.0,0.0,0.611031046,1.0,0.75,1.0,0.688072995,1.0,0.5321422729999999,False,,5f7620b93a2dd30771bb322e,,1920033,144,,evan-feature22,full_pf_a,,0
118,21068,145,,,,1,1,0.0,1.0,0.0,-1.0,,0.0-147.0,,-1.0,575.0,0.0,0.633223941,1.0,0.713567728,0.0,0.75,0.0,0.48185314700000004,False,,5f7620b93a2dd30771bb322e,,1930473,145,,evan-feature22,full_pf_a,,1
119,21069,146,,,,2,2,1.0,1.0,1.0,0.0,,0.0-148.0,,1.0,1387.0,0.0,0.664001694,1.0,0.705509768,1.0,0.75,1.0,0.500211065,False,,5f7620b93a2dd30771bb322e,,1941683,146,,evan-feature22,full_pf_a,,1
120,21070,147,,,,2,2,1.0,1.0,1.0,0.0,,0.0-149.0,,1.0,648.0,1.0,0.664001694,1.0,0.705509768,1.0,0.75,1.0,0.500211065,False,,5f7620b93a2dd30771bb322e,,1952182,147,,evan-feature22,full_pf_a,,0
121,21071,148,,,,2,2,0.0,1.0,1.0,0.0,,0.0-150.0,,0.0,497.0,1.0,0.696508041,0.0,0.71066027,0.0,0.717028709,1.0,0.49792991,False,,5f7620b93a2dd30771bb322e,,1962553,148,,evan-feature22,full_pf_a,,0
122,21072,149,,,,1,1,1.0,1.0,0.0,-1.0,,0.0-151.0,,-1.0,1492.0,1.0,0.699883272,1.0,0.75,1.0,0.713543895,0.0,0.496962643,False,,5f7620b93a2dd30771bb322e,,1973873,149,,evan-feature22,full_pf_a,,1
123,21073,150,,,,2,2,1.0,1.0,0.0,-1.0,,0.0-152.0,,-1.0,1043.0,1.0,0.741163419,1.0,0.75,1.0,0.64691024,1.0,0.513858197,False,,5f7620b93a2dd30771bb322e,,1984813,150,,evan-feature22,full_pf_a,,1
124,21074,151,,,,2,2,1.0,0.0,0.0,-1.0,,0.0-153.0,,0.0,892.0,1.0,0.75,1.0,0.70816558,1.0,0.594499079,0.0,0.48502124,False,,5f7620b93a2dd30771bb322e,,1995533,151,,evan-feature22,full_pf_a,,0
125,21075,152,,,,2,2,1.0,0.0,1.0,0.0,,0.0-154.0,,1.0,717.0,1.0,0.75,1.0,0.721848901,1.0,0.62197249,0.0,0.48263586399999997,False,,5f7620b93a2dd30771bb322e,,2006083,152,,evan-feature22,full_pf_a,,0
126,21076,153,,,,2,2,1.0,1.0,1.0,0.0,,0.0-155.0,,1.0,709.0,1.0,0.75,1.0,0.74813071,1.0,0.584357161,1.0,0.411477782,False,,5f7620b93a2dd30771bb322e,,2016622,153,,evan-feature22,full_pf_a,,0
127,21077,154,,,,2,2,1.0,1.0,1.0,0.0,,0.0-156.0,,1.0,675.0,1.0,0.75,1.0,0.75,1.0,0.52287236,1.0,0.488290656,False,,5f7620b93a2dd30771bb322e,,2027153,154,,evan-feature22,full_pf_a,,0
128,21078,155,,,,2,2,0.0,1.0,1.0,0.0,,0.0-157.0,,0.0,510.0,1.0,0.75,1.0,0.75,0.0,0.544321581,1.0,0.53143059,False,,5f7620b93a2dd30771bb322e,,2037502,155,,evan-feature22,full_pf_a,,0
129,21079,156,,,,1,1,1.0,1.0,1.0,0.0,,0.0-158.0,,1.0,1505.0,1.0,0.726754564,1.0,0.75,0.0,0.5129306370000001,0.0,0.530592445,False,,5f7620b93a2dd30771bb322e,,2048822,156,,evan-feature22,full_pf_a,,1
130,21080,157,,,,2,2,0.0,0.0,0.0,-1.0,,0.0-159.0,,0.0,501.0,1.0,0.75,1.0,0.7392590729999999,0.0,0.479875835,0.0,0.547007051,False,,5f7620b93a2dd30771bb322e,,2059132,157,,evan-feature22,full_pf_a,,1
131,21081,158,,,,2,2,1.0,1.0,0.0,-1.0,,0.0-160.0,,-1.0,659.0,1.0,0.75,0.0,0.7393376979999999,1.0,0.546045419,1.0,0.541267353,False,,5f7620b93a2dd30771bb322e,,2069653,158,,evan-feature22,full_pf_a,,0
132,21082,159,,,,2,2,0.0,0.0,1.0,0.0,,0.0-161.0,,0.0,1124.0,1.0,0.75,1.0,0.75,0.0,0.485725895,0.0,0.527625395,False,,5f7620b93a2dd30771bb322e,,2080613,159,,evan-feature22,full_pf_a,,0
133,21083,160,,,,2,2,0.0,1.0,0.0,-1.0,,0.0-162.0,,-1.0,498.0,1.0,0.75,1.0,0.725087974,0.0,0.488603595,1.0,0.504019206,False,,5f7620b93a2dd30771bb322e,,2090962,160,,evan-feature22,full_pf_a,,0
134,21084,161,,,,1,1,1.0,0.0,1.0,0.0,,0.0-163.0,,1.0,851.0,1.0,0.745504295,0.0,0.75,1.0,0.452379914,0.0,0.50131194,False,,5f7620b93a2dd30771bb322e,,2101673,161,,evan-feature22,full_pf_a,,1
135,21085,162,,,,2,2,1.0,1.0,0.0,-1.0,,0.0-164.0,,-1.0,1160.0,0.0,0.728513874,1.0,0.75,1.0,0.44125567200000004,1.0,0.531454591,False,,5f7620b93a2dd30771bb322e,,2112662,162,,evan-feature22,full_pf_a,,1
136,21086,163,,,,1,1,1.0,1.0,1.0,0.0,,0.0-165.0,,1.0,1750.0,1.0,0.73790804,1.0,0.75,1.0,0.413036656,1.0,0.524619035,False,,5f7620b93a2dd30771bb322e,,2124262,163,,evan-feature22,full_pf_a,,1
137,21087,164,,,,2,2,1.0,1.0,1.0,0.0,,0.0-166.0,,1.0,525.0,0.0,0.7080961309999999,1.0,0.708666865,1.0,0.431915581,1.0,0.481819489,False,,5f7620b93a2dd30771bb322e,,2134642,164,,evan-feature22,full_pf_a,,1
138,21088,165,,,,2,2,0.0,1.0,1.0,0.0,,0.0-167.0,,0.0,517.0,1.0,0.721378003,1.0,0.71605913,0.0,0.36642387,1.0,0.5036739929999999,False,,5f7620b93a2dd30771bb322e,,2144993,165,,evan-feature22,full_pf_a,,0
139,21089,166,,,,2,2,0.0,0.0,0.0,-1.0,,0.0-168.0,,0.0,827.0,0.0,0.7340618959999999,1.0,0.699323252,0.0,0.35298046299999997,0.0,0.511241692,False,,5f7620b93a2dd30771bb322e,,2155683,166,,evan-feature22,full_pf_a,,0
140,21090,167,,,,2,2,0.0,0.0,0.0,-1.0,,0.0-169.0,,0.0,1430.0,0.0,0.75,1.0,0.70412698,0.0,0.380734814,0.0,0.529580116,False,,5f7620b93a2dd30771bb322e,,2166972,167,,evan-feature22,full_pf_a,,0
141,21091,168,,,,2,2,0.0,0.0,0.0,-1.0,,0.0-170.0,,0.0,1553.0,1.0,0.7436654909999999,1.0,0.711182751,0.0,0.41125331,0.0,0.49554405,False,,5f7620b93a2dd30771bb322e,,2178361,168,,evan-feature22,full_pf_a,,0
142,21092,169,,,,1,1,1.0,1.0,1.0,0.0,,0.0-171.0,,1.0,1187.0,1.0,0.731607915,1.0,0.651774583,0.0,0.35688023,0.0,0.45194491600000003,False,,5f7620b93a2dd30771bb322e,,2189401,169,,evan-feature22,full_pf_a,,1
143,21093,170,,,,2,2,1.0,1.0,0.0,-1.0,,0.0-172.0,,-1.0,921.0,1.0,0.75,1.0,0.75,1.0,0.283145374,1.0,0.528608005,False,,5f7620b93a2dd30771bb322e,,2200173,170,,evan-feature22,full_pf_a,,1
144,21094,171,,,,1,1,1.0,1.0,1.0,0.0,,0.0-173.0,,1.0,687.0,1.0,0.7491416890000001,1.0,0.7423785959999999,0.0,0.29135870399999997,0.0,0.498888318,False,,5f7620b93a2dd30771bb322e,,2210712,171,,evan-feature22,full_pf_a,,1
145,21095,172,,,,2,2,0.0,0.0,0.0,-1.0,,0.0-174.0,,0.0,908.0,0.0,0.708569387,0.0,0.717682277,0.0,0.294421699,0.0,0.493838163,False,,5f7620b93a2dd30771bb322e,,2221473,172,,evan-feature22,full_pf_a,,1
146,21096,173,,,,1,1,1.0,0.0,1.0,0.0,,0.0-175.0,,1.0,714.0,1.0,0.75,0.0,0.7383382159999999,0.0,0.356098707,0.0,0.442533405,False,,5f7620b93a2dd30771bb322e,,2232021,173,,evan-feature22,full_pf_a,,1
147,21097,174,,,,1,1,1.0,1.0,1.0,0.0,,0.0-176.0,,1.0,660.0,1.0,0.744527075,1.0,0.75,0.0,0.334127506,0.0,0.393165805,False,,5f7620b93a2dd30771bb322e,,2242532,174,,evan-feature22,full_pf_a,,0
148,21098,175,,,,1,1,0.0,1.0,1.0,0.0,,0.0-177.0,,0.0,655.0,0.0,0.75,1.0,0.75,1.0,0.33571021799999995,0.0,0.350393962,False,,5f7620b93a2dd30771bb322e,,2253022,175,,evan-feature22,full_pf_a,,0
149,21099,176,,,,2,2,1.0,1.0,0.0,-1.0,,0.0-178.0,,-1.0,1290.0,1.0,0.75,1.0,0.75,1.0,0.313628297,1.0,0.36349657399999996,False,,5f7620b93a2dd30771bb322e,,2264152,176,,evan-feature22,full_pf_a,,1
150,21100,177,,,,1,1,1.0,1.0,1.0,0.0,,0.0-179.0,,1.0,1995.0,1.0,0.75,1.0,0.734284182,0.0,0.262667667,0.0,0.380199119,False,,5f7620b93a2dd30771bb322e,,2275962,177,,evan-feature22,full_pf_a,,1
151,21101,178,,,,1,1,0.0,0.0,1.0,0.0,,0.0-180.0,,0.0,509.0,0.0,0.75,0.0,0.75,0.0,0.25,0.0,0.394494013,False,,5f7620b93a2dd30771bb322e,,2286311,178,,evan-feature22,full_pf_a,,0
152,21102,179,,,,1,1,0.0,0.0,1.0,0.0,,0.0-181.0,,0.0,489.0,0.0,0.722298145,0.0,0.7357822340000001,0.0,0.25,0.0,0.319142121,False,,5f7620b93a2dd30771bb322e,,2296652,179,,evan-feature22,full_pf_a,,0
153,21103,180,,,,1,1,0.0,0.0,1.0,0.0,,0.0-182.0,,0.0,421.0,0.0,0.73149275,0.0,0.724276446,0.0,0.305856907,0.0,0.281315057,False,,5f7620b93a2dd30771bb322e,,2306921,180,,evan-feature22,full_pf_a,,0
154,21104,181,,,,1,1,1.0,0.0,1.0,0.0,,0.0-183.0,,1.0,379.0,1.0,0.7458732690000001,0.0,0.7336382459999999,0.0,0.272571964,0.0,0.266021999,False,,5f7620b93a2dd30771bb322e,,2317122,181,,evan-feature22,full_pf_a,,0
155,21105,182,,,,2,2,0.0,0.0,0.0,-1.0,,0.0-184.0,,0.0,532.0,0.0,0.705579037,0.0,0.720778292,0.0,0.320238144,0.0,0.30971744,False,,5f7620b93a2dd30771bb322e,,2327502,182,,evan-feature22,full_pf_a,,1
156,21106,183,,,,2,2,0.0,0.0,0.0,-1.0,,0.0-185.0,,0.0,583.0,1.0,0.700425648,0.0,0.7198784009999999,0.0,0.272590393,0.0,0.304182931,False,,5f7620b93a2dd30771bb322e,,2337932,183,,evan-feature22,full_pf_a,,0
157,21107,184,,,,2,2,0.0,0.0,0.0,-1.0,,0.0-186.0,,0.0,612.0,1.0,0.735590785,1.0,0.722714973,0.0,0.25,0.0,0.323421091,False,,5f7620b93a2dd30771bb322e,,2348392,184,,evan-feature22,full_pf_a,,0
158,21108,185,,,,2,2,0.0,1.0,0.0,-1.0,,0.0-187.0,,-1.0,757.0,1.0,0.724807662,0.0,0.63146213,0.0,0.36836492600000004,1.0,0.34592153299999995,False,,5f7620b93a2dd30771bb322e,,2358982,185,,evan-feature22,full_pf_a,,0
159,21109,186,,,,1,1,1.0,1.0,1.0,0.0,,0.0-188.0,,1.0,793.0,1.0,0.7352796909999999,1.0,0.555111392,0.0,0.36003922,0.0,0.31433779999999995,False,,5f7620b93a2dd30771bb322e,,2369592,186,,evan-feature22,full_pf_a,,1
160,21110,187,notice,,,,,,,,,,0.0-189.0,"{""Q0"":""The second block seemed easier/more predictable.""}",,36480.0,,,,,,,,,False,,5f7620b93a2dd30771bb322e,,2406074,187,Q,survey-text,full_pf_a,,1
161,21111,188,track1,,[0],,,,,,,,0.0-190.0,"{""Q0"":""yes""}",,5048.0,,,,,,,,,False,,5f7620b93a2dd30771bb322e,,2411124,188,Q,evan-quiz,full_pf_a,,1
162,21112,189,track2,,[1],,,,,,,,0.0-191.0,"{""Q0"":""no""}",,7996.0,,,,,,,,,False,,5f7620b93a2dd30771bb322e,,2419122,189,Q,evan-quiz,full_pf_a,,1
163,21113,190,strat,,,,,,,,,,0.0-192.0,"{""Q0"":""I loosely kept track of whether aliens were showing for each door over the past ~5 rolls.""}",,79800.0,,,,,,,,,False,,5f7620b93a2dd30771bb322e,,2498924,190,Q,survey-text,full_pf_a,,1
