,index,Unnamed: 0,Q_name,button_pressed,choice_idxs,chosen_pos,chosen_state,chosen_state_f_1_outcome,chosen_state_f_2_outcome,f_1_reward,f_2_reward,incor_questions,internal_node_id,responses,reward_received,rt,s_1_f_1_outcome,s_1_f_1_prob,s_1_f_2_outcome,s_1_f_2_prob,s_2_f_1_outcome,s_2_f_1_prob,s_2_f_2_outcome,s_2_f_2_prob,safe_first,stimulus,subjectID,success,time_elapsed,trial_index,trial_num,trial_type,version,view_history,switching
0,25,25,,,,1,1,1.0,1.0,0.0,-1.0,,0.0-27.0,,-1.0,3233.0,1.0,0.6,1.0,0.6,0.0,0.4,0.0,0.4,False,,5ba42e35984ec30001c6018d,,569817,25,,evan-feature22,full_pf_a,,0
1,26,26,,,,2,2,1.0,0.0,0.0,-1.0,,0.0-28.0,,0.0,1158.6,1.0,0.608053294,1.0,0.63424552,1.0,0.397152172,0.0,0.347069101,False,,5ba42e35984ec30001c6018d,,581174,26,,evan-feature22,full_pf_a,,1
2,27,27,,,,1,1,1.0,1.0,0.0,-1.0,,0.0-29.0,,-1.0,2632.5,1.0,0.642237155,1.0,0.648566321,1.0,0.389407674,1.0,0.285525717,False,,5ba42e35984ec30001c6018d,,594072,27,,evan-feature22,full_pf_a,,1
3,28,28,,,,2,2,1.0,1.0,0.0,-1.0,,0.0-30.0,,-1.0,1749.7,0.0,0.661086576,1.0,0.630492543,1.0,0.399058924,1.0,0.25,False,,5ba42e35984ec30001c6018d,,606042,28,,evan-feature22,full_pf_a,,1
4,29,29,,,,1,1,0.0,1.0,0.0,-1.0,,0.0-31.0,,-1.0,1282.2,0.0,0.631324137,1.0,0.6269842929999999,0.0,0.38734784299999997,0.0,0.25,False,,5ba42e35984ec30001c6018d,,617523,29,,evan-feature22,full_pf_a,,1
5,30,30,,,,2,2,0.0,1.0,0.0,-1.0,,0.0-32.0,,-1.0,2521.0,1.0,0.6381991370000001,1.0,0.68987999,0.0,0.384107265,1.0,0.271332943,False,,5ba42e35984ec30001c6018d,,630282,30,,evan-feature22,full_pf_a,,1
6,31,31,,,,2,2,0.0,0.0,0.0,-1.0,,0.0-33.0,,0.0,830.8,1.0,0.66034901,0.0,0.742641349,0.0,0.360225629,0.0,0.25,False,,5ba42e35984ec30001c6018d,,641310,31,,evan-feature22,full_pf_a,,0
7,32,32,,,,1,1,1.0,1.0,1.0,0.0,,0.0-34.0,,1.0,651.9,1.0,0.638612418,1.0,0.75,0.0,0.367273939,0.0,0.25,False,,5ba42e35984ec30001c6018d,,652140,32,,evan-feature22,full_pf_a,,1
8,33,33,,,,1,1,1.0,0.0,0.0,-1.0,,0.0-35.0,,0.0,2456.6,1.0,0.624340629,0.0,0.75,1.0,0.425829545,0.0,0.25,False,,5ba42e35984ec30001c6018d,,664611,33,,evan-feature22,full_pf_a,,0
9,34,34,,,,1,1,1.0,1.0,0.0,-1.0,,0.0-36.0,,-1.0,1328.5,1.0,0.621999804,1.0,0.75,0.0,0.368609357,0.0,0.25,False,,5ba42e35984ec30001c6018d,,675699,34,,evan-feature22,full_pf_a,,0
10,35,35,,,,2,2,1.0,0.0,1.0,0.0,,0.0-37.0,,1.0,1284.5,0.0,0.62666403,1.0,0.75,1.0,0.311151498,0.0,0.25,False,,5ba42e35984ec30001c6018d,,686761,35,,evan-feature22,full_pf_a,,1
11,36,36,,,,2,2,1.0,0.0,1.0,0.0,,0.0-38.0,,1.0,1612.4,0.0,0.6819650009999999,1.0,0.75,1.0,0.310763048,0.0,0.25,False,,5ba42e35984ec30001c6018d,,698154,36,,evan-feature22,full_pf_a,,0
12,37,37,,,,2,2,0.0,0.0,0.0,-1.0,,0.0-39.0,,0.0,2837.6,0.0,0.740626951,1.0,0.75,0.0,0.25,0.0,0.25,False,,5ba42e35984ec30001c6018d,,710752,37,,evan-feature22,full_pf_a,,0
13,38,38,,,,2,2,0.0,0.0,0.0,-1.0,,0.0-40.0,,0.0,2012.0,1.0,0.739599242,1.0,0.742034978,0.0,0.25397114600000004,0.0,0.25,False,,5ba42e35984ec30001c6018d,,722544,38,,evan-feature22,full_pf_a,,0
14,39,39,,,,2,2,1.0,0.0,0.0,-1.0,,0.0-41.0,,0.0,1310.1,0.0,0.732341315,1.0,0.72735643,1.0,0.25,0.0,0.25,False,,5ba42e35984ec30001c6018d,,733634,39,,evan-feature22,full_pf_a,,0
15,40,40,,,,2,2,0.0,1.0,0.0,-1.0,,0.0-42.0,,-1.0,1248.4,1.0,0.7062287770000001,1.0,0.75,0.0,0.29002151,1.0,0.288256649,False,,5ba42e35984ec30001c6018d,,744676,40,,evan-feature22,full_pf_a,,0
16,41,41,,,,2,2,0.0,1.0,1.0,0.0,,0.0-43.0,,0.0,1856.2,0.0,0.7086029209999999,1.0,0.75,0.0,0.274129113,1.0,0.262851608,False,,5ba42e35984ec30001c6018d,,756301,41,,evan-feature22,full_pf_a,,0
17,42,42,,,,1,1,1.0,1.0,0.0,-1.0,,0.0-44.0,,-1.0,3201.9,1.0,0.669189651,1.0,0.727614338,1.0,0.298444036,0.0,0.296944518,False,,5ba42e35984ec30001c6018d,,769258,42,,evan-feature22,full_pf_a,,1
18,43,43,,,,2,2,0.0,0.0,1.0,0.0,,0.0-45.0,,0.0,904.0,0.0,0.6819912929999999,1.0,0.7179434290000001,0.0,0.265003961,0.0,0.28157921199999997,False,,5ba42e35984ec30001c6018d,,779926,43,,evan-feature22,full_pf_a,,1
19,44,44,,,,2,2,1.0,0.0,1.0,0.0,,0.0-46.0,,1.0,994.2,0.0,0.665275002,0.0,0.723065271,1.0,0.260414971,0.0,0.30973870000000003,False,,5ba42e35984ec30001c6018d,,790691,44,,evan-feature22,full_pf_a,,0
20,45,45,,,,2,2,0.0,0.0,0.0,-1.0,,0.0-47.0,,0.0,2166.1,0.0,0.6660593260000001,1.0,0.728032907,0.0,0.30922817,0.0,0.338778608,False,,5ba42e35984ec30001c6018d,,802616,45,,evan-feature22,full_pf_a,,0
21,46,46,,,,2,2,0.0,1.0,0.0,-1.0,,0.0-48.0,,-1.0,1272.0,0.0,0.702068785,1.0,0.6528750879999999,0.0,0.287329608,1.0,0.35789613200000003,False,,5ba42e35984ec30001c6018d,,813689,46,,evan-feature22,full_pf_a,,0
22,47,47,,,,2,2,0.0,0.0,0.0,-1.0,,0.0-49.0,,0.0,493.3,1.0,0.651939787,1.0,0.636725589,0.0,0.284834488,0.0,0.358563756,False,,5ba42e35984ec30001c6018d,,823947,47,,evan-feature22,full_pf_a,,0
23,48,48,,,,2,2,1.0,1.0,0.0,-1.0,,0.0-50.0,,-1.0,1025.8,0.0,0.67573929,1.0,0.612550049,1.0,0.37130387600000003,1.0,0.383542402,False,,5ba42e35984ec30001c6018d,,834756,48,,evan-feature22,full_pf_a,,0
24,49,49,,,,1,1,0.0,0.0,0.0,-1.0,,0.0-51.0,,0.0,1791.8,0.0,0.620753801,0.0,0.60513644,0.0,0.385529434,1.0,0.340361743,False,,5ba42e35984ec30001c6018d,,846312,49,,evan-feature22,full_pf_a,,1
25,50,50,,,,1,1,1.0,1.0,1.0,0.0,,0.0-52.0,,1.0,1594.6,1.0,0.673564893,1.0,0.672437924,1.0,0.292955382,0.0,0.337633795,False,,5ba42e35984ec30001c6018d,,857697,50,,evan-feature22,full_pf_a,,0
26,51,51,,,,1,1,1.0,1.0,0.0,-1.0,,0.0-53.0,,-1.0,3638.1,1.0,0.6749427,1.0,0.724197502,1.0,0.32391132100000003,0.0,0.350995264,False,,5ba42e35984ec30001c6018d,,871089,51,,evan-feature22,full_pf_a,,0
27,52,52,,,,2,2,1.0,1.0,0.0,-1.0,,0.0-54.0,,-1.0,1006.3,1.0,0.6940159379999999,1.0,0.75,1.0,0.31710554399999996,1.0,0.413450341,False,,5ba42e35984ec30001c6018d,,881851,52,,evan-feature22,full_pf_a,,1
28,53,53,,,,2,2,0.0,0.0,0.0,-1.0,,0.0-55.0,,0.0,1019.8,0.0,0.6916018270000001,1.0,0.69001187,0.0,0.261817804,0.0,0.40038635,False,,5ba42e35984ec30001c6018d,,892625,53,,evan-feature22,full_pf_a,,0
29,54,54,,,,2,2,0.0,1.0,0.0,-1.0,,0.0-56.0,,-1.0,3214.7,0.0,0.641061544,1.0,0.71337992,0.0,0.277296461,1.0,0.47372791700000005,False,,5ba42e35984ec30001c6018d,,905598,54,,evan-feature22,full_pf_a,,0
30,55,55,,,,1,1,0.0,1.0,0.0,-1.0,,0.0-57.0,,-1.0,1492.3,0.0,0.6082438520000001,1.0,0.708471106,0.0,0.28745137,0.0,0.564174476,False,,5ba42e35984ec30001c6018d,,916854,55,,evan-feature22,full_pf_a,,1
31,56,56,,,,2,2,0.0,1.0,1.0,0.0,,0.0-58.0,,0.0,609.8,0.0,0.6051112120000001,1.0,0.7118147229999999,0.0,0.272390611,1.0,0.5595149939999999,False,,5ba42e35984ec30001c6018d,,927260,56,,evan-feature22,full_pf_a,,1
32,57,57,,,,2,2,1.0,1.0,1.0,0.0,,0.0-59.0,,1.0,2465.7,1.0,0.582420852,1.0,0.635867583,1.0,0.31089574,1.0,0.5227206520000001,False,,5ba42e35984ec30001c6018d,,939515,57,,evan-feature22,full_pf_a,,0
33,58,58,,,,2,2,0.0,1.0,1.0,0.0,,0.0-60.0,,0.0,824.9,1.0,0.623195575,1.0,0.655026044,0.0,0.25,1.0,0.560387538,False,,5ba42e35984ec30001c6018d,,950114,58,,evan-feature22,full_pf_a,,0
34,59,59,,,,2,2,1.0,0.0,0.0,-1.0,,0.0-61.0,,0.0,681.7,1.0,0.601889598,0.0,0.678198724,1.0,0.25,0.0,0.559922936,False,,5ba42e35984ec30001c6018d,,960574,59,,evan-feature22,full_pf_a,,0
35,60,60,,,,2,2,0.0,1.0,1.0,0.0,,0.0-62.0,,0.0,1374.2,1.0,0.601259914,1.0,0.704681482,0.0,0.33908969299999997,1.0,0.505003715,False,,5ba42e35984ec30001c6018d,,971713,60,,evan-feature22,full_pf_a,,0
36,61,61,,,,1,1,1.0,1.0,1.0,0.0,,0.0-63.0,,1.0,1783.1,1.0,0.59645454,1.0,0.710437172,1.0,0.327441879,0.0,0.391749613,False,,5ba42e35984ec30001c6018d,,983255,61,,evan-feature22,full_pf_a,,1
37,62,62,,,,1,1,0.0,1.0,0.0,-1.0,,0.0-64.0,,-1.0,3583.3,0.0,0.529473,1.0,0.636758527,0.0,0.301338063,1.0,0.365661481,False,,5ba42e35984ec30001c6018d,,996582,62,,evan-feature22,full_pf_a,,0
38,63,63,,,,1,1,0.0,1.0,1.0,0.0,,0.0-65.0,,0.0,1802.6,0.0,0.541657162,1.0,0.634541962,1.0,0.343535366,0.0,0.371763742,False,,5ba42e35984ec30001c6018d,,1008162,63,,evan-feature22,full_pf_a,,0
39,64,64,,,,2,2,0.0,0.0,1.0,0.0,,0.0-66.0,,0.0,811.4,1.0,0.5707533260000001,0.0,0.589121171,0.0,0.326428396,0.0,0.43961622899999997,False,,5ba42e35984ec30001c6018d,,1018740,64,,evan-feature22,full_pf_a,,1
40,65,65,,,,1,1,0.0,1.0,0.0,-1.0,,0.0-67.0,,-1.0,2352.9,0.0,0.5707533260000001,1.0,0.589121171,1.0,0.326428396,1.0,0.43961622899999997,False,,5ba42e35984ec30001c6018d,,1030844,65,,evan-feature22,full_pf_a,,1
41,66,66,,,,1,1,0.0,1.0,0.0,-1.0,,0.0-68.0,,-1.0,1248.7,0.0,0.506271295,1.0,0.641775594,0.0,0.37149690700000004,0.0,0.404330166,False,,5ba42e35984ec30001c6018d,,1041904,66,,evan-feature22,full_pf_a,,0
42,67,67,,,,2,2,0.0,1.0,1.0,0.0,,0.0-69.0,,0.0,1224.1,1.0,0.455642565,1.0,0.623605825,0.0,0.358753011,1.0,0.346174041,False,,5ba42e35984ec30001c6018d,,1052923,67,,evan-feature22,full_pf_a,,1
43,68,68,,,,2,2,1.0,0.0,0.0,-1.0,,0.0-70.0,,0.0,2637.8,0.0,0.483677308,0.0,0.5904681070000001,1.0,0.402218411,0.0,0.35344697,False,,5ba42e35984ec30001c6018d,,1065346,68,,evan-feature22,full_pf_a,,0
44,69,69,,,,2,2,0.0,1.0,1.0,0.0,,0.0-71.0,,0.0,2248.6,0.0,0.394210977,1.0,0.558925494,0.0,0.540052017,1.0,0.35182128700000004,False,,5ba42e35984ec30001c6018d,,1077371,69,,evan-feature22,full_pf_a,,0
45,70,70,,,,1,1,1.0,1.0,0.0,-1.0,,0.0-72.0,,-1.0,2155.1,1.0,0.382300414,1.0,0.577670603,1.0,0.607608448,1.0,0.378261578,False,,5ba42e35984ec30001c6018d,,1089310,70,,evan-feature22,full_pf_a,,1
46,71,71,,,,1,1,1.0,0.0,1.0,0.0,,0.0-73.0,,1.0,679.4,1.0,0.357596762,0.0,0.5929076529999999,1.0,0.6579790010000001,1.0,0.401326777,False,,5ba42e35984ec30001c6018d,,1099762,71,,evan-feature22,full_pf_a,,0
47,72,72,,,,1,1,1.0,0.0,0.0,-1.0,,0.0-74.0,,0.0,1650.5,1.0,0.362033495,0.0,0.582308608,0.0,0.649195052,1.0,0.355158505,False,,5ba42e35984ec30001c6018d,,1111179,72,,evan-feature22,full_pf_a,,0
48,73,73,,,,1,1,0.0,1.0,0.0,-1.0,,0.0-75.0,,-1.0,2598.5,0.0,0.369620635,1.0,0.669100864,1.0,0.706059111,0.0,0.362516241,False,,5ba42e35984ec30001c6018d,,1123532,73,,evan-feature22,full_pf_a,,0
49,74,74,,,,1,1,0.0,1.0,0.0,-1.0,,0.0-76.0,,-1.0,3954.0,0.0,0.41477751399999996,1.0,0.7284416779999999,1.0,0.7182656940000001,0.0,0.36228040899999997,False,,5ba42e35984ec30001c6018d,,1137255,74,,evan-feature22,full_pf_a,,0
50,75,75,,,,2,2,1.0,1.0,1.0,0.0,,0.0-77.0,,1.0,840.3,1.0,0.37675460299999997,0.0,0.703250285,1.0,0.75,1.0,0.461979164,False,,5ba42e35984ec30001c6018d,,1147862,75,,evan-feature22,full_pf_a,,1
51,76,76,,,,2,2,1.0,1.0,1.0,0.0,,0.0-78.0,,1.0,1239.6,0.0,0.398716075,1.0,0.6723864890000001,1.0,0.674153818,1.0,0.519029516,False,,5ba42e35984ec30001c6018d,,1158899,76,,evan-feature22,full_pf_a,,0
52,77,77,,,,2,2,1.0,0.0,1.0,0.0,,0.0-79.0,,1.0,1097.4,1.0,0.34677856700000004,1.0,0.69057175,1.0,0.6822438540000001,0.0,0.477292237,False,,5ba42e35984ec30001c6018d,,1169789,77,,evan-feature22,full_pf_a,,0
53,78,78,,,,2,2,1.0,0.0,0.0,-1.0,,0.0-80.0,,0.0,1218.3,0.0,0.28580469199999997,0.0,0.68408818,1.0,0.684207565,0.0,0.49780448299999996,False,,5ba42e35984ec30001c6018d,,1180781,78,,evan-feature22,full_pf_a,,0
54,80,80,,,,2,2,1.0,1.0,0.0,-1.0,,0.0-82.0,,-1.0,1363.6,0.0,0.25,1.0,0.7405808970000001,1.0,0.679614108,1.0,0.436436964,False,,5ba42e35984ec30001c6018d,,1195955,80,,evan-feature22,full_pf_a,,0
55,81,81,,,,2,2,0.0,0.0,0.0,-1.0,,0.0-83.0,,0.0,1439.1,0.0,0.29890393,1.0,0.730505706,0.0,0.7328203320000001,0.0,0.439256938,False,,5ba42e35984ec30001c6018d,,1207190,81,,evan-feature22,full_pf_a,,0
56,82,82,,,,2,2,1.0,1.0,1.0,0.0,,0.0-84.0,,1.0,1294.1,1.0,0.326762398,1.0,0.7148059609999999,1.0,0.75,1.0,0.44389608799999997,False,,5ba42e35984ec30001c6018d,,1218253,82,,evan-feature22,full_pf_a,,0
57,83,83,,,,2,2,0.0,1.0,0.0,-1.0,,0.0-85.0,,-1.0,1518.7,1.0,0.295168515,1.0,0.739760854,0.0,0.719947008,1.0,0.35277284600000003,False,,5ba42e35984ec30001c6018d,,1229559,83,,evan-feature22,full_pf_a,,0
58,84,84,,,,2,2,1.0,1.0,0.0,-1.0,,0.0-86.0,,-1.0,1114.9,0.0,0.25,1.0,0.70781482,1.0,0.75,1.0,0.286095925,False,,5ba42e35984ec30001c6018d,,1240451,84,,evan-feature22,full_pf_a,,0
59,85,85,,,,2,2,1.0,1.0,0.0,-1.0,,0.0-87.0,,-1.0,1821.2,0.0,0.25638190899999996,1.0,0.704088163,1.0,0.75,1.0,0.26872601399999996,False,,5ba42e35984ec30001c6018d,,1252028,85,,evan-feature22,full_pf_a,,0
60,86,86,,,,2,2,1.0,1.0,1.0,0.0,,0.0-88.0,,1.0,1082.8,0.0,0.271581126,1.0,0.669760107,1.0,0.733896663,1.0,0.273244572,False,,5ba42e35984ec30001c6018d,,1262886,86,,evan-feature22,full_pf_a,,0
61,87,87,,,,2,2,1.0,1.0,0.0,-1.0,,0.0-89.0,,-1.0,1807.0,0.0,0.257144401,1.0,0.600575706,1.0,0.74488122,1.0,0.25,False,,5ba42e35984ec30001c6018d,,1274470,87,,evan-feature22,full_pf_a,,0
62,88,88,,,,2,2,1.0,1.0,0.0,-1.0,,0.0-90.0,,-1.0,2567.8,0.0,0.25,0.0,0.616870026,1.0,0.723610234,1.0,0.25,False,,5ba42e35984ec30001c6018d,,1286813,88,,evan-feature22,full_pf_a,,0
63,89,89,,,,2,2,1.0,0.0,1.0,0.0,,0.0-91.0,,1.0,1919.4,0.0,0.25,0.0,0.583540187,1.0,0.7041042559999999,0.0,0.285961995,False,,5ba42e35984ec30001c6018d,,1298502,89,,evan-feature22,full_pf_a,,0
64,90,90,,,,2,2,0.0,0.0,1.0,0.0,,0.0-92.0,,0.0,965.1,0.0,0.27254536,0.0,0.53875765,0.0,0.693783448,0.0,0.284961652,False,,5ba42e35984ec30001c6018d,,1309245,90,,evan-feature22,full_pf_a,,0
65,91,91,,,,2,2,1.0,0.0,1.0,0.0,,0.0-93.0,,1.0,941.8,0.0,0.25,1.0,0.548431252,1.0,0.734221895,0.0,0.279445214,False,,5ba42e35984ec30001c6018d,,1319991,91,,evan-feature22,full_pf_a,,0
66,92,92,,,,2,2,1.0,0.0,0.0,-1.0,,0.0-94.0,,0.0,1023.3,0.0,0.258640684,0.0,0.545878066,1.0,0.725245965,0.0,0.31487537,False,,5ba42e35984ec30001c6018d,,1330782,92,,evan-feature22,full_pf_a,,0
67,93,93,,,,2,2,1.0,1.0,0.0,-1.0,,0.0-95.0,,-1.0,1089.8,1.0,0.251103711,1.0,0.5776290629999999,1.0,0.696320133,1.0,0.317831047,False,,5ba42e35984ec30001c6018d,,1341642,93,,evan-feature22,full_pf_a,,0
68,94,94,,,,2,2,1.0,0.0,0.0,-1.0,,0.0-96.0,,0.0,3799.3,0.0,0.276630292,1.0,0.617329858,1.0,0.73838088,0.0,0.261471582,False,,5ba42e35984ec30001c6018d,,1355195,94,,evan-feature22,full_pf_a,,0
69,95,95,,,,2,2,1.0,0.0,0.0,-1.0,,0.0-97.0,,0.0,849.2,0.0,0.297716424,1.0,0.618863717,1.0,0.7402358259999999,0.0,0.262600834,False,,5ba42e35984ec30001c6018d,,1365821,95,,evan-feature22,full_pf_a,,0
70,96,96,,,,2,2,1.0,0.0,1.0,0.0,,0.0-98.0,,1.0,1145.4,0.0,0.290935512,0.0,0.695370945,1.0,0.706570507,0.0,0.280030553,False,,5ba42e35984ec30001c6018d,,1376761,96,,evan-feature22,full_pf_a,,0
71,97,97,,,,2,2,1.0,1.0,0.0,-1.0,,0.0-99.0,,-1.0,1906.6,0.0,0.25,1.0,0.6465277079999999,1.0,0.67766682,1.0,0.25,False,,5ba42e35984ec30001c6018d,,1388514,97,,evan-feature22,full_pf_a,,0
72,98,98,,,,SLOW,SLOW,,,1.0,0.0,,0.0-100.0,,-3.0,,0.0,0.26463816,1.0,0.636100213,0.0,0.646048507,0.0,0.265607101,False,,5ba42e35984ec30001c6018d,,1394372,98,,evan-feature22,full_pf_a,,1
73,99,99,,,,2,2,0.0,1.0,1.0,0.0,,0.0-101.0,,0.0,1113.3,0.0,0.314340707,0.0,0.667795927,0.0,0.613630805,1.0,0.25,False,,5ba42e35984ec30001c6018d,,1405359,99,,evan-feature22,full_pf_a,,1
74,100,100,,,,2,2,1.0,0.0,0.0,-1.0,,0.0-102.0,,0.0,1041.9,0.0,0.28685784,1.0,0.6622549529999999,1.0,0.652154117,0.0,0.25,False,,5ba42e35984ec30001c6018d,,1416269,100,,evan-feature22,full_pf_a,,0
75,101,101,,,,2,2,1.0,0.0,0.0,-1.0,,0.0-103.0,,0.0,1143.4,1.0,0.304106554,1.0,0.631289538,1.0,0.707041942,0.0,0.29314237,False,,5ba42e35984ec30001c6018d,,1427269,101,,evan-feature22,full_pf_a,,0
76,102,102,,,,2,2,1.0,1.0,0.0,-1.0,,0.0-104.0,,-1.0,793.2,0.0,0.304806932,1.0,0.571167718,1.0,0.680472346,1.0,0.25,False,,5ba42e35984ec30001c6018d,,1437936,102,,evan-feature22,full_pf_a,,0
77,103,103,,,,2,2,1.0,1.0,0.0,-1.0,,0.0-105.0,,-1.0,1591.0,0.0,0.37919861,0.0,0.5724849710000001,1.0,0.705638003,1.0,0.30179300600000003,False,,5ba42e35984ec30001c6018d,,1449382,103,,evan-feature22,full_pf_a,,0
78,104,104,,,,2,2,1.0,0.0,0.0,-1.0,,0.0-106.0,,0.0,2074.6,1.0,0.464277969,1.0,0.554034373,1.0,0.7372627340000001,0.0,0.264699741,False,,5ba42e35984ec30001c6018d,,1461317,104,,evan-feature22,full_pf_a,,0
79,105,105,,,,2,2,1.0,0.0,0.0,-1.0,,0.0-107.0,,0.0,1368.2,0.0,0.465104323,0.0,0.530793115,1.0,0.75,0.0,0.31683071,False,,5ba42e35984ec30001c6018d,,1472531,105,,evan-feature22,full_pf_a,,0
80,106,106,,,,2,2,1.0,0.0,1.0,0.0,,0.0-108.0,,1.0,834.2,0.0,0.465104323,0.0,0.530793115,1.0,0.75,0.0,0.31683071,False,,5ba42e35984ec30001c6018d,,1483210,106,,evan-feature22,full_pf_a,,0
81,107,107,,,,2,2,0.0,0.0,1.0,0.0,,0.0-109.0,,0.0,1136.6,0.0,0.46833986,1.0,0.570249239,0.0,0.7244472590000001,0.0,0.364114163,False,,5ba42e35984ec30001c6018d,,1494200,107,,evan-feature22,full_pf_a,,0
82,108,108,,,,2,2,0.0,0.0,1.0,0.0,,0.0-110.0,,0.0,590.7,1.0,0.445444024,1.0,0.649673355,0.0,0.6845441290000001,0.0,0.300660449,False,,5ba42e35984ec30001c6018d,,1504657,108,,evan-feature22,full_pf_a,,0
83,109,109,,,,1,1,0.0,1.0,1.0,0.0,,0.0-111.0,,0.0,798.3,0.0,0.39909721299999995,1.0,0.6715179509999999,1.0,0.742310028,0.0,0.35496088299999995,False,,5ba42e35984ec30001c6018d,,1515297,109,,evan-feature22,full_pf_a,,1
84,110,110,,,,2,2,0.0,0.0,0.0,-1.0,,0.0-112.0,,0.0,1832.3,0.0,0.37956104799999996,1.0,0.694725302,0.0,0.7181651309999999,0.0,0.38726906299999997,False,,5ba42e35984ec30001c6018d,,1527006,110,,evan-feature22,full_pf_a,,1
85,111,111,,,,2,2,0.0,0.0,0.0,-1.0,,0.0-113.0,,0.0,1253.4,0.0,0.404995034,1.0,0.724375412,0.0,0.6910946859999999,0.0,0.387187347,False,,5ba42e35984ec30001c6018d,,1538135,111,,evan-feature22,full_pf_a,,0
86,112,112,,,,2,2,1.0,0.0,1.0,0.0,,0.0-114.0,,1.0,812.3,1.0,0.461740803,1.0,0.75,1.0,0.75,0.0,0.34872038200000005,False,,5ba42e35984ec30001c6018d,,1548817,112,,evan-feature22,full_pf_a,,0
87,113,113,,,,2,2,1.0,0.0,1.0,0.0,,0.0-115.0,,1.0,2303.1,1.0,0.43821380600000004,1.0,0.738833273,1.0,0.728286963,0.0,0.399538128,False,,5ba42e35984ec30001c6018d,,1560989,113,,evan-feature22,full_pf_a,,0
88,114,114,,,,2,2,0.0,1.0,0.0,-1.0,,0.0-116.0,,-1.0,1942.9,1.0,0.41709882,1.0,0.736666736,0.0,0.75,1.0,0.389095584,False,,5ba42e35984ec30001c6018d,,1572788,114,,evan-feature22,full_pf_a,,0
89,115,115,,,,1,1,1.0,1.0,0.0,-1.0,,0.0-117.0,,-1.0,860.0,1.0,0.39749009799999996,1.0,0.744320029,1.0,0.75,1.0,0.363848678,False,,5ba42e35984ec30001c6018d,,1583495,115,,evan-feature22,full_pf_a,,1
90,116,116,,,,1,1,1.0,1.0,1.0,0.0,,0.0-118.0,,1.0,885.9,1.0,0.392653706,1.0,0.75,1.0,0.75,0.0,0.384386976,False,,5ba42e35984ec30001c6018d,,1594227,116,,evan-feature22,full_pf_a,,0
91,117,117,,,,2,2,0.0,1.0,0.0,-1.0,,0.0-119.0,,-1.0,2836.2,0.0,0.31190902600000003,1.0,0.75,0.0,0.732413819,1.0,0.413082932,False,,5ba42e35984ec30001c6018d,,1606954,117,,evan-feature22,full_pf_a,,1
92,118,118,,,,1,1,1.0,1.0,1.0,0.0,,0.0-120.0,,1.0,2256.2,1.0,0.366917648,1.0,0.740073855,0.0,0.75,1.0,0.352861979,False,,5ba42e35984ec30001c6018d,,1619097,118,,evan-feature22,full_pf_a,,1
93,119,119,,,,1,1,0.0,0.0,1.0,0.0,,0.0-121.0,,0.0,1244.5,0.0,0.3645172,0.0,0.721770713,1.0,0.75,0.0,0.404074511,False,,5ba42e35984ec30001c6018d,,1630205,119,,evan-feature22,full_pf_a,,0
94,120,120,,,,1,1,0.0,1.0,1.0,0.0,,0.0-122.0,,0.0,1503.7,0.0,0.35205600299999995,1.0,0.68983859,0.0,0.739735447,0.0,0.366895945,False,,5ba42e35984ec30001c6018d,,1641592,120,,evan-feature22,full_pf_a,,0
95,121,121,,,,2,2,0.0,0.0,1.0,0.0,,0.0-123.0,,0.0,689.5,1.0,0.40998722600000004,1.0,0.720859127,0.0,0.673854955,0.0,0.368528541,False,,5ba42e35984ec30001c6018d,,1652153,121,,evan-feature22,full_pf_a,,1
96,122,122,,,,2,2,1.0,0.0,1.0,0.0,,0.0-124.0,,1.0,1003.7,0.0,0.353625316,1.0,0.75,1.0,0.695605473,0.0,0.38303674200000004,False,,5ba42e35984ec30001c6018d,,1663016,122,,evan-feature22,full_pf_a,,0
97,123,123,,,,2,2,0.0,0.0,1.0,0.0,,0.0-125.0,,0.0,1110.2,0.0,0.359216989,1.0,0.75,0.0,0.6987915090000001,0.0,0.35169046200000004,False,,5ba42e35984ec30001c6018d,,1673980,123,,evan-feature22,full_pf_a,,0
98,124,124,,,,2,2,1.0,0.0,1.0,0.0,,0.0-126.0,,1.0,626.4,0.0,0.35834496899999996,1.0,0.75,1.0,0.707067742,0.0,0.416763636,False,,5ba42e35984ec30001c6018d,,1684460,124,,evan-feature22,full_pf_a,,0
99,125,125,,,,2,2,1.0,0.0,0.0,-1.0,,0.0-127.0,,0.0,1346.9,1.0,0.38741613799999997,1.0,0.7177369570000001,1.0,0.734902455,0.0,0.49438664299999996,False,,5ba42e35984ec30001c6018d,,1695610,125,,evan-feature22,full_pf_a,,0
100,126,126,,,,2,2,1.0,0.0,1.0,0.0,,0.0-128.0,,1.0,652.3,1.0,0.405255252,1.0,0.7300466640000001,1.0,0.7027748070000001,0.0,0.504359668,False,,5ba42e35984ec30001c6018d,,1706058,126,,evan-feature22,full_pf_a,,0
101,127,127,,,,2,2,1.0,0.0,1.0,0.0,,0.0-129.0,,1.0,3876.7,0.0,0.40697073,1.0,0.7260142190000001,1.0,0.724461982,0.0,0.522779179,False,,5ba42e35984ec30001c6018d,,1719747,127,,evan-feature22,full_pf_a,,0
102,128,128,,,,2,2,0.0,1.0,1.0,0.0,,0.0-130.0,,0.0,682.7,0.0,0.43906215299999996,1.0,0.7252802340000001,0.0,0.719079934,1.0,0.5712990579999999,False,,5ba42e35984ec30001c6018d,,1730246,128,,evan-feature22,full_pf_a,,0
103,129,129,,,,2,2,1.0,0.0,0.0,-1.0,,0.0-131.0,,0.0,642.9,0.0,0.4076705,0.0,0.73280499,1.0,0.681313127,0.0,0.523891346,False,,5ba42e35984ec30001c6018d,,1740707,129,,evan-feature22,full_pf_a,,0
104,130,130,,,,2,2,1.0,0.0,0.0,-1.0,,0.0-132.0,,0.0,751.0,1.0,0.399102911,1.0,0.730498344,1.0,0.661080239,0.0,0.46742603,False,,5ba42e35984ec30001c6018d,,1751265,130,,evan-feature22,full_pf_a,,0
105,131,131,,,,2,2,1.0,0.0,0.0,-1.0,,0.0-133.0,,0.0,736.6,0.0,0.356477282,1.0,0.712296395,1.0,0.641812684,0.0,0.44868414,False,,5ba42e35984ec30001c6018d,,1761810,131,,evan-feature22,full_pf_a,,0
106,132,132,,,,2,2,1.0,0.0,1.0,0.0,,0.0-134.0,,1.0,773.2,0.0,0.462760722,0.0,0.692349322,1.0,0.700947931,0.0,0.394680266,False,,5ba42e35984ec30001c6018d,,1772409,132,,evan-feature22,full_pf_a,,0
107,133,133,,,,2,2,1.0,1.0,1.0,0.0,,0.0-135.0,,1.0,873.6,1.0,0.422306413,0.0,0.718375916,1.0,0.706340917,1.0,0.367787185,False,,5ba42e35984ec30001c6018d,,1783068,133,,evan-feature22,full_pf_a,,0
108,135,135,,,,2,2,1.0,1.0,1.0,0.0,,0.0-137.0,,1.0,825.9,1.0,0.4582233,0.0,0.643834117,1.0,0.75,1.0,0.39615823299999997,False,,5ba42e35984ec30001c6018d,,1797338,135,,evan-feature22,full_pf_a,,0
109,136,136,,,,2,2,1.0,0.0,1.0,0.0,,0.0-138.0,,1.0,790.5,0.0,0.43813437899999996,1.0,0.651283804,1.0,0.729674191,0.0,0.37711048,False,,5ba42e35984ec30001c6018d,,1807947,136,,evan-feature22,full_pf_a,,0
110,137,137,,,,2,2,1.0,1.0,1.0,0.0,,0.0-139.0,,1.0,528.2,1.0,0.471199094,0.0,0.6470010979999999,1.0,0.715008097,1.0,0.410656191,False,,5ba42e35984ec30001c6018d,,1818290,137,,evan-feature22,full_pf_a,,0
111,138,138,,,,2,2,1.0,1.0,1.0,0.0,,0.0-140.0,,1.0,713.7,1.0,0.42486406,1.0,0.629771829,1.0,0.6550939960000001,1.0,0.459093873,False,,5ba42e35984ec30001c6018d,,1828830,138,,evan-feature22,full_pf_a,,0
112,139,139,,,,2,2,1.0,0.0,1.0,0.0,,0.0-141.0,,1.0,1202.5,0.0,0.4803197,1.0,0.645842715,1.0,0.6421749920000001,0.0,0.443092151,False,,5ba42e35984ec30001c6018d,,1839861,139,,evan-feature22,full_pf_a,,0
113,140,140,,,,2,2,1.0,1.0,0.0,-1.0,,0.0-142.0,,-1.0,1239.9,1.0,0.521848997,1.0,0.735801074,1.0,0.6691348460000001,1.0,0.45259351600000003,False,,5ba42e35984ec30001c6018d,,1850907,140,,evan-feature22,full_pf_a,,0
114,141,141,,,,2,2,0.0,1.0,1.0,0.0,,0.0-143.0,,0.0,651.0,1.0,0.49565621299999996,1.0,0.742400847,0.0,0.661512553,1.0,0.483110831,False,,5ba42e35984ec30001c6018d,,1861382,141,,evan-feature22,full_pf_a,,0
115,142,142,,,,1,1,0.0,1.0,1.0,0.0,,0.0-144.0,,0.0,1316.5,0.0,0.521564361,1.0,0.731078632,0.0,0.6774886809999999,1.0,0.483263956,False,,5ba42e35984ec30001c6018d,,1872511,142,,evan-feature22,full_pf_a,,1
116,143,143,,,,1,1,1.0,1.0,1.0,0.0,,0.0-145.0,,1.0,1320.6,1.0,0.558893102,1.0,0.719810023,1.0,0.67461031,0.0,0.499349834,False,,5ba42e35984ec30001c6018d,,1883641,143,,evan-feature22,full_pf_a,,0
117,144,144,,,,1,1,0.0,1.0,1.0,0.0,,0.0-146.0,,0.0,1099.9,0.0,0.611031046,1.0,0.75,0.0,0.688072995,0.0,0.5321422729999999,False,,5ba42e35984ec30001c6018d,,1894553,144,,evan-feature22,full_pf_a,,0
118,145,145,,,,2,2,1.0,0.0,0.0,-1.0,,0.0-147.0,,0.0,1992.8,1.0,0.633223941,1.0,0.713567728,1.0,0.75,0.0,0.48185314700000004,False,,5ba42e35984ec30001c6018d,,1906349,145,,evan-feature22,full_pf_a,,1
119,146,146,,,,1,1,0.0,0.0,1.0,0.0,,0.0-148.0,,0.0,2039.8,0.0,0.664001694,0.0,0.705509768,1.0,0.75,1.0,0.500211065,False,,5ba42e35984ec30001c6018d,,1918197,146,,evan-feature22,full_pf_a,,1
120,147,147,,,,2,2,1.0,1.0,1.0,0.0,,0.0-149.0,,1.0,861.3,1.0,0.664001694,1.0,0.705509768,1.0,0.75,1.0,0.500211065,False,,5ba42e35984ec30001c6018d,,1928859,147,,evan-feature22,full_pf_a,,1
121,148,148,,,,2,2,0.0,0.0,1.0,0.0,,0.0-150.0,,0.0,1666.0,1.0,0.696508041,0.0,0.71066027,0.0,0.717028709,0.0,0.49792991,False,,5ba42e35984ec30001c6018d,,1940352,148,,evan-feature22,full_pf_a,,0
122,149,149,,,,2,2,0.0,1.0,0.0,-1.0,,0.0-151.0,,-1.0,1238.3,1.0,0.699883272,0.0,0.75,0.0,0.713543895,1.0,0.496962643,False,,5ba42e35984ec30001c6018d,,1951426,149,,evan-feature22,full_pf_a,,0
123,150,150,,,,2,2,0.0,0.0,0.0,-1.0,,0.0-152.0,,0.0,1963.4,1.0,0.741163419,0.0,0.75,0.0,0.64691024,0.0,0.513858197,False,,5ba42e35984ec30001c6018d,,1963176,150,,evan-feature22,full_pf_a,,0
124,151,151,,,,2,2,1.0,1.0,0.0,-1.0,,0.0-153.0,,-1.0,894.2,1.0,0.75,1.0,0.70816558,1.0,0.594499079,1.0,0.48502124,False,,5ba42e35984ec30001c6018d,,1973886,151,,evan-feature22,full_pf_a,,0
125,152,152,,,,1,1,1.0,1.0,1.0,0.0,,0.0-154.0,,1.0,2022.3,1.0,0.75,1.0,0.721848901,1.0,0.62197249,0.0,0.48263586399999997,False,,5ba42e35984ec30001c6018d,,1985729,152,,evan-feature22,full_pf_a,,1
126,153,153,,,,1,1,1.0,1.0,1.0,0.0,,0.0-155.0,,1.0,759.4,1.0,0.75,1.0,0.74813071,1.0,0.584357161,1.0,0.411477782,False,,5ba42e35984ec30001c6018d,,1996292,153,,evan-feature22,full_pf_a,,0
127,154,154,,,,1,1,1.0,0.0,1.0,0.0,,0.0-156.0,,1.0,1261.4,1.0,0.75,0.0,0.75,1.0,0.52287236,1.0,0.488290656,False,,5ba42e35984ec30001c6018d,,2007310,154,,evan-feature22,full_pf_a,,0
128,155,155,,,,1,1,1.0,0.0,1.0,0.0,,0.0-157.0,,1.0,600.4,1.0,0.75,0.0,0.75,1.0,0.544321581,0.0,0.53143059,False,,5ba42e35984ec30001c6018d,,2017700,155,,evan-feature22,full_pf_a,,0
129,156,156,,,,1,1,1.0,1.0,1.0,0.0,,0.0-158.0,,1.0,724.2,1.0,0.726754564,1.0,0.75,1.0,0.5129306370000001,0.0,0.530592445,False,,5ba42e35984ec30001c6018d,,2028208,156,,evan-feature22,full_pf_a,,0
130,157,157,,,,2,2,1.0,0.0,0.0,-1.0,,0.0-159.0,,0.0,1598.1,0.0,0.75,1.0,0.7392590729999999,1.0,0.479875835,0.0,0.547007051,False,,5ba42e35984ec30001c6018d,,2039579,157,,evan-feature22,full_pf_a,,1
131,158,158,,,,2,2,0.0,0.0,0.0,-1.0,,0.0-160.0,,0.0,1191.2,1.0,0.75,1.0,0.7393376979999999,0.0,0.546045419,0.0,0.541267353,False,,5ba42e35984ec30001c6018d,,2050530,158,,evan-feature22,full_pf_a,,0
132,159,159,,,,2,2,1.0,1.0,1.0,0.0,,0.0-161.0,,1.0,3143.4,1.0,0.75,0.0,0.75,1.0,0.485725895,1.0,0.527625395,False,,5ba42e35984ec30001c6018d,,2063471,159,,evan-feature22,full_pf_a,,0
133,160,160,,,,SLOW,SLOW,,,0.0,-1.0,,0.0-162.0,,-3.0,,1.0,0.75,0.0,0.725087974,1.0,0.488603595,1.0,0.504019206,False,,5ba42e35984ec30001c6018d,,2069294,160,,evan-feature22,full_pf_a,,1
134,161,161,,,,2,2,1.0,1.0,1.0,0.0,,0.0-163.0,,1.0,1119.9,1.0,0.745504295,1.0,0.75,1.0,0.452379914,1.0,0.50131194,False,,5ba42e35984ec30001c6018d,,2080210,161,,evan-feature22,full_pf_a,,1
135,162,162,,,,2,2,1.0,0.0,0.0,-1.0,,0.0-164.0,,0.0,1812.5,0.0,0.728513874,1.0,0.75,1.0,0.44125567200000004,0.0,0.531454591,False,,5ba42e35984ec30001c6018d,,2091828,162,,evan-feature22,full_pf_a,,0
136,163,163,,,,2,2,1.0,0.0,1.0,0.0,,0.0-165.0,,1.0,896.1,0.0,0.73790804,1.0,0.75,1.0,0.413036656,0.0,0.524619035,False,,5ba42e35984ec30001c6018d,,2102511,163,,evan-feature22,full_pf_a,,0
137,164,164,,,,2,2,1.0,0.0,1.0,0.0,,0.0-166.0,,1.0,634.0,1.0,0.7080961309999999,0.0,0.708666865,1.0,0.431915581,0.0,0.481819489,False,,5ba42e35984ec30001c6018d,,2112949,164,,evan-feature22,full_pf_a,,0
138,165,165,,,,2,2,0.0,1.0,1.0,0.0,,0.0-167.0,,0.0,868.3,1.0,0.721378003,1.0,0.71605913,0.0,0.36642387,1.0,0.5036739929999999,False,,5ba42e35984ec30001c6018d,,2123589,165,,evan-feature22,full_pf_a,,0
139,166,166,,,,2,2,0.0,0.0,0.0,-1.0,,0.0-168.0,,0.0,3968.3,0.0,0.7340618959999999,1.0,0.699323252,0.0,0.35298046299999997,0.0,0.511241692,False,,5ba42e35984ec30001c6018d,,2137343,166,,evan-feature22,full_pf_a,,0
140,167,167,,,,2,2,0.0,0.0,0.0,-1.0,,0.0-169.0,,0.0,958.1,1.0,0.75,1.0,0.70412698,0.0,0.380734814,0.0,0.529580116,False,,5ba42e35984ec30001c6018d,,2148087,167,,evan-feature22,full_pf_a,,0
141,168,168,,,,2,2,1.0,0.0,0.0,-1.0,,0.0-170.0,,0.0,1740.9,0.0,0.7436654909999999,1.0,0.711182751,1.0,0.41125331,0.0,0.49554405,False,,5ba42e35984ec30001c6018d,,2159623,168,,evan-feature22,full_pf_a,,0
142,169,169,,,,2,2,0.0,1.0,1.0,0.0,,0.0-171.0,,0.0,1166.7,1.0,0.731607915,1.0,0.651774583,0.0,0.35688023,1.0,0.45194491600000003,False,,5ba42e35984ec30001c6018d,,2170577,169,,evan-feature22,full_pf_a,,0
143,170,170,,,,2,2,0.0,1.0,0.0,-1.0,,0.0-172.0,,-1.0,2139.4,0.0,0.75,1.0,0.75,0.0,0.283145374,1.0,0.528608005,False,,5ba42e35984ec30001c6018d,,2182523,170,,evan-feature22,full_pf_a,,0
144,171,171,,,,1,1,1.0,0.0,1.0,0.0,,0.0-173.0,,1.0,1119.6,1.0,0.7491416890000001,0.0,0.7423785959999999,1.0,0.29135870399999997,1.0,0.498888318,False,,5ba42e35984ec30001c6018d,,2193446,171,,evan-feature22,full_pf_a,,1
145,172,172,,,,1,1,1.0,0.0,0.0,-1.0,,0.0-174.0,,0.0,1138.7,1.0,0.708569387,0.0,0.717682277,0.0,0.294421699,0.0,0.493838163,False,,5ba42e35984ec30001c6018d,,2204399,172,,evan-feature22,full_pf_a,,0
146,173,173,,,,1,1,1.0,1.0,1.0,0.0,,0.0-175.0,,1.0,832.8,1.0,0.75,1.0,0.7383382159999999,1.0,0.356098707,1.0,0.442533405,False,,5ba42e35984ec30001c6018d,,2215011,173,,evan-feature22,full_pf_a,,0
147,174,174,,,,1,1,0.0,1.0,1.0,0.0,,0.0-176.0,,0.0,1023.4,0.0,0.744527075,1.0,0.75,1.0,0.334127506,1.0,0.393165805,False,,5ba42e35984ec30001c6018d,,2225803,174,,evan-feature22,full_pf_a,,0
148,175,175,,,,2,2,0.0,0.0,1.0,0.0,,0.0-177.0,,0.0,870.3,1.0,0.75,0.0,0.75,0.0,0.33571021799999995,0.0,0.350393962,False,,5ba42e35984ec30001c6018d,,2236456,175,,evan-feature22,full_pf_a,,1
149,176,176,,,,1,1,1.0,1.0,0.0,-1.0,,0.0-178.0,,-1.0,2585.3,1.0,0.75,1.0,0.75,0.0,0.313628297,1.0,0.36349657399999996,False,,5ba42e35984ec30001c6018d,,2248817,176,,evan-feature22,full_pf_a,,1
150,177,177,,,,1,1,1.0,0.0,1.0,0.0,,0.0-179.0,,1.0,878.2,1.0,0.75,0.0,0.734284182,0.0,0.262667667,1.0,0.380199119,False,,5ba42e35984ec30001c6018d,,2259472,177,,evan-feature22,full_pf_a,,0
151,178,178,,,,1,1,1.0,1.0,1.0,0.0,,0.0-180.0,,1.0,691.1,1.0,0.75,1.0,0.75,0.0,0.25,0.0,0.394494013,False,,5ba42e35984ec30001c6018d,,2269973,178,,evan-feature22,full_pf_a,,0
152,179,179,,,,1,1,0.0,1.0,1.0,0.0,,0.0-181.0,,0.0,697.5,0.0,0.722298145,1.0,0.7357822340000001,0.0,0.25,1.0,0.319142121,False,,5ba42e35984ec30001c6018d,,2280477,179,,evan-feature22,full_pf_a,,0
153,180,180,,,,1,1,1.0,1.0,1.0,0.0,,0.0-182.0,,1.0,522.0,1.0,0.73149275,1.0,0.724276446,1.0,0.305856907,0.0,0.281315057,False,,5ba42e35984ec30001c6018d,,2290780,180,,evan-feature22,full_pf_a,,0
154,181,181,,,,1,1,0.0,1.0,1.0,0.0,,0.0-183.0,,0.0,484.4,0.0,0.7458732690000001,1.0,0.7336382459999999,0.0,0.272571964,0.0,0.266021999,False,,5ba42e35984ec30001c6018d,,2301046,181,,evan-feature22,full_pf_a,,0
155,182,182,,,,1,1,1.0,1.0,0.0,-1.0,,0.0-184.0,,-1.0,1179.6,1.0,0.705579037,1.0,0.720778292,0.0,0.320238144,0.0,0.30971744,False,,5ba42e35984ec30001c6018d,,2312034,182,,evan-feature22,full_pf_a,,0
156,183,183,,,,2,2,0.0,0.0,0.0,-1.0,,0.0-185.0,,0.0,1853.9,1.0,0.700425648,1.0,0.7198784009999999,0.0,0.272590393,0.0,0.304182931,False,,5ba42e35984ec30001c6018d,,2323651,183,,evan-feature22,full_pf_a,,1
157,184,184,,,,2,2,1.0,0.0,0.0,-1.0,,0.0-186.0,,0.0,2301.0,0.0,0.735590785,0.0,0.722714973,1.0,0.25,0.0,0.323421091,False,,5ba42e35984ec30001c6018d,,2335729,184,,evan-feature22,full_pf_a,,0
158,185,185,,,,2,2,0.0,0.0,0.0,-1.0,,0.0-187.0,,0.0,657.1,1.0,0.724807662,1.0,0.63146213,0.0,0.36836492600000004,0.0,0.34592153299999995,False,,5ba42e35984ec30001c6018d,,2346162,185,,evan-feature22,full_pf_a,,0
159,186,186,,,,2,2,0.0,0.0,1.0,0.0,,0.0-188.0,,0.0,594.9,1.0,0.7352796909999999,0.0,0.555111392,0.0,0.36003922,0.0,0.31433779999999995,False,,5ba42e35984ec30001c6018d,,2356532,186,,evan-feature22,full_pf_a,,0
160,187,187,notice,,,,,,,,,,0.0-189.0,"{""Q0"":""No""}",,7348.0,,,,,,,,,False,,5ba42e35984ec30001c6018d,,2363882,187,Q,survey-text,full_pf_a,,1
161,188,188,track1,,[1],,,,,,,,0.0-190.0,"{""Q0"":""no""}",,4804.0,,,,,,,,,False,,5ba42e35984ec30001c6018d,,2368691,188,Q,evan-quiz,full_pf_a,,1
162,189,189,track2,,[0],,,,,,,,0.0-191.0,"{""Q0"":""yes""}",,5286.0,,,,,,,,,False,,5ba42e35984ec30001c6018d,,2373979,189,Q,evan-quiz,full_pf_a,,1
163,190,190,strat,,,,,,,,,,0.0-192.0,"{""Q0"":""Watch what was behind the other door.""}",,14558.0,,,,,,,,,False,,5ba42e35984ec30001c6018d,,2388539,190,Q,survey-text,full_pf_a,,1
