,index,Unnamed: 0,Q_name,button_pressed,choice_idxs,chosen_pos,chosen_state,chosen_state_f_1_outcome,chosen_state_f_2_outcome,f_1_reward,f_2_reward,incor_questions,internal_node_id,responses,reward_received,rt,s_1_f_1_outcome,s_1_f_1_prob,s_1_f_2_outcome,s_1_f_2_prob,s_2_f_1_outcome,s_2_f_1_prob,s_2_f_2_outcome,s_2_f_2_prob,safe_first,stimulus,subjectID,success,time_elapsed,trial_index,trial_num,trial_type,version,view_history,switching
0,3960,25,,,,1,1,1.0,1.0,0.0,1.0,,0.0-27.0,,1.0,1776.0,1.0,0.6,1.0,0.6,0.0,0.4,0.0,0.4,True,,59f4847293b40c00016c9c5d,,534364,25,,evan-feature22,full_rf_b,,0
1,3961,26,,,,2,2,1.0,0.0,0.0,1.0,,0.0-28.0,,0.0,1714.0,1.0,0.608053294,0.0,0.63424552,1.0,0.397152172,0.0,0.347069101,True,,59f4847293b40c00016c9c5d,,545842,26,,evan-feature22,full_rf_b,,1
2,3962,27,,,,1,1,1.0,1.0,0.0,1.0,,0.0-29.0,,1.0,1041.0,1.0,0.642237155,1.0,0.648566321,0.0,0.389407674,0.0,0.285525717,True,,59f4847293b40c00016c9c5d,,556647,27,,evan-feature22,full_rf_b,,1
3,3963,28,,,,1,1,1.0,0.0,0.0,1.0,,0.0-30.0,,0.0,1054.0,1.0,0.661086576,0.0,0.630492543,0.0,0.399058924,0.0,0.25,True,,59f4847293b40c00016c9c5d,,567464,28,,evan-feature22,full_rf_b,,0
4,3964,29,,,,2,2,0.0,0.0,0.0,1.0,,0.0-31.0,,0.0,625.0,0.0,0.631324137,1.0,0.6269842929999999,0.0,0.38734784299999997,0.0,0.25,True,,59f4847293b40c00016c9c5d,,577851,29,,evan-feature22,full_rf_b,,1
5,3965,30,,,,1,1,0.0,1.0,0.0,1.0,,0.0-32.0,,1.0,1630.0,0.0,0.6381991370000001,1.0,0.68987999,0.0,0.384107265,0.0,0.271332943,True,,59f4847293b40c00016c9c5d,,589239,30,,evan-feature22,full_rf_b,,1
6,3966,31,,,,1,1,1.0,0.0,0.0,1.0,,0.0-33.0,,0.0,1500.0,1.0,0.66034901,0.0,0.742641349,1.0,0.360225629,0.0,0.25,True,,59f4847293b40c00016c9c5d,,600500,31,,evan-feature22,full_rf_b,,0
7,3967,32,,,,2,2,1.0,0.0,-1.0,0.0,,0.0-34.0,,-1.0,1589.0,1.0,0.638612418,0.0,0.75,1.0,0.367273939,0.0,0.25,True,,59f4847293b40c00016c9c5d,,611851,32,,evan-feature22,full_rf_b,,1
8,3968,33,,,,1,1,0.0,0.0,0.0,1.0,,0.0-35.0,,0.0,981.0,0.0,0.624340629,0.0,0.75,1.0,0.425829545,0.0,0.25,True,,59f4847293b40c00016c9c5d,,622595,33,,evan-feature22,full_rf_b,,1
9,3969,34,,,,1,1,0.0,0.0,0.0,1.0,,0.0-36.0,,0.0,2121.0,0.0,0.621999804,0.0,0.75,0.0,0.368609357,0.0,0.25,True,,59f4847293b40c00016c9c5d,,634475,34,,evan-feature22,full_rf_b,,0
10,3970,35,,,,1,1,1.0,1.0,-1.0,0.0,,0.0-37.0,,-1.0,2126.0,1.0,0.62666403,1.0,0.75,0.0,0.311151498,1.0,0.25,True,,59f4847293b40c00016c9c5d,,646363,35,,evan-feature22,full_rf_b,,0
11,3971,36,,,,2,2,1.0,0.0,-1.0,0.0,,0.0-38.0,,-1.0,1595.0,1.0,0.6819650009999999,1.0,0.75,1.0,0.310763048,0.0,0.25,True,,59f4847293b40c00016c9c5d,,657722,36,,evan-feature22,full_rf_b,,1
12,3972,37,,,,2,2,1.0,1.0,0.0,1.0,,0.0-39.0,,1.0,2209.0,1.0,0.740626951,1.0,0.75,1.0,0.25,1.0,0.25,True,,59f4847293b40c00016c9c5d,,669696,37,,evan-feature22,full_rf_b,,0
13,3973,38,,,,2,2,1.0,1.0,0.0,1.0,,0.0-40.0,,1.0,1906.0,1.0,0.739599242,0.0,0.742034978,1.0,0.25397114600000004,1.0,0.25,True,,59f4847293b40c00016c9c5d,,681363,38,,evan-feature22,full_rf_b,,0
14,3974,39,,,,1,1,1.0,1.0,0.0,1.0,,0.0-41.0,,1.0,1605.0,1.0,0.732341315,1.0,0.72735643,0.0,0.25,0.0,0.25,True,,59f4847293b40c00016c9c5d,,692731,39,,evan-feature22,full_rf_b,,1
15,3975,40,,,,2,2,0.0,1.0,0.0,1.0,,0.0-42.0,,1.0,1489.0,1.0,0.7062287770000001,0.0,0.75,0.0,0.29002151,1.0,0.288256649,True,,59f4847293b40c00016c9c5d,,703982,40,,evan-feature22,full_rf_b,,1
16,3976,41,,,,2,2,0.0,0.0,-1.0,0.0,,0.0-43.0,,0.0,2107.0,0.0,0.7086029209999999,1.0,0.75,0.0,0.274129113,0.0,0.262851608,True,,59f4847293b40c00016c9c5d,,715851,41,,evan-feature22,full_rf_b,,0
17,3977,42,,,,2,2,0.0,1.0,0.0,1.0,,0.0-44.0,,1.0,1962.0,1.0,0.669189651,0.0,0.727614338,0.0,0.298444036,1.0,0.296944518,True,,59f4847293b40c00016c9c5d,,727576,42,,evan-feature22,full_rf_b,,0
18,3978,43,,,,2,2,0.0,0.0,-1.0,0.0,,0.0-45.0,,0.0,1979.0,0.0,0.6819912929999999,1.0,0.7179434290000001,0.0,0.265003961,0.0,0.28157921199999997,True,,59f4847293b40c00016c9c5d,,739317,43,,evan-feature22,full_rf_b,,0
19,3979,44,,,,2,2,0.0,1.0,-1.0,0.0,,0.0-46.0,,0.0,1645.0,1.0,0.665275002,0.0,0.723065271,0.0,0.260414971,1.0,0.30973870000000003,True,,59f4847293b40c00016c9c5d,,750724,44,,evan-feature22,full_rf_b,,0
20,3980,45,,,,2,2,0.0,0.0,0.0,1.0,,0.0-47.0,,0.0,1756.0,0.0,0.6660593260000001,1.0,0.728032907,0.0,0.30922817,0.0,0.338778608,True,,59f4847293b40c00016c9c5d,,762245,45,,evan-feature22,full_rf_b,,0
21,3981,46,,,,2,2,0.0,0.0,0.0,1.0,,0.0-48.0,,0.0,3032.0,1.0,0.702068785,0.0,0.6528750879999999,0.0,0.287329608,0.0,0.35789613200000003,True,,59f4847293b40c00016c9c5d,,775040,46,,evan-feature22,full_rf_b,,0
22,3982,47,,,,1,1,1.0,0.0,0.0,1.0,,0.0-49.0,,0.0,1803.0,1.0,0.651939787,0.0,0.636725589,0.0,0.284834488,0.0,0.358563756,True,,59f4847293b40c00016c9c5d,,786605,47,,evan-feature22,full_rf_b,,1
23,3983,48,,,,2,2,1.0,0.0,0.0,1.0,,0.0-50.0,,0.0,2230.0,1.0,0.67573929,0.0,0.612550049,1.0,0.37130387600000003,0.0,0.383542402,True,,59f4847293b40c00016c9c5d,,798599,48,,evan-feature22,full_rf_b,,1
24,3984,49,,,,2,2,0.0,0.0,0.0,1.0,,0.0-51.0,,0.0,1730.0,0.0,0.620753801,1.0,0.60513644,0.0,0.385529434,0.0,0.340361743,True,,59f4847293b40c00016c9c5d,,810090,49,,evan-feature22,full_rf_b,,0
25,3985,50,,,,1,1,0.0,0.0,-1.0,0.0,,0.0-52.0,,0.0,3445.0,0.0,0.673564893,0.0,0.672437924,0.0,0.292955382,0.0,0.337633795,True,,59f4847293b40c00016c9c5d,,823298,50,,evan-feature22,full_rf_b,,1
26,3986,51,,,,2,2,1.0,0.0,0.0,1.0,,0.0-53.0,,0.0,1824.0,0.0,0.6749427,1.0,0.724197502,1.0,0.32391132100000003,0.0,0.350995264,True,,59f4847293b40c00016c9c5d,,834884,51,,evan-feature22,full_rf_b,,1
27,3987,52,,,,2,2,0.0,1.0,0.0,1.0,,0.0-54.0,,1.0,1618.0,0.0,0.6940159379999999,0.0,0.75,0.0,0.31710554399999996,1.0,0.413450341,True,,59f4847293b40c00016c9c5d,,846266,52,,evan-feature22,full_rf_b,,0
28,3988,53,,,,2,2,0.0,1.0,0.0,1.0,,0.0-55.0,,1.0,2132.0,1.0,0.6916018270000001,1.0,0.69001187,0.0,0.261817804,1.0,0.40038635,True,,59f4847293b40c00016c9c5d,,858161,53,,evan-feature22,full_rf_b,,0
29,3989,54,,,,1,1,0.0,1.0,0.0,1.0,,0.0-56.0,,1.0,1280.0,0.0,0.641061544,1.0,0.71337992,0.0,0.277296461,0.0,0.47372791700000005,True,,59f4847293b40c00016c9c5d,,869203,54,,evan-feature22,full_rf_b,,1
30,3990,55,,,,2,2,1.0,0.0,0.0,1.0,,0.0-57.0,,0.0,1438.0,1.0,0.6082438520000001,1.0,0.708471106,1.0,0.28745137,0.0,0.564174476,True,,59f4847293b40c00016c9c5d,,880404,55,,evan-feature22,full_rf_b,,1
31,3991,56,,,,1,1,1.0,1.0,-1.0,0.0,,0.0-58.0,,-1.0,2293.0,1.0,0.6051112120000001,1.0,0.7118147229999999,0.0,0.272390611,0.0,0.5595149939999999,True,,59f4847293b40c00016c9c5d,,892461,56,,evan-feature22,full_rf_b,,1
32,3992,57,,,,1,1,0.0,0.0,-1.0,0.0,,0.0-59.0,,0.0,1476.0,0.0,0.582420852,0.0,0.635867583,0.0,0.31089574,1.0,0.5227206520000001,True,,59f4847293b40c00016c9c5d,,903699,57,,evan-feature22,full_rf_b,,0
33,3993,58,,,,2,2,0.0,0.0,-1.0,0.0,,0.0-60.0,,0.0,2235.0,1.0,0.623195575,1.0,0.655026044,0.0,0.25,0.0,0.560387538,True,,59f4847293b40c00016c9c5d,,915696,58,,evan-feature22,full_rf_b,,1
34,3994,59,,,,1,1,0.0,1.0,0.0,1.0,,0.0-61.0,,1.0,3484.0,0.0,0.601889598,1.0,0.678198724,1.0,0.25,0.0,0.559922936,True,,59f4847293b40c00016c9c5d,,928943,59,,evan-feature22,full_rf_b,,1
35,3995,60,,,,1,1,1.0,1.0,-1.0,0.0,,0.0-62.0,,-1.0,2473.0,1.0,0.601259914,1.0,0.704681482,0.0,0.33908969299999997,0.0,0.505003715,True,,59f4847293b40c00016c9c5d,,941179,60,,evan-feature22,full_rf_b,,0
36,3996,61,,,,2,2,0.0,0.0,-1.0,0.0,,0.0-63.0,,0.0,1078.0,1.0,0.59645454,0.0,0.710437172,0.0,0.327441879,0.0,0.391749613,True,,59f4847293b40c00016c9c5d,,952021,61,,evan-feature22,full_rf_b,,1
37,3997,62,,,,1,1,0.0,0.0,0.0,1.0,,0.0-64.0,,0.0,971.0,0.0,0.529473,0.0,0.636758527,0.0,0.301338063,0.0,0.365661481,True,,59f4847293b40c00016c9c5d,,962755,62,,evan-feature22,full_rf_b,,1
38,3998,63,,,,2,2,1.0,0.0,-1.0,0.0,,0.0-65.0,,-1.0,928.0,0.0,0.541657162,1.0,0.634541962,1.0,0.343535366,0.0,0.371763742,True,,59f4847293b40c00016c9c5d,,973445,63,,evan-feature22,full_rf_b,,1
39,3999,64,,,,1,1,1.0,0.0,-1.0,0.0,,0.0-66.0,,-1.0,692.0,1.0,0.5707533260000001,0.0,0.589121171,0.0,0.326428396,0.0,0.43961622899999997,True,,59f4847293b40c00016c9c5d,,983900,64,,evan-feature22,full_rf_b,,1
40,4000,65,,,,2,2,0.0,0.0,0.0,1.0,,0.0-67.0,,0.0,1402.0,1.0,0.5707533260000001,0.0,0.589121171,0.0,0.326428396,0.0,0.43961622899999997,True,,59f4847293b40c00016c9c5d,,995065,65,,evan-feature22,full_rf_b,,1
41,4001,66,,,,2,2,0.0,1.0,0.0,1.0,,0.0-68.0,,1.0,2282.0,1.0,0.506271295,1.0,0.641775594,0.0,0.37149690700000004,1.0,0.404330166,True,,59f4847293b40c00016c9c5d,,1007112,66,,evan-feature22,full_rf_b,,0
42,4002,67,,,,2,2,1.0,0.0,-1.0,0.0,,0.0-69.0,,-1.0,2376.0,1.0,0.455642565,1.0,0.623605825,1.0,0.358753011,0.0,0.346174041,True,,59f4847293b40c00016c9c5d,,1019252,67,,evan-feature22,full_rf_b,,0
43,4003,68,,,,1,1,1.0,1.0,0.0,1.0,,0.0-70.0,,1.0,1298.0,1.0,0.483677308,1.0,0.5904681070000001,0.0,0.402218411,0.0,0.35344697,True,,59f4847293b40c00016c9c5d,,1030313,68,,evan-feature22,full_rf_b,,1
44,4004,69,,,,2,2,0.0,0.0,-1.0,0.0,,0.0-71.0,,0.0,2805.0,1.0,0.394210977,1.0,0.558925494,0.0,0.540052017,0.0,0.35182128700000004,True,,59f4847293b40c00016c9c5d,,1042882,69,,evan-feature22,full_rf_b,,1
45,4005,70,,,,1,1,0.0,0.0,0.0,1.0,,0.0-72.0,,0.0,1828.0,0.0,0.382300414,0.0,0.577670603,0.0,0.607608448,0.0,0.378261578,True,,59f4847293b40c00016c9c5d,,1054473,70,,evan-feature22,full_rf_b,,1
46,4006,71,,,,2,2,1.0,1.0,-1.0,0.0,,0.0-73.0,,-1.0,828.0,0.0,0.357596762,1.0,0.5929076529999999,1.0,0.6579790010000001,1.0,0.401326777,True,,59f4847293b40c00016c9c5d,,1065066,71,,evan-feature22,full_rf_b,,1
47,4007,72,,,,2,2,1.0,0.0,0.0,1.0,,0.0-74.0,,0.0,2712.0,1.0,0.362033495,0.0,0.582308608,1.0,0.649195052,0.0,0.355158505,True,,59f4847293b40c00016c9c5d,,1077541,72,,evan-feature22,full_rf_b,,0
48,4008,73,,,,1,1,0.0,0.0,0.0,1.0,,0.0-75.0,,0.0,1188.0,0.0,0.369620635,0.0,0.669100864,1.0,0.706059111,0.0,0.362516241,True,,59f4847293b40c00016c9c5d,,1088490,73,,evan-feature22,full_rf_b,,1
49,4009,74,,,,1,1,0.0,1.0,0.0,1.0,,0.0-76.0,,1.0,1542.0,0.0,0.41477751399999996,1.0,0.7284416779999999,1.0,0.7182656940000001,0.0,0.36228040899999997,True,,59f4847293b40c00016c9c5d,,1099794,74,,evan-feature22,full_rf_b,,0
50,4010,75,,,,2,2,0.0,0.0,-1.0,0.0,,0.0-77.0,,0.0,1549.0,1.0,0.37675460299999997,1.0,0.703250285,0.0,0.75,0.0,0.461979164,True,,59f4847293b40c00016c9c5d,,1111106,75,,evan-feature22,full_rf_b,,1
51,4011,76,,,,1,1,0.0,1.0,-1.0,0.0,,0.0-78.0,,0.0,2138.0,0.0,0.398716075,1.0,0.6723864890000001,0.0,0.674153818,0.0,0.519029516,True,,59f4847293b40c00016c9c5d,,1123007,76,,evan-feature22,full_rf_b,,1
52,4012,77,,,,2,2,0.0,0.0,-1.0,0.0,,0.0-79.0,,0.0,1978.0,0.0,0.34677856700000004,0.0,0.69057175,0.0,0.6822438540000001,0.0,0.477292237,True,,59f4847293b40c00016c9c5d,,1134748,77,,evan-feature22,full_rf_b,,1
53,4013,78,,,,1,1,1.0,0.0,0.0,1.0,,0.0-80.0,,0.0,2252.0,1.0,0.28580469199999997,0.0,0.68408818,1.0,0.684207565,0.0,0.49780448299999996,True,,59f4847293b40c00016c9c5d,,1146765,78,,evan-feature22,full_rf_b,,1
54,4015,80,,,,2,2,1.0,0.0,0.0,1.0,,0.0-82.0,,0.0,2258.0,0.0,0.25,0.0,0.7405808970000001,1.0,0.679614108,0.0,0.436436964,True,,59f4847293b40c00016c9c5d,,1163003,80,,evan-feature22,full_rf_b,,1
55,4016,81,,,,2,2,0.0,1.0,0.0,1.0,,0.0-83.0,,1.0,1811.0,0.0,0.29890393,1.0,0.730505706,0.0,0.7328203320000001,1.0,0.439256938,True,,59f4847293b40c00016c9c5d,,1174578,81,,evan-feature22,full_rf_b,,0
56,4017,82,,,,2,2,0.0,0.0,-1.0,0.0,,0.0-84.0,,0.0,2094.0,0.0,0.326762398,0.0,0.7148059609999999,0.0,0.75,0.0,0.44389608799999997,True,,59f4847293b40c00016c9c5d,,1186434,82,,evan-feature22,full_rf_b,,0
57,4018,83,,,,2,2,1.0,0.0,0.0,1.0,,0.0-85.0,,0.0,1429.0,0.0,0.295168515,0.0,0.739760854,1.0,0.719947008,0.0,0.35277284600000003,True,,59f4847293b40c00016c9c5d,,1197627,83,,evan-feature22,full_rf_b,,0
58,4019,84,,,,1,1,0.0,1.0,0.0,1.0,,0.0-86.0,,1.0,1505.0,0.0,0.25,1.0,0.70781482,0.0,0.75,1.0,0.286095925,True,,59f4847293b40c00016c9c5d,,1208896,84,,evan-feature22,full_rf_b,,1
59,4020,85,,,,2,2,0.0,0.0,0.0,1.0,,0.0-87.0,,0.0,1685.0,0.0,0.25638190899999996,0.0,0.704088163,0.0,0.75,0.0,0.26872601399999996,True,,59f4847293b40c00016c9c5d,,1220346,85,,evan-feature22,full_rf_b,,1
60,4021,86,,,,1,1,1.0,1.0,-1.0,0.0,,0.0-88.0,,-1.0,2545.0,1.0,0.271581126,1.0,0.669760107,1.0,0.733896663,0.0,0.273244572,True,,59f4847293b40c00016c9c5d,,1232656,86,,evan-feature22,full_rf_b,,1
61,4022,87,,,,1,1,0.0,0.0,0.0,1.0,,0.0-89.0,,0.0,1329.0,0.0,0.257144401,0.0,0.600575706,1.0,0.74488122,0.0,0.25,True,,59f4847293b40c00016c9c5d,,1243751,87,,evan-feature22,full_rf_b,,0
62,4023,88,,,,2,2,0.0,0.0,0.0,1.0,,0.0-90.0,,0.0,2606.0,0.0,0.25,1.0,0.616870026,0.0,0.723610234,0.0,0.25,True,,59f4847293b40c00016c9c5d,,1256119,88,,evan-feature22,full_rf_b,,1
63,4024,89,,,,1,1,0.0,1.0,-1.0,0.0,,0.0-91.0,,0.0,2488.0,0.0,0.25,1.0,0.583540187,1.0,0.7041042559999999,1.0,0.285961995,True,,59f4847293b40c00016c9c5d,,1268371,89,,evan-feature22,full_rf_b,,1
64,4025,90,,,,2,2,0.0,0.0,-1.0,0.0,,0.0-92.0,,0.0,2207.0,0.0,0.27254536,0.0,0.53875765,0.0,0.693783448,0.0,0.284961652,True,,59f4847293b40c00016c9c5d,,1280342,90,,evan-feature22,full_rf_b,,1
65,4026,91,,,,2,2,1.0,0.0,-1.0,0.0,,0.0-93.0,,-1.0,2304.0,0.0,0.25,1.0,0.548431252,1.0,0.734221895,0.0,0.279445214,True,,59f4847293b40c00016c9c5d,,1292409,91,,evan-feature22,full_rf_b,,0
66,4027,92,,,,2,2,0.0,0.0,0.0,1.0,,0.0-94.0,,0.0,1414.0,0.0,0.258640684,0.0,0.545878066,0.0,0.725245965,0.0,0.31487537,True,,59f4847293b40c00016c9c5d,,1303588,92,,evan-feature22,full_rf_b,,0
67,4028,93,,,,2,2,0.0,1.0,0.0,1.0,,0.0-95.0,,1.0,2086.0,0.0,0.251103711,1.0,0.5776290629999999,0.0,0.696320133,1.0,0.317831047,True,,59f4847293b40c00016c9c5d,,1315438,93,,evan-feature22,full_rf_b,,0
68,4029,94,,,,1,1,0.0,0.0,0.0,1.0,,0.0-96.0,,0.0,761.0,0.0,0.276630292,0.0,0.617329858,1.0,0.73838088,0.0,0.261471582,True,,59f4847293b40c00016c9c5d,,1325962,94,,evan-feature22,full_rf_b,,1
69,4030,95,,,,2,2,1.0,0.0,0.0,1.0,,0.0-97.0,,0.0,2105.0,0.0,0.297716424,1.0,0.618863717,1.0,0.7402358259999999,0.0,0.262600834,True,,59f4847293b40c00016c9c5d,,1337831,95,,evan-feature22,full_rf_b,,1
70,4031,96,,,,2,2,1.0,0.0,-1.0,0.0,,0.0-98.0,,-1.0,2051.0,0.0,0.290935512,1.0,0.695370945,1.0,0.706570507,0.0,0.280030553,True,,59f4847293b40c00016c9c5d,,1349645,96,,evan-feature22,full_rf_b,,0
71,4032,97,,,,1,1,0.0,1.0,0.0,1.0,,0.0-99.0,,1.0,1171.0,0.0,0.25,1.0,0.6465277079999999,1.0,0.67766682,0.0,0.25,True,,59f4847293b40c00016c9c5d,,1360582,97,,evan-feature22,full_rf_b,,1
72,4033,98,,,,2,2,1.0,1.0,-1.0,0.0,,0.0-100.0,,-1.0,3447.0,0.0,0.26463816,0.0,0.636100213,1.0,0.646048507,1.0,0.265607101,True,,59f4847293b40c00016c9c5d,,1373791,98,,evan-feature22,full_rf_b,,1
73,4034,99,,,,2,2,0.0,0.0,-1.0,0.0,,0.0-101.0,,0.0,2274.0,0.0,0.314340707,1.0,0.667795927,0.0,0.613630805,0.0,0.25,True,,59f4847293b40c00016c9c5d,,1385827,99,,evan-feature22,full_rf_b,,0
74,4035,100,,,,1,1,1.0,1.0,0.0,1.0,,0.0-102.0,,1.0,944.0,1.0,0.28685784,1.0,0.6622549529999999,1.0,0.652154117,0.0,0.25,True,,59f4847293b40c00016c9c5d,,1396534,100,,evan-feature22,full_rf_b,,1
75,4036,101,,,,1,1,0.0,1.0,0.0,1.0,,0.0-103.0,,1.0,1034.0,0.0,0.304106554,1.0,0.631289538,0.0,0.707041942,0.0,0.29314237,True,,59f4847293b40c00016c9c5d,,1407331,101,,evan-feature22,full_rf_b,,0
76,4037,102,,,,1,1,0.0,1.0,0.0,1.0,,0.0-104.0,,1.0,1039.0,0.0,0.304806932,1.0,0.571167718,1.0,0.680472346,1.0,0.25,True,,59f4847293b40c00016c9c5d,,1418132,102,,evan-feature22,full_rf_b,,0
77,4038,103,,,,1,1,1.0,1.0,0.0,1.0,,0.0-105.0,,1.0,1377.0,1.0,0.37919861,1.0,0.5724849710000001,1.0,0.705638003,0.0,0.30179300600000003,True,,59f4847293b40c00016c9c5d,,1429271,103,,evan-feature22,full_rf_b,,0
78,4039,104,,,,1,1,1.0,1.0,0.0,1.0,,0.0-106.0,,1.0,823.0,1.0,0.464277969,1.0,0.554034373,1.0,0.7372627340000001,1.0,0.264699741,True,,59f4847293b40c00016c9c5d,,1439856,104,,evan-feature22,full_rf_b,,0
79,4040,105,,,,1,1,0.0,0.0,0.0,1.0,,0.0-107.0,,0.0,928.0,0.0,0.465104323,0.0,0.530793115,0.0,0.75,0.0,0.31683071,True,,59f4847293b40c00016c9c5d,,1450547,105,,evan-feature22,full_rf_b,,0
80,4041,106,,,,2,2,1.0,0.0,-1.0,0.0,,0.0-108.0,,-1.0,1861.0,1.0,0.465104323,1.0,0.530793115,1.0,0.75,0.0,0.31683071,True,,59f4847293b40c00016c9c5d,,1462171,106,,evan-feature22,full_rf_b,,1
81,4042,107,,,,1,1,1.0,1.0,-1.0,0.0,,0.0-109.0,,-1.0,991.0,1.0,0.46833986,1.0,0.570249239,1.0,0.7244472590000001,1.0,0.364114163,True,,59f4847293b40c00016c9c5d,,1472925,107,,evan-feature22,full_rf_b,,1
82,4043,108,,,,1,1,1.0,0.0,-1.0,0.0,,0.0-110.0,,-1.0,1494.0,1.0,0.445444024,0.0,0.649673355,1.0,0.6845441290000001,0.0,0.300660449,True,,59f4847293b40c00016c9c5d,,1484182,108,,evan-feature22,full_rf_b,,0
83,4044,109,,,,2,2,0.0,0.0,-1.0,0.0,,0.0-111.0,,0.0,891.0,0.0,0.39909721299999995,0.0,0.6715179509999999,0.0,0.742310028,0.0,0.35496088299999995,True,,59f4847293b40c00016c9c5d,,1494836,109,,evan-feature22,full_rf_b,,1
84,4045,110,,,,2,2,1.0,0.0,0.0,1.0,,0.0-112.0,,0.0,861.0,1.0,0.37956104799999996,0.0,0.694725302,1.0,0.7181651309999999,0.0,0.38726906299999997,True,,59f4847293b40c00016c9c5d,,1505460,110,,evan-feature22,full_rf_b,,0
85,4046,111,,,,2,2,0.0,0.0,0.0,1.0,,0.0-113.0,,0.0,756.0,0.0,0.404995034,0.0,0.724375412,0.0,0.6910946859999999,0.0,0.387187347,True,,59f4847293b40c00016c9c5d,,1515978,111,,evan-feature22,full_rf_b,,0
86,4047,112,,,,2,2,1.0,0.0,-1.0,0.0,,0.0-114.0,,-1.0,842.0,0.0,0.461740803,0.0,0.75,1.0,0.75,0.0,0.34872038200000005,True,,59f4847293b40c00016c9c5d,,1526582,112,,evan-feature22,full_rf_b,,0
87,4048,113,,,,1,1,1.0,1.0,-1.0,0.0,,0.0-115.0,,-1.0,745.0,1.0,0.43821380600000004,1.0,0.738833273,1.0,0.728286963,0.0,0.399538128,True,,59f4847293b40c00016c9c5d,,1537091,113,,evan-feature22,full_rf_b,,1
88,4049,114,,,,2,2,0.0,0.0,0.0,1.0,,0.0-116.0,,0.0,2658.0,1.0,0.41709882,0.0,0.736666736,0.0,0.75,0.0,0.389095584,True,,59f4847293b40c00016c9c5d,,1549512,114,,evan-feature22,full_rf_b,,1
89,4050,115,,,,2,2,0.0,0.0,0.0,1.0,,0.0-117.0,,0.0,1146.0,1.0,0.39749009799999996,1.0,0.744320029,0.0,0.75,0.0,0.363848678,True,,59f4847293b40c00016c9c5d,,1560421,115,,evan-feature22,full_rf_b,,0
90,4051,116,,,,1,1,0.0,0.0,-1.0,0.0,,0.0-118.0,,0.0,2187.0,0.0,0.392653706,0.0,0.75,1.0,0.75,1.0,0.384386976,True,,59f4847293b40c00016c9c5d,,1572368,116,,evan-feature22,full_rf_b,,1
91,4052,117,,,,2,2,1.0,0.0,0.0,1.0,,0.0-119.0,,0.0,1528.0,0.0,0.31190902600000003,1.0,0.75,1.0,0.732413819,0.0,0.413082932,True,,59f4847293b40c00016c9c5d,,1583660,117,,evan-feature22,full_rf_b,,1
92,4053,118,,,,1,1,0.0,1.0,-1.0,0.0,,0.0-120.0,,0.0,1728.0,0.0,0.366917648,1.0,0.740073855,1.0,0.75,0.0,0.352861979,True,,59f4847293b40c00016c9c5d,,1595150,118,,evan-feature22,full_rf_b,,1
93,4054,119,,,,1,1,1.0,1.0,-1.0,0.0,,0.0-121.0,,-1.0,1440.0,1.0,0.3645172,1.0,0.721770713,1.0,0.75,0.0,0.404074511,True,,59f4847293b40c00016c9c5d,,1606354,119,,evan-feature22,full_rf_b,,0
94,4055,120,,,,1,1,0.0,0.0,-1.0,0.0,,0.0-122.0,,0.0,1723.0,0.0,0.35205600299999995,0.0,0.68983859,0.0,0.739735447,0.0,0.366895945,True,,59f4847293b40c00016c9c5d,,1617839,120,,evan-feature22,full_rf_b,,0
95,4056,121,,,,1,1,1.0,0.0,-1.0,0.0,,0.0-123.0,,-1.0,774.0,1.0,0.40998722600000004,0.0,0.720859127,0.0,0.673854955,1.0,0.368528541,True,,59f4847293b40c00016c9c5d,,1628375,121,,evan-feature22,full_rf_b,,0
96,4057,122,,,,2,2,1.0,1.0,-1.0,0.0,,0.0-124.0,,-1.0,882.0,0.0,0.353625316,1.0,0.75,1.0,0.695605473,1.0,0.38303674200000004,True,,59f4847293b40c00016c9c5d,,1639018,122,,evan-feature22,full_rf_b,,1
97,4058,123,,,,2,2,1.0,0.0,-1.0,0.0,,0.0-125.0,,-1.0,1756.0,1.0,0.359216989,1.0,0.75,1.0,0.6987915090000001,0.0,0.35169046200000004,True,,59f4847293b40c00016c9c5d,,1650537,123,,evan-feature22,full_rf_b,,0
98,4059,124,,,,1,1,0.0,1.0,-1.0,0.0,,0.0-126.0,,0.0,853.0,0.0,0.35834496899999996,1.0,0.75,0.0,0.707067742,1.0,0.416763636,True,,59f4847293b40c00016c9c5d,,1661152,124,,evan-feature22,full_rf_b,,1
99,4060,125,,,,1,1,0.0,1.0,0.0,1.0,,0.0-127.0,,1.0,681.0,0.0,0.38741613799999997,1.0,0.7177369570000001,1.0,0.734902455,0.0,0.49438664299999996,True,,59f4847293b40c00016c9c5d,,1671593,125,,evan-feature22,full_rf_b,,0
100,4061,126,,,,1,1,1.0,1.0,-1.0,0.0,,0.0-128.0,,-1.0,524.0,1.0,0.405255252,1.0,0.7300466640000001,1.0,0.7027748070000001,1.0,0.504359668,True,,59f4847293b40c00016c9c5d,,1681878,126,,evan-feature22,full_rf_b,,0
101,4062,127,,,,1,1,0.0,1.0,-1.0,0.0,,0.0-129.0,,0.0,830.0,0.0,0.40697073,1.0,0.7260142190000001,1.0,0.724461982,1.0,0.522779179,True,,59f4847293b40c00016c9c5d,,1692473,127,,evan-feature22,full_rf_b,,0
102,4063,128,,,,1,1,0.0,1.0,-1.0,0.0,,0.0-130.0,,0.0,1687.0,0.0,0.43906215299999996,1.0,0.7252802340000001,1.0,0.719079934,0.0,0.5712990579999999,True,,59f4847293b40c00016c9c5d,,1703919,128,,evan-feature22,full_rf_b,,0
103,4064,129,,,,1,1,0.0,1.0,0.0,1.0,,0.0-131.0,,1.0,1064.0,0.0,0.4076705,1.0,0.73280499,1.0,0.681313127,0.0,0.523891346,True,,59f4847293b40c00016c9c5d,,1714747,129,,evan-feature22,full_rf_b,,0
104,4065,130,,,,1,1,1.0,0.0,0.0,1.0,,0.0-132.0,,0.0,1190.0,1.0,0.399102911,0.0,0.730498344,1.0,0.661080239,0.0,0.46742603,True,,59f4847293b40c00016c9c5d,,1725699,130,,evan-feature22,full_rf_b,,0
105,4066,131,,,,1,1,0.0,1.0,0.0,1.0,,0.0-133.0,,1.0,788.0,0.0,0.356477282,1.0,0.712296395,1.0,0.641812684,0.0,0.44868414,True,,59f4847293b40c00016c9c5d,,1736251,131,,evan-feature22,full_rf_b,,0
106,4067,132,,,,1,1,0.0,1.0,-1.0,0.0,,0.0-134.0,,0.0,1236.0,0.0,0.462760722,1.0,0.692349322,0.0,0.700947931,1.0,0.394680266,True,,59f4847293b40c00016c9c5d,,1747246,132,,evan-feature22,full_rf_b,,0
107,4068,133,,,,1,1,0.0,1.0,-1.0,0.0,,0.0-135.0,,0.0,1205.0,0.0,0.422306413,1.0,0.718375916,1.0,0.706340917,0.0,0.367787185,True,,59f4847293b40c00016c9c5d,,1758213,133,,evan-feature22,full_rf_b,,0
108,4070,135,,,,1,1,1.0,0.0,-1.0,0.0,,0.0-137.0,,-1.0,1076.0,1.0,0.4582233,0.0,0.643834117,1.0,0.75,1.0,0.39615823299999997,True,,59f4847293b40c00016c9c5d,,1772360,135,,evan-feature22,full_rf_b,,0
109,4071,136,,,,2,2,0.0,0.0,-1.0,0.0,,0.0-138.0,,0.0,1299.0,1.0,0.43813437899999996,1.0,0.651283804,0.0,0.729674191,0.0,0.37711048,True,,59f4847293b40c00016c9c5d,,1783422,136,,evan-feature22,full_rf_b,,1
110,4072,137,,,,1,1,0.0,0.0,-1.0,0.0,,0.0-139.0,,0.0,1782.0,0.0,0.471199094,0.0,0.6470010979999999,1.0,0.715008097,1.0,0.410656191,True,,59f4847293b40c00016c9c5d,,1794966,137,,evan-feature22,full_rf_b,,1
111,4073,138,,,,1,1,1.0,1.0,-1.0,0.0,,0.0-140.0,,-1.0,1052.0,1.0,0.42486406,1.0,0.629771829,0.0,0.6550939960000001,1.0,0.459093873,True,,59f4847293b40c00016c9c5d,,1805784,138,,evan-feature22,full_rf_b,,0
112,4074,139,,,,1,1,0.0,0.0,-1.0,0.0,,0.0-141.0,,0.0,1353.0,0.0,0.4803197,0.0,0.645842715,1.0,0.6421749920000001,1.0,0.443092151,True,,59f4847293b40c00016c9c5d,,1816900,139,,evan-feature22,full_rf_b,,0
113,4075,140,,,,2,2,1.0,0.0,0.0,1.0,,0.0-142.0,,0.0,1309.0,1.0,0.521848997,0.0,0.735801074,1.0,0.6691348460000001,0.0,0.45259351600000003,True,,59f4847293b40c00016c9c5d,,1827973,140,,evan-feature22,full_rf_b,,1
114,4076,141,,,,1,1,1.0,1.0,-1.0,0.0,,0.0-143.0,,-1.0,918.0,1.0,0.49565621299999996,1.0,0.742400847,1.0,0.661512553,1.0,0.483110831,True,,59f4847293b40c00016c9c5d,,1838654,141,,evan-feature22,full_rf_b,,1
115,4077,142,,,,1,1,1.0,1.0,-1.0,0.0,,0.0-144.0,,-1.0,861.0,1.0,0.521564361,1.0,0.731078632,1.0,0.6774886809999999,1.0,0.483263956,True,,59f4847293b40c00016c9c5d,,1849281,142,,evan-feature22,full_rf_b,,0
116,4078,143,,,,1,1,1.0,1.0,-1.0,0.0,,0.0-145.0,,-1.0,1094.0,1.0,0.558893102,1.0,0.719810023,1.0,0.67461031,1.0,0.499349834,True,,59f4847293b40c00016c9c5d,,1860140,143,,evan-feature22,full_rf_b,,0
117,4079,144,,,,1,1,1.0,1.0,-1.0,0.0,,0.0-146.0,,-1.0,1053.0,1.0,0.611031046,1.0,0.75,0.0,0.688072995,0.0,0.5321422729999999,True,,59f4847293b40c00016c9c5d,,1870957,144,,evan-feature22,full_rf_b,,0
118,4080,145,,,,1,1,1.0,1.0,0.0,1.0,,0.0-147.0,,1.0,887.0,1.0,0.633223941,1.0,0.713567728,1.0,0.75,1.0,0.48185314700000004,True,,59f4847293b40c00016c9c5d,,1881610,145,,evan-feature22,full_rf_b,,0
119,4081,146,,,,1,1,1.0,0.0,-1.0,0.0,,0.0-148.0,,-1.0,823.0,1.0,0.664001694,0.0,0.705509768,0.0,0.75,1.0,0.500211065,True,,59f4847293b40c00016c9c5d,,1892196,146,,evan-feature22,full_rf_b,,0
120,4082,147,,,,2,2,1.0,1.0,-1.0,0.0,,0.0-149.0,,-1.0,864.0,1.0,0.664001694,0.0,0.705509768,1.0,0.75,1.0,0.500211065,True,,59f4847293b40c00016c9c5d,,1902825,147,,evan-feature22,full_rf_b,,1
121,4083,148,,,,1,1,1.0,1.0,-1.0,0.0,,0.0-150.0,,-1.0,874.0,1.0,0.696508041,1.0,0.71066027,1.0,0.717028709,1.0,0.49792991,True,,59f4847293b40c00016c9c5d,,1913465,148,,evan-feature22,full_rf_b,,1
122,4084,149,,,,1,1,0.0,0.0,0.0,1.0,,0.0-151.0,,0.0,1033.0,0.0,0.699883272,0.0,0.75,1.0,0.713543895,0.0,0.496962643,True,,59f4847293b40c00016c9c5d,,1924260,149,,evan-feature22,full_rf_b,,0
123,4085,150,,,,1,1,1.0,1.0,0.0,1.0,,0.0-152.0,,1.0,1345.0,1.0,0.741163419,1.0,0.75,1.0,0.64691024,1.0,0.513858197,True,,59f4847293b40c00016c9c5d,,1935370,150,,evan-feature22,full_rf_b,,0
124,4086,151,,,,2,2,0.0,1.0,0.0,1.0,,0.0-153.0,,1.0,782.0,1.0,0.75,1.0,0.70816558,0.0,0.594499079,1.0,0.48502124,True,,59f4847293b40c00016c9c5d,,1945914,151,,evan-feature22,full_rf_b,,1
125,4087,152,,,,1,1,0.0,0.0,-1.0,0.0,,0.0-154.0,,0.0,878.0,0.0,0.75,0.0,0.721848901,1.0,0.62197249,0.0,0.48263586399999997,True,,59f4847293b40c00016c9c5d,,1956557,152,,evan-feature22,full_rf_b,,1
126,4088,153,,,,2,2,1.0,0.0,-1.0,0.0,,0.0-155.0,,-1.0,1247.0,0.0,0.75,0.0,0.74813071,1.0,0.584357161,0.0,0.411477782,True,,59f4847293b40c00016c9c5d,,1967568,153,,evan-feature22,full_rf_b,,1
127,4089,154,,,,1,1,1.0,1.0,-1.0,0.0,,0.0-156.0,,-1.0,1235.0,1.0,0.75,1.0,0.75,0.0,0.52287236,0.0,0.488290656,True,,59f4847293b40c00016c9c5d,,1978567,154,,evan-feature22,full_rf_b,,1
128,4090,155,,,,2,2,0.0,1.0,-1.0,0.0,,0.0-157.0,,0.0,747.0,1.0,0.75,1.0,0.75,0.0,0.544321581,1.0,0.53143059,True,,59f4847293b40c00016c9c5d,,1989078,155,,evan-feature22,full_rf_b,,1
129,4091,156,,,,2,2,0.0,1.0,-1.0,0.0,,0.0-158.0,,0.0,2055.0,1.0,0.726754564,0.0,0.75,0.0,0.5129306370000001,1.0,0.530592445,True,,59f4847293b40c00016c9c5d,,2000899,156,,evan-feature22,full_rf_b,,0
130,4092,157,,,,2,2,1.0,1.0,0.0,1.0,,0.0-159.0,,1.0,1663.0,1.0,0.75,0.0,0.7392590729999999,1.0,0.479875835,1.0,0.547007051,True,,59f4847293b40c00016c9c5d,,2012324,157,,evan-feature22,full_rf_b,,0
131,4093,158,,,,2,2,1.0,0.0,0.0,1.0,,0.0-160.0,,0.0,1569.0,0.0,0.75,0.0,0.7393376979999999,1.0,0.546045419,0.0,0.541267353,True,,59f4847293b40c00016c9c5d,,2023660,158,,evan-feature22,full_rf_b,,0
132,4094,159,,,,1,1,1.0,1.0,-1.0,0.0,,0.0-161.0,,-1.0,2238.0,1.0,0.75,1.0,0.75,1.0,0.485725895,0.0,0.527625395,True,,59f4847293b40c00016c9c5d,,2035663,159,,evan-feature22,full_rf_b,,1
133,4095,160,,,,1,1,1.0,1.0,0.0,1.0,,0.0-162.0,,1.0,1069.0,1.0,0.75,1.0,0.725087974,1.0,0.488603595,0.0,0.504019206,True,,59f4847293b40c00016c9c5d,,2046494,160,,evan-feature22,full_rf_b,,0
134,4096,161,,,,1,1,1.0,1.0,-1.0,0.0,,0.0-163.0,,-1.0,1568.0,1.0,0.745504295,1.0,0.75,0.0,0.452379914,0.0,0.50131194,True,,59f4847293b40c00016c9c5d,,2057826,161,,evan-feature22,full_rf_b,,0
135,4097,162,,,,1,1,0.0,1.0,0.0,1.0,,0.0-164.0,,1.0,1470.0,0.0,0.728513874,1.0,0.75,1.0,0.44125567200000004,0.0,0.531454591,True,,59f4847293b40c00016c9c5d,,2069060,162,,evan-feature22,full_rf_b,,0
136,4098,163,,,,2,2,0.0,0.0,-1.0,0.0,,0.0-165.0,,0.0,1446.0,1.0,0.73790804,1.0,0.75,0.0,0.413036656,0.0,0.524619035,True,,59f4847293b40c00016c9c5d,,2080269,163,,evan-feature22,full_rf_b,,1
137,4099,164,,,,2,2,0.0,0.0,-1.0,0.0,,0.0-166.0,,0.0,1997.0,0.0,0.7080961309999999,1.0,0.708666865,0.0,0.431915581,0.0,0.481819489,True,,59f4847293b40c00016c9c5d,,2092029,164,,evan-feature22,full_rf_b,,0
138,4100,165,,,,1,1,1.0,1.0,-1.0,0.0,,0.0-167.0,,-1.0,3753.0,1.0,0.721378003,1.0,0.71605913,0.0,0.36642387,0.0,0.5036739929999999,True,,59f4847293b40c00016c9c5d,,2105545,165,,evan-feature22,full_rf_b,,1
139,4101,166,,,,1,1,0.0,0.0,0.0,1.0,,0.0-168.0,,0.0,1395.0,0.0,0.7340618959999999,0.0,0.699323252,0.0,0.35298046299999997,1.0,0.511241692,True,,59f4847293b40c00016c9c5d,,2116704,166,,evan-feature22,full_rf_b,,0
140,4102,167,,,,2,2,0.0,1.0,0.0,1.0,,0.0-169.0,,1.0,1390.0,1.0,0.75,1.0,0.70412698,0.0,0.380734814,1.0,0.529580116,True,,59f4847293b40c00016c9c5d,,2127861,167,,evan-feature22,full_rf_b,,1
141,4103,168,,,,2,2,0.0,1.0,0.0,1.0,,0.0-170.0,,1.0,1366.0,0.0,0.7436654909999999,1.0,0.711182751,0.0,0.41125331,1.0,0.49554405,True,,59f4847293b40c00016c9c5d,,2138992,168,,evan-feature22,full_rf_b,,0
142,4104,169,,,,2,2,1.0,1.0,-1.0,0.0,,0.0-171.0,,-1.0,1690.0,0.0,0.731607915,1.0,0.651774583,1.0,0.35688023,1.0,0.45194491600000003,True,,59f4847293b40c00016c9c5d,,2150445,169,,evan-feature22,full_rf_b,,0
143,4105,170,,,,1,1,1.0,1.0,0.0,1.0,,0.0-172.0,,1.0,1210.0,1.0,0.75,1.0,0.75,0.0,0.283145374,0.0,0.528608005,True,,59f4847293b40c00016c9c5d,,2161419,170,,evan-feature22,full_rf_b,,1
144,4106,171,,,,1,1,1.0,1.0,-1.0,0.0,,0.0-173.0,,-1.0,2429.0,1.0,0.7491416890000001,1.0,0.7423785959999999,0.0,0.29135870399999997,0.0,0.498888318,True,,59f4847293b40c00016c9c5d,,2173609,171,,evan-feature22,full_rf_b,,0
145,4107,172,,,,1,1,1.0,0.0,0.0,1.0,,0.0-174.0,,0.0,1406.0,1.0,0.708569387,0.0,0.717682277,1.0,0.294421699,1.0,0.493838163,True,,59f4847293b40c00016c9c5d,,2184777,172,,evan-feature22,full_rf_b,,0
146,4108,173,,,,2,2,0.0,1.0,-1.0,0.0,,0.0-175.0,,0.0,1609.0,1.0,0.75,1.0,0.7383382159999999,0.0,0.356098707,1.0,0.442533405,True,,59f4847293b40c00016c9c5d,,2196151,173,,evan-feature22,full_rf_b,,1
147,4109,174,,,,2,2,0.0,0.0,-1.0,0.0,,0.0-176.0,,0.0,1110.0,1.0,0.744527075,1.0,0.75,0.0,0.334127506,0.0,0.393165805,True,,59f4847293b40c00016c9c5d,,2207023,174,,evan-feature22,full_rf_b,,0
148,4110,175,,,,SLOW,SLOW,,,-1.0,0.0,,0.0-177.0,,-3.0,,1.0,0.75,1.0,0.75,0.0,0.33571021799999995,1.0,0.350393962,True,,59f4847293b40c00016c9c5d,,2212830,175,,evan-feature22,full_rf_b,,1
149,4111,176,,,,1,1,0.0,1.0,0.0,1.0,,0.0-178.0,,1.0,660.0,0.0,0.75,1.0,0.75,0.0,0.313628297,0.0,0.36349657399999996,True,,59f4847293b40c00016c9c5d,,2223253,176,,evan-feature22,full_rf_b,,1
150,4112,177,,,,2,2,1.0,0.0,-1.0,0.0,,0.0-179.0,,-1.0,555.0,1.0,0.75,0.0,0.734284182,1.0,0.262667667,0.0,0.380199119,True,,59f4847293b40c00016c9c5d,,2233569,177,,evan-feature22,full_rf_b,,1
151,4113,178,,,,1,1,1.0,1.0,-1.0,0.0,,0.0-180.0,,-1.0,507.0,1.0,0.75,1.0,0.75,0.0,0.25,1.0,0.394494013,True,,59f4847293b40c00016c9c5d,,2243842,178,,evan-feature22,full_rf_b,,1
152,4114,179,,,,2,2,0.0,0.0,-1.0,0.0,,0.0-181.0,,0.0,1414.0,1.0,0.722298145,1.0,0.7357822340000001,0.0,0.25,0.0,0.319142121,True,,59f4847293b40c00016c9c5d,,2255020,179,,evan-feature22,full_rf_b,,1
153,4115,180,,,,1,1,0.0,1.0,-1.0,0.0,,0.0-182.0,,0.0,1410.0,0.0,0.73149275,1.0,0.724276446,0.0,0.305856907,1.0,0.281315057,True,,59f4847293b40c00016c9c5d,,2266193,180,,evan-feature22,full_rf_b,,1
154,4116,181,,,,1,1,1.0,1.0,-1.0,0.0,,0.0-183.0,,-1.0,943.0,1.0,0.7458732690000001,1.0,0.7336382459999999,0.0,0.272571964,0.0,0.266021999,True,,59f4847293b40c00016c9c5d,,2276898,181,,evan-feature22,full_rf_b,,0
155,4117,182,,,,1,1,0.0,1.0,0.0,1.0,,0.0-184.0,,1.0,750.0,0.0,0.705579037,1.0,0.720778292,0.0,0.320238144,1.0,0.30971744,True,,59f4847293b40c00016c9c5d,,2287411,182,,evan-feature22,full_rf_b,,0
156,4118,183,,,,2,2,0.0,1.0,0.0,1.0,,0.0-185.0,,1.0,1569.0,1.0,0.700425648,1.0,0.7198784009999999,0.0,0.272590393,1.0,0.304182931,True,,59f4847293b40c00016c9c5d,,2298743,183,,evan-feature22,full_rf_b,,1
157,4119,184,,,,2,2,0.0,1.0,0.0,1.0,,0.0-186.0,,1.0,883.0,1.0,0.735590785,1.0,0.722714973,0.0,0.25,1.0,0.323421091,True,,59f4847293b40c00016c9c5d,,2309389,184,,evan-feature22,full_rf_b,,0
158,4120,185,,,,2,2,0.0,1.0,0.0,1.0,,0.0-187.0,,1.0,770.0,1.0,0.724807662,1.0,0.63146213,0.0,0.36836492600000004,1.0,0.34592153299999995,True,,59f4847293b40c00016c9c5d,,2319922,185,,evan-feature22,full_rf_b,,0
159,4121,186,,,,2,2,1.0,1.0,-1.0,0.0,,0.0-188.0,,-1.0,941.0,1.0,0.7352796909999999,0.0,0.555111392,1.0,0.36003922,1.0,0.31433779999999995,True,,59f4847293b40c00016c9c5d,,2330624,186,,evan-feature22,full_rf_b,,0
160,4122,187,notice,,,,,,,,,,0.0-189.0,"{""Q0"":""MORE LOST POINTS""}",,20153.0,,,,,,,,,True,,59f4847293b40c00016c9c5d,,2350780,187,Q,survey-text,full_rf_b,,1
161,4123,188,track1,,[1],,,,,,,,0.0-190.0,"{""Q0"":""no""}",,4110.0,,,,,,,,,True,,59f4847293b40c00016c9c5d,,2354895,188,Q,evan-quiz,full_rf_b,,1
162,4124,189,track2,,[0],,,,,,,,0.0-191.0,"{""Q0"":""yes""}",,5960.0,,,,,,,,,True,,59f4847293b40c00016c9c5d,,2360859,189,Q,evan-quiz,full_rf_b,,1
163,4125,190,strat,,,,,,,,,,0.0-192.0,"{""Q0"":""STAYING WHERE THE ALIENS WERE BEHIND THE DOOR""}",,26153.0,,,,,,,,,True,,59f4847293b40c00016c9c5d,,2387016,190,Q,survey-text,full_rf_b,,1
