,index,Unnamed: 0,Q_name,button_pressed,choice_idxs,chosen_pos,chosen_state,chosen_state_f_1_outcome,chosen_state_f_2_outcome,f_1_reward,f_2_reward,incor_questions,internal_node_id,responses,reward_received,rt,s_1_f_1_outcome,s_1_f_1_prob,s_1_f_2_outcome,s_1_f_2_prob,s_2_f_1_outcome,s_2_f_1_prob,s_2_f_2_outcome,s_2_f_2_prob,safe_first,stimulus,subjectID,success,time_elapsed,trial_index,trial_num,trial_type,version,view_history,switching
0,25783,30,,,,1,1,1.0,1.0,0.0,1.0,,0.0-27.0,,1.0,1393.175,1.0,0.6,1.0,0.6,0.0,0.4,0.0,0.4,True,,5cd2fa354cf69b0017a9b2f7,,604916,30,,evan-feature22,full_rf_b,,0
1,25784,31,,,,1,1,1.0,1.0,0.0,1.0,,0.0-28.0,,1.0,1512.3,1.0,0.608053294,1.0,0.63424552,0.0,0.397152172,0.0,0.347069101,True,,5cd2fa354cf69b0017a9b2f7,,616190,31,,evan-feature22,full_rf_b,,0
2,25785,32,,,,1,1,1.0,0.0,0.0,1.0,,0.0-29.0,,0.0,1287.515,1.0,0.642237155,0.0,0.648566321,0.0,0.389407674,0.0,0.285525717,True,,5cd2fa354cf69b0017a9b2f7,,627237,32,,evan-feature22,full_rf_b,,0
3,25786,33,,,,1,1,1.0,1.0,0.0,1.0,,0.0-30.0,,1.0,984.865,1.0,0.661086576,1.0,0.630492543,1.0,0.399058924,1.0,0.25,True,,5cd2fa354cf69b0017a9b2f7,,637983,33,,evan-feature22,full_rf_b,,0
4,25787,34,,,,1,1,0.0,1.0,0.0,1.0,,0.0-31.0,,1.0,1306.445,0.0,0.631324137,1.0,0.6269842929999999,1.0,0.38734784299999997,0.0,0.25,True,,5cd2fa354cf69b0017a9b2f7,,649050,34,,evan-feature22,full_rf_b,,0
5,25788,35,,,,2,2,0.0,1.0,0.0,1.0,,0.0-32.0,,1.0,1081.015,1.0,0.6381991370000001,0.0,0.68987999,0.0,0.384107265,1.0,0.271332943,True,,5cd2fa354cf69b0017a9b2f7,,659892,35,,evan-feature22,full_rf_b,,1
6,25789,36,,,,2,2,0.0,0.0,0.0,1.0,,0.0-33.0,,0.0,1504.055,1.0,0.66034901,1.0,0.742641349,0.0,0.360225629,0.0,0.25,True,,5cd2fa354cf69b0017a9b2f7,,671156,36,,evan-feature22,full_rf_b,,0
7,25790,37,,,,1,1,1.0,1.0,-1.0,0.0,,0.0-34.0,,-1.0,1818.905,1.0,0.638612418,1.0,0.75,0.0,0.367273939,1.0,0.25,True,,5cd2fa354cf69b0017a9b2f7,,682736,37,,evan-feature22,full_rf_b,,1
8,25791,38,,,,2,2,1.0,0.0,0.0,1.0,,0.0-35.0,,0.0,1228.285,1.0,0.624340629,1.0,0.75,1.0,0.425829545,0.0,0.25,True,,5cd2fa354cf69b0017a9b2f7,,693724,38,,evan-feature22,full_rf_b,,1
9,25792,39,,,,1,1,0.0,1.0,0.0,1.0,,0.0-36.0,,1.0,1305.53,0.0,0.621999804,1.0,0.75,1.0,0.368609357,1.0,0.25,True,,5cd2fa354cf69b0017a9b2f7,,704789,39,,evan-feature22,full_rf_b,,1
10,25793,40,,,,1,1,1.0,1.0,-1.0,0.0,,0.0-37.0,,-1.0,1637.3,1.0,0.62666403,1.0,0.75,0.0,0.311151498,0.0,0.25,True,,5cd2fa354cf69b0017a9b2f7,,716189,40,,evan-feature22,full_rf_b,,0
11,25794,41,,,,2,2,0.0,0.0,-1.0,0.0,,0.0-38.0,,0.0,2321.715,1.0,0.6819650009999999,1.0,0.75,0.0,0.310763048,0.0,0.25,True,,5cd2fa354cf69b0017a9b2f7,,728271,41,,evan-feature22,full_rf_b,,1
12,25795,42,,,,1,1,0.0,1.0,0.0,1.0,,0.0-39.0,,1.0,1313.195,0.0,0.740626951,1.0,0.75,0.0,0.25,0.0,0.25,True,,5cd2fa354cf69b0017a9b2f7,,739347,42,,evan-feature22,full_rf_b,,1
13,25796,43,,,,1,1,0.0,0.0,0.0,1.0,,0.0-40.0,,0.0,1062.95,0.0,0.739599242,0.0,0.742034978,1.0,0.25397114600000004,0.0,0.25,True,,5cd2fa354cf69b0017a9b2f7,,750171,43,,evan-feature22,full_rf_b,,0
14,25797,44,,,,1,1,1.0,0.0,0.0,1.0,,0.0-41.0,,0.0,1717.615,1.0,0.732341315,0.0,0.72735643,1.0,0.25,1.0,0.25,True,,5cd2fa354cf69b0017a9b2f7,,761650,44,,evan-feature22,full_rf_b,,0
15,25798,45,,,,2,2,0.0,0.0,0.0,1.0,,0.0-42.0,,0.0,600.135,0.0,0.7062287770000001,0.0,0.75,0.0,0.29002151,0.0,0.288256649,True,,5cd2fa354cf69b0017a9b2f7,,772010,45,,evan-feature22,full_rf_b,,1
16,25799,46,,,,2,2,0.0,0.0,-1.0,0.0,,0.0-43.0,,0.0,2729.815,0.0,0.7086029209999999,1.0,0.75,0.0,0.274129113,0.0,0.262851608,True,,5cd2fa354cf69b0017a9b2f7,,784498,46,,evan-feature22,full_rf_b,,0
17,25800,47,,,,1,1,1.0,0.0,0.0,1.0,,0.0-44.0,,0.0,1004.63,1.0,0.669189651,0.0,0.727614338,0.0,0.298444036,0.0,0.296944518,True,,5cd2fa354cf69b0017a9b2f7,,795263,47,,evan-feature22,full_rf_b,,1
18,25801,48,,,,2,2,0.0,1.0,-1.0,0.0,,0.0-45.0,,0.0,1671.295,1.0,0.6819912929999999,1.0,0.7179434290000001,0.0,0.265003961,1.0,0.28157921199999997,True,,5cd2fa354cf69b0017a9b2f7,,806692,48,,evan-feature22,full_rf_b,,1
19,25802,49,,,,2,2,0.0,0.0,-1.0,0.0,,0.0-46.0,,0.0,1495.72,1.0,0.665275002,1.0,0.723065271,0.0,0.260414971,0.0,0.30973870000000003,True,,5cd2fa354cf69b0017a9b2f7,,817946,49,,evan-feature22,full_rf_b,,0
20,25803,50,,,,1,1,1.0,1.0,0.0,1.0,,0.0-47.0,,1.0,1124.1,1.0,0.6660593260000001,1.0,0.728032907,1.0,0.30922817,1.0,0.338778608,True,,5cd2fa354cf69b0017a9b2f7,,828832,50,,evan-feature22,full_rf_b,,1
21,25804,51,,,,1,1,1.0,1.0,0.0,1.0,,0.0-48.0,,1.0,958.385,1.0,0.702068785,1.0,0.6528750879999999,1.0,0.287329608,0.0,0.35789613200000003,True,,5cd2fa354cf69b0017a9b2f7,,839555,51,,evan-feature22,full_rf_b,,0
22,25805,52,,,,1,1,1.0,0.0,0.0,1.0,,0.0-49.0,,0.0,864.67,1.0,0.651939787,0.0,0.636725589,0.0,0.284834488,0.0,0.358563756,True,,5cd2fa354cf69b0017a9b2f7,,850178,52,,evan-feature22,full_rf_b,,0
23,25806,53,,,,1,1,1.0,0.0,0.0,1.0,,0.0-50.0,,0.0,1895.95,1.0,0.67573929,0.0,0.612550049,0.0,0.37130387600000003,0.0,0.383542402,True,,5cd2fa354cf69b0017a9b2f7,,861835,53,,evan-feature22,full_rf_b,,0
24,25807,54,,,,2,2,1.0,0.0,0.0,1.0,,0.0-51.0,,0.0,1303.455,1.0,0.620753801,0.0,0.60513644,1.0,0.385529434,0.0,0.340361743,True,,5cd2fa354cf69b0017a9b2f7,,872897,54,,evan-feature22,full_rf_b,,1
25,25808,55,,,,2,2,0.0,0.0,-1.0,0.0,,0.0-52.0,,0.0,3777.325,1.0,0.673564893,1.0,0.672437924,0.0,0.292955382,0.0,0.337633795,True,,5cd2fa354cf69b0017a9b2f7,,886435,55,,evan-feature22,full_rf_b,,0
26,25809,56,,,,1,1,1.0,0.0,0.0,1.0,,0.0-53.0,,0.0,1134.815,1.0,0.6749427,0.0,0.724197502,1.0,0.32391132100000003,0.0,0.350995264,True,,5cd2fa354cf69b0017a9b2f7,,897326,56,,evan-feature22,full_rf_b,,1
27,25810,57,,,,1,1,1.0,0.0,0.0,1.0,,0.0-54.0,,0.0,1093.63,1.0,0.6940159379999999,0.0,0.75,0.0,0.31710554399999996,0.0,0.413450341,True,,5cd2fa354cf69b0017a9b2f7,,908180,57,,evan-feature22,full_rf_b,,0
28,25811,58,,,,1,1,1.0,1.0,0.0,1.0,,0.0-55.0,,1.0,1912.76,1.0,0.6916018270000001,1.0,0.69001187,1.0,0.261817804,1.0,0.40038635,True,,5cd2fa354cf69b0017a9b2f7,,919852,58,,evan-feature22,full_rf_b,,0
29,25812,59,,,,1,1,1.0,0.0,0.0,1.0,,0.0-56.0,,0.0,1845.445,1.0,0.641061544,0.0,0.71337992,0.0,0.277296461,1.0,0.47372791700000005,True,,5cd2fa354cf69b0017a9b2f7,,931459,59,,evan-feature22,full_rf_b,,0
30,25813,60,,,,2,2,0.0,0.0,0.0,1.0,,0.0-57.0,,0.0,821.0549997,0.0,0.6082438520000001,1.0,0.708471106,0.0,0.28745137,0.0,0.564174476,True,,5cd2fa354cf69b0017a9b2f7,,942041,60,,evan-feature22,full_rf_b,,1
31,25814,61,,,,2,2,0.0,0.0,-1.0,0.0,,0.0-58.0,,0.0,1222.245,0.0,0.6051112120000001,1.0,0.7118147229999999,0.0,0.272390611,0.0,0.5595149939999999,True,,5cd2fa354cf69b0017a9b2f7,,953022,61,,evan-feature22,full_rf_b,,0
32,25815,62,,,,2,2,1.0,1.0,-1.0,0.0,,0.0-59.0,,-1.0,1076.43,0.0,0.582420852,0.0,0.635867583,1.0,0.31089574,1.0,0.5227206520000001,True,,5cd2fa354cf69b0017a9b2f7,,963862,62,,evan-feature22,full_rf_b,,0
33,25816,63,,,,1,1,1.0,0.0,-1.0,0.0,,0.0-60.0,,-1.0,1862.02,1.0,0.623195575,0.0,0.655026044,0.0,0.25,1.0,0.560387538,True,,5cd2fa354cf69b0017a9b2f7,,975488,63,,evan-feature22,full_rf_b,,1
34,25817,64,,,,2,2,0.0,1.0,0.0,1.0,,0.0-61.0,,1.0,2424.605,0.0,0.601889598,0.0,0.678198724,0.0,0.25,1.0,0.559922936,True,,5cd2fa354cf69b0017a9b2f7,,987673,64,,evan-feature22,full_rf_b,,1
35,25818,65,,,,2,2,0.0,0.0,-1.0,0.0,,0.0-62.0,,0.0,3208.285,1.0,0.601259914,0.0,0.704681482,0.0,0.33908969299999997,0.0,0.505003715,True,,5cd2fa354cf69b0017a9b2f7,,1000641,65,,evan-feature22,full_rf_b,,0
36,25819,66,,,,2,2,0.0,0.0,-1.0,0.0,,0.0-63.0,,0.0,833.5599997,0.0,0.59645454,1.0,0.710437172,0.0,0.327441879,0.0,0.391749613,True,,5cd2fa354cf69b0017a9b2f7,,1011233,66,,evan-feature22,full_rf_b,,0
37,25820,67,,,,2,2,1.0,0.0,0.0,1.0,,0.0-64.0,,0.0,614.1599999,0.0,0.529473,1.0,0.636758527,1.0,0.301338063,0.0,0.365661481,True,,5cd2fa354cf69b0017a9b2f7,,1021606,67,,evan-feature22,full_rf_b,,0
38,25821,68,,,,1,1,0.0,1.0,-1.0,0.0,,0.0-65.0,,0.0,3147.455,0.0,0.541657162,1.0,0.634541962,0.0,0.343535366,0.0,0.371763742,True,,5cd2fa354cf69b0017a9b2f7,,1034515,68,,evan-feature22,full_rf_b,,1
39,25822,69,,,,1,1,0.0,0.0,-1.0,0.0,,0.0-66.0,,0.0,1177.48,0.0,0.5707533260000001,0.0,0.589121171,0.0,0.326428396,1.0,0.43961622899999997,True,,5cd2fa354cf69b0017a9b2f7,,1045453,69,,evan-feature22,full_rf_b,,0
40,25823,70,,,,2,2,0.0,0.0,0.0,1.0,,0.0-67.0,,0.0,1155.95,0.0,0.5707533260000001,0.0,0.589121171,0.0,0.326428396,0.0,0.43961622899999997,True,,5cd2fa354cf69b0017a9b2f7,,1056370,70,,evan-feature22,full_rf_b,,1
41,25824,71,,,,1,1,0.0,1.0,0.0,1.0,,0.0-68.0,,1.0,937.5900002000001,0.0,0.506271295,1.0,0.641775594,0.0,0.37149690700000004,0.0,0.404330166,True,,5cd2fa354cf69b0017a9b2f7,,1067069,71,,evan-feature22,full_rf_b,,1
42,25825,72,,,,2,2,1.0,0.0,-1.0,0.0,,0.0-69.0,,-1.0,1560.985,0.0,0.455642565,0.0,0.623605825,1.0,0.358753011,0.0,0.346174041,True,,5cd2fa354cf69b0017a9b2f7,,1078388,72,,evan-feature22,full_rf_b,,1
43,25826,73,,,,1,1,1.0,0.0,0.0,1.0,,0.0-70.0,,0.0,546.0450002,1.0,0.483677308,0.0,0.5904681070000001,0.0,0.402218411,1.0,0.35344697,True,,5cd2fa354cf69b0017a9b2f7,,1088695,73,,evan-feature22,full_rf_b,,1
44,25827,74,,,,2,2,1.0,0.0,-1.0,0.0,,0.0-71.0,,-1.0,2731.49,0.0,0.394210977,0.0,0.558925494,1.0,0.540052017,0.0,0.35182128700000004,True,,5cd2fa354cf69b0017a9b2f7,,1101187,74,,evan-feature22,full_rf_b,,1
45,25828,75,,,,1,1,0.0,1.0,0.0,1.0,,0.0-72.0,,1.0,650.6849998,0.0,0.382300414,1.0,0.577670603,1.0,0.607608448,0.0,0.378261578,True,,5cd2fa354cf69b0017a9b2f7,,1111595,75,,evan-feature22,full_rf_b,,1
46,25829,76,,,,1,1,0.0,1.0,-1.0,0.0,,0.0-73.0,,0.0,1552.14,0.0,0.357596762,1.0,0.5929076529999999,1.0,0.6579790010000001,1.0,0.401326777,True,,5cd2fa354cf69b0017a9b2f7,,1122907,76,,evan-feature22,full_rf_b,,0
47,25830,77,,,,1,1,0.0,0.0,0.0,1.0,,0.0-74.0,,0.0,628.1499997999999,0.0,0.362033495,0.0,0.582308608,1.0,0.649195052,0.0,0.355158505,True,,5cd2fa354cf69b0017a9b2f7,,1133295,77,,evan-feature22,full_rf_b,,0
48,25831,78,,,,1,1,0.0,1.0,0.0,1.0,,0.0-75.0,,1.0,1068.005,0.0,0.369620635,1.0,0.669100864,1.0,0.706059111,1.0,0.362516241,True,,5cd2fa354cf69b0017a9b2f7,,1144123,78,,evan-feature22,full_rf_b,,0
49,25832,79,,,,1,1,0.0,0.0,0.0,1.0,,0.0-76.0,,0.0,2285.39,0.0,0.41477751399999996,0.0,0.7284416779999999,1.0,0.7182656940000001,1.0,0.36228040899999997,True,,5cd2fa354cf69b0017a9b2f7,,1156169,79,,evan-feature22,full_rf_b,,0
50,25833,80,,,,2,2,1.0,1.0,-1.0,0.0,,0.0-77.0,,-1.0,2164.215,1.0,0.37675460299999997,1.0,0.703250285,1.0,0.75,1.0,0.461979164,True,,5cd2fa354cf69b0017a9b2f7,,1168097,80,,evan-feature22,full_rf_b,,1
51,25834,81,,,,2,2,1.0,1.0,-1.0,0.0,,0.0-78.0,,-1.0,1011.095,0.0,0.398716075,1.0,0.6723864890000001,1.0,0.674153818,1.0,0.519029516,True,,5cd2fa354cf69b0017a9b2f7,,1178870,81,,evan-feature22,full_rf_b,,0
52,25835,82,,,,1,1,0.0,1.0,-1.0,0.0,,0.0-79.0,,0.0,3455.415,0.0,0.34677856700000004,1.0,0.69057175,0.0,0.6822438540000001,1.0,0.477292237,True,,5cd2fa354cf69b0017a9b2f7,,1192086,82,,evan-feature22,full_rf_b,,1
53,25836,83,,,,1,1,0.0,1.0,0.0,1.0,,0.0-80.0,,1.0,819.78,0.0,0.28580469199999997,1.0,0.68408818,1.0,0.684207565,0.0,0.49780448299999996,True,,5cd2fa354cf69b0017a9b2f7,,1202666,83,,evan-feature22,full_rf_b,,0
54,25838,85,,,,1,1,0.0,1.0,0.0,1.0,,0.0-82.0,,1.0,1293.37,0.0,0.25,1.0,0.7405808970000001,1.0,0.679614108,1.0,0.436436964,True,,5cd2fa354cf69b0017a9b2f7,,1216199,85,,evan-feature22,full_rf_b,,0
55,25839,86,,,,1,1,0.0,0.0,0.0,1.0,,0.0-83.0,,0.0,1551.915,0.0,0.29890393,0.0,0.730505706,1.0,0.7328203320000001,0.0,0.439256938,True,,5cd2fa354cf69b0017a9b2f7,,1227511,86,,evan-feature22,full_rf_b,,0
56,25840,87,,,,1,1,0.0,1.0,-1.0,0.0,,0.0-84.0,,0.0,2704.78,0.0,0.326762398,1.0,0.7148059609999999,1.0,0.75,1.0,0.44389608799999997,True,,5cd2fa354cf69b0017a9b2f7,,1239980,87,,evan-feature22,full_rf_b,,0
57,25841,88,,,,1,1,0.0,1.0,0.0,1.0,,0.0-85.0,,1.0,1779.56,0.0,0.295168515,1.0,0.739760854,0.0,0.719947008,0.0,0.35277284600000003,True,,5cd2fa354cf69b0017a9b2f7,,1251521,88,,evan-feature22,full_rf_b,,0
58,25842,89,,,,2,2,1.0,1.0,0.0,1.0,,0.0-86.0,,1.0,1448.135,0.0,0.25,1.0,0.70781482,1.0,0.75,1.0,0.286095925,True,,5cd2fa354cf69b0017a9b2f7,,1262730,89,,evan-feature22,full_rf_b,,1
59,25843,90,,,,1,1,0.0,1.0,0.0,1.0,,0.0-87.0,,1.0,1989.515,0.0,0.25638190899999996,1.0,0.704088163,1.0,0.75,0.0,0.26872601399999996,True,,5cd2fa354cf69b0017a9b2f7,,1274480,90,,evan-feature22,full_rf_b,,1
60,25844,91,,,,1,1,0.0,1.0,-1.0,0.0,,0.0-88.0,,0.0,2864.125,0.0,0.271581126,1.0,0.669760107,1.0,0.733896663,0.0,0.273244572,True,,5cd2fa354cf69b0017a9b2f7,,1287105,91,,evan-feature22,full_rf_b,,0
61,25845,92,,,,1,1,1.0,1.0,0.0,1.0,,0.0-89.0,,1.0,2094.84,1.0,0.257144401,1.0,0.600575706,0.0,0.74488122,1.0,0.25,True,,5cd2fa354cf69b0017a9b2f7,,1298962,92,,evan-feature22,full_rf_b,,0
62,25846,93,,,,2,2,1.0,0.0,0.0,1.0,,0.0-90.0,,0.0,2496.765,0.0,0.25,1.0,0.616870026,1.0,0.723610234,0.0,0.25,True,,5cd2fa354cf69b0017a9b2f7,,1311217,93,,evan-feature22,full_rf_b,,1
63,25847,94,,,,1,1,0.0,0.0,-1.0,0.0,,0.0-91.0,,0.0,3636.69,0.0,0.25,0.0,0.583540187,1.0,0.7041042559999999,0.0,0.285961995,True,,5cd2fa354cf69b0017a9b2f7,,1324611,94,,evan-feature22,full_rf_b,,1
64,25848,95,,,,1,1,0.0,0.0,-1.0,0.0,,0.0-92.0,,0.0,1379.835,0.0,0.27254536,0.0,0.53875765,1.0,0.693783448,1.0,0.284961652,True,,5cd2fa354cf69b0017a9b2f7,,1335749,95,,evan-feature22,full_rf_b,,0
65,25849,96,,,,1,1,0.0,0.0,-1.0,0.0,,0.0-93.0,,0.0,2882.485,0.0,0.25,0.0,0.548431252,1.0,0.734221895,0.0,0.279445214,True,,5cd2fa354cf69b0017a9b2f7,,1348391,96,,evan-feature22,full_rf_b,,0
66,25850,97,,,,1,1,0.0,1.0,0.0,1.0,,0.0-94.0,,1.0,2641.21,0.0,0.258640684,1.0,0.545878066,1.0,0.725245965,1.0,0.31487537,True,,5cd2fa354cf69b0017a9b2f7,,1360793,97,,evan-feature22,full_rf_b,,0
67,25851,98,,,,1,1,0.0,0.0,0.0,1.0,,0.0-95.0,,0.0,3843.95,0.0,0.251103711,0.0,0.5776290629999999,1.0,0.696320133,1.0,0.317831047,True,,5cd2fa354cf69b0017a9b2f7,,1374397,98,,evan-feature22,full_rf_b,,0
68,25852,99,,,,1,1,1.0,1.0,0.0,1.0,,0.0-96.0,,1.0,3515.31,1.0,0.276630292,1.0,0.617329858,1.0,0.73838088,0.0,0.261471582,True,,5cd2fa354cf69b0017a9b2f7,,1387676,99,,evan-feature22,full_rf_b,,0
69,25853,100,,,,1,1,0.0,1.0,0.0,1.0,,0.0-97.0,,1.0,2177.995,0.0,0.297716424,1.0,0.618863717,0.0,0.7402358259999999,0.0,0.262600834,True,,5cd2fa354cf69b0017a9b2f7,,1399613,100,,evan-feature22,full_rf_b,,0
70,25854,101,,,,SLOW,SLOW,,,-1.0,0.0,,0.0-98.0,,-3.0,,1.0,0.290935512,0.0,0.695370945,0.0,0.706570507,1.0,0.280030553,True,,5cd2fa354cf69b0017a9b2f7,,1405418,101,,evan-feature22,full_rf_b,,1
71,25855,102,,,,1,1,0.0,0.0,0.0,1.0,,0.0-99.0,,0.0,1486.585,0.0,0.25,0.0,0.6465277079999999,1.0,0.67766682,1.0,0.25,True,,5cd2fa354cf69b0017a9b2f7,,1416662,102,,evan-feature22,full_rf_b,,1
72,25856,103,,,,2,2,1.0,1.0,-1.0,0.0,,0.0-100.0,,-1.0,1276.02,1.0,0.26463816,1.0,0.636100213,1.0,0.646048507,1.0,0.265607101,True,,5cd2fa354cf69b0017a9b2f7,,1427700,103,,evan-feature22,full_rf_b,,1
73,25857,104,,,,1,1,0.0,1.0,-1.0,0.0,,0.0-101.0,,0.0,1734.11,0.0,0.314340707,1.0,0.667795927,1.0,0.613630805,0.0,0.25,True,,5cd2fa354cf69b0017a9b2f7,,1439196,104,,evan-feature22,full_rf_b,,1
74,25858,105,,,,1,1,0.0,1.0,0.0,1.0,,0.0-102.0,,1.0,1349.2,0.0,0.28685784,1.0,0.6622549529999999,1.0,0.652154117,0.0,0.25,True,,5cd2fa354cf69b0017a9b2f7,,1450305,105,,evan-feature22,full_rf_b,,0
75,25859,106,,,,1,1,0.0,1.0,0.0,1.0,,0.0-103.0,,1.0,867.29,0.0,0.304106554,1.0,0.631289538,1.0,0.707041942,1.0,0.29314237,True,,5cd2fa354cf69b0017a9b2f7,,1460932,106,,evan-feature22,full_rf_b,,0
76,25860,107,,,,1,1,0.0,1.0,0.0,1.0,,0.0-104.0,,1.0,425.83999969999996,0.0,0.304806932,1.0,0.571167718,0.0,0.680472346,0.0,0.25,True,,5cd2fa354cf69b0017a9b2f7,,1471116,107,,evan-feature22,full_rf_b,,0
77,25861,108,,,,1,1,0.0,1.0,0.0,1.0,,0.0-105.0,,1.0,579.1099998,0.0,0.37919861,1.0,0.5724849710000001,1.0,0.705638003,1.0,0.30179300600000003,True,,5cd2fa354cf69b0017a9b2f7,,1481455,108,,evan-feature22,full_rf_b,,0
78,25862,109,,,,1,1,1.0,0.0,0.0,1.0,,0.0-106.0,,0.0,1357.725,1.0,0.464277969,0.0,0.554034373,0.0,0.7372627340000001,0.0,0.264699741,True,,5cd2fa354cf69b0017a9b2f7,,1492575,109,,evan-feature22,full_rf_b,,0
79,25863,110,,,,1,1,0.0,0.0,0.0,1.0,,0.0-107.0,,0.0,780.0650001,0.0,0.465104323,0.0,0.530793115,1.0,0.75,1.0,0.31683071,True,,5cd2fa354cf69b0017a9b2f7,,1503113,110,,evan-feature22,full_rf_b,,0
80,25864,111,,,,1,1,0.0,1.0,-1.0,0.0,,0.0-108.0,,0.0,2292.615,0.0,0.465104323,1.0,0.530793115,1.0,0.75,1.0,0.31683071,True,,5cd2fa354cf69b0017a9b2f7,,1515169,111,,evan-feature22,full_rf_b,,0
81,25865,112,,,,1,1,0.0,0.0,-1.0,0.0,,0.0-109.0,,0.0,1671.01,0.0,0.46833986,0.0,0.570249239,1.0,0.7244472590000001,1.0,0.364114163,True,,5cd2fa354cf69b0017a9b2f7,,1526603,112,,evan-feature22,full_rf_b,,0
82,25866,113,,,,1,1,0.0,1.0,-1.0,0.0,,0.0-110.0,,0.0,2140.77,0.0,0.445444024,1.0,0.649673355,1.0,0.6845441290000001,1.0,0.300660449,True,,5cd2fa354cf69b0017a9b2f7,,1538505,113,,evan-feature22,full_rf_b,,0
83,25867,114,,,,1,1,0.0,0.0,-1.0,0.0,,0.0-111.0,,0.0,1931.71,0.0,0.39909721299999995,0.0,0.6715179509999999,0.0,0.742310028,1.0,0.35496088299999995,True,,5cd2fa354cf69b0017a9b2f7,,1550196,114,,evan-feature22,full_rf_b,,0
84,25868,115,,,,1,1,0.0,1.0,0.0,1.0,,0.0-112.0,,1.0,2664.45,0.0,0.37956104799999996,1.0,0.694725302,1.0,0.7181651309999999,1.0,0.38726906299999997,True,,5cd2fa354cf69b0017a9b2f7,,1562621,115,,evan-feature22,full_rf_b,,0
85,25869,116,,,,1,1,0.0,0.0,0.0,1.0,,0.0-113.0,,0.0,2112.77,0.0,0.404995034,0.0,0.724375412,0.0,0.6910946859999999,1.0,0.387187347,True,,5cd2fa354cf69b0017a9b2f7,,1574494,116,,evan-feature22,full_rf_b,,0
86,25870,117,,,,2,2,1.0,1.0,-1.0,0.0,,0.0-114.0,,-1.0,1934.645,1.0,0.461740803,0.0,0.75,1.0,0.75,1.0,0.34872038200000005,True,,5cd2fa354cf69b0017a9b2f7,,1586190,117,,evan-feature22,full_rf_b,,1
87,25871,118,,,,1,1,1.0,0.0,-1.0,0.0,,0.0-115.0,,-1.0,2223.985,1.0,0.43821380600000004,0.0,0.738833273,1.0,0.728286963,0.0,0.399538128,True,,5cd2fa354cf69b0017a9b2f7,,1598172,118,,evan-feature22,full_rf_b,,1
88,25872,119,,,,1,1,1.0,1.0,0.0,1.0,,0.0-116.0,,1.0,2038.255,1.0,0.41709882,1.0,0.736666736,1.0,0.75,1.0,0.389095584,True,,5cd2fa354cf69b0017a9b2f7,,1609971,119,,evan-feature22,full_rf_b,,0
89,25873,120,,,,1,1,0.0,1.0,0.0,1.0,,0.0-117.0,,1.0,2192.335,0.0,0.39749009799999996,1.0,0.744320029,1.0,0.75,0.0,0.363848678,True,,5cd2fa354cf69b0017a9b2f7,,1621923,120,,evan-feature22,full_rf_b,,0
90,25874,121,,,,1,1,1.0,0.0,-1.0,0.0,,0.0-118.0,,-1.0,2720.01,1.0,0.392653706,0.0,0.75,1.0,0.75,0.0,0.384386976,True,,5cd2fa354cf69b0017a9b2f7,,1634404,121,,evan-feature22,full_rf_b,,0
91,25875,122,,,,1,1,0.0,0.0,0.0,1.0,,0.0-119.0,,0.0,2052.98,0.0,0.31190902600000003,0.0,0.75,1.0,0.732413819,0.0,0.413082932,True,,5cd2fa354cf69b0017a9b2f7,,1646218,122,,evan-feature22,full_rf_b,,0
92,25876,123,,,,2,2,0.0,1.0,-1.0,0.0,,0.0-120.0,,0.0,1895.67,0.0,0.366917648,1.0,0.740073855,0.0,0.75,1.0,0.352861979,True,,5cd2fa354cf69b0017a9b2f7,,1657874,123,,evan-feature22,full_rf_b,,1
93,25877,124,,,,1,1,0.0,1.0,-1.0,0.0,,0.0-121.0,,0.0,2332.33,0.0,0.3645172,1.0,0.721770713,0.0,0.75,0.0,0.404074511,True,,5cd2fa354cf69b0017a9b2f7,,1669965,124,,evan-feature22,full_rf_b,,1
94,25878,125,,,,1,1,0.0,1.0,-1.0,0.0,,0.0-122.0,,0.0,2084.985,0.0,0.35205600299999995,1.0,0.68983859,0.0,0.739735447,1.0,0.366895945,True,,5cd2fa354cf69b0017a9b2f7,,1681810,125,,evan-feature22,full_rf_b,,0
95,25879,126,,,,1,1,0.0,0.0,-1.0,0.0,,0.0-123.0,,0.0,2042.625,0.0,0.40998722600000004,0.0,0.720859127,0.0,0.673854955,0.0,0.368528541,True,,5cd2fa354cf69b0017a9b2f7,,1693610,126,,evan-feature22,full_rf_b,,0
96,25880,127,,,,1,1,1.0,1.0,-1.0,0.0,,0.0-124.0,,-1.0,2201.53,1.0,0.353625316,1.0,0.75,1.0,0.695605473,0.0,0.38303674200000004,True,,5cd2fa354cf69b0017a9b2f7,,1705571,127,,evan-feature22,full_rf_b,,0
97,25881,128,,,,1,1,1.0,1.0,-1.0,0.0,,0.0-125.0,,-1.0,2704.595,1.0,0.359216989,1.0,0.75,1.0,0.6987915090000001,0.0,0.35169046200000004,True,,5cd2fa354cf69b0017a9b2f7,,1718037,128,,evan-feature22,full_rf_b,,0
98,25882,129,,,,1,1,0.0,0.0,-1.0,0.0,,0.0-126.0,,0.0,1533.145,0.0,0.35834496899999996,0.0,0.75,0.0,0.707067742,1.0,0.416763636,True,,5cd2fa354cf69b0017a9b2f7,,1729331,129,,evan-feature22,full_rf_b,,0
99,25883,130,,,,2,2,1.0,1.0,0.0,1.0,,0.0-127.0,,1.0,2141.0,1.0,0.38741613799999997,1.0,0.7177369570000001,1.0,0.734902455,1.0,0.49438664299999996,True,,5cd2fa354cf69b0017a9b2f7,,1741232,130,,evan-feature22,full_rf_b,,1
100,25884,131,,,,1,1,1.0,1.0,-1.0,0.0,,0.0-128.0,,-1.0,1454.765,1.0,0.405255252,1.0,0.7300466640000001,1.0,0.7027748070000001,1.0,0.504359668,True,,5cd2fa354cf69b0017a9b2f7,,1752450,131,,evan-feature22,full_rf_b,,1
101,25885,132,,,,1,1,0.0,1.0,-1.0,0.0,,0.0-129.0,,0.0,680.3800003,0.0,0.40697073,1.0,0.7260142190000001,0.0,0.724461982,0.0,0.522779179,True,,5cd2fa354cf69b0017a9b2f7,,1762891,132,,evan-feature22,full_rf_b,,0
102,25886,133,,,,1,1,1.0,1.0,-1.0,0.0,,0.0-130.0,,-1.0,1455.615,1.0,0.43906215299999996,1.0,0.7252802340000001,1.0,0.719079934,0.0,0.5712990579999999,True,,5cd2fa354cf69b0017a9b2f7,,1774105,133,,evan-feature22,full_rf_b,,0
103,25887,134,,,,2,2,1.0,1.0,0.0,1.0,,0.0-131.0,,1.0,1527.27,1.0,0.4076705,1.0,0.73280499,1.0,0.681313127,1.0,0.523891346,True,,5cd2fa354cf69b0017a9b2f7,,1785394,134,,evan-feature22,full_rf_b,,1
104,25888,135,,,,2,2,0.0,1.0,0.0,1.0,,0.0-132.0,,1.0,2462.585,1.0,0.399102911,1.0,0.730498344,0.0,0.661080239,1.0,0.46742603,True,,5cd2fa354cf69b0017a9b2f7,,1797615,135,,evan-feature22,full_rf_b,,0
105,25889,136,,,,2,2,1.0,0.0,0.0,1.0,,0.0-133.0,,0.0,2248.105,0.0,0.356477282,1.0,0.712296395,1.0,0.641812684,0.0,0.44868414,True,,5cd2fa354cf69b0017a9b2f7,,1809623,136,,evan-feature22,full_rf_b,,0
106,25890,137,,,,1,1,1.0,0.0,-1.0,0.0,,0.0-134.0,,-1.0,1456.325,1.0,0.462760722,0.0,0.692349322,1.0,0.700947931,0.0,0.394680266,True,,5cd2fa354cf69b0017a9b2f7,,1820838,137,,evan-feature22,full_rf_b,,1
107,25891,138,,,,1,1,0.0,1.0,-1.0,0.0,,0.0-135.0,,0.0,1413.33,0.0,0.422306413,1.0,0.718375916,1.0,0.706340917,1.0,0.367787185,True,,5cd2fa354cf69b0017a9b2f7,,1832009,138,,evan-feature22,full_rf_b,,0
108,25893,140,,,,SLOW,SLOW,,,-1.0,0.0,,0.0-137.0,,-3.0,,1.0,0.4582233,1.0,0.643834117,1.0,0.75,0.0,0.39615823299999997,True,,5cd2fa354cf69b0017a9b2f7,,1839472,140,,evan-feature22,full_rf_b,,1
109,25894,141,,,,1,1,0.0,0.0,-1.0,0.0,,0.0-138.0,,0.0,1852.74,0.0,0.43813437899999996,0.0,0.651283804,1.0,0.729674191,0.0,0.37711048,True,,5cd2fa354cf69b0017a9b2f7,,1851084,141,,evan-feature22,full_rf_b,,1
110,25895,142,,,,1,1,1.0,1.0,-1.0,0.0,,0.0-139.0,,-1.0,199.0299998,1.0,0.471199094,1.0,0.6470010979999999,1.0,0.715008097,1.0,0.410656191,True,,5cd2fa354cf69b0017a9b2f7,,1861044,142,,evan-feature22,full_rf_b,,0
111,25896,143,,,,1,1,1.0,1.0,-1.0,0.0,,0.0-140.0,,-1.0,474.44499979999995,1.0,0.42486406,1.0,0.629771829,1.0,0.6550939960000001,0.0,0.459093873,True,,5cd2fa354cf69b0017a9b2f7,,1871278,143,,evan-feature22,full_rf_b,,0
112,25897,144,,,,1,1,1.0,0.0,-1.0,0.0,,0.0-141.0,,-1.0,1504.77,1.0,0.4803197,0.0,0.645842715,0.0,0.6421749920000001,0.0,0.443092151,True,,5cd2fa354cf69b0017a9b2f7,,1882543,144,,evan-feature22,full_rf_b,,0
113,25898,145,,,,1,1,0.0,1.0,0.0,1.0,,0.0-142.0,,1.0,1494.75,0.0,0.521848997,1.0,0.735801074,0.0,0.6691348460000001,0.0,0.45259351600000003,True,,5cd2fa354cf69b0017a9b2f7,,1893797,145,,evan-feature22,full_rf_b,,0
114,25899,146,,,,1,1,1.0,1.0,-1.0,0.0,,0.0-143.0,,-1.0,1865.685,1.0,0.49565621299999996,1.0,0.742400847,1.0,0.661512553,0.0,0.483110831,True,,5cd2fa354cf69b0017a9b2f7,,1905424,146,,evan-feature22,full_rf_b,,0
115,25900,147,,,,1,1,0.0,1.0,-1.0,0.0,,0.0-144.0,,0.0,681.6699997999999,0.0,0.521564361,1.0,0.731078632,1.0,0.6774886809999999,0.0,0.483263956,True,,5cd2fa354cf69b0017a9b2f7,,1915867,147,,evan-feature22,full_rf_b,,0
116,25901,148,,,,1,1,0.0,1.0,-1.0,0.0,,0.0-145.0,,0.0,1135.075,0.0,0.558893102,1.0,0.719810023,1.0,0.67461031,0.0,0.499349834,True,,5cd2fa354cf69b0017a9b2f7,,1926762,148,,evan-feature22,full_rf_b,,0
117,25902,149,,,,1,1,1.0,1.0,-1.0,0.0,,0.0-146.0,,-1.0,876.3649998999999,1.0,0.611031046,1.0,0.75,0.0,0.688072995,1.0,0.5321422729999999,True,,5cd2fa354cf69b0017a9b2f7,,1937402,149,,evan-feature22,full_rf_b,,0
118,25903,150,,,,1,1,1.0,0.0,0.0,1.0,,0.0-147.0,,0.0,1057.11,1.0,0.633223941,0.0,0.713567728,1.0,0.75,0.0,0.48185314700000004,True,,5cd2fa354cf69b0017a9b2f7,,1948219,150,,evan-feature22,full_rf_b,,0
119,25904,151,,,,2,2,0.0,1.0,-1.0,0.0,,0.0-148.0,,0.0,1812.59,0.0,0.664001694,1.0,0.705509768,0.0,0.75,1.0,0.500211065,True,,5cd2fa354cf69b0017a9b2f7,,1959791,151,,evan-feature22,full_rf_b,,1
120,25905,152,,,,1,1,1.0,1.0,-1.0,0.0,,0.0-149.0,,-1.0,1513.195,1.0,0.664001694,1.0,0.705509768,1.0,0.75,1.0,0.500211065,True,,5cd2fa354cf69b0017a9b2f7,,1971065,152,,evan-feature22,full_rf_b,,1
121,25906,153,,,,1,1,1.0,1.0,-1.0,0.0,,0.0-150.0,,-1.0,606.015,1.0,0.696508041,1.0,0.71066027,0.0,0.717028709,1.0,0.49792991,True,,5cd2fa354cf69b0017a9b2f7,,1981434,153,,evan-feature22,full_rf_b,,0
122,25907,154,,,,2,2,0.0,1.0,0.0,1.0,,0.0-151.0,,1.0,2042.635,1.0,0.699883272,0.0,0.75,0.0,0.713543895,1.0,0.496962643,True,,5cd2fa354cf69b0017a9b2f7,,1993236,154,,evan-feature22,full_rf_b,,1
123,25908,155,,,,2,2,1.0,1.0,0.0,1.0,,0.0-152.0,,1.0,768.1800001,1.0,0.741163419,1.0,0.75,1.0,0.64691024,1.0,0.513858197,True,,5cd2fa354cf69b0017a9b2f7,,2003766,155,,evan-feature22,full_rf_b,,0
124,25909,156,,,,2,2,1.0,0.0,0.0,1.0,,0.0-153.0,,0.0,821.645,1.0,0.75,1.0,0.70816558,1.0,0.594499079,0.0,0.48502124,True,,5cd2fa354cf69b0017a9b2f7,,2014346,156,,evan-feature22,full_rf_b,,0
125,25910,157,,,,1,1,1.0,0.0,-1.0,0.0,,0.0-154.0,,-1.0,500.6150003000001,1.0,0.75,0.0,0.721848901,1.0,0.62197249,1.0,0.48263586399999997,True,,5cd2fa354cf69b0017a9b2f7,,2024606,157,,evan-feature22,full_rf_b,,1
126,25911,158,,,,1,1,1.0,1.0,-1.0,0.0,,0.0-155.0,,-1.0,460.08499989999996,1.0,0.75,1.0,0.74813071,0.0,0.584357161,1.0,0.411477782,True,,5cd2fa354cf69b0017a9b2f7,,2034830,158,,evan-feature22,full_rf_b,,0
127,25912,159,,,,2,2,0.0,0.0,-1.0,0.0,,0.0-156.0,,0.0,529.8450002000001,1.0,0.75,1.0,0.75,0.0,0.52287236,0.0,0.488290656,True,,5cd2fa354cf69b0017a9b2f7,,2045119,159,,evan-feature22,full_rf_b,,1
128,25913,160,,,,2,2,0.0,1.0,-1.0,0.0,,0.0-157.0,,0.0,1366.18,1.0,0.75,0.0,0.75,0.0,0.544321581,1.0,0.53143059,True,,5cd2fa354cf69b0017a9b2f7,,2056245,160,,evan-feature22,full_rf_b,,0
129,25914,161,,,,2,2,1.0,1.0,-1.0,0.0,,0.0-158.0,,-1.0,954.405,0.0,0.726754564,0.0,0.75,1.0,0.5129306370000001,1.0,0.530592445,True,,5cd2fa354cf69b0017a9b2f7,,2066958,161,,evan-feature22,full_rf_b,,0
130,25915,162,,,,2,2,1.0,1.0,0.0,1.0,,0.0-159.0,,1.0,581.0699998,0.0,0.75,0.0,0.7392590729999999,1.0,0.479875835,1.0,0.547007051,True,,5cd2fa354cf69b0017a9b2f7,,2077299,162,,evan-feature22,full_rf_b,,0
131,25916,163,,,,2,2,0.0,1.0,0.0,1.0,,0.0-160.0,,1.0,562.1749996,0.0,0.75,1.0,0.7393376979999999,0.0,0.546045419,1.0,0.541267353,True,,5cd2fa354cf69b0017a9b2f7,,2087623,163,,evan-feature22,full_rf_b,,0
132,25917,164,,,,2,2,1.0,1.0,-1.0,0.0,,0.0-161.0,,-1.0,1287.725,1.0,0.75,1.0,0.75,1.0,0.485725895,1.0,0.527625395,True,,5cd2fa354cf69b0017a9b2f7,,2098671,164,,evan-feature22,full_rf_b,,0
133,25918,165,,,,2,2,0.0,1.0,0.0,1.0,,0.0-162.0,,1.0,617.695,0.0,0.75,0.0,0.725087974,0.0,0.488603595,1.0,0.504019206,True,,5cd2fa354cf69b0017a9b2f7,,2109046,165,,evan-feature22,full_rf_b,,0
134,25919,166,,,,2,2,1.0,1.0,-1.0,0.0,,0.0-163.0,,-1.0,1484.24,1.0,0.745504295,1.0,0.75,1.0,0.452379914,1.0,0.50131194,True,,5cd2fa354cf69b0017a9b2f7,,2120294,166,,evan-feature22,full_rf_b,,0
135,25920,167,,,,2,2,0.0,1.0,0.0,1.0,,0.0-164.0,,1.0,656.4200003999999,0.0,0.728513874,1.0,0.75,0.0,0.44125567200000004,1.0,0.531454591,True,,5cd2fa354cf69b0017a9b2f7,,2130711,167,,evan-feature22,full_rf_b,,0
136,25921,168,,,,2,2,0.0,0.0,-1.0,0.0,,0.0-165.0,,0.0,1406.32,1.0,0.73790804,1.0,0.75,0.0,0.413036656,0.0,0.524619035,True,,5cd2fa354cf69b0017a9b2f7,,2141875,168,,evan-feature22,full_rf_b,,0
137,25922,169,,,,2,2,0.0,1.0,-1.0,0.0,,0.0-166.0,,0.0,1526.805,1.0,0.7080961309999999,1.0,0.708666865,0.0,0.431915581,1.0,0.481819489,True,,5cd2fa354cf69b0017a9b2f7,,2153161,169,,evan-feature22,full_rf_b,,0
138,25923,170,,,,2,2,0.0,1.0,-1.0,0.0,,0.0-167.0,,0.0,1451.33,1.0,0.721378003,1.0,0.71605913,0.0,0.36642387,1.0,0.5036739929999999,True,,5cd2fa354cf69b0017a9b2f7,,2164373,170,,evan-feature22,full_rf_b,,0
139,25924,171,,,,2,2,0.0,0.0,0.0,1.0,,0.0-168.0,,0.0,1358.63,1.0,0.7340618959999999,0.0,0.699323252,0.0,0.35298046299999997,0.0,0.511241692,True,,5cd2fa354cf69b0017a9b2f7,,2175493,171,,evan-feature22,full_rf_b,,0
140,25925,172,,,,2,2,1.0,1.0,0.0,1.0,,0.0-169.0,,1.0,1190.07,1.0,0.75,1.0,0.70412698,1.0,0.380734814,1.0,0.529580116,True,,5cd2fa354cf69b0017a9b2f7,,2186444,172,,evan-feature22,full_rf_b,,0
141,25926,173,,,,2,2,1.0,0.0,0.0,1.0,,0.0-170.0,,0.0,669.6199998,1.0,0.7436654909999999,0.0,0.711182751,1.0,0.41125331,0.0,0.49554405,True,,5cd2fa354cf69b0017a9b2f7,,2196874,173,,evan-feature22,full_rf_b,,0
142,25927,174,,,,2,2,0.0,0.0,-1.0,0.0,,0.0-171.0,,0.0,1456.65,1.0,0.731607915,0.0,0.651774583,0.0,0.35688023,0.0,0.45194491600000003,True,,5cd2fa354cf69b0017a9b2f7,,2208091,174,,evan-feature22,full_rf_b,,0
143,25928,175,,,,2,2,0.0,1.0,0.0,1.0,,0.0-172.0,,1.0,1269.13,0.0,0.75,1.0,0.75,0.0,0.283145374,1.0,0.528608005,True,,5cd2fa354cf69b0017a9b2f7,,2219120,175,,evan-feature22,full_rf_b,,0
144,25929,176,,,,2,2,0.0,0.0,-1.0,0.0,,0.0-173.0,,0.0,1090.95,1.0,0.7491416890000001,1.0,0.7423785959999999,0.0,0.29135870399999997,0.0,0.498888318,True,,5cd2fa354cf69b0017a9b2f7,,2229969,176,,evan-feature22,full_rf_b,,0
145,25930,177,,,,2,2,0.0,1.0,0.0,1.0,,0.0-174.0,,1.0,1128.69,0.0,0.708569387,0.0,0.717682277,0.0,0.294421699,1.0,0.493838163,True,,5cd2fa354cf69b0017a9b2f7,,2240859,177,,evan-feature22,full_rf_b,,0
146,25931,178,,,,2,2,1.0,0.0,-1.0,0.0,,0.0-175.0,,-1.0,3336.93,1.0,0.75,1.0,0.7383382159999999,1.0,0.356098707,0.0,0.442533405,True,,5cd2fa354cf69b0017a9b2f7,,2253957,178,,evan-feature22,full_rf_b,,0
147,25932,179,,,,2,2,0.0,1.0,-1.0,0.0,,0.0-176.0,,0.0,1586.18,1.0,0.744527075,1.0,0.75,0.0,0.334127506,1.0,0.393165805,True,,5cd2fa354cf69b0017a9b2f7,,2265302,179,,evan-feature22,full_rf_b,,0
148,25933,180,,,,2,2,1.0,0.0,-1.0,0.0,,0.0-177.0,,-1.0,1334.16,1.0,0.75,1.0,0.75,1.0,0.33571021799999995,0.0,0.350393962,True,,5cd2fa354cf69b0017a9b2f7,,2276395,180,,evan-feature22,full_rf_b,,0
149,25934,181,,,,2,2,1.0,1.0,0.0,1.0,,0.0-178.0,,1.0,573.9000002,1.0,0.75,0.0,0.75,1.0,0.313628297,1.0,0.36349657399999996,True,,5cd2fa354cf69b0017a9b2f7,,2286730,181,,evan-feature22,full_rf_b,,0
150,25935,182,,,,2,2,1.0,0.0,-1.0,0.0,,0.0-179.0,,-1.0,1062.435,1.0,0.75,0.0,0.734284182,1.0,0.262667667,0.0,0.380199119,True,,5cd2fa354cf69b0017a9b2f7,,2297551,182,,evan-feature22,full_rf_b,,0
151,25936,183,,,,2,2,0.0,1.0,-1.0,0.0,,0.0-180.0,,0.0,643.7949999,1.0,0.75,1.0,0.75,0.0,0.25,1.0,0.394494013,True,,5cd2fa354cf69b0017a9b2f7,,2307957,183,,evan-feature22,full_rf_b,,0
152,25937,184,,,,2,2,0.0,1.0,-1.0,0.0,,0.0-181.0,,0.0,1047.855,1.0,0.722298145,0.0,0.7357822340000001,0.0,0.25,1.0,0.319142121,True,,5cd2fa354cf69b0017a9b2f7,,2318764,184,,evan-feature22,full_rf_b,,0
153,25938,185,,,,2,2,1.0,1.0,-1.0,0.0,,0.0-182.0,,-1.0,1218.44,1.0,0.73149275,1.0,0.724276446,1.0,0.305856907,1.0,0.281315057,True,,5cd2fa354cf69b0017a9b2f7,,2329745,185,,evan-feature22,full_rf_b,,0
154,25939,186,,,,2,2,0.0,1.0,-1.0,0.0,,0.0-183.0,,0.0,541.0949998,1.0,0.7458732690000001,1.0,0.7336382459999999,0.0,0.272571964,1.0,0.266021999,True,,5cd2fa354cf69b0017a9b2f7,,2340048,186,,evan-feature22,full_rf_b,,0
155,25940,187,,,,2,2,1.0,0.0,0.0,1.0,,0.0-184.0,,0.0,445.1299999,1.0,0.705579037,1.0,0.720778292,1.0,0.320238144,0.0,0.30971744,True,,5cd2fa354cf69b0017a9b2f7,,2350251,187,,evan-feature22,full_rf_b,,0
156,25941,188,,,,1,1,0.0,0.0,0.0,1.0,,0.0-185.0,,0.0,371.425,0.0,0.700425648,0.0,0.7198784009999999,0.0,0.272590393,0.0,0.304182931,True,,5cd2fa354cf69b0017a9b2f7,,2360382,188,,evan-feature22,full_rf_b,,1
157,25942,189,,,,1,1,1.0,0.0,0.0,1.0,,0.0-186.0,,0.0,605.07,1.0,0.735590785,0.0,0.722714973,0.0,0.25,1.0,0.323421091,True,,5cd2fa354cf69b0017a9b2f7,,2370749,189,,evan-feature22,full_rf_b,,0
158,25943,190,,,,2,2,0.0,0.0,0.0,1.0,,0.0-187.0,,0.0,483.31499979999995,1.0,0.724807662,1.0,0.63146213,0.0,0.36836492600000004,0.0,0.34592153299999995,True,,5cd2fa354cf69b0017a9b2f7,,2380992,190,,evan-feature22,full_rf_b,,1
159,25944,191,,,,2,2,0.0,0.0,-1.0,0.0,,0.0-188.0,,0.0,905.365,1.0,0.7352796909999999,1.0,0.555111392,0.0,0.36003922,0.0,0.31433779999999995,True,,5cd2fa354cf69b0017a9b2f7,,2391656,191,,evan-feature22,full_rf_b,,0
160,25945,192,notice,,,,,,,,,,0.0-189.0,"{""Q0"":""yes""}",,9149.0,,,,,,,,,True,,5cd2fa354cf69b0017a9b2f7,,2400806,192,Q,survey-text,full_rf_b,,1
161,25946,193,track1,,[1],,,,,,,,0.0-190.0,"{""Q0"":""no""}",,6364.0,,,,,,,,,True,,5cd2fa354cf69b0017a9b2f7,,2407175,193,Q,evan-quiz,full_rf_b,,1
162,25947,194,track2,,[1],,,,,,,,0.0-191.0,"{""Q0"":""no""}",,7801.0,,,,,,,,,True,,5cd2fa354cf69b0017a9b2f7,,2414984,194,Q,evan-quiz,full_rf_b,,1
163,25948,195,strat,,,,,,,,,,0.0-192.0,"{""Q0"":""which option was consistency better and then following that option until the pendulum swings to the other option""}",,53394.0,,,,,,,,,True,,5cd2fa354cf69b0017a9b2f7,,2468387,195,Q,survey-text,full_rf_b,,1
