,index,Unnamed: 0,Q_name,button_pressed,choice_idxs,chosen_pos,chosen_state,chosen_state_f_1_outcome,chosen_state_f_2_outcome,f_1_reward,f_2_reward,incor_questions,internal_node_id,responses,reward_received,rt,s_1_f_1_outcome,s_1_f_1_prob,s_1_f_2_outcome,s_1_f_2_prob,s_2_f_1_outcome,s_2_f_1_prob,s_2_f_2_outcome,s_2_f_2_prob,safe_first,stimulus,subjectID,success,time_elapsed,trial_index,trial_num,trial_type,version,view_history,switching
0,26356,25,,,,1,1,1.0,1.0,1.0,0.0,,0.0-27.0,,1.0,1488.0,1.0,0.6,1.0,0.6,1.0,0.4,0.0,0.4,True,,5a82da17aa46dd00016b8f3b,,672311,25,,evan-feature22,full_rf_a,,0
1,26357,26,,,,1,1,1.0,1.0,1.0,0.0,,0.0-28.0,,1.0,1500.0,1.0,0.608053294,1.0,0.63424552,0.0,0.397152172,0.0,0.347069101,True,,5a82da17aa46dd00016b8f3b,,683660,26,,evan-feature22,full_rf_a,,0
2,26358,27,,,,1,1,0.0,1.0,1.0,0.0,,0.0-29.0,,0.0,884.0,0.0,0.642237155,1.0,0.648566321,0.0,0.389407674,0.0,0.285525717,True,,5a82da17aa46dd00016b8f3b,,694359,27,,evan-feature22,full_rf_a,,0
3,26359,28,,,,1,1,1.0,0.0,1.0,0.0,,0.0-30.0,,1.0,545.0,1.0,0.661086576,0.0,0.630492543,1.0,0.399058924,0.0,0.25,True,,5a82da17aa46dd00016b8f3b,,704736,28,,evan-feature22,full_rf_a,,0
4,26360,29,,,,1,1,1.0,0.0,0.0,-1.0,,0.0-31.0,,0.0,2635.0,1.0,0.631324137,0.0,0.6269842929999999,0.0,0.38734784299999997,0.0,0.25,True,,5a82da17aa46dd00016b8f3b,,717206,29,,evan-feature22,full_rf_a,,0
5,26361,30,,,,1,1,0.0,1.0,0.0,-1.0,,0.0-32.0,,-1.0,1783.0,0.0,0.6381991370000001,1.0,0.68987999,1.0,0.384107265,1.0,0.271332943,True,,5a82da17aa46dd00016b8f3b,,728780,30,,evan-feature22,full_rf_a,,0
6,26362,31,,,,SLOW,SLOW,,,1.0,0.0,,0.0-33.0,,-3.0,,1.0,0.66034901,1.0,0.742641349,0.0,0.360225629,1.0,0.25,True,,5a82da17aa46dd00016b8f3b,,734635,31,,evan-feature22,full_rf_a,,1
7,26363,32,,,,2,2,1.0,1.0,1.0,0.0,,0.0-34.0,,1.0,1425.0,0.0,0.638612418,1.0,0.75,1.0,0.367273939,1.0,0.25,True,,5a82da17aa46dd00016b8f3b,,745878,32,,evan-feature22,full_rf_a,,1
8,26364,33,,,,2,2,0.0,0.0,0.0,-1.0,,0.0-35.0,,0.0,444.0,1.0,0.624340629,1.0,0.75,0.0,0.425829545,0.0,0.25,True,,5a82da17aa46dd00016b8f3b,,756162,33,,evan-feature22,full_rf_a,,0
9,26365,34,,,,2,2,0.0,0.0,0.0,-1.0,,0.0-36.0,,0.0,1344.0,0.0,0.621999804,1.0,0.75,0.0,0.368609357,0.0,0.25,True,,5a82da17aa46dd00016b8f3b,,767361,34,,evan-feature22,full_rf_a,,0
10,26366,35,,,,2,2,1.0,0.0,1.0,0.0,,0.0-37.0,,1.0,1939.0,1.0,0.62666403,0.0,0.75,1.0,0.311151498,0.0,0.25,True,,5a82da17aa46dd00016b8f3b,,779116,35,,evan-feature22,full_rf_a,,0
11,26367,36,,,,2,2,0.0,0.0,0.0,-1.0,,0.0-38.0,,0.0,1020.0,0.0,0.6819650009999999,0.0,0.75,0.0,0.310763048,0.0,0.25,True,,5a82da17aa46dd00016b8f3b,,789975,36,,evan-feature22,full_rf_a,,0
12,26368,37,,,,2,2,0.0,0.0,1.0,0.0,,0.0-39.0,,0.0,1019.0,1.0,0.740626951,1.0,0.75,0.0,0.25,0.0,0.25,True,,5a82da17aa46dd00016b8f3b,,800822,37,,evan-feature22,full_rf_a,,0
13,26369,38,,,,2,2,0.0,0.0,1.0,0.0,,0.0-40.0,,0.0,1283.0,1.0,0.739599242,1.0,0.742034978,0.0,0.25397114600000004,0.0,0.25,True,,5a82da17aa46dd00016b8f3b,,811915,38,,evan-feature22,full_rf_a,,0
14,26370,39,,,,2,2,1.0,0.0,1.0,0.0,,0.0-41.0,,1.0,677.0,1.0,0.732341315,1.0,0.72735643,1.0,0.25,0.0,0.25,True,,5a82da17aa46dd00016b8f3b,,822412,39,,evan-feature22,full_rf_a,,0
15,26371,40,,,,2,2,0.0,0.0,1.0,0.0,,0.0-42.0,,0.0,952.0,1.0,0.7062287770000001,1.0,0.75,0.0,0.29002151,0.0,0.288256649,True,,5a82da17aa46dd00016b8f3b,,833164,40,,evan-feature22,full_rf_a,,0
16,26372,41,,,,2,2,0.0,0.0,1.0,0.0,,0.0-43.0,,0.0,962.0,1.0,0.7086029209999999,1.0,0.75,0.0,0.274129113,0.0,0.262851608,True,,5a82da17aa46dd00016b8f3b,,843926,41,,evan-feature22,full_rf_a,,0
17,26373,42,,,,2,2,1.0,0.0,1.0,0.0,,0.0-44.0,,1.0,1606.0,0.0,0.669189651,0.0,0.727614338,1.0,0.298444036,0.0,0.296944518,True,,5a82da17aa46dd00016b8f3b,,855351,42,,evan-feature22,full_rf_a,,0
18,26374,43,,,,2,2,1.0,0.0,1.0,0.0,,0.0-45.0,,1.0,895.0,1.0,0.6819912929999999,0.0,0.7179434290000001,1.0,0.265003961,0.0,0.28157921199999997,True,,5a82da17aa46dd00016b8f3b,,866070,43,,evan-feature22,full_rf_a,,0
19,26375,44,,,,2,2,0.0,0.0,0.0,-1.0,,0.0-46.0,,0.0,1430.0,1.0,0.665275002,1.0,0.723065271,0.0,0.260414971,0.0,0.30973870000000003,True,,5a82da17aa46dd00016b8f3b,,877313,44,,evan-feature22,full_rf_a,,0
20,26376,45,,,,2,2,1.0,0.0,1.0,0.0,,0.0-47.0,,1.0,1289.0,1.0,0.6660593260000001,1.0,0.728032907,1.0,0.30922817,0.0,0.338778608,True,,5a82da17aa46dd00016b8f3b,,888406,45,,evan-feature22,full_rf_a,,0
21,26377,46,,,,2,2,1.0,0.0,1.0,0.0,,0.0-48.0,,1.0,1133.0,1.0,0.702068785,1.0,0.6528750879999999,1.0,0.287329608,0.0,0.35789613200000003,True,,5a82da17aa46dd00016b8f3b,,899362,46,,evan-feature22,full_rf_a,,0
22,26378,47,,,,2,2,1.0,1.0,1.0,0.0,,0.0-49.0,,1.0,1139.0,0.0,0.651939787,1.0,0.636725589,1.0,0.284834488,1.0,0.358563756,True,,5a82da17aa46dd00016b8f3b,,910327,47,,evan-feature22,full_rf_a,,0
23,26379,48,,,,2,2,0.0,0.0,0.0,-1.0,,0.0-50.0,,0.0,469.0,1.0,0.67573929,1.0,0.612550049,0.0,0.37130387600000003,0.0,0.383542402,True,,5a82da17aa46dd00016b8f3b,,920619,48,,evan-feature22,full_rf_a,,0
24,26380,49,,,,2,2,1.0,0.0,0.0,-1.0,,0.0-51.0,,0.0,1330.0,1.0,0.620753801,0.0,0.60513644,1.0,0.385529434,0.0,0.340361743,True,,5a82da17aa46dd00016b8f3b,,931788,49,,evan-feature22,full_rf_a,,0
25,26381,50,,,,2,2,0.0,0.0,0.0,-1.0,,0.0-52.0,,0.0,1264.0,0.0,0.673564893,0.0,0.672437924,0.0,0.292955382,0.0,0.337633795,True,,5a82da17aa46dd00016b8f3b,,942860,50,,evan-feature22,full_rf_a,,0
26,26382,51,,,,2,2,0.0,1.0,1.0,0.0,,0.0-53.0,,0.0,1038.0,1.0,0.6749427,1.0,0.724197502,0.0,0.32391132100000003,1.0,0.350995264,True,,5a82da17aa46dd00016b8f3b,,953727,51,,evan-feature22,full_rf_a,,0
27,26383,52,,,,1,1,0.0,0.0,1.0,0.0,,0.0-54.0,,0.0,569.0,0.0,0.6940159379999999,0.0,0.75,0.0,0.31710554399999996,0.0,0.413450341,True,,5a82da17aa46dd00016b8f3b,,964118,52,,evan-feature22,full_rf_a,,1
28,26384,53,,,,1,1,1.0,0.0,1.0,0.0,,0.0-55.0,,1.0,1608.0,1.0,0.6916018270000001,0.0,0.69001187,0.0,0.261817804,1.0,0.40038635,True,,5a82da17aa46dd00016b8f3b,,975531,53,,evan-feature22,full_rf_a,,0
29,26385,54,,,,1,1,0.0,1.0,1.0,0.0,,0.0-56.0,,0.0,963.0,0.0,0.641061544,1.0,0.71337992,1.0,0.277296461,0.0,0.47372791700000005,True,,5a82da17aa46dd00016b8f3b,,986306,54,,evan-feature22,full_rf_a,,0
30,26386,55,,,,1,1,1.0,1.0,1.0,0.0,,0.0-57.0,,1.0,997.0,1.0,0.6082438520000001,1.0,0.708471106,1.0,0.28745137,1.0,0.564174476,True,,5a82da17aa46dd00016b8f3b,,997132,55,,evan-feature22,full_rf_a,,0
31,26387,56,,,,1,1,0.0,1.0,1.0,0.0,,0.0-58.0,,0.0,1102.0,0.0,0.6051112120000001,1.0,0.7118147229999999,0.0,0.272390611,1.0,0.5595149939999999,True,,5a82da17aa46dd00016b8f3b,,1008055,56,,evan-feature22,full_rf_a,,0
32,26388,57,,,,1,1,1.0,1.0,1.0,0.0,,0.0-59.0,,1.0,945.0,1.0,0.582420852,1.0,0.635867583,0.0,0.31089574,1.0,0.5227206520000001,True,,5a82da17aa46dd00016b8f3b,,1018806,57,,evan-feature22,full_rf_a,,0
33,26389,58,,,,1,1,1.0,1.0,0.0,-1.0,,0.0-60.0,,-1.0,1132.0,1.0,0.623195575,1.0,0.655026044,0.0,0.25,0.0,0.560387538,True,,5a82da17aa46dd00016b8f3b,,1029729,58,,evan-feature22,full_rf_a,,0
34,26390,59,,,,1,1,0.0,0.0,1.0,0.0,,0.0-61.0,,0.0,565.0,0.0,0.601889598,0.0,0.678198724,0.0,0.25,0.0,0.559922936,True,,5a82da17aa46dd00016b8f3b,,1040108,59,,evan-feature22,full_rf_a,,0
35,26391,60,,,,1,1,0.0,0.0,1.0,0.0,,0.0-62.0,,0.0,1692.0,0.0,0.601259914,0.0,0.704681482,1.0,0.33908969299999997,1.0,0.505003715,True,,5a82da17aa46dd00016b8f3b,,1051638,60,,evan-feature22,full_rf_a,,0
36,26392,61,,,,1,1,1.0,1.0,1.0,0.0,,0.0-63.0,,1.0,775.0,1.0,0.59645454,1.0,0.710437172,0.0,0.327441879,1.0,0.391749613,True,,5a82da17aa46dd00016b8f3b,,1062252,61,,evan-feature22,full_rf_a,,0
37,26393,62,,,,1,1,0.0,1.0,1.0,0.0,,0.0-64.0,,0.0,1576.0,0.0,0.529473,1.0,0.636758527,0.0,0.301338063,0.0,0.365661481,True,,5a82da17aa46dd00016b8f3b,,1073654,62,,evan-feature22,full_rf_a,,0
38,26394,63,,,,2,2,0.0,0.0,0.0,-1.0,,0.0-65.0,,0.0,1969.0,0.0,0.541657162,1.0,0.634541962,0.0,0.343535366,0.0,0.371763742,True,,5a82da17aa46dd00016b8f3b,,1085452,63,,evan-feature22,full_rf_a,,1
39,26395,64,,,,2,2,0.0,0.0,1.0,0.0,,0.0-66.0,,0.0,707.0,0.0,0.5707533260000001,0.0,0.589121171,0.0,0.326428396,0.0,0.43961622899999997,True,,5a82da17aa46dd00016b8f3b,,1095969,64,,evan-feature22,full_rf_a,,0
40,26396,65,,,,2,2,0.0,0.0,1.0,0.0,,0.0-67.0,,0.0,915.0,1.0,0.5707533260000001,0.0,0.589121171,0.0,0.326428396,0.0,0.43961622899999997,True,,5a82da17aa46dd00016b8f3b,,1106678,65,,evan-feature22,full_rf_a,,0
41,26397,66,,,,2,2,0.0,0.0,1.0,0.0,,0.0-68.0,,0.0,1347.0,0.0,0.506271295,1.0,0.641775594,0.0,0.37149690700000004,0.0,0.404330166,True,,5a82da17aa46dd00016b8f3b,,1117868,66,,evan-feature22,full_rf_a,,0
42,26398,67,,,,2,2,1.0,1.0,0.0,-1.0,,0.0-69.0,,-1.0,626.0,0.0,0.455642565,0.0,0.623605825,1.0,0.358753011,1.0,0.346174041,True,,5a82da17aa46dd00016b8f3b,,1128310,67,,evan-feature22,full_rf_a,,0
43,26399,68,,,,2,2,1.0,0.0,0.0,-1.0,,0.0-70.0,,0.0,646.0,1.0,0.483677308,1.0,0.5904681070000001,1.0,0.402218411,0.0,0.35344697,True,,5a82da17aa46dd00016b8f3b,,1138764,68,,evan-feature22,full_rf_a,,0
44,26400,69,,,,2,2,0.0,0.0,0.0,-1.0,,0.0-71.0,,0.0,797.0,1.0,0.394210977,1.0,0.558925494,0.0,0.540052017,0.0,0.35182128700000004,True,,5a82da17aa46dd00016b8f3b,,1149388,69,,evan-feature22,full_rf_a,,0
45,26401,70,,,,2,2,0.0,0.0,1.0,0.0,,0.0-72.0,,0.0,1490.0,0.0,0.382300414,0.0,0.577670603,0.0,0.607608448,0.0,0.378261578,True,,5a82da17aa46dd00016b8f3b,,1160715,70,,evan-feature22,full_rf_a,,0
46,26402,71,,,,2,2,0.0,0.0,1.0,0.0,,0.0-73.0,,0.0,565.0,1.0,0.357596762,1.0,0.5929076529999999,0.0,0.6579790010000001,0.0,0.401326777,True,,5a82da17aa46dd00016b8f3b,,1171105,71,,evan-feature22,full_rf_a,,0
47,26403,72,,,,2,2,0.0,1.0,1.0,0.0,,0.0-74.0,,0.0,525.0,0.0,0.362033495,0.0,0.582308608,0.0,0.649195052,1.0,0.355158505,True,,5a82da17aa46dd00016b8f3b,,1181452,72,,evan-feature22,full_rf_a,,0
48,26404,73,,,,1,1,0.0,0.0,1.0,0.0,,0.0-75.0,,0.0,512.0,0.0,0.369620635,0.0,0.669100864,0.0,0.706059111,1.0,0.362516241,True,,5a82da17aa46dd00016b8f3b,,1191767,73,,evan-feature22,full_rf_a,,1
49,26405,74,,,,1,1,1.0,1.0,1.0,0.0,,0.0-76.0,,1.0,2148.0,1.0,0.41477751399999996,1.0,0.7284416779999999,1.0,0.7182656940000001,0.0,0.36228040899999997,True,,5a82da17aa46dd00016b8f3b,,1203756,74,,evan-feature22,full_rf_a,,0
50,26406,75,,,,1,1,1.0,1.0,0.0,-1.0,,0.0-77.0,,-1.0,872.0,1.0,0.37675460299999997,1.0,0.703250285,1.0,0.75,1.0,0.461979164,True,,5a82da17aa46dd00016b8f3b,,1214465,75,,evan-feature22,full_rf_a,,0
51,26407,76,,,,1,1,1.0,1.0,0.0,-1.0,,0.0-78.0,,-1.0,758.0,1.0,0.398716075,1.0,0.6723864890000001,1.0,0.674153818,0.0,0.519029516,True,,5a82da17aa46dd00016b8f3b,,1225057,76,,evan-feature22,full_rf_a,,0
52,26408,77,,,,1,1,0.0,1.0,1.0,0.0,,0.0-79.0,,0.0,585.0,0.0,0.34677856700000004,1.0,0.69057175,0.0,0.6822438540000001,1.0,0.477292237,True,,5a82da17aa46dd00016b8f3b,,1235457,77,,evan-feature22,full_rf_a,,0
53,26409,78,,,,1,1,0.0,1.0,0.0,-1.0,,0.0-80.0,,-1.0,2713.0,0.0,0.28580469199999997,1.0,0.68408818,0.0,0.684207565,1.0,0.49780448299999996,True,,5a82da17aa46dd00016b8f3b,,1247959,78,,evan-feature22,full_rf_a,,0
54,26411,80,,,,1,1,0.0,0.0,1.0,0.0,,0.0-82.0,,0.0,1870.0,0.0,0.25,0.0,0.7405808970000001,1.0,0.679614108,0.0,0.436436964,True,,5a82da17aa46dd00016b8f3b,,1309036,80,,evan-feature22,full_rf_a,,0
55,26412,81,,,,2,2,1.0,0.0,0.0,-1.0,,0.0-83.0,,0.0,2763.0,1.0,0.29890393,1.0,0.730505706,1.0,0.7328203320000001,0.0,0.439256938,True,,5a82da17aa46dd00016b8f3b,,1321633,81,,evan-feature22,full_rf_a,,1
56,26413,82,,,,2,2,1.0,0.0,1.0,0.0,,0.0-84.0,,1.0,1506.0,1.0,0.326762398,0.0,0.7148059609999999,1.0,0.75,0.0,0.44389608799999997,True,,5a82da17aa46dd00016b8f3b,,1332973,82,,evan-feature22,full_rf_a,,0
57,26414,83,,,,SLOW,SLOW,,,1.0,0.0,,0.0-85.0,,-3.0,,0.0,0.295168515,0.0,0.739760854,1.0,0.719947008,0.0,0.35277284600000003,True,,5a82da17aa46dd00016b8f3b,,1338817,83,,evan-feature22,full_rf_a,,1
58,26415,84,,,,2,2,1.0,0.0,1.0,0.0,,0.0-86.0,,1.0,527.0,0.0,0.25,1.0,0.70781482,1.0,0.75,0.0,0.286095925,True,,5a82da17aa46dd00016b8f3b,,1349164,84,,evan-feature22,full_rf_a,,1
59,26416,85,,,,2,2,1.0,0.0,0.0,-1.0,,0.0-87.0,,0.0,1776.0,0.0,0.25638190899999996,0.0,0.704088163,1.0,0.75,0.0,0.26872601399999996,True,,5a82da17aa46dd00016b8f3b,,1360758,85,,evan-feature22,full_rf_a,,0
60,26417,86,,,,2,2,1.0,0.0,0.0,-1.0,,0.0-88.0,,0.0,1674.0,0.0,0.271581126,0.0,0.669760107,1.0,0.733896663,0.0,0.273244572,True,,5a82da17aa46dd00016b8f3b,,1372257,86,,evan-feature22,full_rf_a,,0
61,26418,87,,,,2,2,1.0,0.0,0.0,-1.0,,0.0-89.0,,0.0,1342.0,0.0,0.257144401,1.0,0.600575706,1.0,0.74488122,0.0,0.25,True,,5a82da17aa46dd00016b8f3b,,1383447,87,,evan-feature22,full_rf_a,,0
62,26419,88,,,,2,2,0.0,0.0,1.0,0.0,,0.0-90.0,,0.0,684.0,0.0,0.25,1.0,0.616870026,0.0,0.723610234,0.0,0.25,True,,5a82da17aa46dd00016b8f3b,,1393954,88,,evan-feature22,full_rf_a,,0
63,26420,89,,,,2,2,1.0,0.0,0.0,-1.0,,0.0-91.0,,0.0,816.0,0.0,0.25,0.0,0.583540187,1.0,0.7041042559999999,0.0,0.285961995,True,,5a82da17aa46dd00016b8f3b,,1404587,89,,evan-feature22,full_rf_a,,0
64,26421,90,,,,2,2,1.0,0.0,1.0,0.0,,0.0-92.0,,1.0,1079.0,1.0,0.27254536,0.0,0.53875765,1.0,0.693783448,0.0,0.284961652,True,,5a82da17aa46dd00016b8f3b,,1415500,90,,evan-feature22,full_rf_a,,0
65,26422,91,,,,2,2,0.0,1.0,0.0,-1.0,,0.0-93.0,,-1.0,1238.0,0.0,0.25,0.0,0.548431252,0.0,0.734221895,1.0,0.279445214,True,,5a82da17aa46dd00016b8f3b,,1426561,91,,evan-feature22,full_rf_a,,0
66,26423,92,,,,2,2,0.0,1.0,1.0,0.0,,0.0-94.0,,0.0,1036.0,0.0,0.258640684,0.0,0.545878066,0.0,0.725245965,1.0,0.31487537,True,,5a82da17aa46dd00016b8f3b,,1437431,92,,evan-feature22,full_rf_a,,0
67,26424,93,,,,2,2,1.0,0.0,1.0,0.0,,0.0-95.0,,1.0,917.0,0.0,0.251103711,0.0,0.5776290629999999,1.0,0.696320133,0.0,0.317831047,True,,5a82da17aa46dd00016b8f3b,,1448151,93,,evan-feature22,full_rf_a,,0
68,26425,94,,,,2,2,1.0,0.0,1.0,0.0,,0.0-96.0,,1.0,713.0,0.0,0.276630292,1.0,0.617329858,1.0,0.73838088,0.0,0.261471582,True,,5a82da17aa46dd00016b8f3b,,1458667,94,,evan-feature22,full_rf_a,,0
69,26426,95,,,,2,2,1.0,1.0,0.0,-1.0,,0.0-97.0,,-1.0,793.0,0.0,0.297716424,1.0,0.618863717,1.0,0.7402358259999999,1.0,0.262600834,True,,5a82da17aa46dd00016b8f3b,,1469270,95,,evan-feature22,full_rf_a,,0
70,26427,96,,,,2,2,1.0,0.0,1.0,0.0,,0.0-98.0,,1.0,492.0,0.0,0.290935512,1.0,0.695370945,1.0,0.706570507,0.0,0.280030553,True,,5a82da17aa46dd00016b8f3b,,1479574,96,,evan-feature22,full_rf_a,,0
71,26428,97,,,,2,2,0.0,0.0,1.0,0.0,,0.0-99.0,,0.0,1172.0,0.0,0.25,0.0,0.6465277079999999,0.0,0.67766682,0.0,0.25,True,,5a82da17aa46dd00016b8f3b,,1490571,97,,evan-feature22,full_rf_a,,0
72,26429,98,,,,2,2,1.0,0.0,1.0,0.0,,0.0-100.0,,1.0,389.0,1.0,0.26463816,0.0,0.636100213,1.0,0.646048507,0.0,0.265607101,True,,5a82da17aa46dd00016b8f3b,,1500769,98,,evan-feature22,full_rf_a,,0
73,26430,99,,,,2,2,0.0,0.0,1.0,0.0,,0.0-101.0,,0.0,813.0,0.0,0.314340707,1.0,0.667795927,0.0,0.613630805,0.0,0.25,True,,5a82da17aa46dd00016b8f3b,,1511372,99,,evan-feature22,full_rf_a,,0
74,26431,100,,,,2,2,1.0,1.0,1.0,0.0,,0.0-102.0,,1.0,709.0,0.0,0.28685784,1.0,0.6622549529999999,1.0,0.652154117,1.0,0.25,True,,5a82da17aa46dd00016b8f3b,,1521922,100,,evan-feature22,full_rf_a,,0
75,26432,101,,,,2,2,1.0,1.0,0.0,-1.0,,0.0-103.0,,-1.0,962.0,0.0,0.304106554,0.0,0.631289538,1.0,0.707041942,1.0,0.29314237,True,,5a82da17aa46dd00016b8f3b,,1532695,101,,evan-feature22,full_rf_a,,0
76,26433,102,,,,2,2,1.0,0.0,0.0,-1.0,,0.0-104.0,,0.0,451.0,0.0,0.304806932,0.0,0.571167718,1.0,0.680472346,0.0,0.25,True,,5a82da17aa46dd00016b8f3b,,1542956,102,,evan-feature22,full_rf_a,,0
77,26434,103,,,,2,2,1.0,1.0,0.0,-1.0,,0.0-105.0,,-1.0,961.0,1.0,0.37919861,1.0,0.5724849710000001,1.0,0.705638003,1.0,0.30179300600000003,True,,5a82da17aa46dd00016b8f3b,,1553729,103,,evan-feature22,full_rf_a,,0
78,26435,104,,,,2,2,0.0,1.0,0.0,-1.0,,0.0-106.0,,-1.0,1373.0,0.0,0.464277969,0.0,0.554034373,0.0,0.7372627340000001,1.0,0.264699741,True,,5a82da17aa46dd00016b8f3b,,1564929,104,,evan-feature22,full_rf_a,,0
79,26436,105,,,,1,1,0.0,0.0,1.0,0.0,,0.0-107.0,,0.0,569.0,0.0,0.465104323,0.0,0.530793115,1.0,0.75,0.0,0.31683071,True,,5a82da17aa46dd00016b8f3b,,1575329,105,,evan-feature22,full_rf_a,,1
80,26437,106,,,,1,1,1.0,0.0,0.0,-1.0,,0.0-108.0,,0.0,880.0,1.0,0.465104323,0.0,0.530793115,0.0,0.75,0.0,0.31683071,True,,5a82da17aa46dd00016b8f3b,,1586039,106,,evan-feature22,full_rf_a,,0
81,26438,107,,,,1,1,0.0,1.0,0.0,-1.0,,0.0-109.0,,-1.0,838.0,0.0,0.46833986,1.0,0.570249239,1.0,0.7244472590000001,0.0,0.364114163,True,,5a82da17aa46dd00016b8f3b,,1596696,107,,evan-feature22,full_rf_a,,0
82,26439,108,,,,1,1,1.0,0.0,0.0,-1.0,,0.0-110.0,,0.0,839.0,1.0,0.445444024,0.0,0.649673355,1.0,0.6845441290000001,0.0,0.300660449,True,,5a82da17aa46dd00016b8f3b,,1607351,108,,evan-feature22,full_rf_a,,0
83,26440,109,,,,1,1,0.0,1.0,0.0,-1.0,,0.0-111.0,,-1.0,694.0,0.0,0.39909721299999995,1.0,0.6715179509999999,0.0,0.742310028,0.0,0.35496088299999995,True,,5a82da17aa46dd00016b8f3b,,1617868,109,,evan-feature22,full_rf_a,,0
84,26441,110,,,,1,1,0.0,0.0,0.0,-1.0,,0.0-112.0,,0.0,1342.0,0.0,0.37956104799999996,0.0,0.694725302,1.0,0.7181651309999999,0.0,0.38726906299999997,True,,5a82da17aa46dd00016b8f3b,,1629047,110,,evan-feature22,full_rf_a,,0
85,26442,111,,,,1,1,1.0,1.0,0.0,-1.0,,0.0-113.0,,-1.0,826.0,1.0,0.404995034,1.0,0.724375412,1.0,0.6910946859999999,0.0,0.387187347,True,,5a82da17aa46dd00016b8f3b,,1639660,111,,evan-feature22,full_rf_a,,0
86,26443,112,,,,2,2,1.0,0.0,0.0,-1.0,,0.0-114.0,,0.0,1257.0,0.0,0.461740803,0.0,0.75,1.0,0.75,0.0,0.34872038200000005,True,,5a82da17aa46dd00016b8f3b,,1650743,112,,evan-feature22,full_rf_a,,1
87,26444,113,,,,2,2,0.0,1.0,1.0,0.0,,0.0-115.0,,0.0,857.0,0.0,0.43821380600000004,0.0,0.738833273,0.0,0.728286963,1.0,0.399538128,True,,5a82da17aa46dd00016b8f3b,,1661421,113,,evan-feature22,full_rf_a,,0
88,26445,114,,,,2,2,1.0,1.0,0.0,-1.0,,0.0-116.0,,-1.0,548.0,0.0,0.41709882,1.0,0.736666736,1.0,0.75,1.0,0.389095584,True,,5a82da17aa46dd00016b8f3b,,1671776,114,,evan-feature22,full_rf_a,,0
89,26446,115,,,,2,2,1.0,0.0,0.0,-1.0,,0.0-117.0,,0.0,437.0,0.0,0.39749009799999996,0.0,0.744320029,1.0,0.75,0.0,0.363848678,True,,5a82da17aa46dd00016b8f3b,,1682038,115,,evan-feature22,full_rf_a,,0
90,26447,116,,,,2,2,1.0,0.0,1.0,0.0,,0.0-118.0,,1.0,1237.0,0.0,0.392653706,1.0,0.75,1.0,0.75,0.0,0.384386976,True,,5a82da17aa46dd00016b8f3b,,1693100,116,,evan-feature22,full_rf_a,,0
91,26448,117,,,,2,2,0.0,0.0,1.0,0.0,,0.0-119.0,,0.0,1023.0,0.0,0.31190902600000003,0.0,0.75,0.0,0.732413819,0.0,0.413082932,True,,5a82da17aa46dd00016b8f3b,,1703959,117,,evan-feature22,full_rf_a,,0
92,26449,118,,,,2,2,1.0,1.0,0.0,-1.0,,0.0-120.0,,-1.0,1244.0,0.0,0.366917648,0.0,0.740073855,1.0,0.75,1.0,0.352861979,True,,5a82da17aa46dd00016b8f3b,,1715030,118,,evan-feature22,full_rf_a,,0
93,26450,119,,,,2,2,1.0,0.0,0.0,-1.0,,0.0-121.0,,0.0,885.0,0.0,0.3645172,0.0,0.721770713,1.0,0.75,0.0,0.404074511,True,,5a82da17aa46dd00016b8f3b,,1725730,119,,evan-feature22,full_rf_a,,0
94,26451,120,,,,2,2,1.0,1.0,0.0,-1.0,,0.0-122.0,,-1.0,486.0,0.0,0.35205600299999995,1.0,0.68983859,1.0,0.739735447,1.0,0.366895945,True,,5a82da17aa46dd00016b8f3b,,1736044,120,,evan-feature22,full_rf_a,,0
95,26452,121,,,,2,2,1.0,0.0,0.0,-1.0,,0.0-123.0,,0.0,725.0,0.0,0.40998722600000004,1.0,0.720859127,1.0,0.673854955,0.0,0.368528541,True,,5a82da17aa46dd00016b8f3b,,1746583,121,,evan-feature22,full_rf_a,,0
96,26453,122,,,,2,2,1.0,0.0,1.0,0.0,,0.0-124.0,,1.0,939.0,1.0,0.353625316,1.0,0.75,1.0,0.695605473,0.0,0.38303674200000004,True,,5a82da17aa46dd00016b8f3b,,1757313,122,,evan-feature22,full_rf_a,,0
97,26454,123,,,,2,2,1.0,0.0,0.0,-1.0,,0.0-125.0,,0.0,758.0,0.0,0.359216989,1.0,0.75,1.0,0.6987915090000001,0.0,0.35169046200000004,True,,5a82da17aa46dd00016b8f3b,,1767893,123,,evan-feature22,full_rf_a,,0
98,26455,124,,,,2,2,1.0,1.0,1.0,0.0,,0.0-126.0,,1.0,962.0,1.0,0.35834496899999996,1.0,0.75,1.0,0.707067742,1.0,0.416763636,True,,5a82da17aa46dd00016b8f3b,,1778647,124,,evan-feature22,full_rf_a,,0
99,26456,125,,,,2,2,1.0,1.0,1.0,0.0,,0.0-127.0,,1.0,733.0,0.0,0.38741613799999997,1.0,0.7177369570000001,1.0,0.734902455,1.0,0.49438664299999996,True,,5a82da17aa46dd00016b8f3b,,1789196,125,,evan-feature22,full_rf_a,,0
100,26457,126,,,,SLOW,SLOW,,,0.0,-1.0,,0.0-128.0,,-3.0,,0.0,0.405255252,1.0,0.7300466640000001,1.0,0.7027748070000001,1.0,0.504359668,True,,5a82da17aa46dd00016b8f3b,,1795020,126,,evan-feature22,full_rf_a,,1
101,26458,127,,,,2,2,0.0,1.0,0.0,-1.0,,0.0-129.0,,-1.0,342.0,1.0,0.40697073,1.0,0.7260142190000001,0.0,0.724461982,1.0,0.522779179,True,,5a82da17aa46dd00016b8f3b,,1805197,127,,evan-feature22,full_rf_a,,1
102,26459,128,,,,1,1,0.0,1.0,0.0,-1.0,,0.0-130.0,,-1.0,888.0,0.0,0.43906215299999996,1.0,0.7252802340000001,1.0,0.719079934,0.0,0.5712990579999999,True,,5a82da17aa46dd00016b8f3b,,1815926,128,,evan-feature22,full_rf_a,,1
103,26460,129,,,,1,1,0.0,0.0,0.0,-1.0,,0.0-131.0,,0.0,411.0,0.0,0.4076705,0.0,0.73280499,1.0,0.681313127,1.0,0.523891346,True,,5a82da17aa46dd00016b8f3b,,1826134,129,,evan-feature22,full_rf_a,,0
104,26461,130,,,,1,1,1.0,1.0,0.0,-1.0,,0.0-132.0,,-1.0,411.0,1.0,0.399102911,1.0,0.730498344,1.0,0.661080239,1.0,0.46742603,True,,5a82da17aa46dd00016b8f3b,,1836353,130,,evan-feature22,full_rf_a,,0
105,26462,131,,,,1,1,1.0,0.0,1.0,0.0,,0.0-133.0,,1.0,749.0,1.0,0.356477282,0.0,0.712296395,0.0,0.641812684,1.0,0.44868414,True,,5a82da17aa46dd00016b8f3b,,1846903,131,,evan-feature22,full_rf_a,,0
106,26463,132,,,,1,1,0.0,1.0,0.0,-1.0,,0.0-134.0,,-1.0,1831.0,0.0,0.462760722,1.0,0.692349322,1.0,0.700947931,1.0,0.394680266,True,,5a82da17aa46dd00016b8f3b,,1858551,132,,evan-feature22,full_rf_a,,0
107,26464,133,,,,1,1,0.0,1.0,0.0,-1.0,,0.0-135.0,,-1.0,929.0,0.0,0.422306413,1.0,0.718375916,1.0,0.706340917,0.0,0.367787185,True,,5a82da17aa46dd00016b8f3b,,1869314,133,,evan-feature22,full_rf_a,,0
108,26466,135,,,,1,1,0.0,0.0,0.0,-1.0,,0.0-137.0,,0.0,2012.0,0.0,0.4582233,0.0,0.643834117,1.0,0.75,0.0,0.39615823299999997,True,,5a82da17aa46dd00016b8f3b,,1982156,135,,evan-feature22,full_rf_a,,0
109,26467,136,,,,1,1,0.0,1.0,0.0,-1.0,,0.0-138.0,,-1.0,2665.0,0.0,0.43813437899999996,1.0,0.651283804,1.0,0.729674191,1.0,0.37711048,True,,5a82da17aa46dd00016b8f3b,,1994647,136,,evan-feature22,full_rf_a,,0
110,26468,137,,,,SLOW,SLOW,,,0.0,-1.0,,0.0-139.0,,-3.0,,0.0,0.471199094,1.0,0.6470010979999999,1.0,0.715008097,1.0,0.410656191,True,,5a82da17aa46dd00016b8f3b,,2000481,137,,evan-feature22,full_rf_a,,1
111,26469,138,,,,1,1,1.0,1.0,1.0,0.0,,0.0-140.0,,1.0,499.0,1.0,0.42486406,1.0,0.629771829,1.0,0.6550939960000001,0.0,0.459093873,True,,5a82da17aa46dd00016b8f3b,,2010806,138,,evan-feature22,full_rf_a,,1
112,26470,139,,,,1,1,0.0,0.0,1.0,0.0,,0.0-141.0,,0.0,778.0,0.0,0.4803197,0.0,0.645842715,1.0,0.6421749920000001,1.0,0.443092151,True,,5a82da17aa46dd00016b8f3b,,2021409,139,,evan-feature22,full_rf_a,,0
113,26471,140,,,,2,2,0.0,1.0,1.0,0.0,,0.0-142.0,,0.0,1062.0,0.0,0.521848997,0.0,0.735801074,0.0,0.6691348460000001,1.0,0.45259351600000003,True,,5a82da17aa46dd00016b8f3b,,2032322,140,,evan-feature22,full_rf_a,,1
114,26472,141,,,,2,2,1.0,1.0,0.0,-1.0,,0.0-143.0,,-1.0,439.0,1.0,0.49565621299999996,0.0,0.742400847,1.0,0.661512553,1.0,0.483110831,True,,5a82da17aa46dd00016b8f3b,,2042582,141,,evan-feature22,full_rf_a,,0
115,26473,142,,,,2,2,1.0,0.0,1.0,0.0,,0.0-144.0,,1.0,562.0,1.0,0.521564361,0.0,0.731078632,1.0,0.6774886809999999,0.0,0.483263956,True,,5a82da17aa46dd00016b8f3b,,2052972,142,,evan-feature22,full_rf_a,,0
116,26474,143,,,,2,2,1.0,0.0,1.0,0.0,,0.0-145.0,,1.0,922.0,1.0,0.558893102,1.0,0.719810023,1.0,0.67461031,0.0,0.499349834,True,,5a82da17aa46dd00016b8f3b,,2063745,143,,evan-feature22,full_rf_a,,0
117,26475,144,,,,2,2,1.0,0.0,0.0,-1.0,,0.0-146.0,,0.0,502.0,1.0,0.611031046,1.0,0.75,1.0,0.688072995,0.0,0.5321422729999999,True,,5a82da17aa46dd00016b8f3b,,2074070,144,,evan-feature22,full_rf_a,,0
118,26476,145,,,,2,2,0.0,1.0,1.0,0.0,,0.0-147.0,,0.0,625.0,1.0,0.633223941,1.0,0.713567728,0.0,0.75,1.0,0.48185314700000004,True,,5a82da17aa46dd00016b8f3b,,2084513,145,,evan-feature22,full_rf_a,,0
119,26477,146,,,,1,1,1.0,0.0,1.0,0.0,,0.0-148.0,,1.0,1305.0,1.0,0.664001694,0.0,0.705509768,1.0,0.75,0.0,0.500211065,True,,5a82da17aa46dd00016b8f3b,,2095661,146,,evan-feature22,full_rf_a,,1
120,26478,147,,,,1,1,1.0,1.0,0.0,-1.0,,0.0-149.0,,-1.0,785.0,1.0,0.664001694,1.0,0.705509768,1.0,0.75,1.0,0.500211065,True,,5a82da17aa46dd00016b8f3b,,2106284,147,,evan-feature22,full_rf_a,,0
121,26479,148,,,,SLOW,SLOW,,,0.0,-1.0,,0.0-150.0,,-3.0,,1.0,0.696508041,1.0,0.71066027,0.0,0.717028709,1.0,0.49792991,True,,5a82da17aa46dd00016b8f3b,,2112140,148,,evan-feature22,full_rf_a,,1
122,26480,149,,,,1,1,1.0,1.0,1.0,0.0,,0.0-151.0,,1.0,531.0,1.0,0.699883272,1.0,0.75,0.0,0.713543895,0.0,0.496962643,True,,5a82da17aa46dd00016b8f3b,,2122508,149,,evan-feature22,full_rf_a,,1
123,26481,150,,,,SLOW,SLOW,,,0.0,-1.0,,0.0-152.0,,-3.0,,1.0,0.741163419,1.0,0.75,1.0,0.64691024,1.0,0.513858197,True,,5a82da17aa46dd00016b8f3b,,2128343,150,,evan-feature22,full_rf_a,,1
124,26482,151,,,,1,1,1.0,1.0,1.0,0.0,,0.0-153.0,,1.0,380.0,1.0,0.75,1.0,0.70816558,0.0,0.594499079,1.0,0.48502124,True,,5a82da17aa46dd00016b8f3b,,2138540,151,,evan-feature22,full_rf_a,,1
125,26483,152,,,,1,1,1.0,0.0,0.0,-1.0,,0.0-154.0,,0.0,447.0,1.0,0.75,0.0,0.721848901,1.0,0.62197249,0.0,0.48263586399999997,True,,5a82da17aa46dd00016b8f3b,,2148801,152,,evan-feature22,full_rf_a,,0
126,26484,153,,,,1,1,1.0,1.0,1.0,0.0,,0.0-155.0,,1.0,615.0,1.0,0.75,1.0,0.74813071,1.0,0.584357161,1.0,0.411477782,True,,5a82da17aa46dd00016b8f3b,,2159234,153,,evan-feature22,full_rf_a,,0
127,26485,154,,,,1,1,1.0,1.0,0.0,-1.0,,0.0-156.0,,-1.0,451.0,1.0,0.75,1.0,0.75,1.0,0.52287236,0.0,0.488290656,True,,5a82da17aa46dd00016b8f3b,,2169506,154,,evan-feature22,full_rf_a,,0
128,26486,155,,,,1,1,1.0,1.0,0.0,-1.0,,0.0-157.0,,-1.0,402.0,1.0,0.75,1.0,0.75,0.0,0.544321581,0.0,0.53143059,True,,5a82da17aa46dd00016b8f3b,,2179735,155,,evan-feature22,full_rf_a,,0
129,26487,156,,,,1,1,0.0,1.0,0.0,-1.0,,0.0-158.0,,-1.0,549.0,0.0,0.726754564,1.0,0.75,1.0,0.5129306370000001,1.0,0.530592445,True,,5a82da17aa46dd00016b8f3b,,2190102,156,,evan-feature22,full_rf_a,,0
130,26488,157,,,,1,1,0.0,1.0,1.0,0.0,,0.0-159.0,,0.0,513.0,0.0,0.75,1.0,0.7392590729999999,0.0,0.479875835,1.0,0.547007051,True,,5a82da17aa46dd00016b8f3b,,2200449,157,,evan-feature22,full_rf_a,,0
131,26489,158,,,,1,1,1.0,1.0,1.0,0.0,,0.0-160.0,,1.0,539.0,1.0,0.75,1.0,0.7393376979999999,1.0,0.546045419,0.0,0.541267353,True,,5a82da17aa46dd00016b8f3b,,2210817,158,,evan-feature22,full_rf_a,,0
132,26490,159,,,,1,1,0.0,0.0,1.0,0.0,,0.0-161.0,,0.0,400.0,0.0,0.75,0.0,0.75,1.0,0.485725895,0.0,0.527625395,True,,5a82da17aa46dd00016b8f3b,,2221046,159,,evan-feature22,full_rf_a,,0
133,26491,160,,,,1,1,1.0,0.0,0.0,-1.0,,0.0-162.0,,0.0,585.0,1.0,0.75,0.0,0.725087974,0.0,0.488603595,1.0,0.504019206,True,,5a82da17aa46dd00016b8f3b,,2231447,160,,evan-feature22,full_rf_a,,0
134,26492,161,,,,1,1,1.0,0.0,0.0,-1.0,,0.0-163.0,,0.0,676.0,1.0,0.745504295,0.0,0.75,1.0,0.452379914,0.0,0.50131194,True,,5a82da17aa46dd00016b8f3b,,2241942,161,,evan-feature22,full_rf_a,,0
135,26493,162,,,,1,1,1.0,1.0,0.0,-1.0,,0.0-164.0,,-1.0,640.0,1.0,0.728513874,1.0,0.75,0.0,0.44125567200000004,0.0,0.531454591,True,,5a82da17aa46dd00016b8f3b,,2252385,162,,evan-feature22,full_rf_a,,0
136,26494,163,,,,2,2,0.0,1.0,1.0,0.0,,0.0-165.0,,0.0,1377.0,1.0,0.73790804,1.0,0.75,0.0,0.413036656,1.0,0.524619035,True,,5a82da17aa46dd00016b8f3b,,2263565,163,,evan-feature22,full_rf_a,,1
137,26495,164,,,,2,2,0.0,0.0,0.0,-1.0,,0.0-166.0,,0.0,578.0,0.0,0.7080961309999999,0.0,0.708666865,0.0,0.431915581,0.0,0.481819489,True,,5a82da17aa46dd00016b8f3b,,2273954,164,,evan-feature22,full_rf_a,,0
138,26496,165,,,,2,2,0.0,1.0,0.0,-1.0,,0.0-167.0,,-1.0,331.0,1.0,0.721378003,1.0,0.71605913,0.0,0.36642387,1.0,0.5036739929999999,True,,5a82da17aa46dd00016b8f3b,,2284119,165,,evan-feature22,full_rf_a,,0
139,26497,166,,,,2,2,1.0,1.0,0.0,-1.0,,0.0-168.0,,-1.0,401.0,1.0,0.7340618959999999,1.0,0.699323252,1.0,0.35298046299999997,1.0,0.511241692,True,,5a82da17aa46dd00016b8f3b,,2294316,166,,evan-feature22,full_rf_a,,0
140,26498,167,,,,SLOW,SLOW,,,1.0,0.0,,0.0-169.0,,-3.0,,0.0,0.75,1.0,0.70412698,1.0,0.380734814,0.0,0.529580116,True,,5a82da17aa46dd00016b8f3b,,2300161,167,,evan-feature22,full_rf_a,,1
141,26499,168,,,,2,2,1.0,1.0,0.0,-1.0,,0.0-170.0,,-1.0,349.0,1.0,0.7436654909999999,1.0,0.711182751,1.0,0.41125331,1.0,0.49554405,True,,5a82da17aa46dd00016b8f3b,,2310337,168,,evan-feature22,full_rf_a,,1
142,26500,169,,,,2,2,0.0,1.0,0.0,-1.0,,0.0-171.0,,-1.0,433.0,0.0,0.731607915,1.0,0.651774583,0.0,0.35688023,1.0,0.45194491600000003,True,,5a82da17aa46dd00016b8f3b,,2320597,169,,evan-feature22,full_rf_a,,0
143,26501,170,,,,2,2,0.0,0.0,1.0,0.0,,0.0-172.0,,0.0,545.0,0.0,0.75,1.0,0.75,0.0,0.283145374,0.0,0.528608005,True,,5a82da17aa46dd00016b8f3b,,2330967,170,,evan-feature22,full_rf_a,,0
144,26502,171,,,,2,2,1.0,0.0,1.0,0.0,,0.0-173.0,,1.0,641.0,1.0,0.7491416890000001,1.0,0.7423785959999999,1.0,0.29135870399999997,0.0,0.498888318,True,,5a82da17aa46dd00016b8f3b,,2341420,171,,evan-feature22,full_rf_a,,0
145,26503,172,,,,2,2,1.0,0.0,1.0,0.0,,0.0-174.0,,1.0,664.0,1.0,0.708569387,1.0,0.717682277,1.0,0.294421699,0.0,0.493838163,True,,5a82da17aa46dd00016b8f3b,,2351863,172,,evan-feature22,full_rf_a,,0
146,26504,173,,,,2,2,1.0,0.0,0.0,-1.0,,0.0-175.0,,0.0,412.0,1.0,0.75,1.0,0.7383382159999999,1.0,0.356098707,0.0,0.442533405,True,,5a82da17aa46dd00016b8f3b,,2362092,173,,evan-feature22,full_rf_a,,0
147,26505,174,,,,2,2,0.0,0.0,0.0,-1.0,,0.0-176.0,,0.0,477.0,1.0,0.744527075,1.0,0.75,0.0,0.334127506,0.0,0.393165805,True,,5a82da17aa46dd00016b8f3b,,2372397,174,,evan-feature22,full_rf_a,,0
148,26506,175,,,,2,2,0.0,1.0,0.0,-1.0,,0.0-177.0,,-1.0,633.0,1.0,0.75,1.0,0.75,0.0,0.33571021799999995,1.0,0.350393962,True,,5a82da17aa46dd00016b8f3b,,2382870,175,,evan-feature22,full_rf_a,,0
149,26507,176,,,,1,1,0.0,1.0,0.0,-1.0,,0.0-178.0,,-1.0,826.0,0.0,0.75,1.0,0.75,0.0,0.313628297,0.0,0.36349657399999996,True,,5a82da17aa46dd00016b8f3b,,2393517,176,,evan-feature22,full_rf_a,,1
150,26508,177,,,,1,1,1.0,1.0,1.0,0.0,,0.0-179.0,,1.0,407.0,1.0,0.75,1.0,0.734284182,0.0,0.262667667,0.0,0.380199119,True,,5a82da17aa46dd00016b8f3b,,2403724,177,,evan-feature22,full_rf_a,,0
151,26509,178,,,,1,1,1.0,1.0,0.0,-1.0,,0.0-180.0,,-1.0,664.0,1.0,0.75,1.0,0.75,0.0,0.25,1.0,0.394494013,True,,5a82da17aa46dd00016b8f3b,,2414209,178,,evan-feature22,full_rf_a,,0
152,26510,179,,,,1,1,1.0,1.0,1.0,0.0,,0.0-181.0,,1.0,609.0,1.0,0.722298145,1.0,0.7357822340000001,0.0,0.25,1.0,0.319142121,True,,5a82da17aa46dd00016b8f3b,,2424631,179,,evan-feature22,full_rf_a,,0
153,26511,180,,,,1,1,0.0,1.0,1.0,0.0,,0.0-182.0,,0.0,354.0,0.0,0.73149275,1.0,0.724276446,1.0,0.305856907,0.0,0.281315057,True,,5a82da17aa46dd00016b8f3b,,2434796,180,,evan-feature22,full_rf_a,,0
154,26512,181,,,,1,1,1.0,1.0,0.0,-1.0,,0.0-183.0,,-1.0,492.0,1.0,0.7458732690000001,1.0,0.7336382459999999,0.0,0.272571964,0.0,0.266021999,True,,5a82da17aa46dd00016b8f3b,,2445100,181,,evan-feature22,full_rf_a,,0
155,26513,182,,,,1,1,1.0,1.0,0.0,-1.0,,0.0-184.0,,-1.0,696.0,1.0,0.705579037,1.0,0.720778292,1.0,0.320238144,0.0,0.30971744,True,,5a82da17aa46dd00016b8f3b,,2455604,182,,evan-feature22,full_rf_a,,0
156,26514,183,,,,1,1,1.0,1.0,0.0,-1.0,,0.0-185.0,,-1.0,959.0,1.0,0.700425648,1.0,0.7198784009999999,0.0,0.272590393,0.0,0.304182931,True,,5a82da17aa46dd00016b8f3b,,2466369,183,,evan-feature22,full_rf_a,,0
157,26515,184,,,,1,1,1.0,0.0,0.0,-1.0,,0.0-186.0,,0.0,54.0,1.0,0.735590785,0.0,0.722714973,0.0,0.25,1.0,0.323421091,True,,5a82da17aa46dd00016b8f3b,,2476257,184,,evan-feature22,full_rf_a,,0
158,26516,185,,,,1,1,0.0,1.0,0.0,-1.0,,0.0-187.0,,-1.0,628.0,0.0,0.724807662,1.0,0.63146213,0.0,0.36836492600000004,0.0,0.34592153299999995,True,,5a82da17aa46dd00016b8f3b,,2486700,185,,evan-feature22,full_rf_a,,0
159,26517,186,,,,1,1,0.0,0.0,0.0,-1.0,,0.0-188.0,,0.0,728.0,0.0,0.7352796909999999,0.0,0.555111392,1.0,0.36003922,0.0,0.31433779999999995,True,,5a82da17aa46dd00016b8f3b,,2497239,186,,evan-feature22,full_rf_a,,0
160,26518,187,notice,,,,,,,,,,0.0-189.0,"{""Q0"":""in the second half sometimes you were getting zero for the value""}",,48381.0,,,,,,,,,True,,5a82da17aa46dd00016b8f3b,,2545625,187,Q,survey-text,full_rf_a,,1
161,26519,188,track1,,[0],,,,,,,,0.0-190.0,"{""Q0"":""yes""}",,8314.0,,,,,,,,,True,,5a82da17aa46dd00016b8f3b,,2553944,188,Q,evan-quiz,full_rf_a,,1
162,26520,189,track2,,[2],,,,,,,,0.0-191.0,"{""Q0"":""N/A""}",,9201.0,,,,,,,,,True,,5a82da17aa46dd00016b8f3b,,2563152,189,Q,evan-quiz,full_rf_a,,1
163,26521,190,strat,,,,,,,,,,0.0-192.0,"{""Q0"":""I tried to watch for the pattern changing so that I could switch doors accordingly""}",,20343.0,,,,,,,,,True,,5a82da17aa46dd00016b8f3b,,2583502,190,Q,survey-text,full_rf_a,,1
