,index,Unnamed: 0,Q_name,button_pressed,choice_idxs,chosen_pos,chosen_state,chosen_state_f_1_outcome,chosen_state_f_2_outcome,f_1_reward,f_2_reward,incor_questions,internal_node_id,responses,reward_received,rt,s_1_f_1_outcome,s_1_f_1_prob,s_1_f_2_outcome,s_1_f_2_prob,s_2_f_1_outcome,s_2_f_1_prob,s_2_f_2_outcome,s_2_f_2_prob,safe_first,stimulus,subjectID,success,time_elapsed,trial_index,trial_num,trial_type,version,view_history,switching
0,39346,45,,,,1,1,1.0,0.0,0.0,1.0,,0.0-27.0,,0.0,758.075,1.0,0.6,0.0,0.6,0.0,0.4,0.0,0.4,True,,njPfksHuHfOFgIwjeW7ChL4PpjD3,,1080064,45,,evan-feature22,full_rf_b,,0
1,39347,46,,,,1,1,1.0,0.0,0.0,1.0,,0.0-28.0,,0.0,2069.11,1.0,0.608053294,0.0,0.63424552,1.0,0.397152172,1.0,0.347069101,True,,njPfksHuHfOFgIwjeW7ChL4PpjD3,,1091892,46,,evan-feature22,full_rf_b,,0
2,39348,47,,,,1,1,1.0,1.0,0.0,1.0,,0.0-29.0,,1.0,760.125,1.0,0.642237155,1.0,0.648566321,0.0,0.389407674,1.0,0.285525717,True,,njPfksHuHfOFgIwjeW7ChL4PpjD3,,1102412,47,,evan-feature22,full_rf_b,,0
3,39349,48,,,,1,1,1.0,1.0,0.0,1.0,,0.0-30.0,,1.0,789.815,1.0,0.661086576,1.0,0.630492543,0.0,0.399058924,1.0,0.25,True,,njPfksHuHfOFgIwjeW7ChL4PpjD3,,1112960,48,,evan-feature22,full_rf_b,,0
4,39350,49,,,,1,1,1.0,1.0,0.0,1.0,,0.0-31.0,,1.0,1008.855,1.0,0.631324137,1.0,0.6269842929999999,1.0,0.38734784299999997,1.0,0.25,True,,njPfksHuHfOFgIwjeW7ChL4PpjD3,,1123728,49,,evan-feature22,full_rf_b,,0
5,39351,50,,,,1,1,0.0,0.0,0.0,1.0,,0.0-32.0,,0.0,933.585,0.0,0.6381991370000001,0.0,0.68987999,0.0,0.384107265,0.0,0.271332943,True,,njPfksHuHfOFgIwjeW7ChL4PpjD3,,1134418,50,,evan-feature22,full_rf_b,,0
6,39352,51,,,,1,1,0.0,0.0,0.0,1.0,,0.0-33.0,,0.0,619.25,0.0,0.66034901,0.0,0.742641349,1.0,0.360225629,1.0,0.25,True,,njPfksHuHfOFgIwjeW7ChL4PpjD3,,1144794,51,,evan-feature22,full_rf_b,,0
7,39353,52,,,,2,2,0.0,1.0,-1.0,0.0,,0.0-34.0,,0.0,1266.405,0.0,0.638612418,0.0,0.75,0.0,0.367273939,1.0,0.25,True,,njPfksHuHfOFgIwjeW7ChL4PpjD3,,1155818,52,,evan-feature22,full_rf_b,,1
8,39354,53,,,,1,1,1.0,1.0,0.0,1.0,,0.0-35.0,,1.0,1102.775,1.0,0.624340629,1.0,0.75,1.0,0.425829545,0.0,0.25,True,,njPfksHuHfOFgIwjeW7ChL4PpjD3,,1166680,53,,evan-feature22,full_rf_b,,1
9,39355,54,,,,1,1,1.0,1.0,0.0,1.0,,0.0-36.0,,1.0,871.47,1.0,0.621999804,1.0,0.75,1.0,0.368609357,0.0,0.25,True,,njPfksHuHfOFgIwjeW7ChL4PpjD3,,1177311,54,,evan-feature22,full_rf_b,,0
10,39356,55,,,,2,2,0.0,1.0,-1.0,0.0,,0.0-37.0,,0.0,997.625,0.0,0.62666403,1.0,0.75,0.0,0.311151498,1.0,0.25,True,,njPfksHuHfOFgIwjeW7ChL4PpjD3,,1188068,55,,evan-feature22,full_rf_b,,1
11,39357,56,,,,2,2,1.0,0.0,-1.0,0.0,,0.0-38.0,,-1.0,1143.57,1.0,0.6819650009999999,0.0,0.75,1.0,0.310763048,0.0,0.25,True,,njPfksHuHfOFgIwjeW7ChL4PpjD3,,1198968,56,,evan-feature22,full_rf_b,,0
12,39358,57,,,,1,1,0.0,0.0,0.0,1.0,,0.0-39.0,,0.0,1467.815,0.0,0.740626951,0.0,0.75,0.0,0.25,1.0,0.25,True,,njPfksHuHfOFgIwjeW7ChL4PpjD3,,1210193,57,,evan-feature22,full_rf_b,,1
13,39359,58,,,,1,1,1.0,1.0,0.0,1.0,,0.0-40.0,,1.0,671.795,1.0,0.739599242,1.0,0.742034978,0.0,0.25397114600000004,0.0,0.25,True,,njPfksHuHfOFgIwjeW7ChL4PpjD3,,1220621,58,,evan-feature22,full_rf_b,,0
14,39360,59,,,,1,1,1.0,1.0,0.0,1.0,,0.0-41.0,,1.0,745.74,1.0,0.732341315,1.0,0.72735643,0.0,0.25,0.0,0.25,True,,njPfksHuHfOFgIwjeW7ChL4PpjD3,,1231125,59,,evan-feature22,full_rf_b,,0
15,39361,60,,,,1,1,1.0,1.0,0.0,1.0,,0.0-42.0,,1.0,1382.59,1.0,0.7062287770000001,1.0,0.75,0.0,0.29002151,1.0,0.288256649,True,,njPfksHuHfOFgIwjeW7ChL4PpjD3,,1242265,60,,evan-feature22,full_rf_b,,0
16,39362,61,,,,2,2,0.0,1.0,-1.0,0.0,,0.0-43.0,,0.0,953.835,1.0,0.7086029209999999,1.0,0.75,0.0,0.274129113,1.0,0.262851608,True,,njPfksHuHfOFgIwjeW7ChL4PpjD3,,1252977,61,,evan-feature22,full_rf_b,,1
17,39363,62,,,,1,1,1.0,1.0,0.0,1.0,,0.0-44.0,,1.0,876.46,1.0,0.669189651,1.0,0.727614338,0.0,0.298444036,1.0,0.296944518,True,,njPfksHuHfOFgIwjeW7ChL4PpjD3,,1263612,62,,evan-feature22,full_rf_b,,1
18,39364,63,,,,2,2,0.0,0.0,-1.0,0.0,,0.0-45.0,,0.0,978.62,1.0,0.6819912929999999,0.0,0.7179434290000001,0.0,0.265003961,0.0,0.28157921199999997,True,,njPfksHuHfOFgIwjeW7ChL4PpjD3,,1274348,63,,evan-feature22,full_rf_b,,1
19,39365,64,,,,2,2,0.0,0.0,-1.0,0.0,,0.0-46.0,,0.0,777.51,1.0,0.665275002,1.0,0.723065271,0.0,0.260414971,0.0,0.30973870000000003,True,,njPfksHuHfOFgIwjeW7ChL4PpjD3,,1284882,64,,evan-feature22,full_rf_b,,0
20,39366,65,,,,1,1,1.0,0.0,0.0,1.0,,0.0-47.0,,0.0,1992.345,1.0,0.6660593260000001,0.0,0.728032907,0.0,0.30922817,0.0,0.338778608,True,,njPfksHuHfOFgIwjeW7ChL4PpjD3,,1296633,65,,evan-feature22,full_rf_b,,1
21,39367,66,,,,1,1,1.0,1.0,0.0,1.0,,0.0-48.0,,1.0,1072.445,1.0,0.702068785,1.0,0.6528750879999999,0.0,0.287329608,1.0,0.35789613200000003,True,,njPfksHuHfOFgIwjeW7ChL4PpjD3,,1307464,66,,evan-feature22,full_rf_b,,0
22,39368,67,,,,1,1,1.0,1.0,0.0,1.0,,0.0-49.0,,1.0,917.335,1.0,0.651939787,1.0,0.636725589,0.0,0.284834488,1.0,0.358563756,True,,njPfksHuHfOFgIwjeW7ChL4PpjD3,,1318140,67,,evan-feature22,full_rf_b,,0
23,39369,68,,,,1,1,1.0,0.0,0.0,1.0,,0.0-50.0,,0.0,610.04,1.0,0.67573929,0.0,0.612550049,1.0,0.37130387600000003,0.0,0.383542402,True,,njPfksHuHfOFgIwjeW7ChL4PpjD3,,1328508,68,,evan-feature22,full_rf_b,,0
24,39370,69,,,,1,1,0.0,0.0,0.0,1.0,,0.0-51.0,,0.0,977.465,0.0,0.620753801,0.0,0.60513644,0.0,0.385529434,0.0,0.340361743,True,,njPfksHuHfOFgIwjeW7ChL4PpjD3,,1339242,69,,evan-feature22,full_rf_b,,0
25,39371,70,,,,2,2,0.0,0.0,-1.0,0.0,,0.0-52.0,,0.0,1151.015,1.0,0.673564893,1.0,0.672437924,0.0,0.292955382,0.0,0.337633795,True,,njPfksHuHfOFgIwjeW7ChL4PpjD3,,1350150,70,,evan-feature22,full_rf_b,,1
26,39372,71,,,,1,1,1.0,1.0,0.0,1.0,,0.0-53.0,,1.0,843.24,1.0,0.6749427,1.0,0.724197502,0.0,0.32391132100000003,0.0,0.350995264,True,,njPfksHuHfOFgIwjeW7ChL4PpjD3,,1360750,71,,evan-feature22,full_rf_b,,1
27,39373,72,,,,1,1,1.0,0.0,0.0,1.0,,0.0-54.0,,0.0,834.345,1.0,0.6940159379999999,0.0,0.75,0.0,0.31710554399999996,1.0,0.413450341,True,,njPfksHuHfOFgIwjeW7ChL4PpjD3,,1371342,72,,evan-feature22,full_rf_b,,0
28,39374,73,,,,1,1,0.0,1.0,0.0,1.0,,0.0-55.0,,1.0,630.745,0.0,0.6916018270000001,1.0,0.69001187,0.0,0.261817804,1.0,0.40038635,True,,njPfksHuHfOFgIwjeW7ChL4PpjD3,,1381730,73,,evan-feature22,full_rf_b,,0
29,39375,74,,,,2,2,1.0,1.0,0.0,1.0,,0.0-56.0,,1.0,1050.365,1.0,0.641061544,1.0,0.71337992,1.0,0.277296461,1.0,0.47372791700000005,True,,njPfksHuHfOFgIwjeW7ChL4PpjD3,,1392539,74,,evan-feature22,full_rf_b,,1
30,39376,75,,,,2,2,1.0,0.0,0.0,1.0,,0.0-57.0,,0.0,668.61,0.0,0.6082438520000001,1.0,0.708471106,1.0,0.28745137,0.0,0.564174476,True,,njPfksHuHfOFgIwjeW7ChL4PpjD3,,1402965,75,,evan-feature22,full_rf_b,,0
31,39377,76,,,,1,1,0.0,0.0,-1.0,0.0,,0.0-58.0,,0.0,1506.24,0.0,0.6051112120000001,0.0,0.7118147229999999,0.0,0.272390611,0.0,0.5595149939999999,True,,njPfksHuHfOFgIwjeW7ChL4PpjD3,,1414228,76,,evan-feature22,full_rf_b,,1
32,39378,77,,,,1,1,0.0,0.0,-1.0,0.0,,0.0-59.0,,0.0,671.395,0.0,0.582420852,0.0,0.635867583,0.0,0.31089574,0.0,0.5227206520000001,True,,njPfksHuHfOFgIwjeW7ChL4PpjD3,,1424656,77,,evan-feature22,full_rf_b,,0
33,39379,78,,,,1,1,1.0,0.0,-1.0,0.0,,0.0-60.0,,-1.0,842.99,1.0,0.623195575,0.0,0.655026044,0.0,0.25,0.0,0.560387538,True,,njPfksHuHfOFgIwjeW7ChL4PpjD3,,1435257,78,,evan-feature22,full_rf_b,,0
34,39380,79,,,,1,1,0.0,1.0,0.0,1.0,,0.0-61.0,,1.0,851.465,0.0,0.601889598,1.0,0.678198724,0.0,0.25,0.0,0.559922936,True,,njPfksHuHfOFgIwjeW7ChL4PpjD3,,1445867,79,,evan-feature22,full_rf_b,,0
35,39381,80,,,,1,1,1.0,0.0,-1.0,0.0,,0.0-62.0,,-1.0,1044.665,1.0,0.601259914,0.0,0.704681482,1.0,0.33908969299999997,0.0,0.505003715,True,,njPfksHuHfOFgIwjeW7ChL4PpjD3,,1456669,80,,evan-feature22,full_rf_b,,0
36,39382,81,,,,2,2,1.0,0.0,-1.0,0.0,,0.0-63.0,,-1.0,1001.1,1.0,0.59645454,1.0,0.710437172,1.0,0.327441879,0.0,0.391749613,True,,njPfksHuHfOFgIwjeW7ChL4PpjD3,,1467429,81,,evan-feature22,full_rf_b,,1
37,39383,82,,,,1,1,1.0,0.0,0.0,1.0,,0.0-64.0,,0.0,1215.38,1.0,0.529473,0.0,0.636758527,0.0,0.301338063,0.0,0.365661481,True,,njPfksHuHfOFgIwjeW7ChL4PpjD3,,1478402,82,,evan-feature22,full_rf_b,,1
38,39384,83,,,,2,2,1.0,0.0,-1.0,0.0,,0.0-65.0,,-1.0,1295.725,1.0,0.541657162,1.0,0.634541962,1.0,0.343535366,0.0,0.371763742,True,,njPfksHuHfOFgIwjeW7ChL4PpjD3,,1489456,83,,evan-feature22,full_rf_b,,1
39,39385,84,,,,1,1,0.0,1.0,-1.0,0.0,,0.0-66.0,,0.0,1595.025,0.0,0.5707533260000001,1.0,0.589121171,0.0,0.326428396,0.0,0.43961622899999997,True,,njPfksHuHfOFgIwjeW7ChL4PpjD3,,1500808,84,,evan-feature22,full_rf_b,,1
40,39386,85,,,,1,1,0.0,0.0,0.0,1.0,,0.0-67.0,,0.0,893.655,0.0,0.5707533260000001,0.0,0.589121171,1.0,0.326428396,0.0,0.43961622899999997,True,,njPfksHuHfOFgIwjeW7ChL4PpjD3,,1511459,85,,evan-feature22,full_rf_b,,0
41,39387,86,,,,1,1,0.0,1.0,0.0,1.0,,0.0-68.0,,1.0,917.925,0.0,0.506271295,1.0,0.641775594,0.0,0.37149690700000004,0.0,0.404330166,True,,njPfksHuHfOFgIwjeW7ChL4PpjD3,,1522135,86,,evan-feature22,full_rf_b,,0
42,39388,87,,,,2,2,0.0,0.0,-1.0,0.0,,0.0-69.0,,0.0,938.725,0.0,0.455642565,1.0,0.623605825,0.0,0.358753011,0.0,0.346174041,True,,njPfksHuHfOFgIwjeW7ChL4PpjD3,,1532830,87,,evan-feature22,full_rf_b,,1
43,39389,88,,,,1,1,0.0,1.0,0.0,1.0,,0.0-70.0,,1.0,923.58,0.0,0.483677308,1.0,0.5904681070000001,1.0,0.402218411,1.0,0.35344697,True,,njPfksHuHfOFgIwjeW7ChL4PpjD3,,1543512,88,,evan-feature22,full_rf_b,,1
44,39390,89,,,,2,2,1.0,1.0,-1.0,0.0,,0.0-71.0,,-1.0,889.285,0.0,0.394210977,1.0,0.558925494,1.0,0.540052017,1.0,0.35182128700000004,True,,njPfksHuHfOFgIwjeW7ChL4PpjD3,,1554159,89,,evan-feature22,full_rf_b,,1
45,39391,90,,,,1,1,1.0,1.0,0.0,1.0,,0.0-72.0,,1.0,1101.74,1.0,0.382300414,1.0,0.577670603,0.0,0.607608448,0.0,0.378261578,True,,njPfksHuHfOFgIwjeW7ChL4PpjD3,,1565019,90,,evan-feature22,full_rf_b,,1
46,39392,91,,,,2,2,1.0,1.0,-1.0,0.0,,0.0-73.0,,-1.0,867.485,1.0,0.357596762,1.0,0.5929076529999999,1.0,0.6579790010000001,1.0,0.401326777,True,,njPfksHuHfOFgIwjeW7ChL4PpjD3,,1575646,91,,evan-feature22,full_rf_b,,1
47,39393,92,,,,1,1,1.0,1.0,0.0,1.0,,0.0-74.0,,1.0,674.235,1.0,0.362033495,1.0,0.582308608,0.0,0.649195052,1.0,0.355158505,True,,njPfksHuHfOFgIwjeW7ChL4PpjD3,,1586078,92,,evan-feature22,full_rf_b,,1
48,39394,93,,,,1,1,1.0,0.0,0.0,1.0,,0.0-75.0,,0.0,702.02,1.0,0.369620635,0.0,0.669100864,0.0,0.706059111,0.0,0.362516241,True,,njPfksHuHfOFgIwjeW7ChL4PpjD3,,1596538,93,,evan-feature22,full_rf_b,,0
49,39395,94,,,,1,1,0.0,1.0,0.0,1.0,,0.0-76.0,,1.0,2072.795,0.0,0.41477751399999996,1.0,0.7284416779999999,1.0,0.7182656940000001,0.0,0.36228040899999997,True,,njPfksHuHfOFgIwjeW7ChL4PpjD3,,1608371,94,,evan-feature22,full_rf_b,,0
50,39396,95,,,,1,1,1.0,1.0,-1.0,0.0,,0.0-77.0,,-1.0,2312.545,1.0,0.37675460299999997,1.0,0.703250285,1.0,0.75,0.0,0.461979164,True,,njPfksHuHfOFgIwjeW7ChL4PpjD3,,1620442,95,,evan-feature22,full_rf_b,,0
51,39397,96,,,,1,1,0.0,1.0,-1.0,0.0,,0.0-78.0,,0.0,2296.835,0.0,0.398716075,1.0,0.6723864890000001,1.0,0.674153818,0.0,0.519029516,True,,njPfksHuHfOFgIwjeW7ChL4PpjD3,,1632500,96,,evan-feature22,full_rf_b,,0
52,39398,97,,,,1,1,0.0,1.0,-1.0,0.0,,0.0-79.0,,0.0,1267.72,0.0,0.34677856700000004,1.0,0.69057175,1.0,0.6822438540000001,0.0,0.477292237,True,,njPfksHuHfOFgIwjeW7ChL4PpjD3,,1643525,97,,evan-feature22,full_rf_b,,0
53,39399,98,,,,1,1,1.0,1.0,0.0,1.0,,0.0-80.0,,1.0,916.89,1.0,0.28580469199999997,1.0,0.68408818,0.0,0.684207565,1.0,0.49780448299999996,True,,njPfksHuHfOFgIwjeW7ChL4PpjD3,,1654202,98,,evan-feature22,full_rf_b,,0
54,39401,100,,,,1,1,0.0,1.0,0.0,1.0,,0.0-82.0,,1.0,1486.33,0.0,0.25,1.0,0.7405808970000001,1.0,0.679614108,0.0,0.436436964,True,,njPfksHuHfOFgIwjeW7ChL4PpjD3,,1775050,100,,evan-feature22,full_rf_b,,0
55,39402,101,,,,1,1,0.0,1.0,0.0,1.0,,0.0-83.0,,1.0,3895.16,0.0,0.29890393,1.0,0.730505706,1.0,0.7328203320000001,1.0,0.439256938,True,,njPfksHuHfOFgIwjeW7ChL4PpjD3,,1788703,101,,evan-feature22,full_rf_b,,0
56,39403,102,,,,2,2,0.0,0.0,-1.0,0.0,,0.0-84.0,,0.0,909.42,0.0,0.326762398,0.0,0.7148059609999999,0.0,0.75,0.0,0.44389608799999997,True,,njPfksHuHfOFgIwjeW7ChL4PpjD3,,1799368,102,,evan-feature22,full_rf_b,,1
57,39404,103,,,,1,1,0.0,1.0,0.0,1.0,,0.0-85.0,,1.0,1356.07,0.0,0.295168515,1.0,0.739760854,0.0,0.719947008,0.0,0.35277284600000003,True,,njPfksHuHfOFgIwjeW7ChL4PpjD3,,1810482,103,,evan-feature22,full_rf_b,,1
58,39405,104,,,,1,1,0.0,1.0,0.0,1.0,,0.0-86.0,,1.0,677.82,0.0,0.25,1.0,0.70781482,1.0,0.75,0.0,0.286095925,True,,njPfksHuHfOFgIwjeW7ChL4PpjD3,,1820918,104,,evan-feature22,full_rf_b,,0
59,39406,105,,,,1,1,0.0,1.0,0.0,1.0,,0.0-87.0,,1.0,874.245,0.0,0.25638190899999996,1.0,0.704088163,1.0,0.75,1.0,0.26872601399999996,True,,njPfksHuHfOFgIwjeW7ChL4PpjD3,,1831551,105,,evan-feature22,full_rf_b,,0
60,39407,106,,,,2,2,1.0,1.0,-1.0,0.0,,0.0-88.0,,-1.0,1084.765,0.0,0.271581126,0.0,0.669760107,1.0,0.733896663,1.0,0.273244572,True,,njPfksHuHfOFgIwjeW7ChL4PpjD3,,1842394,106,,evan-feature22,full_rf_b,,1
61,39408,107,,,,1,1,0.0,1.0,0.0,1.0,,0.0-89.0,,1.0,1096.425,0.0,0.257144401,1.0,0.600575706,1.0,0.74488122,0.0,0.25,True,,njPfksHuHfOFgIwjeW7ChL4PpjD3,,1853249,107,,evan-feature22,full_rf_b,,1
62,39409,108,,,,1,1,0.0,0.0,0.0,1.0,,0.0-90.0,,0.0,1099.42,0.0,0.25,0.0,0.616870026,1.0,0.723610234,0.0,0.25,True,,njPfksHuHfOFgIwjeW7ChL4PpjD3,,1864106,108,,evan-feature22,full_rf_b,,0
63,39410,109,,,,1,1,0.0,0.0,-1.0,0.0,,0.0-91.0,,0.0,1133.07,0.0,0.25,0.0,0.583540187,1.0,0.7041042559999999,1.0,0.285961995,True,,njPfksHuHfOFgIwjeW7ChL4PpjD3,,1874996,109,,evan-feature22,full_rf_b,,0
64,39411,110,,,,1,1,0.0,0.0,-1.0,0.0,,0.0-92.0,,0.0,1082.685,0.0,0.27254536,0.0,0.53875765,0.0,0.693783448,0.0,0.284961652,True,,njPfksHuHfOFgIwjeW7ChL4PpjD3,,1885836,110,,evan-feature22,full_rf_b,,0
65,39412,111,,,,1,1,0.0,1.0,-1.0,0.0,,0.0-93.0,,0.0,1086.515,0.0,0.25,1.0,0.548431252,0.0,0.734221895,1.0,0.279445214,True,,njPfksHuHfOFgIwjeW7ChL4PpjD3,,1896680,111,,evan-feature22,full_rf_b,,0
66,39413,112,,,,1,1,0.0,0.0,0.0,1.0,,0.0-94.0,,0.0,962.735,0.0,0.258640684,0.0,0.545878066,1.0,0.725245965,0.0,0.31487537,True,,njPfksHuHfOFgIwjeW7ChL4PpjD3,,1907399,112,,evan-feature22,full_rf_b,,0
67,39414,113,,,,1,1,0.0,0.0,0.0,1.0,,0.0-95.0,,0.0,808.81,0.0,0.251103711,0.0,0.5776290629999999,0.0,0.696320133,0.0,0.317831047,True,,njPfksHuHfOFgIwjeW7ChL4PpjD3,,1917964,113,,evan-feature22,full_rf_b,,0
68,39415,114,,,,1,1,0.0,0.0,0.0,1.0,,0.0-96.0,,0.0,882.355,0.0,0.276630292,0.0,0.617329858,1.0,0.73838088,0.0,0.261471582,True,,njPfksHuHfOFgIwjeW7ChL4PpjD3,,1928602,114,,evan-feature22,full_rf_b,,0
69,39416,115,,,,1,1,0.0,1.0,0.0,1.0,,0.0-97.0,,1.0,691.585,0.0,0.297716424,1.0,0.618863717,1.0,0.7402358259999999,0.0,0.262600834,True,,njPfksHuHfOFgIwjeW7ChL4PpjD3,,1939051,115,,evan-feature22,full_rf_b,,0
70,39417,116,,,,1,1,1.0,0.0,-1.0,0.0,,0.0-98.0,,-1.0,694.215,1.0,0.290935512,0.0,0.695370945,1.0,0.706570507,1.0,0.280030553,True,,njPfksHuHfOFgIwjeW7ChL4PpjD3,,1949504,116,,evan-feature22,full_rf_b,,0
71,39418,117,,,,1,1,1.0,1.0,0.0,1.0,,0.0-99.0,,1.0,687.96,1.0,0.25,1.0,0.6465277079999999,1.0,0.67766682,0.0,0.25,True,,njPfksHuHfOFgIwjeW7ChL4PpjD3,,1959952,117,,evan-feature22,full_rf_b,,0
72,39419,118,,,,2,2,1.0,1.0,-1.0,0.0,,0.0-100.0,,-1.0,945.395,0.0,0.26463816,0.0,0.636100213,1.0,0.646048507,1.0,0.265607101,True,,njPfksHuHfOFgIwjeW7ChL4PpjD3,,1970655,118,,evan-feature22,full_rf_b,,1
73,39420,119,,,,1,1,0.0,1.0,-1.0,0.0,,0.0-101.0,,0.0,438.645,0.0,0.314340707,1.0,0.667795927,1.0,0.613630805,0.0,0.25,True,,njPfksHuHfOFgIwjeW7ChL4PpjD3,,1980850,119,,evan-feature22,full_rf_b,,1
74,39421,120,,,,1,1,0.0,1.0,0.0,1.0,,0.0-102.0,,1.0,1794.035,0.0,0.28685784,1.0,0.6622549529999999,1.0,0.652154117,0.0,0.25,True,,njPfksHuHfOFgIwjeW7ChL4PpjD3,,1992402,120,,evan-feature22,full_rf_b,,0
75,39422,121,,,,1,1,1.0,0.0,0.0,1.0,,0.0-103.0,,0.0,918.115,1.0,0.304106554,0.0,0.631289538,1.0,0.707041942,0.0,0.29314237,True,,njPfksHuHfOFgIwjeW7ChL4PpjD3,,2003079,121,,evan-feature22,full_rf_b,,0
76,39423,122,,,,1,1,0.0,1.0,0.0,1.0,,0.0-104.0,,1.0,824.73,0.0,0.304806932,1.0,0.571167718,0.0,0.680472346,0.0,0.25,True,,njPfksHuHfOFgIwjeW7ChL4PpjD3,,2013661,122,,evan-feature22,full_rf_b,,0
77,39424,123,,,,1,1,0.0,1.0,0.0,1.0,,0.0-105.0,,1.0,695.03,0.0,0.37919861,1.0,0.5724849710000001,1.0,0.705638003,0.0,0.30179300600000003,True,,njPfksHuHfOFgIwjeW7ChL4PpjD3,,2024113,123,,evan-feature22,full_rf_b,,0
78,39425,124,,,,1,1,0.0,1.0,0.0,1.0,,0.0-106.0,,1.0,835.035,0.0,0.464277969,1.0,0.554034373,1.0,0.7372627340000001,0.0,0.264699741,True,,njPfksHuHfOFgIwjeW7ChL4PpjD3,,2034705,124,,evan-feature22,full_rf_b,,0
79,39426,125,,,,1,1,1.0,1.0,0.0,1.0,,0.0-107.0,,1.0,1728.96,1.0,0.465104323,1.0,0.530793115,1.0,0.75,0.0,0.31683071,True,,njPfksHuHfOFgIwjeW7ChL4PpjD3,,2046194,125,,evan-feature22,full_rf_b,,0
80,39427,126,,,,1,1,1.0,0.0,-1.0,0.0,,0.0-108.0,,-1.0,894.355,1.0,0.465104323,0.0,0.530793115,1.0,0.75,0.0,0.31683071,True,,njPfksHuHfOFgIwjeW7ChL4PpjD3,,2056846,126,,evan-feature22,full_rf_b,,0
81,39428,127,,,,2,2,0.0,0.0,-1.0,0.0,,0.0-109.0,,0.0,1118.25,1.0,0.46833986,0.0,0.570249239,0.0,0.7244472590000001,0.0,0.364114163,True,,njPfksHuHfOFgIwjeW7ChL4PpjD3,,2067720,127,,evan-feature22,full_rf_b,,1
82,39429,128,,,,2,2,0.0,0.0,-1.0,0.0,,0.0-110.0,,0.0,994.585,1.0,0.445444024,1.0,0.649673355,0.0,0.6845441290000001,0.0,0.300660449,True,,njPfksHuHfOFgIwjeW7ChL4PpjD3,,2078472,128,,evan-feature22,full_rf_b,,0
83,39430,129,,,,2,2,1.0,0.0,-1.0,0.0,,0.0-111.0,,-1.0,771.23,0.0,0.39909721299999995,0.0,0.6715179509999999,1.0,0.742310028,0.0,0.35496088299999995,True,,njPfksHuHfOFgIwjeW7ChL4PpjD3,,2089000,129,,evan-feature22,full_rf_b,,0
84,39431,130,,,,1,1,1.0,1.0,0.0,1.0,,0.0-112.0,,1.0,658.075,1.0,0.37956104799999996,1.0,0.694725302,0.0,0.7181651309999999,1.0,0.38726906299999997,True,,njPfksHuHfOFgIwjeW7ChL4PpjD3,,2099416,130,,evan-feature22,full_rf_b,,1
85,39432,131,,,,1,1,0.0,1.0,0.0,1.0,,0.0-113.0,,1.0,607.685,0.0,0.404995034,1.0,0.724375412,1.0,0.6910946859999999,0.0,0.387187347,True,,njPfksHuHfOFgIwjeW7ChL4PpjD3,,2109781,131,,evan-feature22,full_rf_b,,0
86,39433,132,,,,2,2,1.0,0.0,-1.0,0.0,,0.0-114.0,,-1.0,784.83,0.0,0.461740803,0.0,0.75,1.0,0.75,0.0,0.34872038200000005,True,,njPfksHuHfOFgIwjeW7ChL4PpjD3,,2120324,132,,evan-feature22,full_rf_b,,1
87,39434,133,,,,2,2,1.0,1.0,-1.0,0.0,,0.0-115.0,,-1.0,1131.155,0.0,0.43821380600000004,1.0,0.738833273,1.0,0.728286963,1.0,0.399538128,True,,njPfksHuHfOFgIwjeW7ChL4PpjD3,,2131214,133,,evan-feature22,full_rf_b,,0
88,39435,134,,,,1,1,1.0,1.0,0.0,1.0,,0.0-116.0,,1.0,964.535,1.0,0.41709882,1.0,0.736666736,1.0,0.75,0.0,0.389095584,True,,njPfksHuHfOFgIwjeW7ChL4PpjD3,,2141936,134,,evan-feature22,full_rf_b,,1
89,39436,135,,,,1,1,0.0,0.0,0.0,1.0,,0.0-117.0,,0.0,738.165,0.0,0.39749009799999996,0.0,0.744320029,1.0,0.75,1.0,0.363848678,True,,njPfksHuHfOFgIwjeW7ChL4PpjD3,,2152430,135,,evan-feature22,full_rf_b,,0
90,39437,136,,,,2,2,0.0,1.0,-1.0,0.0,,0.0-118.0,,0.0,1350.92,1.0,0.392653706,1.0,0.75,0.0,0.75,1.0,0.384386976,True,,njPfksHuHfOFgIwjeW7ChL4PpjD3,,2163539,136,,evan-feature22,full_rf_b,,1
91,39438,137,,,,1,1,0.0,1.0,0.0,1.0,,0.0-119.0,,1.0,525.265,0.0,0.31190902600000003,1.0,0.75,1.0,0.732413819,0.0,0.413082932,True,,njPfksHuHfOFgIwjeW7ChL4PpjD3,,2173823,137,,evan-feature22,full_rf_b,,1
92,39439,138,,,,2,2,0.0,0.0,-1.0,0.0,,0.0-120.0,,0.0,917.685,1.0,0.366917648,1.0,0.740073855,0.0,0.75,0.0,0.352861979,True,,njPfksHuHfOFgIwjeW7ChL4PpjD3,,2184499,138,,evan-feature22,full_rf_b,,1
93,39440,139,,,,1,1,1.0,1.0,-1.0,0.0,,0.0-121.0,,-1.0,526.755,1.0,0.3645172,1.0,0.721770713,1.0,0.75,0.0,0.404074511,True,,njPfksHuHfOFgIwjeW7ChL4PpjD3,,2194783,139,,evan-feature22,full_rf_b,,1
94,39441,140,,,,2,2,1.0,1.0,-1.0,0.0,,0.0-122.0,,-1.0,585.675,0.0,0.35205600299999995,0.0,0.68983859,1.0,0.739735447,1.0,0.366895945,True,,njPfksHuHfOFgIwjeW7ChL4PpjD3,,2205127,140,,evan-feature22,full_rf_b,,1
95,39442,141,,,,2,2,1.0,0.0,-1.0,0.0,,0.0-123.0,,-1.0,646.675,1.0,0.40998722600000004,0.0,0.720859127,1.0,0.673854955,0.0,0.368528541,True,,njPfksHuHfOFgIwjeW7ChL4PpjD3,,2215532,141,,evan-feature22,full_rf_b,,0
96,39443,142,,,,2,2,1.0,0.0,-1.0,0.0,,0.0-124.0,,-1.0,801.35,0.0,0.353625316,1.0,0.75,1.0,0.695605473,0.0,0.38303674200000004,True,,njPfksHuHfOFgIwjeW7ChL4PpjD3,,2226091,142,,evan-feature22,full_rf_b,,0
97,39444,143,,,,2,2,1.0,0.0,-1.0,0.0,,0.0-125.0,,-1.0,700.46,0.0,0.359216989,1.0,0.75,1.0,0.6987915090000001,0.0,0.35169046200000004,True,,njPfksHuHfOFgIwjeW7ChL4PpjD3,,2236550,143,,evan-feature22,full_rf_b,,0
98,39445,144,,,,2,2,1.0,0.0,-1.0,0.0,,0.0-126.0,,-1.0,897.98,0.0,0.35834496899999996,0.0,0.75,1.0,0.707067742,0.0,0.416763636,True,,njPfksHuHfOFgIwjeW7ChL4PpjD3,,2247205,144,,evan-feature22,full_rf_b,,0
99,39446,145,,,,2,2,1.0,1.0,0.0,1.0,,0.0-127.0,,1.0,562.41,1.0,0.38741613799999997,0.0,0.7177369570000001,1.0,0.734902455,1.0,0.49438664299999996,True,,njPfksHuHfOFgIwjeW7ChL4PpjD3,,2257526,145,,evan-feature22,full_rf_b,,0
100,39447,146,,,,2,2,0.0,0.0,-1.0,0.0,,0.0-128.0,,0.0,788.59,0.0,0.405255252,0.0,0.7300466640000001,0.0,0.7027748070000001,0.0,0.504359668,True,,njPfksHuHfOFgIwjeW7ChL4PpjD3,,2268073,146,,evan-feature22,full_rf_b,,0
101,39448,147,,,,2,2,1.0,0.0,-1.0,0.0,,0.0-129.0,,-1.0,885.925,1.0,0.40697073,1.0,0.7260142190000001,1.0,0.724461982,0.0,0.522779179,True,,njPfksHuHfOFgIwjeW7ChL4PpjD3,,2278716,147,,evan-feature22,full_rf_b,,0
102,39449,148,,,,2,2,1.0,1.0,-1.0,0.0,,0.0-130.0,,-1.0,794.655,0.0,0.43906215299999996,1.0,0.7252802340000001,1.0,0.719079934,1.0,0.5712990579999999,True,,njPfksHuHfOFgIwjeW7ChL4PpjD3,,2289270,148,,evan-feature22,full_rf_b,,0
103,39450,149,,,,2,2,1.0,0.0,0.0,1.0,,0.0-131.0,,0.0,800.805,1.0,0.4076705,1.0,0.73280499,1.0,0.681313127,0.0,0.523891346,True,,njPfksHuHfOFgIwjeW7ChL4PpjD3,,2299829,149,,evan-feature22,full_rf_b,,0
104,39451,150,,,,2,2,0.0,0.0,0.0,1.0,,0.0-132.0,,0.0,644.78,1.0,0.399102911,1.0,0.730498344,0.0,0.661080239,0.0,0.46742603,True,,njPfksHuHfOFgIwjeW7ChL4PpjD3,,2310231,150,,evan-feature22,full_rf_b,,0
105,39452,151,,,,2,2,1.0,1.0,0.0,1.0,,0.0-133.0,,1.0,819.54,0.0,0.356477282,1.0,0.712296395,1.0,0.641812684,1.0,0.44868414,True,,njPfksHuHfOFgIwjeW7ChL4PpjD3,,2320808,151,,evan-feature22,full_rf_b,,0
106,39453,152,,,,2,2,1.0,1.0,-1.0,0.0,,0.0-134.0,,-1.0,744.825,0.0,0.462760722,1.0,0.692349322,1.0,0.700947931,1.0,0.394680266,True,,njPfksHuHfOFgIwjeW7ChL4PpjD3,,2331312,152,,evan-feature22,full_rf_b,,0
107,39454,153,,,,2,2,1.0,1.0,-1.0,0.0,,0.0-135.0,,-1.0,783.14,1.0,0.422306413,1.0,0.718375916,1.0,0.706340917,1.0,0.367787185,True,,njPfksHuHfOFgIwjeW7ChL4PpjD3,,2341854,153,,evan-feature22,full_rf_b,,0
108,39456,155,,,,1,1,0.0,1.0,-1.0,0.0,,0.0-137.0,,0.0,497.77,0.0,0.4582233,1.0,0.643834117,1.0,0.75,0.0,0.39615823299999997,True,,njPfksHuHfOFgIwjeW7ChL4PpjD3,,2354723,155,,evan-feature22,full_rf_b,,1
109,39457,156,,,,1,1,1.0,1.0,-1.0,0.0,,0.0-138.0,,-1.0,2710.145,1.0,0.43813437899999996,1.0,0.651283804,1.0,0.729674191,1.0,0.37711048,True,,njPfksHuHfOFgIwjeW7ChL4PpjD3,,2367192,156,,evan-feature22,full_rf_b,,0
110,39458,157,,,,2,2,1.0,0.0,-1.0,0.0,,0.0-139.0,,-1.0,689.245,1.0,0.471199094,1.0,0.6470010979999999,1.0,0.715008097,0.0,0.410656191,True,,njPfksHuHfOFgIwjeW7ChL4PpjD3,,2377640,157,,evan-feature22,full_rf_b,,1
111,39459,158,,,,2,2,0.0,1.0,-1.0,0.0,,0.0-140.0,,0.0,751.895,0.0,0.42486406,1.0,0.629771829,0.0,0.6550939960000001,1.0,0.459093873,True,,njPfksHuHfOFgIwjeW7ChL4PpjD3,,2388151,158,,evan-feature22,full_rf_b,,0
112,39460,159,,,,2,2,1.0,0.0,-1.0,0.0,,0.0-141.0,,-1.0,533.82,0.0,0.4803197,1.0,0.645842715,1.0,0.6421749920000001,0.0,0.443092151,True,,njPfksHuHfOFgIwjeW7ChL4PpjD3,,2398442,159,,evan-feature22,full_rf_b,,0
113,39461,160,,,,1,1,1.0,1.0,0.0,1.0,,0.0-142.0,,1.0,801.955,1.0,0.521848997,1.0,0.735801074,1.0,0.6691348460000001,1.0,0.45259351600000003,True,,njPfksHuHfOFgIwjeW7ChL4PpjD3,,2409003,160,,evan-feature22,full_rf_b,,1
114,39462,161,,,,1,1,0.0,1.0,-1.0,0.0,,0.0-143.0,,0.0,565.335,0.0,0.49565621299999996,1.0,0.742400847,1.0,0.661512553,0.0,0.483110831,True,,njPfksHuHfOFgIwjeW7ChL4PpjD3,,2419327,161,,evan-feature22,full_rf_b,,0
115,39463,162,,,,2,2,1.0,1.0,-1.0,0.0,,0.0-144.0,,-1.0,706.085,0.0,0.521564361,1.0,0.731078632,1.0,0.6774886809999999,1.0,0.483263956,True,,njPfksHuHfOFgIwjeW7ChL4PpjD3,,2429791,162,,evan-feature22,full_rf_b,,1
116,39464,163,,,,2,2,1.0,1.0,-1.0,0.0,,0.0-145.0,,-1.0,793.305,0.0,0.558893102,1.0,0.719810023,1.0,0.67461031,1.0,0.499349834,True,,njPfksHuHfOFgIwjeW7ChL4PpjD3,,2440344,163,,evan-feature22,full_rf_b,,0
117,39465,164,,,,2,2,1.0,0.0,-1.0,0.0,,0.0-146.0,,-1.0,867.67,0.0,0.611031046,1.0,0.75,1.0,0.688072995,0.0,0.5321422729999999,True,,njPfksHuHfOFgIwjeW7ChL4PpjD3,,2450969,164,,evan-feature22,full_rf_b,,0
118,39466,165,,,,2,2,1.0,0.0,0.0,1.0,,0.0-147.0,,0.0,618.305,0.0,0.633223941,1.0,0.713567728,1.0,0.75,0.0,0.48185314700000004,True,,njPfksHuHfOFgIwjeW7ChL4PpjD3,,2461346,165,,evan-feature22,full_rf_b,,0
119,39467,166,,,,2,2,1.0,1.0,-1.0,0.0,,0.0-148.0,,-1.0,1369.76,1.0,0.664001694,1.0,0.705509768,1.0,0.75,1.0,0.500211065,True,,njPfksHuHfOFgIwjeW7ChL4PpjD3,,2472475,166,,evan-feature22,full_rf_b,,0
120,39468,167,,,,2,2,0.0,0.0,-1.0,0.0,,0.0-149.0,,0.0,796.54,0.0,0.664001694,0.0,0.705509768,0.0,0.75,0.0,0.500211065,True,,njPfksHuHfOFgIwjeW7ChL4PpjD3,,2483028,167,,evan-feature22,full_rf_b,,0
121,39469,168,,,,2,2,1.0,1.0,-1.0,0.0,,0.0-150.0,,-1.0,706.17,1.0,0.696508041,1.0,0.71066027,1.0,0.717028709,1.0,0.49792991,True,,njPfksHuHfOFgIwjeW7ChL4PpjD3,,2493493,168,,evan-feature22,full_rf_b,,0
122,39470,169,,,,2,2,1.0,0.0,0.0,1.0,,0.0-151.0,,0.0,789.5,1.0,0.699883272,1.0,0.75,1.0,0.713543895,0.0,0.496962643,True,,njPfksHuHfOFgIwjeW7ChL4PpjD3,,2504041,169,,evan-feature22,full_rf_b,,0
123,39471,170,,,,1,1,1.0,1.0,0.0,1.0,,0.0-152.0,,1.0,817.56,1.0,0.741163419,1.0,0.75,0.0,0.64691024,1.0,0.513858197,True,,njPfksHuHfOFgIwjeW7ChL4PpjD3,,2514616,170,,evan-feature22,full_rf_b,,1
124,39472,171,,,,1,1,1.0,1.0,0.0,1.0,,0.0-153.0,,1.0,866.425,1.0,0.75,1.0,0.70816558,1.0,0.594499079,0.0,0.48502124,True,,njPfksHuHfOFgIwjeW7ChL4PpjD3,,2525242,171,,evan-feature22,full_rf_b,,0
125,39473,172,,,,2,2,0.0,1.0,-1.0,0.0,,0.0-154.0,,0.0,716.36,0.0,0.75,1.0,0.721848901,0.0,0.62197249,1.0,0.48263586399999997,True,,njPfksHuHfOFgIwjeW7ChL4PpjD3,,2535717,172,,evan-feature22,full_rf_b,,1
126,39474,173,,,,2,2,1.0,1.0,-1.0,0.0,,0.0-155.0,,-1.0,801.895,1.0,0.75,1.0,0.74813071,1.0,0.584357161,1.0,0.411477782,True,,njPfksHuHfOFgIwjeW7ChL4PpjD3,,2546278,173,,evan-feature22,full_rf_b,,0
127,39475,174,,,,2,2,1.0,1.0,-1.0,0.0,,0.0-156.0,,-1.0,1459.81,1.0,0.75,1.0,0.75,1.0,0.52287236,1.0,0.488290656,True,,njPfksHuHfOFgIwjeW7ChL4PpjD3,,2557496,174,,evan-feature22,full_rf_b,,0
128,39476,175,,,,1,1,1.0,1.0,-1.0,0.0,,0.0-157.0,,-1.0,1681.35,1.0,0.75,1.0,0.75,1.0,0.544321581,0.0,0.53143059,True,,njPfksHuHfOFgIwjeW7ChL4PpjD3,,2568936,175,,evan-feature22,full_rf_b,,1
129,39477,176,,,,2,2,0.0,1.0,-1.0,0.0,,0.0-158.0,,0.0,966.355,1.0,0.726754564,1.0,0.75,0.0,0.5129306370000001,1.0,0.530592445,True,,njPfksHuHfOFgIwjeW7ChL4PpjD3,,2579660,176,,evan-feature22,full_rf_b,,1
130,39478,177,,,,2,2,1.0,0.0,0.0,1.0,,0.0-159.0,,0.0,1241.585,0.0,0.75,0.0,0.7392590729999999,1.0,0.479875835,0.0,0.547007051,True,,njPfksHuHfOFgIwjeW7ChL4PpjD3,,2590659,177,,evan-feature22,full_rf_b,,0
131,39479,178,,,,1,1,1.0,1.0,0.0,1.0,,0.0-160.0,,1.0,632.14,1.0,0.75,1.0,0.7393376979999999,1.0,0.546045419,0.0,0.541267353,True,,njPfksHuHfOFgIwjeW7ChL4PpjD3,,2601051,178,,evan-feature22,full_rf_b,,1
132,39480,179,,,,2,2,0.0,1.0,-1.0,0.0,,0.0-161.0,,0.0,942.35,1.0,0.75,0.0,0.75,0.0,0.485725895,1.0,0.527625395,True,,njPfksHuHfOFgIwjeW7ChL4PpjD3,,2611750,179,,evan-feature22,full_rf_b,,1
133,39481,180,,,,2,2,0.0,0.0,0.0,1.0,,0.0-162.0,,0.0,642.75,0.0,0.75,0.0,0.725087974,0.0,0.488603595,0.0,0.504019206,True,,njPfksHuHfOFgIwjeW7ChL4PpjD3,,2622149,180,,evan-feature22,full_rf_b,,0
134,39482,181,,,,2,2,0.0,0.0,-1.0,0.0,,0.0-163.0,,0.0,534.595,1.0,0.745504295,1.0,0.75,0.0,0.452379914,0.0,0.50131194,True,,njPfksHuHfOFgIwjeW7ChL4PpjD3,,2632443,181,,evan-feature22,full_rf_b,,0
135,39483,182,,,,2,2,0.0,0.0,0.0,1.0,,0.0-164.0,,0.0,825.935,0.0,0.728513874,1.0,0.75,0.0,0.44125567200000004,0.0,0.531454591,True,,njPfksHuHfOFgIwjeW7ChL4PpjD3,,2643027,182,,evan-feature22,full_rf_b,,0
136,39484,183,,,,2,2,0.0,1.0,-1.0,0.0,,0.0-165.0,,0.0,601.285,1.0,0.73790804,1.0,0.75,0.0,0.413036656,1.0,0.524619035,True,,njPfksHuHfOFgIwjeW7ChL4PpjD3,,2653388,183,,evan-feature22,full_rf_b,,0
137,39485,184,,,,2,2,1.0,1.0,-1.0,0.0,,0.0-166.0,,-1.0,740.99,0.0,0.7080961309999999,0.0,0.708666865,1.0,0.431915581,1.0,0.481819489,True,,njPfksHuHfOFgIwjeW7ChL4PpjD3,,2663887,184,,evan-feature22,full_rf_b,,0
138,39486,185,,,,2,2,0.0,1.0,-1.0,0.0,,0.0-167.0,,0.0,1162.98,1.0,0.721378003,1.0,0.71605913,0.0,0.36642387,1.0,0.5036739929999999,True,,njPfksHuHfOFgIwjeW7ChL4PpjD3,,2674807,185,,evan-feature22,full_rf_b,,0
139,39487,186,,,,1,1,1.0,1.0,0.0,1.0,,0.0-168.0,,1.0,685.465,1.0,0.7340618959999999,1.0,0.699323252,0.0,0.35298046299999997,1.0,0.511241692,True,,njPfksHuHfOFgIwjeW7ChL4PpjD3,,2685252,186,,evan-feature22,full_rf_b,,1
140,39488,187,,,,1,1,1.0,1.0,0.0,1.0,,0.0-169.0,,1.0,568.98,1.0,0.75,1.0,0.70412698,0.0,0.380734814,0.0,0.529580116,True,,njPfksHuHfOFgIwjeW7ChL4PpjD3,,2695579,187,,evan-feature22,full_rf_b,,0
141,39489,188,,,,1,1,1.0,1.0,0.0,1.0,,0.0-170.0,,1.0,712.935,1.0,0.7436654909999999,1.0,0.711182751,0.0,0.41125331,1.0,0.49554405,True,,njPfksHuHfOFgIwjeW7ChL4PpjD3,,2706051,188,,evan-feature22,full_rf_b,,0
142,39490,189,,,,1,1,0.0,1.0,-1.0,0.0,,0.0-171.0,,0.0,709.845,0.0,0.731607915,1.0,0.651774583,1.0,0.35688023,1.0,0.45194491600000003,True,,njPfksHuHfOFgIwjeW7ChL4PpjD3,,2716519,189,,evan-feature22,full_rf_b,,0
143,39491,190,,,,1,1,1.0,1.0,0.0,1.0,,0.0-172.0,,1.0,994.05,1.0,0.75,1.0,0.75,0.0,0.283145374,1.0,0.528608005,True,,njPfksHuHfOFgIwjeW7ChL4PpjD3,,2727271,190,,evan-feature22,full_rf_b,,0
144,39492,191,,,,2,2,1.0,0.0,-1.0,0.0,,0.0-173.0,,-1.0,647.905,0.0,0.7491416890000001,1.0,0.7423785959999999,1.0,0.29135870399999997,0.0,0.498888318,True,,njPfksHuHfOFgIwjeW7ChL4PpjD3,,2737677,191,,evan-feature22,full_rf_b,,1
145,39493,192,,,,1,1,1.0,1.0,0.0,1.0,,0.0-174.0,,1.0,741.52,1.0,0.708569387,1.0,0.717682277,0.0,0.294421699,1.0,0.493838163,True,,njPfksHuHfOFgIwjeW7ChL4PpjD3,,2748178,192,,evan-feature22,full_rf_b,,1
146,39494,193,,,,2,2,0.0,0.0,-1.0,0.0,,0.0-175.0,,0.0,651.0,1.0,0.75,1.0,0.7383382159999999,0.0,0.356098707,0.0,0.442533405,True,,njPfksHuHfOFgIwjeW7ChL4PpjD3,,2758584,193,,evan-feature22,full_rf_b,,1
147,39495,194,,,,1,1,1.0,1.0,-1.0,0.0,,0.0-176.0,,-1.0,1448.06,1.0,0.744527075,1.0,0.75,0.0,0.334127506,1.0,0.393165805,True,,njPfksHuHfOFgIwjeW7ChL4PpjD3,,2769790,194,,evan-feature22,full_rf_b,,1
148,39496,195,,,,1,1,1.0,1.0,-1.0,0.0,,0.0-177.0,,-1.0,1321.885,1.0,0.75,1.0,0.75,0.0,0.33571021799999995,0.0,0.350393962,True,,njPfksHuHfOFgIwjeW7ChL4PpjD3,,2780869,195,,evan-feature22,full_rf_b,,0
149,39497,196,,,,1,1,1.0,1.0,0.0,1.0,,0.0-178.0,,1.0,2628.34,1.0,0.75,1.0,0.75,0.0,0.313628297,1.0,0.36349657399999996,True,,njPfksHuHfOFgIwjeW7ChL4PpjD3,,2793257,196,,evan-feature22,full_rf_b,,0
150,39498,197,,,,1,1,1.0,1.0,-1.0,0.0,,0.0-179.0,,-1.0,665.735,1.0,0.75,1.0,0.734284182,0.0,0.262667667,0.0,0.380199119,True,,njPfksHuHfOFgIwjeW7ChL4PpjD3,,2803680,197,,evan-feature22,full_rf_b,,0
151,39499,198,,,,2,2,0.0,0.0,-1.0,0.0,,0.0-180.0,,0.0,684.9,1.0,0.75,1.0,0.75,0.0,0.25,0.0,0.394494013,True,,njPfksHuHfOFgIwjeW7ChL4PpjD3,,2814123,198,,evan-feature22,full_rf_b,,1
152,39500,199,,,,2,2,1.0,1.0,-1.0,0.0,,0.0-181.0,,-1.0,842.75,1.0,0.722298145,1.0,0.7357822340000001,1.0,0.25,1.0,0.319142121,True,,njPfksHuHfOFgIwjeW7ChL4PpjD3,,2824725,199,,evan-feature22,full_rf_b,,0
153,39501,200,,,,2,2,0.0,0.0,-1.0,0.0,,0.0-182.0,,0.0,1850.07,1.0,0.73149275,0.0,0.724276446,0.0,0.305856907,0.0,0.281315057,True,,njPfksHuHfOFgIwjeW7ChL4PpjD3,,2836332,200,,evan-feature22,full_rf_b,,0
154,39502,201,,,,2,2,0.0,1.0,-1.0,0.0,,0.0-183.0,,0.0,862.395,0.0,0.7458732690000001,1.0,0.7336382459999999,0.0,0.272571964,1.0,0.266021999,True,,njPfksHuHfOFgIwjeW7ChL4PpjD3,,2846952,201,,evan-feature22,full_rf_b,,0
155,39503,202,,,,2,2,0.0,0.0,0.0,1.0,,0.0-184.0,,0.0,557.95,0.0,0.705579037,1.0,0.720778292,0.0,0.320238144,0.0,0.30971744,True,,njPfksHuHfOFgIwjeW7ChL4PpjD3,,2857268,202,,evan-feature22,full_rf_b,,0
156,39504,203,,,,2,2,0.0,0.0,0.0,1.0,,0.0-185.0,,0.0,794.545,1.0,0.700425648,0.0,0.7198784009999999,0.0,0.272590393,0.0,0.304182931,True,,njPfksHuHfOFgIwjeW7ChL4PpjD3,,2867818,203,,evan-feature22,full_rf_b,,0
157,39505,204,,,,1,1,1.0,1.0,0.0,1.0,,0.0-186.0,,1.0,1423.73,1.0,0.735590785,1.0,0.722714973,0.0,0.25,0.0,0.323421091,True,,njPfksHuHfOFgIwjeW7ChL4PpjD3,,2878999,204,,evan-feature22,full_rf_b,,1
158,39506,205,,,,1,1,1.0,0.0,0.0,1.0,,0.0-187.0,,0.0,550.115,1.0,0.724807662,0.0,0.63146213,0.0,0.36836492600000004,1.0,0.34592153299999995,True,,njPfksHuHfOFgIwjeW7ChL4PpjD3,,2889307,205,,evan-feature22,full_rf_b,,0
159,39507,206,,,,2,2,0.0,0.0,-1.0,0.0,,0.0-188.0,,0.0,725.37,0.0,0.7352796909999999,0.0,0.555111392,0.0,0.36003922,0.0,0.31433779999999995,True,,njPfksHuHfOFgIwjeW7ChL4PpjD3,,2899790,206,,evan-feature22,full_rf_b,,1
160,39508,207,notice,,,,,,,,,,0.0-189.0,"{""Q0"":""no""}",,7643.0,,,,,,,,,True,,njPfksHuHfOFgIwjeW7ChL4PpjD3,,2907434,207,Q,survey-text,full_rf_b,,1
161,39509,208,track1,,[1],,,,,,,,0.0-190.0,"{""Q0"":""no""}",,3909.0,,,,,,,,,True,,njPfksHuHfOFgIwjeW7ChL4PpjD3,,2911347,208,Q,evan-quiz,full_rf_b,,1
162,39510,209,track2,,[0],,,,,,,,0.0-191.0,"{""Q0"":""yes""}",,6252.0,,,,,,,,,True,,njPfksHuHfOFgIwjeW7ChL4PpjD3,,2917602,209,Q,evan-quiz,full_rf_b,,1
163,39511,210,strat,,,,,,,,,,0.0-192.0,"{""Q0"":""mainly only clicked positive numbers""}",,20227.0,,,,,,,,,True,,njPfksHuHfOFgIwjeW7ChL4PpjD3,,2937833,210,Q,survey-text,full_rf_b,,1
