,index,Unnamed: 0,Q_name,button_pressed,choice_idxs,chosen_pos,chosen_state,chosen_state_f_1_outcome,chosen_state_f_2_outcome,f_1_reward,f_2_reward,incor_questions,internal_node_id,responses,reward_received,rt,s_1_f_1_outcome,s_1_f_1_prob,s_1_f_2_outcome,s_1_f_2_prob,s_2_f_1_outcome,s_2_f_1_prob,s_2_f_2_outcome,s_2_f_2_prob,safe_first,stimulus,subjectID,success,time_elapsed,trial_index,trial_num,trial_type,version,view_history,switching
0,35074,45,,,,2,2,0.0,0.0,0.0,-1.0,,0.0-27.0,,0.0,1211.33,0.0,0.6,1.0,0.6,0.0,0.4,0.0,0.4,False,,5ee8f53008d60f24278b816e,,697330,45,,evan-feature22,full_pf_a,,0
1,35075,46,,,,2,2,0.0,0.0,0.0,-1.0,,0.0-28.0,,0.0,807.7,1.0,0.608053294,1.0,0.63424552,0.0,0.397152172,0.0,0.347069101,False,,5ee8f53008d60f24278b816e,,707920,46,,evan-feature22,full_pf_a,,0
2,35076,47,,,,1,1,0.0,0.0,0.0,-1.0,,0.0-29.0,,0.0,830.675,0.0,0.642237155,0.0,0.648566321,0.0,0.389407674,0.0,0.285525717,False,,5ee8f53008d60f24278b816e,,718524,47,,evan-feature22,full_pf_a,,1
3,35077,48,,,,1,1,1.0,1.0,0.0,-1.0,,0.0-30.0,,-1.0,1402.115,1.0,0.661086576,1.0,0.630492543,0.0,0.399058924,0.0,0.25,False,,5ee8f53008d60f24278b816e,,729705,48,,evan-feature22,full_pf_a,,0
4,35078,49,,,,2,2,0.0,0.0,0.0,-1.0,,0.0-31.0,,0.0,623.59,1.0,0.631324137,0.0,0.6269842929999999,0.0,0.38734784299999997,0.0,0.25,False,,5ee8f53008d60f24278b816e,,740114,49,,evan-feature22,full_pf_a,,1
5,35079,50,,,,1,1,0.0,0.0,0.0,-1.0,,0.0-32.0,,0.0,925.21,0.0,0.6381991370000001,0.0,0.68987999,0.0,0.384107265,1.0,0.271332943,False,,5ee8f53008d60f24278b816e,,750827,50,,evan-feature22,full_pf_a,,1
6,35080,51,,,,1,1,1.0,1.0,0.0,-1.0,,0.0-33.0,,-1.0,431.085,1.0,0.66034901,1.0,0.742641349,0.0,0.360225629,0.0,0.25,False,,5ee8f53008d60f24278b816e,,761028,51,,evan-feature22,full_pf_a,,0
7,35081,52,,,,2,2,0.0,0.0,1.0,0.0,,0.0-34.0,,0.0,316.86,1.0,0.638612418,1.0,0.75,0.0,0.367273939,0.0,0.25,False,,5ee8f53008d60f24278b816e,,771127,52,,evan-feature22,full_pf_a,,1
8,35082,53,,,,1,1,1.0,1.0,0.0,-1.0,,0.0-35.0,,-1.0,725.575,1.0,0.624340629,1.0,0.75,0.0,0.425829545,0.0,0.25,False,,5ee8f53008d60f24278b816e,,781638,53,,evan-feature22,full_pf_a,,1
9,35083,54,,,,2,2,1.0,1.0,0.0,-1.0,,0.0-36.0,,-1.0,883.885,1.0,0.621999804,1.0,0.75,1.0,0.368609357,1.0,0.25,False,,5ee8f53008d60f24278b816e,,792295,54,,evan-feature22,full_pf_a,,1
10,35084,55,,,,1,1,0.0,1.0,1.0,0.0,,0.0-37.0,,0.0,677.745,0.0,0.62666403,1.0,0.75,0.0,0.311151498,1.0,0.25,False,,5ee8f53008d60f24278b816e,,802752,55,,evan-feature22,full_pf_a,,1
11,35085,56,,,,2,2,0.0,1.0,1.0,0.0,,0.0-38.0,,0.0,320.75,1.0,0.6819650009999999,1.0,0.75,0.0,0.310763048,1.0,0.25,False,,5ee8f53008d60f24278b816e,,812859,56,,evan-feature22,full_pf_a,,1
12,35086,57,,,,1,1,0.0,1.0,0.0,-1.0,,0.0-39.0,,-1.0,853.43,0.0,0.740626951,1.0,0.75,0.0,0.25,0.0,0.25,False,,5ee8f53008d60f24278b816e,,823486,57,,evan-feature22,full_pf_a,,1
13,35087,58,,,,1,1,1.0,1.0,0.0,-1.0,,0.0-40.0,,-1.0,569.775,1.0,0.739599242,1.0,0.742034978,0.0,0.25397114600000004,0.0,0.25,False,,5ee8f53008d60f24278b816e,,833836,58,,evan-feature22,full_pf_a,,0
14,35088,59,,,,2,2,0.0,1.0,0.0,-1.0,,0.0-41.0,,-1.0,452.195,0.0,0.732341315,1.0,0.72735643,0.0,0.25,1.0,0.25,False,,5ee8f53008d60f24278b816e,,844067,59,,evan-feature22,full_pf_a,,1
15,35089,60,,,,2,2,1.0,0.0,0.0,-1.0,,0.0-42.0,,0.0,374.465,0.0,0.7062287770000001,1.0,0.75,1.0,0.29002151,0.0,0.288256649,False,,5ee8f53008d60f24278b816e,,854223,60,,evan-feature22,full_pf_a,,0
16,35090,61,,,,2,2,0.0,0.0,1.0,0.0,,0.0-43.0,,0.0,379.175,1.0,0.7086029209999999,1.0,0.75,0.0,0.274129113,0.0,0.262851608,False,,5ee8f53008d60f24278b816e,,864386,61,,evan-feature22,full_pf_a,,0
17,35091,62,,,,1,1,1.0,0.0,0.0,-1.0,,0.0-44.0,,0.0,583.67,1.0,0.669189651,0.0,0.727614338,0.0,0.298444036,0.0,0.296944518,False,,5ee8f53008d60f24278b816e,,874756,62,,evan-feature22,full_pf_a,,1
18,35092,63,,,,1,1,0.0,1.0,1.0,0.0,,0.0-45.0,,0.0,393.745,0.0,0.6819912929999999,1.0,0.7179434290000001,1.0,0.265003961,1.0,0.28157921199999997,False,,5ee8f53008d60f24278b816e,,884941,63,,evan-feature22,full_pf_a,,0
19,35093,64,,,,2,2,1.0,0.0,1.0,0.0,,0.0-46.0,,1.0,373.875,1.0,0.665275002,1.0,0.723065271,1.0,0.260414971,0.0,0.30973870000000003,False,,5ee8f53008d60f24278b816e,,895095,64,,evan-feature22,full_pf_a,,1
20,35094,65,,,,2,2,0.0,1.0,0.0,-1.0,,0.0-47.0,,-1.0,516.955,1.0,0.6660593260000001,1.0,0.728032907,0.0,0.30922817,1.0,0.338778608,False,,5ee8f53008d60f24278b816e,,905395,65,,evan-feature22,full_pf_a,,0
21,35095,66,,,,1,1,1.0,1.0,0.0,-1.0,,0.0-48.0,,-1.0,464.165,1.0,0.702068785,1.0,0.6528750879999999,1.0,0.287329608,0.0,0.35789613200000003,False,,5ee8f53008d60f24278b816e,,915642,66,,evan-feature22,full_pf_a,,1
22,35096,67,,,,2,2,0.0,0.0,0.0,-1.0,,0.0-49.0,,0.0,400.38,1.0,0.651939787,1.0,0.636725589,0.0,0.284834488,0.0,0.358563756,False,,5ee8f53008d60f24278b816e,,925829,67,,evan-feature22,full_pf_a,,1
23,35097,68,,,,2,2,0.0,1.0,0.0,-1.0,,0.0-50.0,,-1.0,553.1,1.0,0.67573929,1.0,0.612550049,0.0,0.37130387600000003,1.0,0.383542402,False,,5ee8f53008d60f24278b816e,,936164,68,,evan-feature22,full_pf_a,,0
24,35098,69,,,,1,1,1.0,1.0,0.0,-1.0,,0.0-51.0,,-1.0,415.865,1.0,0.620753801,1.0,0.60513644,0.0,0.385529434,0.0,0.340361743,False,,5ee8f53008d60f24278b816e,,946369,69,,evan-feature22,full_pf_a,,1
25,35099,70,,,,1,1,1.0,1.0,1.0,0.0,,0.0-52.0,,1.0,412.045,1.0,0.673564893,1.0,0.672437924,0.0,0.292955382,0.0,0.337633795,False,,5ee8f53008d60f24278b816e,,956562,70,,evan-feature22,full_pf_a,,0
26,35100,71,,,,1,1,1.0,0.0,0.0,-1.0,,0.0-53.0,,0.0,795.605,1.0,0.6749427,0.0,0.724197502,0.0,0.32391132100000003,0.0,0.350995264,False,,5ee8f53008d60f24278b816e,,967144,71,,evan-feature22,full_pf_a,,0
27,35101,72,,,,2,2,1.0,0.0,0.0,-1.0,,0.0-54.0,,0.0,627.485,1.0,0.6940159379999999,1.0,0.75,1.0,0.31710554399999996,0.0,0.413450341,False,,5ee8f53008d60f24278b816e,,977559,72,,evan-feature22,full_pf_a,,1
28,35102,73,,,,2,2,0.0,0.0,0.0,-1.0,,0.0-55.0,,0.0,613.36,1.0,0.6916018270000001,1.0,0.69001187,0.0,0.261817804,0.0,0.40038635,False,,5ee8f53008d60f24278b816e,,987957,73,,evan-feature22,full_pf_a,,0
29,35103,74,,,,2,2,0.0,0.0,0.0,-1.0,,0.0-56.0,,0.0,331.02,1.0,0.641061544,1.0,0.71337992,0.0,0.277296461,0.0,0.47372791700000005,False,,5ee8f53008d60f24278b816e,,998073,74,,evan-feature22,full_pf_a,,0
30,35104,75,,,,2,2,0.0,0.0,0.0,-1.0,,0.0-57.0,,0.0,358.51,0.0,0.6082438520000001,0.0,0.708471106,0.0,0.28745137,0.0,0.564174476,False,,5ee8f53008d60f24278b816e,,1008211,75,,evan-feature22,full_pf_a,,0
31,35105,76,,,,2,2,1.0,0.0,1.0,0.0,,0.0-58.0,,1.0,406.165,1.0,0.6051112120000001,1.0,0.7118147229999999,1.0,0.272390611,0.0,0.5595149939999999,False,,5ee8f53008d60f24278b816e,,1018400,76,,evan-feature22,full_pf_a,,0
32,35106,77,,,,2,2,0.0,0.0,1.0,0.0,,0.0-59.0,,0.0,540.295,1.0,0.582420852,0.0,0.635867583,0.0,0.31089574,0.0,0.5227206520000001,False,,5ee8f53008d60f24278b816e,,1028719,77,,evan-feature22,full_pf_a,,0
33,35107,78,,,,2,2,0.0,1.0,1.0,0.0,,0.0-60.0,,0.0,986.485,1.0,0.623195575,1.0,0.655026044,0.0,0.25,1.0,0.560387538,False,,5ee8f53008d60f24278b816e,,1039484,78,,evan-feature22,full_pf_a,,0
34,35108,79,,,,1,1,1.0,0.0,0.0,-1.0,,0.0-61.0,,0.0,919.655,1.0,0.601889598,0.0,0.678198724,0.0,0.25,1.0,0.559922936,False,,5ee8f53008d60f24278b816e,,1050184,79,,evan-feature22,full_pf_a,,1
35,35109,80,,,,1,1,1.0,1.0,1.0,0.0,,0.0-62.0,,1.0,1552.715,1.0,0.601259914,1.0,0.704681482,1.0,0.33908969299999997,1.0,0.505003715,False,,5ee8f53008d60f24278b816e,,1061517,80,,evan-feature22,full_pf_a,,0
36,35110,81,,,,1,1,1.0,0.0,1.0,0.0,,0.0-63.0,,1.0,698.585,1.0,0.59645454,0.0,0.710437172,1.0,0.327441879,0.0,0.391749613,False,,5ee8f53008d60f24278b816e,,1071998,81,,evan-feature22,full_pf_a,,0
37,35111,82,,,,1,1,0.0,1.0,0.0,-1.0,,0.0-64.0,,-1.0,851.315,0.0,0.529473,1.0,0.636758527,1.0,0.301338063,0.0,0.365661481,False,,5ee8f53008d60f24278b816e,,1082634,82,,evan-feature22,full_pf_a,,0
38,35112,83,,,,2,2,1.0,1.0,1.0,0.0,,0.0-65.0,,1.0,1001.46,1.0,0.541657162,1.0,0.634541962,1.0,0.343535366,1.0,0.371763742,False,,5ee8f53008d60f24278b816e,,1093413,83,,evan-feature22,full_pf_a,,1
39,35113,84,,,,2,2,0.0,0.0,1.0,0.0,,0.0-66.0,,0.0,484.245,0.0,0.5707533260000001,1.0,0.589121171,0.0,0.326428396,0.0,0.43961622899999997,False,,5ee8f53008d60f24278b816e,,1103679,84,,evan-feature22,full_pf_a,,0
40,35114,85,,,,2,2,1.0,0.0,0.0,-1.0,,0.0-67.0,,0.0,751.555,1.0,0.5707533260000001,1.0,0.589121171,1.0,0.326428396,0.0,0.43961622899999997,False,,5ee8f53008d60f24278b816e,,1114205,85,,evan-feature22,full_pf_a,,0
41,35115,86,,,,2,2,0.0,0.0,0.0,-1.0,,0.0-68.0,,0.0,1336.51,1.0,0.506271295,1.0,0.641775594,0.0,0.37149690700000004,0.0,0.404330166,False,,5ee8f53008d60f24278b816e,,1125329,86,,evan-feature22,full_pf_a,,0
42,35116,87,,,,2,2,0.0,0.0,1.0,0.0,,0.0-69.0,,0.0,1217.135,1.0,0.455642565,1.0,0.623605825,0.0,0.358753011,0.0,0.346174041,False,,5ee8f53008d60f24278b816e,,1136329,87,,evan-feature22,full_pf_a,,0
43,35117,88,,,,2,2,1.0,0.0,0.0,-1.0,,0.0-70.0,,0.0,1196.9,1.0,0.483677308,1.0,0.5904681070000001,1.0,0.402218411,0.0,0.35344697,False,,5ee8f53008d60f24278b816e,,1147306,88,,evan-feature22,full_pf_a,,0
44,35118,89,,,,2,2,0.0,0.0,1.0,0.0,,0.0-71.0,,0.0,567.095,0.0,0.394210977,0.0,0.558925494,0.0,0.540052017,0.0,0.35182128700000004,False,,5ee8f53008d60f24278b816e,,1157651,89,,evan-feature22,full_pf_a,,0
45,35119,90,,,,2,2,0.0,1.0,0.0,-1.0,,0.0-72.0,,-1.0,1158.205,1.0,0.382300414,0.0,0.577670603,0.0,0.607608448,1.0,0.378261578,False,,5ee8f53008d60f24278b816e,,1168595,90,,evan-feature22,full_pf_a,,0
46,35120,91,,,,1,1,1.0,0.0,1.0,0.0,,0.0-73.0,,1.0,563.855,1.0,0.357596762,0.0,0.5929076529999999,0.0,0.6579790010000001,0.0,0.401326777,False,,5ee8f53008d60f24278b816e,,1178938,91,,evan-feature22,full_pf_a,,1
47,35121,92,,,,2,2,1.0,0.0,0.0,-1.0,,0.0-74.0,,0.0,1066.455,1.0,0.362033495,1.0,0.582308608,1.0,0.649195052,0.0,0.355158505,False,,5ee8f53008d60f24278b816e,,1189789,92,,evan-feature22,full_pf_a,,1
48,35122,93,,,,2,2,1.0,0.0,0.0,-1.0,,0.0-75.0,,0.0,1099.95,0.0,0.369620635,1.0,0.669100864,1.0,0.706059111,0.0,0.362516241,False,,5ee8f53008d60f24278b816e,,1200667,93,,evan-feature22,full_pf_a,,0
49,35123,94,,,,2,2,1.0,0.0,0.0,-1.0,,0.0-76.0,,0.0,650.015,1.0,0.41477751399999996,0.0,0.7284416779999999,1.0,0.7182656940000001,0.0,0.36228040899999997,False,,5ee8f53008d60f24278b816e,,1211105,94,,evan-feature22,full_pf_a,,0
50,35124,95,,,,2,2,1.0,1.0,1.0,0.0,,0.0-77.0,,1.0,1104.035,0.0,0.37675460299999997,1.0,0.703250285,1.0,0.75,1.0,0.461979164,False,,5ee8f53008d60f24278b816e,,1221995,95,,evan-feature22,full_pf_a,,0
51,35125,96,,,,2,2,1.0,1.0,1.0,0.0,,0.0-78.0,,1.0,730.9,0.0,0.398716075,0.0,0.6723864890000001,1.0,0.674153818,1.0,0.519029516,False,,5ee8f53008d60f24278b816e,,1232507,96,,evan-feature22,full_pf_a,,0
52,35126,97,,,,2,2,1.0,0.0,1.0,0.0,,0.0-79.0,,1.0,902.395,0.0,0.34677856700000004,1.0,0.69057175,1.0,0.6822438540000001,0.0,0.477292237,False,,5ee8f53008d60f24278b816e,,1243194,97,,evan-feature22,full_pf_a,,0
53,35127,98,,,,2,2,1.0,0.0,0.0,-1.0,,0.0-80.0,,0.0,1033.97,0.0,0.28580469199999997,1.0,0.68408818,1.0,0.684207565,0.0,0.49780448299999996,False,,5ee8f53008d60f24278b816e,,1254004,98,,evan-feature22,full_pf_a,,0
54,35129,100,,,,2,2,1.0,0.0,0.0,-1.0,,0.0-82.0,,0.0,1158.615,0.0,0.25,1.0,0.7405808970000001,1.0,0.679614108,0.0,0.436436964,False,,5ee8f53008d60f24278b816e,,1266748,100,,evan-feature22,full_pf_a,,0
55,35130,101,,,,2,2,1.0,0.0,0.0,-1.0,,0.0-83.0,,0.0,693.08,0.0,0.29890393,1.0,0.730505706,1.0,0.7328203320000001,0.0,0.439256938,False,,5ee8f53008d60f24278b816e,,1277230,101,,evan-feature22,full_pf_a,,0
56,35131,102,,,,2,2,0.0,0.0,1.0,0.0,,0.0-84.0,,0.0,872.61,0.0,0.326762398,1.0,0.7148059609999999,0.0,0.75,0.0,0.44389608799999997,False,,5ee8f53008d60f24278b816e,,1287882,102,,evan-feature22,full_pf_a,,0
57,35132,103,,,,2,2,1.0,0.0,0.0,-1.0,,0.0-85.0,,0.0,768.685,0.0,0.295168515,1.0,0.739760854,1.0,0.719947008,0.0,0.35277284600000003,False,,5ee8f53008d60f24278b816e,,1298428,103,,evan-feature22,full_pf_a,,0
58,35133,104,,,,2,2,0.0,0.0,0.0,-1.0,,0.0-86.0,,0.0,814.835,0.0,0.25,1.0,0.70781482,0.0,0.75,0.0,0.286095925,False,,5ee8f53008d60f24278b816e,,1309011,104,,evan-feature22,full_pf_a,,0
59,35134,105,,,,2,2,0.0,1.0,0.0,-1.0,,0.0-87.0,,-1.0,957.435,1.0,0.25638190899999996,1.0,0.704088163,0.0,0.75,1.0,0.26872601399999996,False,,5ee8f53008d60f24278b816e,,1319746,105,,evan-feature22,full_pf_a,,0
60,35135,106,,,,2,2,1.0,0.0,1.0,0.0,,0.0-88.0,,1.0,675.115,0.0,0.271581126,1.0,0.669760107,1.0,0.733896663,0.0,0.273244572,False,,5ee8f53008d60f24278b816e,,1330206,106,,evan-feature22,full_pf_a,,0
61,35136,107,,,,2,2,1.0,0.0,0.0,-1.0,,0.0-89.0,,0.0,901.815,1.0,0.257144401,0.0,0.600575706,1.0,0.74488122,0.0,0.25,False,,5ee8f53008d60f24278b816e,,1340892,107,,evan-feature22,full_pf_a,,0
62,35137,108,,,,2,2,1.0,0.0,0.0,-1.0,,0.0-90.0,,0.0,987.335,1.0,0.25,1.0,0.616870026,1.0,0.723610234,0.0,0.25,False,,5ee8f53008d60f24278b816e,,1351658,108,,evan-feature22,full_pf_a,,0
63,35138,109,,,,2,2,1.0,0.0,1.0,0.0,,0.0-91.0,,1.0,1174.04,1.0,0.25,1.0,0.583540187,1.0,0.7041042559999999,0.0,0.285961995,False,,5ee8f53008d60f24278b816e,,1362621,109,,evan-feature22,full_pf_a,,0
64,35139,110,,,,2,2,0.0,0.0,1.0,0.0,,0.0-92.0,,0.0,758.195,0.0,0.27254536,1.0,0.53875765,0.0,0.693783448,0.0,0.284961652,False,,5ee8f53008d60f24278b816e,,1373165,110,,evan-feature22,full_pf_a,,0
65,35140,111,,,,2,2,1.0,0.0,1.0,0.0,,0.0-93.0,,1.0,498.745,0.0,0.25,0.0,0.548431252,1.0,0.734221895,0.0,0.279445214,False,,5ee8f53008d60f24278b816e,,1383446,111,,evan-feature22,full_pf_a,,0
66,35141,112,,,,2,2,0.0,0.0,0.0,-1.0,,0.0-94.0,,0.0,608.695,0.0,0.258640684,1.0,0.545878066,0.0,0.725245965,0.0,0.31487537,False,,5ee8f53008d60f24278b816e,,1393845,112,,evan-feature22,full_pf_a,,0
67,35142,113,,,,2,2,1.0,0.0,0.0,-1.0,,0.0-95.0,,0.0,544.885,0.0,0.251103711,0.0,0.5776290629999999,1.0,0.696320133,0.0,0.317831047,False,,5ee8f53008d60f24278b816e,,1404167,113,,evan-feature22,full_pf_a,,0
68,35143,114,,,,2,2,1.0,1.0,0.0,-1.0,,0.0-96.0,,-1.0,642.34,1.0,0.276630292,0.0,0.617329858,1.0,0.73838088,1.0,0.261471582,False,,5ee8f53008d60f24278b816e,,1414598,114,,evan-feature22,full_pf_a,,0
69,35144,115,,,,1,1,1.0,0.0,0.0,-1.0,,0.0-97.0,,0.0,524.74,1.0,0.297716424,0.0,0.618863717,1.0,0.7402358259999999,0.0,0.262600834,False,,5ee8f53008d60f24278b816e,,1424903,115,,evan-feature22,full_pf_a,,1
70,35145,116,,,,2,2,1.0,0.0,1.0,0.0,,0.0-98.0,,1.0,698.74,1.0,0.290935512,1.0,0.695370945,1.0,0.706570507,0.0,0.280030553,False,,5ee8f53008d60f24278b816e,,1435384,116,,evan-feature22,full_pf_a,,1
71,35146,117,,,,2,2,0.0,0.0,0.0,-1.0,,0.0-99.0,,0.0,1073.965,0.0,0.25,0.0,0.6465277079999999,0.0,0.67766682,0.0,0.25,False,,5ee8f53008d60f24278b816e,,1446242,117,,evan-feature22,full_pf_a,,0
72,35147,118,,,,2,2,0.0,0.0,1.0,0.0,,0.0-100.0,,0.0,947.26,0.0,0.26463816,1.0,0.636100213,0.0,0.646048507,0.0,0.265607101,False,,5ee8f53008d60f24278b816e,,1456974,118,,evan-feature22,full_pf_a,,0
73,35148,119,,,,2,2,0.0,1.0,1.0,0.0,,0.0-101.0,,0.0,693.155,0.0,0.314340707,1.0,0.667795927,0.0,0.613630805,1.0,0.25,False,,5ee8f53008d60f24278b816e,,1467447,119,,evan-feature22,full_pf_a,,0
74,35149,120,,,,2,2,1.0,1.0,0.0,-1.0,,0.0-102.0,,-1.0,548.12,0.0,0.28685784,0.0,0.6622549529999999,1.0,0.652154117,1.0,0.25,False,,5ee8f53008d60f24278b816e,,1477773,120,,evan-feature22,full_pf_a,,0
75,35150,121,,,,1,1,0.0,1.0,0.0,-1.0,,0.0-103.0,,-1.0,452.805,0.0,0.304106554,1.0,0.631289538,1.0,0.707041942,0.0,0.29314237,False,,5ee8f53008d60f24278b816e,,1487997,121,,evan-feature22,full_pf_a,,1
76,35151,122,,,,2,2,0.0,0.0,0.0,-1.0,,0.0-104.0,,0.0,1067.39,0.0,0.304806932,1.0,0.571167718,0.0,0.680472346,0.0,0.25,False,,5ee8f53008d60f24278b816e,,1498837,122,,evan-feature22,full_pf_a,,1
77,35152,123,,,,2,2,1.0,0.0,0.0,-1.0,,0.0-105.0,,0.0,916.145,0.0,0.37919861,1.0,0.5724849710000001,1.0,0.705638003,0.0,0.30179300600000003,False,,5ee8f53008d60f24278b816e,,1509527,123,,evan-feature22,full_pf_a,,0
78,35153,124,,,,2,2,1.0,0.0,0.0,-1.0,,0.0-106.0,,0.0,890.385,0.0,0.464277969,0.0,0.554034373,1.0,0.7372627340000001,0.0,0.264699741,False,,5ee8f53008d60f24278b816e,,1520197,124,,evan-feature22,full_pf_a,,0
79,35154,125,,,,1,1,0.0,0.0,0.0,-1.0,,0.0-107.0,,0.0,447.42,0.0,0.465104323,0.0,0.530793115,1.0,0.75,1.0,0.31683071,False,,5ee8f53008d60f24278b816e,,1530418,125,,evan-feature22,full_pf_a,,1
80,35155,126,,,,2,2,1.0,0.0,1.0,0.0,,0.0-108.0,,1.0,913.125,1.0,0.465104323,1.0,0.530793115,1.0,0.75,0.0,0.31683071,False,,5ee8f53008d60f24278b816e,,1541104,126,,evan-feature22,full_pf_a,,1
81,35156,127,,,,2,2,1.0,0.0,1.0,0.0,,0.0-109.0,,1.0,617.105,1.0,0.46833986,0.0,0.570249239,1.0,0.7244472590000001,0.0,0.364114163,False,,5ee8f53008d60f24278b816e,,1551497,127,,evan-feature22,full_pf_a,,0
82,35157,128,,,,2,2,1.0,1.0,1.0,0.0,,0.0-110.0,,1.0,416.22,1.0,0.445444024,1.0,0.649673355,1.0,0.6845441290000001,1.0,0.300660449,False,,5ee8f53008d60f24278b816e,,1561689,128,,evan-feature22,full_pf_a,,0
83,35158,129,,,,2,2,1.0,0.0,1.0,0.0,,0.0-111.0,,1.0,748.795,0.0,0.39909721299999995,1.0,0.6715179509999999,1.0,0.742310028,0.0,0.35496088299999995,False,,5ee8f53008d60f24278b816e,,1572217,129,,evan-feature22,full_pf_a,,0
84,35159,130,,,,2,2,0.0,0.0,0.0,-1.0,,0.0-112.0,,0.0,545.295,1.0,0.37956104799999996,0.0,0.694725302,0.0,0.7181651309999999,0.0,0.38726906299999997,False,,5ee8f53008d60f24278b816e,,1582548,130,,evan-feature22,full_pf_a,,0
85,35160,131,,,,2,2,1.0,0.0,0.0,-1.0,,0.0-113.0,,0.0,709.785,1.0,0.404995034,1.0,0.724375412,1.0,0.6910946859999999,0.0,0.387187347,False,,5ee8f53008d60f24278b816e,,1593035,131,,evan-feature22,full_pf_a,,0
86,35161,132,,,,2,2,0.0,0.0,1.0,0.0,,0.0-114.0,,0.0,457.845,1.0,0.461740803,0.0,0.75,0.0,0.75,0.0,0.34872038200000005,False,,5ee8f53008d60f24278b816e,,1603272,132,,evan-feature22,full_pf_a,,0
87,35162,133,,,,1,1,0.0,0.0,1.0,0.0,,0.0-115.0,,0.0,1349.7,0.0,0.43821380600000004,0.0,0.738833273,1.0,0.728286963,0.0,0.399538128,False,,5ee8f53008d60f24278b816e,,1614400,133,,evan-feature22,full_pf_a,,1
88,35163,134,,,,2,2,1.0,0.0,0.0,-1.0,,0.0-116.0,,0.0,309.995,0.0,0.41709882,1.0,0.736666736,1.0,0.75,0.0,0.389095584,False,,5ee8f53008d60f24278b816e,,1624494,134,,evan-feature22,full_pf_a,,1
89,35164,135,,,,2,2,1.0,1.0,0.0,-1.0,,0.0-117.0,,-1.0,850.085,0.0,0.39749009799999996,1.0,0.744320029,1.0,0.75,1.0,0.363848678,False,,5ee8f53008d60f24278b816e,,1635119,135,,evan-feature22,full_pf_a,,0
90,35165,136,,,,2,2,1.0,0.0,1.0,0.0,,0.0-118.0,,1.0,414.54,0.0,0.392653706,1.0,0.75,1.0,0.75,0.0,0.384386976,False,,5ee8f53008d60f24278b816e,,1645318,136,,evan-feature22,full_pf_a,,0
91,35166,137,,,,2,2,1.0,1.0,0.0,-1.0,,0.0-119.0,,-1.0,858.56,1.0,0.31190902600000003,1.0,0.75,1.0,0.732413819,1.0,0.413082932,False,,5ee8f53008d60f24278b816e,,1655968,137,,evan-feature22,full_pf_a,,0
92,35167,138,,,,2,2,1.0,0.0,1.0,0.0,,0.0-120.0,,1.0,584.52,0.0,0.366917648,1.0,0.740073855,1.0,0.75,0.0,0.352861979,False,,5ee8f53008d60f24278b816e,,1666341,138,,evan-feature22,full_pf_a,,0
93,35168,139,,,,2,2,1.0,1.0,1.0,0.0,,0.0-121.0,,1.0,732.545,1.0,0.3645172,1.0,0.721770713,1.0,0.75,1.0,0.404074511,False,,5ee8f53008d60f24278b816e,,1676853,139,,evan-feature22,full_pf_a,,0
94,35169,140,,,,2,2,1.0,1.0,1.0,0.0,,0.0-122.0,,1.0,477.185,0.0,0.35205600299999995,0.0,0.68983859,1.0,0.739735447,1.0,0.366895945,False,,5ee8f53008d60f24278b816e,,1687121,140,,evan-feature22,full_pf_a,,0
95,35170,141,,,,2,2,1.0,0.0,1.0,0.0,,0.0-123.0,,1.0,450.725,1.0,0.40998722600000004,1.0,0.720859127,1.0,0.673854955,0.0,0.368528541,False,,5ee8f53008d60f24278b816e,,1697362,141,,evan-feature22,full_pf_a,,0
96,35171,142,,,,2,2,1.0,1.0,1.0,0.0,,0.0-124.0,,1.0,887.655,0.0,0.353625316,1.0,0.75,1.0,0.695605473,1.0,0.38303674200000004,False,,5ee8f53008d60f24278b816e,,1708041,142,,evan-feature22,full_pf_a,,0
97,35172,143,,,,2,2,1.0,0.0,1.0,0.0,,0.0-125.0,,1.0,533.64,1.0,0.359216989,1.0,0.75,1.0,0.6987915090000001,0.0,0.35169046200000004,False,,5ee8f53008d60f24278b816e,,1718357,143,,evan-feature22,full_pf_a,,0
98,35173,144,,,,2,2,1.0,1.0,1.0,0.0,,0.0-126.0,,1.0,664.36,0.0,0.35834496899999996,0.0,0.75,1.0,0.707067742,1.0,0.416763636,False,,5ee8f53008d60f24278b816e,,1728800,144,,evan-feature22,full_pf_a,,0
99,35174,145,,,,2,2,1.0,0.0,0.0,-1.0,,0.0-127.0,,0.0,642.695,0.0,0.38741613799999997,1.0,0.7177369570000001,1.0,0.734902455,0.0,0.49438664299999996,False,,5ee8f53008d60f24278b816e,,1739225,145,,evan-feature22,full_pf_a,,0
100,35175,146,,,,2,2,1.0,1.0,1.0,0.0,,0.0-128.0,,1.0,403.7,0.0,0.405255252,1.0,0.7300466640000001,1.0,0.7027748070000001,1.0,0.504359668,False,,5ee8f53008d60f24278b816e,,1749414,146,,evan-feature22,full_pf_a,,0
101,35176,147,,,,2,2,1.0,1.0,1.0,0.0,,0.0-129.0,,1.0,512.985,1.0,0.40697073,1.0,0.7260142190000001,1.0,0.724461982,1.0,0.522779179,False,,5ee8f53008d60f24278b816e,,1759714,147,,evan-feature22,full_pf_a,,0
102,35177,148,,,,2,2,1.0,1.0,1.0,0.0,,0.0-130.0,,1.0,398.175,1.0,0.43906215299999996,1.0,0.7252802340000001,1.0,0.719079934,1.0,0.5712990579999999,False,,5ee8f53008d60f24278b816e,,1769900,148,,evan-feature22,full_pf_a,,0
103,35178,149,,,,2,2,0.0,0.0,0.0,-1.0,,0.0-131.0,,0.0,443.55,1.0,0.4076705,0.0,0.73280499,0.0,0.681313127,0.0,0.523891346,False,,5ee8f53008d60f24278b816e,,1780122,149,,evan-feature22,full_pf_a,,0
104,35179,150,,,,2,2,0.0,1.0,0.0,-1.0,,0.0-132.0,,-1.0,444.855,1.0,0.399102911,1.0,0.730498344,0.0,0.661080239,1.0,0.46742603,False,,5ee8f53008d60f24278b816e,,1790349,150,,evan-feature22,full_pf_a,,0
105,35180,151,,,,2,2,1.0,0.0,0.0,-1.0,,0.0-133.0,,0.0,641.265,0.0,0.356477282,1.0,0.712296395,1.0,0.641812684,0.0,0.44868414,False,,5ee8f53008d60f24278b816e,,1800774,151,,evan-feature22,full_pf_a,,0
106,35181,152,,,,2,2,1.0,0.0,1.0,0.0,,0.0-134.0,,1.0,1024.025,1.0,0.462760722,0.0,0.692349322,1.0,0.700947931,0.0,0.394680266,False,,5ee8f53008d60f24278b816e,,1811572,152,,evan-feature22,full_pf_a,,0
107,35182,153,,,,2,2,1.0,0.0,1.0,0.0,,0.0-135.0,,1.0,799.3,1.0,0.422306413,1.0,0.718375916,1.0,0.706340917,0.0,0.367787185,False,,5ee8f53008d60f24278b816e,,1822159,153,,evan-feature22,full_pf_a,,0
108,35184,155,,,,2,2,1.0,0.0,1.0,0.0,,0.0-137.0,,1.0,724.785,1.0,0.4582233,0.0,0.643834117,1.0,0.75,0.0,0.39615823299999997,False,,5ee8f53008d60f24278b816e,,1837577,155,,evan-feature22,full_pf_a,,0
109,35185,156,,,,2,2,1.0,0.0,1.0,0.0,,0.0-138.0,,1.0,491.91,1.0,0.43813437899999996,0.0,0.651283804,1.0,0.729674191,0.0,0.37711048,False,,5ee8f53008d60f24278b816e,,1847864,156,,evan-feature22,full_pf_a,,0
110,35186,157,,,,SLOW,SLOW,,,1.0,0.0,,0.0-139.0,,-3.0,,0.0,0.471199094,1.0,0.6470010979999999,0.0,0.715008097,0.0,0.410656191,False,,5ee8f53008d60f24278b816e,,1853678,157,,evan-feature22,full_pf_a,,1
111,35187,158,,,,2,2,0.0,1.0,1.0,0.0,,0.0-140.0,,0.0,676.66,0.0,0.42486406,1.0,0.629771829,0.0,0.6550939960000001,1.0,0.459093873,False,,5ee8f53008d60f24278b816e,,1864144,158,,evan-feature22,full_pf_a,,1
112,35188,159,,,,2,2,1.0,0.0,1.0,0.0,,0.0-141.0,,1.0,597.035,1.0,0.4803197,1.0,0.645842715,1.0,0.6421749920000001,0.0,0.443092151,False,,5ee8f53008d60f24278b816e,,1874517,159,,evan-feature22,full_pf_a,,0
113,35189,160,,,,2,2,1.0,0.0,0.0,-1.0,,0.0-142.0,,0.0,1221.315,0.0,0.521848997,1.0,0.735801074,1.0,0.6691348460000001,0.0,0.45259351600000003,False,,5ee8f53008d60f24278b816e,,1885513,160,,evan-feature22,full_pf_a,,0
114,35190,161,,,,2,2,1.0,1.0,1.0,0.0,,0.0-143.0,,1.0,628.105,0.0,0.49565621299999996,0.0,0.742400847,1.0,0.661512553,1.0,0.483110831,False,,5ee8f53008d60f24278b816e,,1895917,161,,evan-feature22,full_pf_a,,0
115,35191,162,,,,2,2,0.0,1.0,1.0,0.0,,0.0-144.0,,0.0,625.31,0.0,0.521564361,1.0,0.731078632,0.0,0.6774886809999999,1.0,0.483263956,False,,5ee8f53008d60f24278b816e,,1906323,162,,evan-feature22,full_pf_a,,0
116,35192,163,,,,2,2,1.0,0.0,1.0,0.0,,0.0-145.0,,1.0,698.505,1.0,0.558893102,0.0,0.719810023,1.0,0.67461031,0.0,0.499349834,False,,5ee8f53008d60f24278b816e,,1916802,163,,evan-feature22,full_pf_a,,0
117,35193,164,,,,2,2,0.0,0.0,1.0,0.0,,0.0-146.0,,0.0,954.92,1.0,0.611031046,1.0,0.75,0.0,0.688072995,0.0,0.5321422729999999,False,,5ee8f53008d60f24278b816e,,1927521,164,,evan-feature22,full_pf_a,,0
118,35194,165,,,,2,2,1.0,1.0,0.0,-1.0,,0.0-147.0,,-1.0,707.715,1.0,0.633223941,1.0,0.713567728,1.0,0.75,1.0,0.48185314700000004,False,,5ee8f53008d60f24278b816e,,1938012,165,,evan-feature22,full_pf_a,,0
119,35195,166,,,,2,2,1.0,0.0,1.0,0.0,,0.0-148.0,,1.0,490.13,1.0,0.664001694,1.0,0.705509768,1.0,0.75,0.0,0.500211065,False,,5ee8f53008d60f24278b816e,,1948281,166,,evan-feature22,full_pf_a,,0
120,35196,167,,,,1,1,1.0,1.0,1.0,0.0,,0.0-149.0,,1.0,364.195,1.0,0.664001694,1.0,0.705509768,1.0,0.75,0.0,0.500211065,False,,5ee8f53008d60f24278b816e,,1958428,167,,evan-feature22,full_pf_a,,1
121,35197,168,,,,2,2,1.0,0.0,1.0,0.0,,0.0-150.0,,1.0,151.26,1.0,0.696508041,1.0,0.71066027,1.0,0.717028709,0.0,0.49792991,False,,5ee8f53008d60f24278b816e,,1968369,168,,evan-feature22,full_pf_a,,1
122,35198,169,,,,2,2,1.0,0.0,0.0,-1.0,,0.0-151.0,,0.0,1129.48,1.0,0.699883272,0.0,0.75,1.0,0.713543895,0.0,0.496962643,False,,5ee8f53008d60f24278b816e,,1979288,169,,evan-feature22,full_pf_a,,0
123,35199,170,,,,1,1,1.0,1.0,0.0,-1.0,,0.0-152.0,,-1.0,1021.795,1.0,0.741163419,1.0,0.75,1.0,0.64691024,1.0,0.513858197,False,,5ee8f53008d60f24278b816e,,1990092,170,,evan-feature22,full_pf_a,,1
124,35200,171,,,,2,2,1.0,0.0,0.0,-1.0,,0.0-153.0,,0.0,587.02,1.0,0.75,0.0,0.70816558,1.0,0.594499079,0.0,0.48502124,False,,5ee8f53008d60f24278b816e,,2000460,171,,evan-feature22,full_pf_a,,1
125,35201,172,,,,1,1,1.0,0.0,1.0,0.0,,0.0-154.0,,1.0,918.655,1.0,0.75,0.0,0.721848901,0.0,0.62197249,0.0,0.48263586399999997,False,,5ee8f53008d60f24278b816e,,2011162,172,,evan-feature22,full_pf_a,,1
126,35202,173,,,,1,1,1.0,1.0,1.0,0.0,,0.0-155.0,,1.0,900.95,1.0,0.75,1.0,0.74813071,1.0,0.584357161,0.0,0.411477782,False,,5ee8f53008d60f24278b816e,,2021843,173,,evan-feature22,full_pf_a,,0
127,35203,174,,,,2,2,0.0,1.0,1.0,0.0,,0.0-156.0,,0.0,785.22,0.0,0.75,1.0,0.75,0.0,0.52287236,1.0,0.488290656,False,,5ee8f53008d60f24278b816e,,2032409,174,,evan-feature22,full_pf_a,,1
128,35204,175,,,,2,2,0.0,1.0,1.0,0.0,,0.0-157.0,,0.0,844.88,0.0,0.75,1.0,0.75,0.0,0.544321581,1.0,0.53143059,False,,5ee8f53008d60f24278b816e,,2043021,175,,evan-feature22,full_pf_a,,0
129,35205,176,,,,1,1,1.0,0.0,1.0,0.0,,0.0-158.0,,1.0,343.5,1.0,0.726754564,0.0,0.75,0.0,0.5129306370000001,1.0,0.530592445,False,,5ee8f53008d60f24278b816e,,2053135,176,,evan-feature22,full_pf_a,,1
130,35206,177,,,,1,1,0.0,1.0,0.0,-1.0,,0.0-159.0,,-1.0,951.975,0.0,0.75,1.0,0.7392590729999999,0.0,0.479875835,1.0,0.547007051,False,,5ee8f53008d60f24278b816e,,2063869,177,,evan-feature22,full_pf_a,,0
131,35207,178,,,,2,2,0.0,1.0,0.0,-1.0,,0.0-160.0,,-1.0,505.975,1.0,0.75,0.0,0.7393376979999999,0.0,0.546045419,1.0,0.541267353,False,,5ee8f53008d60f24278b816e,,2074156,178,,evan-feature22,full_pf_a,,1
132,35208,179,,,,1,1,1.0,0.0,1.0,0.0,,0.0-161.0,,1.0,825.13,1.0,0.75,0.0,0.75,0.0,0.485725895,0.0,0.527625395,False,,5ee8f53008d60f24278b816e,,2084764,179,,evan-feature22,full_pf_a,,1
133,35209,180,,,,1,1,1.0,0.0,0.0,-1.0,,0.0-162.0,,0.0,874.32,1.0,0.75,0.0,0.725087974,0.0,0.488603595,0.0,0.504019206,False,,5ee8f53008d60f24278b816e,,2095422,180,,evan-feature22,full_pf_a,,0
134,35210,181,,,,1,1,1.0,1.0,1.0,0.0,,0.0-163.0,,1.0,737.715,1.0,0.745504295,1.0,0.75,0.0,0.452379914,0.0,0.50131194,False,,5ee8f53008d60f24278b816e,,2105942,181,,evan-feature22,full_pf_a,,0
135,35211,182,,,,1,1,1.0,1.0,0.0,-1.0,,0.0-164.0,,-1.0,1040.045,1.0,0.728513874,1.0,0.75,1.0,0.44125567200000004,1.0,0.531454591,False,,5ee8f53008d60f24278b816e,,2116769,182,,evan-feature22,full_pf_a,,0
136,35212,183,,,,2,2,0.0,1.0,1.0,0.0,,0.0-165.0,,0.0,729.465,1.0,0.73790804,0.0,0.75,0.0,0.413036656,1.0,0.524619035,False,,5ee8f53008d60f24278b816e,,2127285,183,,evan-feature22,full_pf_a,,1
137,35213,184,,,,1,1,1.0,0.0,1.0,0.0,,0.0-166.0,,1.0,948.465,1.0,0.7080961309999999,0.0,0.708666865,1.0,0.431915581,1.0,0.481819489,False,,5ee8f53008d60f24278b816e,,2138010,184,,evan-feature22,full_pf_a,,1
138,35214,185,,,,1,1,0.0,0.0,1.0,0.0,,0.0-167.0,,0.0,1101.35,0.0,0.721378003,0.0,0.71605913,1.0,0.36642387,0.0,0.5036739929999999,False,,5ee8f53008d60f24278b816e,,2148889,185,,evan-feature22,full_pf_a,,0
139,35215,186,,,,1,1,1.0,1.0,0.0,-1.0,,0.0-168.0,,-1.0,803.13,1.0,0.7340618959999999,1.0,0.699323252,0.0,0.35298046299999997,0.0,0.511241692,False,,5ee8f53008d60f24278b816e,,2159469,186,,evan-feature22,full_pf_a,,0
140,35216,187,,,,2,2,1.0,1.0,0.0,-1.0,,0.0-169.0,,-1.0,831.815,1.0,0.75,1.0,0.70412698,1.0,0.380734814,1.0,0.529580116,False,,5ee8f53008d60f24278b816e,,2170083,187,,evan-feature22,full_pf_a,,1
141,35217,188,,,,1,1,1.0,1.0,0.0,-1.0,,0.0-170.0,,-1.0,1218.455,1.0,0.7436654909999999,1.0,0.711182751,0.0,0.41125331,0.0,0.49554405,False,,5ee8f53008d60f24278b816e,,2181089,188,,evan-feature22,full_pf_a,,1
142,35218,189,,,,1,1,1.0,1.0,1.0,0.0,,0.0-171.0,,1.0,698.125,1.0,0.731607915,1.0,0.651774583,1.0,0.35688023,0.0,0.45194491600000003,False,,5ee8f53008d60f24278b816e,,2191570,189,,evan-feature22,full_pf_a,,0
143,35219,190,,,,1,1,1.0,0.0,0.0,-1.0,,0.0-172.0,,0.0,1031.495,1.0,0.75,0.0,0.75,0.0,0.283145374,1.0,0.528608005,False,,5ee8f53008d60f24278b816e,,2202381,190,,evan-feature22,full_pf_a,,0
144,35220,191,,,,1,1,1.0,1.0,1.0,0.0,,0.0-173.0,,1.0,519.04,1.0,0.7491416890000001,1.0,0.7423785959999999,0.0,0.29135870399999997,1.0,0.498888318,False,,5ee8f53008d60f24278b816e,,2212678,191,,evan-feature22,full_pf_a,,0
145,35221,192,,,,1,1,1.0,1.0,0.0,-1.0,,0.0-174.0,,-1.0,381.87,1.0,0.708569387,1.0,0.717682277,0.0,0.294421699,0.0,0.493838163,False,,5ee8f53008d60f24278b816e,,2222839,192,,evan-feature22,full_pf_a,,0
146,35222,193,,,,1,1,1.0,1.0,1.0,0.0,,0.0-175.0,,1.0,538.48,1.0,0.75,1.0,0.7383382159999999,1.0,0.356098707,0.0,0.442533405,False,,5ee8f53008d60f24278b816e,,2233153,193,,evan-feature22,full_pf_a,,0
147,35223,194,,,,2,2,0.0,0.0,1.0,0.0,,0.0-176.0,,0.0,922.515,1.0,0.744527075,0.0,0.75,0.0,0.334127506,0.0,0.393165805,False,,5ee8f53008d60f24278b816e,,2243855,194,,evan-feature22,full_pf_a,,1
148,35224,195,,,,1,1,1.0,1.0,1.0,0.0,,0.0-177.0,,1.0,454.64,1.0,0.75,1.0,0.75,0.0,0.33571021799999995,0.0,0.350393962,False,,5ee8f53008d60f24278b816e,,2254097,195,,evan-feature22,full_pf_a,,1
149,35225,196,,,,1,1,1.0,1.0,0.0,-1.0,,0.0-178.0,,-1.0,783.51,1.0,0.75,1.0,0.75,0.0,0.313628297,0.0,0.36349657399999996,False,,5ee8f53008d60f24278b816e,,2264656,196,,evan-feature22,full_pf_a,,0
150,35226,197,,,,1,1,1.0,1.0,1.0,0.0,,0.0-179.0,,1.0,452.2,1.0,0.75,1.0,0.734284182,0.0,0.262667667,0.0,0.380199119,False,,5ee8f53008d60f24278b816e,,2274892,197,,evan-feature22,full_pf_a,,0
151,35227,198,,,,1,1,0.0,1.0,1.0,0.0,,0.0-180.0,,0.0,425.79,0.0,0.75,1.0,0.75,0.0,0.25,0.0,0.394494013,False,,5ee8f53008d60f24278b816e,,2285095,198,,evan-feature22,full_pf_a,,0
152,35228,199,,,,2,2,1.0,0.0,1.0,0.0,,0.0-181.0,,1.0,562.25,1.0,0.722298145,1.0,0.7357822340000001,1.0,0.25,0.0,0.319142121,False,,5ee8f53008d60f24278b816e,,2295441,199,,evan-feature22,full_pf_a,,1
153,35229,200,,,,2,2,0.0,0.0,1.0,0.0,,0.0-182.0,,0.0,741.205,1.0,0.73149275,1.0,0.724276446,0.0,0.305856907,0.0,0.281315057,False,,5ee8f53008d60f24278b816e,,2305961,200,,evan-feature22,full_pf_a,,0
154,35230,201,,,,1,1,1.0,0.0,1.0,0.0,,0.0-183.0,,1.0,450.16,1.0,0.7458732690000001,0.0,0.7336382459999999,0.0,0.272571964,0.0,0.266021999,False,,5ee8f53008d60f24278b816e,,2316200,201,,evan-feature22,full_pf_a,,1
155,35231,202,,,,1,1,1.0,1.0,0.0,-1.0,,0.0-184.0,,-1.0,551.455,1.0,0.705579037,1.0,0.720778292,1.0,0.320238144,1.0,0.30971744,False,,5ee8f53008d60f24278b816e,,2326532,202,,evan-feature22,full_pf_a,,0
156,35232,203,,,,1,1,1.0,0.0,0.0,-1.0,,0.0-185.0,,0.0,388.315,1.0,0.700425648,0.0,0.7198784009999999,1.0,0.272590393,1.0,0.304182931,False,,5ee8f53008d60f24278b816e,,2336706,203,,evan-feature22,full_pf_a,,0
157,35233,204,,,,1,1,0.0,0.0,0.0,-1.0,,0.0-186.0,,0.0,989.025,0.0,0.735590785,0.0,0.722714973,0.0,0.25,1.0,0.323421091,False,,5ee8f53008d60f24278b816e,,2347490,204,,evan-feature22,full_pf_a,,0
158,35234,205,,,,1,1,1.0,1.0,0.0,-1.0,,0.0-187.0,,-1.0,754.075,1.0,0.724807662,1.0,0.63146213,1.0,0.36836492600000004,1.0,0.34592153299999995,False,,5ee8f53008d60f24278b816e,,2358004,205,,evan-feature22,full_pf_a,,0
159,35235,206,,,,2,2,0.0,0.0,1.0,0.0,,0.0-188.0,,0.0,271.55,0.0,0.7352796909999999,1.0,0.555111392,0.0,0.36003922,0.0,0.31433779999999995,False,,5ee8f53008d60f24278b816e,,2368047,206,,evan-feature22,full_pf_a,,1
160,35236,207,notice,,,,,,,,,,0.0-189.0,"{""Q0"":""different sides had more minerals""}",,15133.0,,,,,,,,,False,,5ee8f53008d60f24278b816e,,2383183,207,Q,survey-text,full_pf_a,,1
161,35237,208,track1,,[1],,,,,,,,0.0-190.0,"{""Q0"":""no""}",,3247.0,,,,,,,,,False,,5ee8f53008d60f24278b816e,,2386436,208,Q,evan-quiz,full_pf_a,,1
162,35238,209,track2,,[0],,,,,,,,0.0-191.0,"{""Q0"":""yes""}",,3823.0,,,,,,,,,False,,5ee8f53008d60f24278b816e,,2390264,209,Q,evan-quiz,full_pf_a,,1
163,35239,210,strat,,,,,,,,,,0.0-192.0,"{""Q0"":""going with what I noticed had the most minerals at the time""}",,12005.0,,,,,,,,,False,,5ee8f53008d60f24278b816e,,2402275,210,Q,survey-text,full_pf_a,,1
