,index,Unnamed: 0,Q_name,button_pressed,choice_idxs,chosen_pos,chosen_state,chosen_state_f_1_outcome,chosen_state_f_2_outcome,f_1_reward,f_2_reward,incor_questions,internal_node_id,responses,reward_received,rt,s_1_f_1_outcome,s_1_f_1_prob,s_1_f_2_outcome,s_1_f_2_prob,s_2_f_1_outcome,s_2_f_1_prob,s_2_f_2_outcome,s_2_f_2_prob,safe_first,stimulus,subjectID,success,time_elapsed,trial_index,trial_num,trial_type,version,view_history,switching
0,28681,30,,,,2,2,0.0,0.0,0.0,1.0,,0.0-27.0,,0.0,1958.0,0.0,0.6,1.0,0.6,0.0,0.4,0.0,0.4,True,,5a9c1988f6dfdd0001ea9933,,765312,30,,evan-feature22,full_rf_b,,0
1,28682,31,,,,2,2,0.0,1.0,0.0,1.0,,0.0-28.0,,1.0,478.0,1.0,0.608053294,0.0,0.63424552,0.0,0.397152172,1.0,0.347069101,True,,5a9c1988f6dfdd0001ea9933,,775692,31,,evan-feature22,full_rf_b,,0
2,28683,32,,,,2,2,0.0,1.0,0.0,1.0,,0.0-29.0,,1.0,1194.0,1.0,0.642237155,1.0,0.648566321,0.0,0.389407674,1.0,0.285525717,True,,5a9c1988f6dfdd0001ea9933,,786769,32,,evan-feature22,full_rf_b,,0
3,28684,33,,,,2,2,0.0,1.0,0.0,1.0,,0.0-30.0,,1.0,972.0,0.0,0.661086576,1.0,0.630492543,0.0,0.399058924,1.0,0.25,True,,5a9c1988f6dfdd0001ea9933,,797593,33,,evan-feature22,full_rf_b,,0
4,28685,34,,,,1,1,1.0,1.0,0.0,1.0,,0.0-31.0,,1.0,641.0,1.0,0.631324137,1.0,0.6269842929999999,0.0,0.38734784299999997,1.0,0.25,True,,5a9c1988f6dfdd0001ea9933,,808100,34,,evan-feature22,full_rf_b,,1
5,28686,35,,,,1,1,0.0,1.0,0.0,1.0,,0.0-32.0,,1.0,398.0,0.0,0.6381991370000001,1.0,0.68987999,0.0,0.384107265,0.0,0.271332943,True,,5a9c1988f6dfdd0001ea9933,,818340,35,,evan-feature22,full_rf_b,,0
6,28687,36,,,,2,2,1.0,0.0,0.0,1.0,,0.0-33.0,,0.0,488.0,1.0,0.66034901,1.0,0.742641349,1.0,0.360225629,0.0,0.25,True,,5a9c1988f6dfdd0001ea9933,,828679,36,,evan-feature22,full_rf_b,,1
7,28688,37,,,,2,2,0.0,0.0,-1.0,0.0,,0.0-34.0,,0.0,522.0,1.0,0.638612418,1.0,0.75,0.0,0.367273939,0.0,0.25,True,,5a9c1988f6dfdd0001ea9933,,839061,37,,evan-feature22,full_rf_b,,0
8,28689,38,,,,2,2,1.0,0.0,0.0,1.0,,0.0-35.0,,0.0,804.0,1.0,0.624340629,1.0,0.75,1.0,0.425829545,0.0,0.25,True,,5a9c1988f6dfdd0001ea9933,,849718,38,,evan-feature22,full_rf_b,,0
9,28690,39,,,,1,1,0.0,1.0,0.0,1.0,,0.0-36.0,,1.0,495.0,0.0,0.621999804,1.0,0.75,0.0,0.368609357,1.0,0.25,True,,5a9c1988f6dfdd0001ea9933,,860061,39,,evan-feature22,full_rf_b,,1
10,28691,40,,,,1,1,1.0,0.0,-1.0,0.0,,0.0-37.0,,-1.0,624.0,1.0,0.62666403,0.0,0.75,1.0,0.311151498,1.0,0.25,True,,5a9c1988f6dfdd0001ea9933,,870499,40,,evan-feature22,full_rf_b,,0
11,28692,41,,,,2,2,0.0,0.0,-1.0,0.0,,0.0-38.0,,0.0,1393.0,0.0,0.6819650009999999,1.0,0.75,0.0,0.310763048,0.0,0.25,True,,5a9c1988f6dfdd0001ea9933,,881742,41,,evan-feature22,full_rf_b,,1
12,28693,42,,,,2,2,1.0,0.0,0.0,1.0,,0.0-39.0,,0.0,262.0,1.0,0.740626951,1.0,0.75,1.0,0.25,0.0,0.25,True,,5a9c1988f6dfdd0001ea9933,,891868,42,,evan-feature22,full_rf_b,,0
13,28694,43,,,,1,1,0.0,1.0,0.0,1.0,,0.0-40.0,,1.0,349.0,0.0,0.739599242,1.0,0.742034978,0.0,0.25397114600000004,0.0,0.25,True,,5a9c1988f6dfdd0001ea9933,,902058,43,,evan-feature22,full_rf_b,,1
14,28695,44,,,,1,1,1.0,1.0,0.0,1.0,,0.0-41.0,,1.0,334.0,1.0,0.732341315,1.0,0.72735643,0.0,0.25,0.0,0.25,True,,5a9c1988f6dfdd0001ea9933,,912237,44,,evan-feature22,full_rf_b,,0
15,28696,45,,,,1,1,1.0,0.0,0.0,1.0,,0.0-42.0,,0.0,426.0,1.0,0.7062287770000001,0.0,0.75,1.0,0.29002151,0.0,0.288256649,True,,5a9c1988f6dfdd0001ea9933,,922499,45,,evan-feature22,full_rf_b,,0
16,28697,46,,,,2,2,1.0,0.0,-1.0,0.0,,0.0-43.0,,-1.0,383.0,0.0,0.7086029209999999,1.0,0.75,1.0,0.274129113,0.0,0.262851608,True,,5a9c1988f6dfdd0001ea9933,,932735,46,,evan-feature22,full_rf_b,,1
17,28698,47,,,,1,1,1.0,0.0,0.0,1.0,,0.0-44.0,,0.0,313.0,1.0,0.669189651,0.0,0.727614338,0.0,0.298444036,0.0,0.296944518,True,,5a9c1988f6dfdd0001ea9933,,942888,47,,evan-feature22,full_rf_b,,1
18,28699,48,,,,1,1,0.0,0.0,-1.0,0.0,,0.0-45.0,,0.0,415.0,0.0,0.6819912929999999,0.0,0.7179434290000001,1.0,0.265003961,0.0,0.28157921199999997,True,,5a9c1988f6dfdd0001ea9933,,953128,48,,evan-feature22,full_rf_b,,0
19,28700,49,,,,1,1,1.0,1.0,-1.0,0.0,,0.0-46.0,,-1.0,1102.0,1.0,0.665275002,1.0,0.723065271,0.0,0.260414971,0.0,0.30973870000000003,True,,5a9c1988f6dfdd0001ea9933,,964078,49,,evan-feature22,full_rf_b,,0
20,28701,50,,,,1,1,1.0,1.0,0.0,1.0,,0.0-47.0,,1.0,1007.0,1.0,0.6660593260000001,1.0,0.728032907,0.0,0.30922817,0.0,0.338778608,True,,5a9c1988f6dfdd0001ea9933,,974974,50,,evan-feature22,full_rf_b,,0
21,28702,51,,,,1,1,1.0,0.0,0.0,1.0,,0.0-48.0,,0.0,759.0,1.0,0.702068785,0.0,0.6528750879999999,1.0,0.287329608,1.0,0.35789613200000003,True,,5a9c1988f6dfdd0001ea9933,,985555,51,,evan-feature22,full_rf_b,,0
22,28703,52,,,,1,1,0.0,0.0,0.0,1.0,,0.0-49.0,,0.0,411.0,0.0,0.651939787,0.0,0.636725589,0.0,0.284834488,0.0,0.358563756,True,,5a9c1988f6dfdd0001ea9933,,995816,52,,evan-feature22,full_rf_b,,0
23,28704,53,,,,1,1,0.0,1.0,0.0,1.0,,0.0-50.0,,1.0,948.0,0.0,0.67573929,1.0,0.612550049,0.0,0.37130387600000003,1.0,0.383542402,True,,5a9c1988f6dfdd0001ea9933,,1006631,53,,evan-feature22,full_rf_b,,0
24,28705,54,,,,1,1,0.0,1.0,0.0,1.0,,0.0-51.0,,1.0,381.0,0.0,0.620753801,1.0,0.60513644,1.0,0.385529434,0.0,0.340361743,True,,5a9c1988f6dfdd0001ea9933,,1016846,54,,evan-feature22,full_rf_b,,0
25,28706,55,,,,1,1,1.0,0.0,-1.0,0.0,,0.0-52.0,,-1.0,1410.0,1.0,0.673564893,0.0,0.672437924,0.0,0.292955382,0.0,0.337633795,True,,5a9c1988f6dfdd0001ea9933,,1028109,55,,evan-feature22,full_rf_b,,0
26,28707,56,,,,2,2,1.0,0.0,0.0,1.0,,0.0-53.0,,0.0,1074.0,1.0,0.6749427,1.0,0.724197502,1.0,0.32391132100000003,0.0,0.350995264,True,,5a9c1988f6dfdd0001ea9933,,1039061,56,,evan-feature22,full_rf_b,,1
27,28708,57,,,,1,1,1.0,1.0,0.0,1.0,,0.0-54.0,,1.0,443.0,1.0,0.6940159379999999,1.0,0.75,1.0,0.31710554399999996,0.0,0.413450341,True,,5a9c1988f6dfdd0001ea9933,,1049373,57,,evan-feature22,full_rf_b,,1
28,28709,58,,,,1,1,1.0,1.0,0.0,1.0,,0.0-55.0,,1.0,458.0,1.0,0.6916018270000001,1.0,0.69001187,0.0,0.261817804,1.0,0.40038635,True,,5a9c1988f6dfdd0001ea9933,,1059675,58,,evan-feature22,full_rf_b,,0
29,28710,59,,,,1,1,1.0,1.0,0.0,1.0,,0.0-56.0,,1.0,378.0,1.0,0.641061544,1.0,0.71337992,1.0,0.277296461,0.0,0.47372791700000005,True,,5a9c1988f6dfdd0001ea9933,,1069897,59,,evan-feature22,full_rf_b,,0
30,28711,60,,,,1,1,1.0,1.0,0.0,1.0,,0.0-57.0,,1.0,901.0,1.0,0.6082438520000001,1.0,0.708471106,0.0,0.28745137,0.0,0.564174476,True,,5a9c1988f6dfdd0001ea9933,,1080622,60,,evan-feature22,full_rf_b,,0
31,28712,61,,,,1,1,0.0,1.0,-1.0,0.0,,0.0-58.0,,0.0,732.0,0.0,0.6051112120000001,1.0,0.7118147229999999,0.0,0.272390611,1.0,0.5595149939999999,True,,5a9c1988f6dfdd0001ea9933,,1091216,61,,evan-feature22,full_rf_b,,0
32,28713,62,,,,1,1,0.0,0.0,-1.0,0.0,,0.0-59.0,,0.0,936.0,0.0,0.582420852,0.0,0.635867583,1.0,0.31089574,0.0,0.5227206520000001,True,,5a9c1988f6dfdd0001ea9933,,1101955,62,,evan-feature22,full_rf_b,,0
33,28714,63,,,,1,1,1.0,1.0,-1.0,0.0,,0.0-60.0,,-1.0,532.0,1.0,0.623195575,1.0,0.655026044,1.0,0.25,1.0,0.560387538,True,,5a9c1988f6dfdd0001ea9933,,1112338,63,,evan-feature22,full_rf_b,,0
34,28715,64,,,,1,1,0.0,0.0,0.0,1.0,,0.0-61.0,,0.0,758.0,0.0,0.601889598,0.0,0.678198724,0.0,0.25,1.0,0.559922936,True,,5a9c1988f6dfdd0001ea9933,,1123011,64,,evan-feature22,full_rf_b,,0
35,28716,65,,,,1,1,1.0,1.0,-1.0,0.0,,0.0-62.0,,-1.0,500.0,1.0,0.601259914,1.0,0.704681482,0.0,0.33908969299999997,0.0,0.505003715,True,,5a9c1988f6dfdd0001ea9933,,1133359,65,,evan-feature22,full_rf_b,,0
36,28717,66,,,,2,2,0.0,0.0,-1.0,0.0,,0.0-63.0,,0.0,880.0,0.0,0.59645454,1.0,0.710437172,0.0,0.327441879,0.0,0.391749613,True,,5a9c1988f6dfdd0001ea9933,,1144087,66,,evan-feature22,full_rf_b,,1
37,28718,67,,,,2,2,1.0,1.0,0.0,1.0,,0.0-64.0,,1.0,634.0,1.0,0.529473,1.0,0.636758527,1.0,0.301338063,1.0,0.365661481,True,,5a9c1988f6dfdd0001ea9933,,1154593,67,,evan-feature22,full_rf_b,,0
38,28719,68,,,,1,1,0.0,1.0,-1.0,0.0,,0.0-65.0,,0.0,998.0,0.0,0.541657162,1.0,0.634541962,1.0,0.343535366,1.0,0.371763742,True,,5a9c1988f6dfdd0001ea9933,,1165509,68,,evan-feature22,full_rf_b,,1
39,28720,69,,,,1,1,1.0,1.0,-1.0,0.0,,0.0-66.0,,-1.0,832.0,1.0,0.5707533260000001,1.0,0.589121171,0.0,0.326428396,1.0,0.43961622899999997,True,,5a9c1988f6dfdd0001ea9933,,1176177,69,,evan-feature22,full_rf_b,,0
40,28721,70,,,,2,2,1.0,1.0,0.0,1.0,,0.0-67.0,,1.0,895.0,1.0,0.5707533260000001,0.0,0.589121171,1.0,0.326428396,1.0,0.43961622899999997,True,,5a9c1988f6dfdd0001ea9933,,1186925,70,,evan-feature22,full_rf_b,,1
41,28722,71,,,,1,1,0.0,0.0,0.0,1.0,,0.0-68.0,,0.0,869.0,0.0,0.506271295,0.0,0.641775594,0.0,0.37149690700000004,0.0,0.404330166,True,,5a9c1988f6dfdd0001ea9933,,1197637,71,,evan-feature22,full_rf_b,,1
42,28723,72,,,,2,2,0.0,0.0,-1.0,0.0,,0.0-69.0,,0.0,957.0,0.0,0.455642565,1.0,0.623605825,0.0,0.358753011,0.0,0.346174041,True,,5a9c1988f6dfdd0001ea9933,,1208444,72,,evan-feature22,full_rf_b,,1
43,28724,73,,,,1,1,0.0,0.0,0.0,1.0,,0.0-70.0,,0.0,730.0,0.0,0.483677308,0.0,0.5904681070000001,0.0,0.402218411,1.0,0.35344697,True,,5a9c1988f6dfdd0001ea9933,,1219006,73,,evan-feature22,full_rf_b,,1
44,28725,74,,,,2,2,0.0,1.0,-1.0,0.0,,0.0-71.0,,0.0,961.0,1.0,0.394210977,1.0,0.558925494,0.0,0.540052017,1.0,0.35182128700000004,True,,5a9c1988f6dfdd0001ea9933,,1229826,74,,evan-feature22,full_rf_b,,1
45,28726,75,,,,1,1,0.0,0.0,0.0,1.0,,0.0-72.0,,0.0,886.0,0.0,0.382300414,0.0,0.577670603,1.0,0.607608448,1.0,0.378261578,True,,5a9c1988f6dfdd0001ea9933,,1240554,75,,evan-feature22,full_rf_b,,1
46,28727,76,,,,1,1,0.0,0.0,-1.0,0.0,,0.0-73.0,,0.0,1247.0,0.0,0.357596762,0.0,0.5929076529999999,0.0,0.6579790010000001,0.0,0.401326777,True,,5a9c1988f6dfdd0001ea9933,,1251646,76,,evan-feature22,full_rf_b,,0
47,28728,77,,,,1,1,1.0,1.0,0.0,1.0,,0.0-74.0,,1.0,1007.0,1.0,0.362033495,1.0,0.582308608,1.0,0.649195052,0.0,0.355158505,True,,5a9c1988f6dfdd0001ea9933,,1262499,77,,evan-feature22,full_rf_b,,0
48,28729,78,,,,1,1,1.0,1.0,0.0,1.0,,0.0-75.0,,1.0,656.0,1.0,0.369620635,1.0,0.669100864,1.0,0.706059111,1.0,0.362516241,True,,5a9c1988f6dfdd0001ea9933,,1273052,78,,evan-feature22,full_rf_b,,0
49,28730,79,,,,1,1,0.0,1.0,0.0,1.0,,0.0-76.0,,1.0,950.0,0.0,0.41477751399999996,1.0,0.7284416779999999,1.0,0.7182656940000001,0.0,0.36228040899999997,True,,5a9c1988f6dfdd0001ea9933,,1283842,79,,evan-feature22,full_rf_b,,0
50,28731,80,,,,1,1,0.0,0.0,-1.0,0.0,,0.0-77.0,,0.0,1004.0,0.0,0.37675460299999997,0.0,0.703250285,1.0,0.75,0.0,0.461979164,True,,5a9c1988f6dfdd0001ea9933,,1294662,80,,evan-feature22,full_rf_b,,0
51,28732,81,,,,1,1,0.0,0.0,-1.0,0.0,,0.0-78.0,,0.0,1309.0,0.0,0.398716075,0.0,0.6723864890000001,1.0,0.674153818,1.0,0.519029516,True,,5a9c1988f6dfdd0001ea9933,,1305833,81,,evan-feature22,full_rf_b,,0
52,28733,82,,,,1,1,1.0,1.0,-1.0,0.0,,0.0-79.0,,-1.0,917.0,1.0,0.34677856700000004,1.0,0.69057175,1.0,0.6822438540000001,0.0,0.477292237,True,,5a9c1988f6dfdd0001ea9933,,1316594,82,,evan-feature22,full_rf_b,,0
53,28734,83,,,,1,1,0.0,0.0,0.0,1.0,,0.0-80.0,,0.0,1454.0,0.0,0.28580469199999997,0.0,0.68408818,1.0,0.684207565,1.0,0.49780448299999996,True,,5a9c1988f6dfdd0001ea9933,,1327910,83,,evan-feature22,full_rf_b,,0
54,28736,85,,,,2,2,1.0,1.0,0.0,1.0,,0.0-82.0,,1.0,597.0,0.0,0.25,1.0,0.7405808970000001,1.0,0.679614108,1.0,0.436436964,True,,5a9c1988f6dfdd0001ea9933,,1341807,85,,evan-feature22,full_rf_b,,1
55,28737,86,,,,1,1,1.0,0.0,0.0,1.0,,0.0-83.0,,0.0,699.0,1.0,0.29890393,0.0,0.730505706,1.0,0.7328203320000001,1.0,0.439256938,True,,5a9c1988f6dfdd0001ea9933,,1352366,86,,evan-feature22,full_rf_b,,1
56,28738,87,,,,1,1,0.0,1.0,-1.0,0.0,,0.0-84.0,,0.0,1462.0,0.0,0.326762398,1.0,0.7148059609999999,1.0,0.75,1.0,0.44389608799999997,True,,5a9c1988f6dfdd0001ea9933,,1363669,87,,evan-feature22,full_rf_b,,0
57,28739,88,,,,2,2,1.0,0.0,0.0,1.0,,0.0-85.0,,0.0,1677.0,1.0,0.295168515,1.0,0.739760854,1.0,0.719947008,0.0,0.35277284600000003,True,,5a9c1988f6dfdd0001ea9933,,1375201,88,,evan-feature22,full_rf_b,,1
58,28740,89,,,,1,1,0.0,1.0,0.0,1.0,,0.0-86.0,,1.0,550.0,0.0,0.25,1.0,0.70781482,1.0,0.75,1.0,0.286095925,True,,5a9c1988f6dfdd0001ea9933,,1385634,89,,evan-feature22,full_rf_b,,1
59,28741,90,,,,1,1,0.0,1.0,0.0,1.0,,0.0-87.0,,1.0,734.0,0.0,0.25638190899999996,1.0,0.704088163,1.0,0.75,0.0,0.26872601399999996,True,,5a9c1988f6dfdd0001ea9933,,1396250,90,,evan-feature22,full_rf_b,,0
60,28742,91,,,,2,2,1.0,0.0,-1.0,0.0,,0.0-88.0,,-1.0,1142.0,0.0,0.271581126,1.0,0.669760107,1.0,0.733896663,0.0,0.273244572,True,,5a9c1988f6dfdd0001ea9933,,1407246,91,,evan-feature22,full_rf_b,,1
61,28743,92,,,,1,1,0.0,0.0,0.0,1.0,,0.0-89.0,,0.0,872.0,0.0,0.257144401,0.0,0.600575706,1.0,0.74488122,0.0,0.25,True,,5a9c1988f6dfdd0001ea9933,,1417983,92,,evan-feature22,full_rf_b,,1
62,28744,93,,,,1,1,0.0,0.0,0.0,1.0,,0.0-90.0,,0.0,504.0,0.0,0.25,0.0,0.616870026,1.0,0.723610234,0.0,0.25,True,,5a9c1988f6dfdd0001ea9933,,1428346,93,,evan-feature22,full_rf_b,,0
63,28745,94,,,,2,2,1.0,0.0,-1.0,0.0,,0.0-91.0,,-1.0,1363.0,0.0,0.25,1.0,0.583540187,1.0,0.7041042559999999,0.0,0.285961995,True,,5a9c1988f6dfdd0001ea9933,,1439546,94,,evan-feature22,full_rf_b,,1
64,28746,95,,,,1,1,0.0,1.0,-1.0,0.0,,0.0-92.0,,0.0,765.0,0.0,0.27254536,1.0,0.53875765,0.0,0.693783448,0.0,0.284961652,True,,5a9c1988f6dfdd0001ea9933,,1450145,95,,evan-feature22,full_rf_b,,1
65,28747,96,,,,1,1,1.0,1.0,-1.0,0.0,,0.0-93.0,,-1.0,706.0,1.0,0.25,1.0,0.548431252,1.0,0.734221895,0.0,0.279445214,True,,5a9c1988f6dfdd0001ea9933,,1460733,96,,evan-feature22,full_rf_b,,0
66,28748,97,,,,1,1,0.0,1.0,0.0,1.0,,0.0-94.0,,1.0,686.0,0.0,0.258640684,1.0,0.545878066,0.0,0.725245965,0.0,0.31487537,True,,5a9c1988f6dfdd0001ea9933,,1471244,97,,evan-feature22,full_rf_b,,0
67,28749,98,,,,1,1,0.0,0.0,0.0,1.0,,0.0-95.0,,0.0,689.0,0.0,0.251103711,0.0,0.5776290629999999,1.0,0.696320133,0.0,0.317831047,True,,5a9c1988f6dfdd0001ea9933,,1481793,98,,evan-feature22,full_rf_b,,0
68,28750,99,,,,1,1,0.0,0.0,0.0,1.0,,0.0-96.0,,0.0,544.0,0.0,0.276630292,0.0,0.617329858,1.0,0.73838088,0.0,0.261471582,True,,5a9c1988f6dfdd0001ea9933,,1492174,99,,evan-feature22,full_rf_b,,0
69,28751,100,,,,1,1,0.0,1.0,0.0,1.0,,0.0-97.0,,1.0,673.0,0.0,0.297716424,1.0,0.618863717,1.0,0.7402358259999999,0.0,0.262600834,True,,5a9c1988f6dfdd0001ea9933,,1502685,100,,evan-feature22,full_rf_b,,0
70,28752,101,,,,1,1,1.0,1.0,-1.0,0.0,,0.0-98.0,,-1.0,1236.0,1.0,0.290935512,1.0,0.695370945,1.0,0.706570507,1.0,0.280030553,True,,5a9c1988f6dfdd0001ea9933,,1513788,101,,evan-feature22,full_rf_b,,0
71,28753,102,,,,1,1,1.0,0.0,0.0,1.0,,0.0-99.0,,0.0,1478.0,1.0,0.25,0.0,0.6465277079999999,0.0,0.67766682,0.0,0.25,True,,5a9c1988f6dfdd0001ea9933,,1525159,102,,evan-feature22,full_rf_b,,0
72,28754,103,,,,1,1,1.0,1.0,-1.0,0.0,,0.0-100.0,,-1.0,1161.0,1.0,0.26463816,1.0,0.636100213,1.0,0.646048507,0.0,0.265607101,True,,5a9c1988f6dfdd0001ea9933,,1536183,103,,evan-feature22,full_rf_b,,0
73,28755,104,,,,2,2,1.0,1.0,-1.0,0.0,,0.0-101.0,,-1.0,805.0,1.0,0.314340707,0.0,0.667795927,1.0,0.613630805,1.0,0.25,True,,5a9c1988f6dfdd0001ea9933,,1546859,104,,evan-feature22,full_rf_b,,1
74,28756,105,,,,1,1,0.0,0.0,0.0,1.0,,0.0-102.0,,0.0,691.0,0.0,0.28685784,0.0,0.6622549529999999,0.0,0.652154117,0.0,0.25,True,,5a9c1988f6dfdd0001ea9933,,1557400,105,,evan-feature22,full_rf_b,,1
75,28757,106,,,,1,1,0.0,0.0,0.0,1.0,,0.0-103.0,,0.0,448.0,0.0,0.304106554,0.0,0.631289538,1.0,0.707041942,0.0,0.29314237,True,,5a9c1988f6dfdd0001ea9933,,1567694,106,,evan-feature22,full_rf_b,,0
76,28758,107,,,,1,1,0.0,0.0,0.0,1.0,,0.0-104.0,,0.0,528.0,0.0,0.304806932,0.0,0.571167718,1.0,0.680472346,0.0,0.25,True,,5a9c1988f6dfdd0001ea9933,,1578125,107,,evan-feature22,full_rf_b,,0
77,28759,108,,,,1,1,0.0,0.0,0.0,1.0,,0.0-105.0,,0.0,773.0,0.0,0.37919861,0.0,0.5724849710000001,1.0,0.705638003,0.0,0.30179300600000003,True,,5a9c1988f6dfdd0001ea9933,,1588767,108,,evan-feature22,full_rf_b,,0
78,28760,109,,,,1,1,1.0,1.0,0.0,1.0,,0.0-106.0,,1.0,624.0,1.0,0.464277969,1.0,0.554034373,1.0,0.7372627340000001,0.0,0.264699741,True,,5a9c1988f6dfdd0001ea9933,,1599238,109,,evan-feature22,full_rf_b,,0
79,28761,110,,,,1,1,0.0,1.0,0.0,1.0,,0.0-107.0,,1.0,799.0,0.0,0.465104323,1.0,0.530793115,1.0,0.75,0.0,0.31683071,True,,5a9c1988f6dfdd0001ea9933,,1609935,110,,evan-feature22,full_rf_b,,0
80,28762,111,,,,1,1,0.0,0.0,-1.0,0.0,,0.0-108.0,,0.0,1495.0,0.0,0.465104323,0.0,0.530793115,1.0,0.75,0.0,0.31683071,True,,5a9c1988f6dfdd0001ea9933,,1621270,111,,evan-feature22,full_rf_b,,0
81,28763,112,,,,1,1,0.0,1.0,-1.0,0.0,,0.0-109.0,,0.0,591.0,0.0,0.46833986,1.0,0.570249239,0.0,0.7244472590000001,1.0,0.364114163,True,,5a9c1988f6dfdd0001ea9933,,1631695,112,,evan-feature22,full_rf_b,,0
82,28764,113,,,,1,1,0.0,0.0,-1.0,0.0,,0.0-110.0,,0.0,711.0,0.0,0.445444024,0.0,0.649673355,1.0,0.6845441290000001,1.0,0.300660449,True,,5a9c1988f6dfdd0001ea9933,,1642222,113,,evan-feature22,full_rf_b,,0
83,28765,114,,,,1,1,0.0,1.0,-1.0,0.0,,0.0-111.0,,0.0,654.0,0.0,0.39909721299999995,1.0,0.6715179509999999,0.0,0.742310028,0.0,0.35496088299999995,True,,5a9c1988f6dfdd0001ea9933,,1652706,114,,evan-feature22,full_rf_b,,0
84,28766,115,,,,1,1,0.0,0.0,0.0,1.0,,0.0-112.0,,0.0,711.0,0.0,0.37956104799999996,0.0,0.694725302,1.0,0.7181651309999999,0.0,0.38726906299999997,True,,5a9c1988f6dfdd0001ea9933,,1663280,115,,evan-feature22,full_rf_b,,0
85,28767,116,,,,1,1,0.0,1.0,0.0,1.0,,0.0-113.0,,1.0,407.0,0.0,0.404995034,1.0,0.724375412,1.0,0.6910946859999999,0.0,0.387187347,True,,5a9c1988f6dfdd0001ea9933,,1673528,116,,evan-feature22,full_rf_b,,0
86,28768,117,,,,1,1,0.0,1.0,-1.0,0.0,,0.0-114.0,,0.0,952.0,0.0,0.461740803,1.0,0.75,1.0,0.75,0.0,0.34872038200000005,True,,5a9c1988f6dfdd0001ea9933,,1684329,117,,evan-feature22,full_rf_b,,0
87,28769,118,,,,1,1,1.0,1.0,-1.0,0.0,,0.0-115.0,,-1.0,588.0,1.0,0.43821380600000004,1.0,0.738833273,1.0,0.728286963,1.0,0.399538128,True,,5a9c1988f6dfdd0001ea9933,,1694761,118,,evan-feature22,full_rf_b,,0
88,28770,119,,,,1,1,1.0,1.0,0.0,1.0,,0.0-116.0,,1.0,646.0,1.0,0.41709882,1.0,0.736666736,1.0,0.75,0.0,0.389095584,True,,5a9c1988f6dfdd0001ea9933,,1705238,119,,evan-feature22,full_rf_b,,0
89,28771,120,,,,1,1,0.0,0.0,0.0,1.0,,0.0-117.0,,0.0,446.0,0.0,0.39749009799999996,0.0,0.744320029,1.0,0.75,0.0,0.363848678,True,,5a9c1988f6dfdd0001ea9933,,1715546,120,,evan-feature22,full_rf_b,,0
90,28772,121,,,,1,1,0.0,1.0,-1.0,0.0,,0.0-118.0,,0.0,641.0,0.0,0.392653706,1.0,0.75,1.0,0.75,1.0,0.384386976,True,,5a9c1988f6dfdd0001ea9933,,1726064,121,,evan-feature22,full_rf_b,,0
91,28773,122,,,,1,1,0.0,1.0,0.0,1.0,,0.0-119.0,,1.0,492.0,0.0,0.31190902600000003,1.0,0.75,1.0,0.732413819,1.0,0.413082932,True,,5a9c1988f6dfdd0001ea9933,,1736435,122,,evan-feature22,full_rf_b,,0
92,28774,123,,,,1,1,1.0,1.0,-1.0,0.0,,0.0-120.0,,-1.0,1145.0,1.0,0.366917648,1.0,0.740073855,1.0,0.75,0.0,0.352861979,True,,5a9c1988f6dfdd0001ea9933,,1747447,123,,evan-feature22,full_rf_b,,0
93,28775,124,,,,1,1,0.0,1.0,-1.0,0.0,,0.0-121.0,,0.0,490.0,0.0,0.3645172,1.0,0.721770713,1.0,0.75,0.0,0.404074511,True,,5a9c1988f6dfdd0001ea9933,,1757813,124,,evan-feature22,full_rf_b,,0
94,28776,125,,,,1,1,1.0,1.0,-1.0,0.0,,0.0-122.0,,-1.0,611.0,1.0,0.35205600299999995,1.0,0.68983859,0.0,0.739735447,1.0,0.366895945,True,,5a9c1988f6dfdd0001ea9933,,1768296,125,,evan-feature22,full_rf_b,,0
95,28777,126,,,,1,1,0.0,1.0,-1.0,0.0,,0.0-123.0,,0.0,835.0,0.0,0.40998722600000004,1.0,0.720859127,1.0,0.673854955,0.0,0.368528541,True,,5a9c1988f6dfdd0001ea9933,,1779001,126,,evan-feature22,full_rf_b,,0
96,28778,127,,,,1,1,0.0,0.0,-1.0,0.0,,0.0-124.0,,0.0,560.0,0.0,0.353625316,0.0,0.75,1.0,0.695605473,0.0,0.38303674200000004,True,,5a9c1988f6dfdd0001ea9933,,1789432,127,,evan-feature22,full_rf_b,,0
97,28779,128,,,,1,1,0.0,1.0,-1.0,0.0,,0.0-125.0,,0.0,592.0,0.0,0.359216989,1.0,0.75,1.0,0.6987915090000001,1.0,0.35169046200000004,True,,5a9c1988f6dfdd0001ea9933,,1799868,128,,evan-feature22,full_rf_b,,0
98,28780,129,,,,1,1,0.0,1.0,-1.0,0.0,,0.0-126.0,,0.0,439.0,0.0,0.35834496899999996,1.0,0.75,1.0,0.707067742,1.0,0.416763636,True,,5a9c1988f6dfdd0001ea9933,,1810156,129,,evan-feature22,full_rf_b,,0
99,28781,130,,,,1,1,1.0,1.0,0.0,1.0,,0.0-127.0,,1.0,611.0,1.0,0.38741613799999997,1.0,0.7177369570000001,1.0,0.734902455,1.0,0.49438664299999996,True,,5a9c1988f6dfdd0001ea9933,,1820601,130,,evan-feature22,full_rf_b,,0
100,28782,131,,,,1,1,1.0,1.0,-1.0,0.0,,0.0-128.0,,-1.0,1065.0,1.0,0.405255252,1.0,0.7300466640000001,1.0,0.7027748070000001,0.0,0.504359668,True,,5a9c1988f6dfdd0001ea9933,,1831509,131,,evan-feature22,full_rf_b,,0
101,28783,132,,,,1,1,0.0,1.0,-1.0,0.0,,0.0-129.0,,0.0,777.0,0.0,0.40697073,1.0,0.7260142190000001,1.0,0.724461982,1.0,0.522779179,True,,5a9c1988f6dfdd0001ea9933,,1842130,132,,evan-feature22,full_rf_b,,0
102,28784,133,,,,1,1,0.0,0.0,-1.0,0.0,,0.0-130.0,,0.0,562.0,0.0,0.43906215299999996,0.0,0.7252802340000001,0.0,0.719079934,0.0,0.5712990579999999,True,,5a9c1988f6dfdd0001ea9933,,1852549,133,,evan-feature22,full_rf_b,,0
103,28785,134,,,,1,1,0.0,1.0,0.0,1.0,,0.0-131.0,,1.0,686.0,0.0,0.4076705,1.0,0.73280499,1.0,0.681313127,1.0,0.523891346,True,,5a9c1988f6dfdd0001ea9933,,1863089,134,,evan-feature22,full_rf_b,,0
104,28786,135,,,,1,1,0.0,0.0,0.0,1.0,,0.0-132.0,,0.0,527.0,0.0,0.399102911,0.0,0.730498344,0.0,0.661080239,1.0,0.46742603,True,,5a9c1988f6dfdd0001ea9933,,1873476,135,,evan-feature22,full_rf_b,,0
105,28787,136,,,,1,1,0.0,1.0,0.0,1.0,,0.0-133.0,,1.0,474.0,0.0,0.356477282,1.0,0.712296395,1.0,0.641812684,1.0,0.44868414,True,,5a9c1988f6dfdd0001ea9933,,1883797,136,,evan-feature22,full_rf_b,,0
106,28788,137,,,,1,1,0.0,0.0,-1.0,0.0,,0.0-134.0,,0.0,1076.0,0.0,0.462760722,0.0,0.692349322,1.0,0.700947931,0.0,0.394680266,True,,5a9c1988f6dfdd0001ea9933,,1894709,137,,evan-feature22,full_rf_b,,0
107,28789,138,,,,1,1,1.0,0.0,-1.0,0.0,,0.0-135.0,,-1.0,446.0,1.0,0.422306413,0.0,0.718375916,1.0,0.706340917,0.0,0.367787185,True,,5a9c1988f6dfdd0001ea9933,,1905004,138,,evan-feature22,full_rf_b,,0
108,28791,140,,,,1,1,1.0,1.0,-1.0,0.0,,0.0-137.0,,-1.0,1413.0,1.0,0.4582233,1.0,0.643834117,1.0,0.75,1.0,0.39615823299999997,True,,5a9c1988f6dfdd0001ea9933,,1927255,140,,evan-feature22,full_rf_b,,0
109,28792,141,,,,1,1,1.0,0.0,-1.0,0.0,,0.0-138.0,,-1.0,367.0,1.0,0.43813437899999996,0.0,0.651283804,1.0,0.729674191,0.0,0.37711048,True,,5a9c1988f6dfdd0001ea9933,,1937469,141,,evan-feature22,full_rf_b,,0
110,28793,142,,,,1,1,1.0,0.0,-1.0,0.0,,0.0-139.0,,-1.0,665.0,1.0,0.471199094,0.0,0.6470010979999999,0.0,0.715008097,0.0,0.410656191,True,,5a9c1988f6dfdd0001ea9933,,1948002,142,,evan-feature22,full_rf_b,,0
111,28794,143,,,,2,2,1.0,1.0,-1.0,0.0,,0.0-140.0,,-1.0,763.0,0.0,0.42486406,1.0,0.629771829,1.0,0.6550939960000001,1.0,0.459093873,True,,5a9c1988f6dfdd0001ea9933,,1958673,143,,evan-feature22,full_rf_b,,1
112,28795,144,,,,2,2,1.0,0.0,-1.0,0.0,,0.0-141.0,,-1.0,947.0,1.0,0.4803197,1.0,0.645842715,1.0,0.6421749920000001,0.0,0.443092151,True,,5a9c1988f6dfdd0001ea9933,,1969475,144,,evan-feature22,full_rf_b,,0
113,28796,145,,,,1,1,1.0,0.0,0.0,1.0,,0.0-142.0,,0.0,631.0,1.0,0.521848997,0.0,0.735801074,0.0,0.6691348460000001,0.0,0.45259351600000003,True,,5a9c1988f6dfdd0001ea9933,,1979936,145,,evan-feature22,full_rf_b,,1
114,28797,146,,,,1,1,1.0,1.0,-1.0,0.0,,0.0-143.0,,-1.0,949.0,1.0,0.49565621299999996,1.0,0.742400847,0.0,0.661512553,0.0,0.483110831,True,,5a9c1988f6dfdd0001ea9933,,1990768,146,,evan-feature22,full_rf_b,,0
115,28798,147,,,,2,2,0.0,1.0,-1.0,0.0,,0.0-144.0,,0.0,837.0,0.0,0.521564361,1.0,0.731078632,0.0,0.6774886809999999,1.0,0.483263956,True,,5a9c1988f6dfdd0001ea9933,,2001453,147,,evan-feature22,full_rf_b,,1
116,28799,148,,,,2,2,0.0,1.0,-1.0,0.0,,0.0-145.0,,0.0,679.0,0.0,0.558893102,1.0,0.719810023,0.0,0.67461031,1.0,0.499349834,True,,5a9c1988f6dfdd0001ea9933,,2012006,148,,evan-feature22,full_rf_b,,0
117,28800,149,,,,2,2,0.0,0.0,-1.0,0.0,,0.0-146.0,,0.0,835.0,1.0,0.611031046,1.0,0.75,0.0,0.688072995,0.0,0.5321422729999999,True,,5a9c1988f6dfdd0001ea9933,,2022702,149,,evan-feature22,full_rf_b,,0
118,28801,150,,,,1,1,0.0,1.0,0.0,1.0,,0.0-147.0,,1.0,737.0,0.0,0.633223941,1.0,0.713567728,1.0,0.75,0.0,0.48185314700000004,True,,5a9c1988f6dfdd0001ea9933,,2033270,150,,evan-feature22,full_rf_b,,1
119,28802,151,,,,2,2,1.0,0.0,-1.0,0.0,,0.0-148.0,,-1.0,1342.0,1.0,0.664001694,1.0,0.705509768,1.0,0.75,0.0,0.500211065,True,,5a9c1988f6dfdd0001ea9933,,2044455,151,,evan-feature22,full_rf_b,,1
120,28803,152,,,,1,1,0.0,1.0,-1.0,0.0,,0.0-149.0,,0.0,489.0,0.0,0.664001694,1.0,0.705509768,1.0,0.75,1.0,0.500211065,True,,5a9c1988f6dfdd0001ea9933,,2054768,152,,evan-feature22,full_rf_b,,1
121,28804,153,,,,1,1,1.0,0.0,-1.0,0.0,,0.0-150.0,,-1.0,885.0,1.0,0.696508041,0.0,0.71066027,0.0,0.717028709,0.0,0.49792991,True,,5a9c1988f6dfdd0001ea9933,,2065493,153,,evan-feature22,full_rf_b,,0
122,28805,154,,,,1,1,1.0,1.0,0.0,1.0,,0.0-151.0,,1.0,1065.0,1.0,0.699883272,1.0,0.75,0.0,0.713543895,0.0,0.496962643,True,,5a9c1988f6dfdd0001ea9933,,2076437,154,,evan-feature22,full_rf_b,,0
123,28806,155,,,,1,1,0.0,1.0,0.0,1.0,,0.0-152.0,,1.0,680.0,0.0,0.741163419,1.0,0.75,0.0,0.64691024,0.0,0.513858197,True,,5a9c1988f6dfdd0001ea9933,,2086993,155,,evan-feature22,full_rf_b,,0
124,28807,156,,,,1,1,1.0,1.0,0.0,1.0,,0.0-153.0,,1.0,598.0,1.0,0.75,1.0,0.70816558,1.0,0.594499079,1.0,0.48502124,True,,5a9c1988f6dfdd0001ea9933,,2097475,156,,evan-feature22,full_rf_b,,0
125,28808,157,,,,2,2,1.0,0.0,-1.0,0.0,,0.0-154.0,,-1.0,1245.0,1.0,0.75,1.0,0.721848901,1.0,0.62197249,0.0,0.48263586399999997,True,,5a9c1988f6dfdd0001ea9933,,2108595,157,,evan-feature22,full_rf_b,,1
126,28809,158,,,,1,1,1.0,1.0,-1.0,0.0,,0.0-155.0,,-1.0,585.0,1.0,0.75,1.0,0.74813071,0.0,0.584357161,1.0,0.411477782,True,,5a9c1988f6dfdd0001ea9933,,2119030,158,,evan-feature22,full_rf_b,,1
127,28810,159,,,,1,1,1.0,1.0,-1.0,0.0,,0.0-156.0,,-1.0,670.0,1.0,0.75,1.0,0.75,1.0,0.52287236,0.0,0.488290656,True,,5a9c1988f6dfdd0001ea9933,,2129547,159,,evan-feature22,full_rf_b,,0
128,28811,160,,,,1,1,0.0,1.0,-1.0,0.0,,0.0-157.0,,0.0,1576.0,0.0,0.75,1.0,0.75,1.0,0.544321581,0.0,0.53143059,True,,5a9c1988f6dfdd0001ea9933,,2140952,160,,evan-feature22,full_rf_b,,0
129,28812,161,,,,1,1,1.0,1.0,-1.0,0.0,,0.0-158.0,,-1.0,752.0,1.0,0.726754564,1.0,0.75,1.0,0.5129306370000001,0.0,0.530592445,True,,5a9c1988f6dfdd0001ea9933,,2151538,161,,evan-feature22,full_rf_b,,0
130,28813,162,,,,1,1,1.0,1.0,0.0,1.0,,0.0-159.0,,1.0,855.0,1.0,0.75,1.0,0.7392590729999999,0.0,0.479875835,0.0,0.547007051,True,,5a9c1988f6dfdd0001ea9933,,2162229,162,,evan-feature22,full_rf_b,,0
131,28814,163,,,,1,1,1.0,1.0,0.0,1.0,,0.0-160.0,,1.0,996.0,1.0,0.75,1.0,0.7393376979999999,1.0,0.546045419,0.0,0.541267353,True,,5a9c1988f6dfdd0001ea9933,,2173058,163,,evan-feature22,full_rf_b,,0
132,28815,164,,,,2,2,0.0,0.0,-1.0,0.0,,0.0-161.0,,0.0,1867.0,0.0,0.75,0.0,0.75,0.0,0.485725895,0.0,0.527625395,True,,5a9c1988f6dfdd0001ea9933,,2184783,164,,evan-feature22,full_rf_b,,1
133,28816,165,,,,1,1,1.0,0.0,0.0,1.0,,0.0-162.0,,0.0,725.0,1.0,0.75,0.0,0.725087974,1.0,0.488603595,1.0,0.504019206,True,,5a9c1988f6dfdd0001ea9933,,2195383,165,,evan-feature22,full_rf_b,,1
134,28817,166,,,,1,1,1.0,1.0,-1.0,0.0,,0.0-163.0,,-1.0,1266.0,1.0,0.745504295,1.0,0.75,1.0,0.452379914,0.0,0.50131194,True,,5a9c1988f6dfdd0001ea9933,,2206496,166,,evan-feature22,full_rf_b,,0
135,28818,167,,,,1,1,1.0,1.0,0.0,1.0,,0.0-164.0,,1.0,751.0,1.0,0.728513874,1.0,0.75,0.0,0.44125567200000004,1.0,0.531454591,True,,5a9c1988f6dfdd0001ea9933,,2217117,167,,evan-feature22,full_rf_b,,0
136,28819,168,,,,2,2,1.0,0.0,-1.0,0.0,,0.0-165.0,,-1.0,1682.0,1.0,0.73790804,1.0,0.75,1.0,0.413036656,0.0,0.524619035,True,,5a9c1988f6dfdd0001ea9933,,2228638,168,,evan-feature22,full_rf_b,,1
137,28820,169,,,,1,1,0.0,0.0,-1.0,0.0,,0.0-166.0,,0.0,794.0,0.0,0.7080961309999999,0.0,0.708666865,0.0,0.431915581,0.0,0.481819489,True,,5a9c1988f6dfdd0001ea9933,,2239262,169,,evan-feature22,full_rf_b,,1
138,28821,170,,,,1,1,0.0,1.0,-1.0,0.0,,0.0-167.0,,0.0,733.0,0.0,0.721378003,1.0,0.71605913,0.0,0.36642387,1.0,0.5036739929999999,True,,5a9c1988f6dfdd0001ea9933,,2249850,170,,evan-feature22,full_rf_b,,0
139,28822,171,,,,1,1,0.0,0.0,0.0,1.0,,0.0-168.0,,0.0,524.0,0.0,0.7340618959999999,0.0,0.699323252,0.0,0.35298046299999997,0.0,0.511241692,True,,5a9c1988f6dfdd0001ea9933,,2260218,171,,evan-feature22,full_rf_b,,0
140,28823,172,,,,1,1,1.0,0.0,0.0,1.0,,0.0-169.0,,0.0,463.0,1.0,0.75,0.0,0.70412698,0.0,0.380734814,1.0,0.529580116,True,,5a9c1988f6dfdd0001ea9933,,2270539,172,,evan-feature22,full_rf_b,,0
141,28824,173,,,,1,1,1.0,1.0,0.0,1.0,,0.0-170.0,,1.0,543.0,1.0,0.7436654909999999,1.0,0.711182751,1.0,0.41125331,0.0,0.49554405,True,,5a9c1988f6dfdd0001ea9933,,2280923,173,,evan-feature22,full_rf_b,,0
142,28825,174,,,,1,1,1.0,0.0,-1.0,0.0,,0.0-171.0,,-1.0,540.0,1.0,0.731607915,0.0,0.651774583,0.0,0.35688023,1.0,0.45194491600000003,True,,5a9c1988f6dfdd0001ea9933,,2291297,174,,evan-feature22,full_rf_b,,0
143,28826,175,,,,1,1,1.0,1.0,0.0,1.0,,0.0-172.0,,1.0,770.0,1.0,0.75,1.0,0.75,1.0,0.283145374,1.0,0.528608005,True,,5a9c1988f6dfdd0001ea9933,,2301900,175,,evan-feature22,full_rf_b,,0
144,28827,176,,,,1,1,1.0,0.0,-1.0,0.0,,0.0-173.0,,-1.0,1488.0,1.0,0.7491416890000001,0.0,0.7423785959999999,0.0,0.29135870399999997,1.0,0.498888318,True,,5a9c1988f6dfdd0001ea9933,,2313248,176,,evan-feature22,full_rf_b,,0
145,28828,177,,,,1,1,1.0,0.0,0.0,1.0,,0.0-174.0,,0.0,872.0,1.0,0.708569387,0.0,0.717682277,0.0,0.294421699,0.0,0.493838163,True,,5a9c1988f6dfdd0001ea9933,,2323936,177,,evan-feature22,full_rf_b,,0
146,28829,178,,,,1,1,1.0,1.0,-1.0,0.0,,0.0-175.0,,-1.0,1677.0,1.0,0.75,1.0,0.7383382159999999,1.0,0.356098707,0.0,0.442533405,True,,5a9c1988f6dfdd0001ea9933,,2335477,178,,evan-feature22,full_rf_b,,0
147,28830,179,,,,2,2,0.0,0.0,-1.0,0.0,,0.0-176.0,,0.0,1431.0,1.0,0.744527075,1.0,0.75,0.0,0.334127506,0.0,0.393165805,True,,5a9c1988f6dfdd0001ea9933,,2346776,179,,evan-feature22,full_rf_b,,1
148,28831,180,,,,1,1,1.0,1.0,-1.0,0.0,,0.0-177.0,,-1.0,513.0,1.0,0.75,1.0,0.75,0.0,0.33571021799999995,0.0,0.350393962,True,,5a9c1988f6dfdd0001ea9933,,2357135,180,,evan-feature22,full_rf_b,,1
149,28832,181,,,,1,1,0.0,1.0,0.0,1.0,,0.0-178.0,,1.0,734.0,0.0,0.75,1.0,0.75,1.0,0.313628297,1.0,0.36349657399999996,True,,5a9c1988f6dfdd0001ea9933,,2367719,181,,evan-feature22,full_rf_b,,0
150,28833,182,,,,2,2,0.0,1.0,-1.0,0.0,,0.0-179.0,,0.0,1494.0,0.0,0.75,0.0,0.734284182,0.0,0.262667667,1.0,0.380199119,True,,5a9c1988f6dfdd0001ea9933,,2379078,182,,evan-feature22,full_rf_b,,1
151,28834,183,,,,1,1,1.0,1.0,-1.0,0.0,,0.0-180.0,,-1.0,893.0,1.0,0.75,1.0,0.75,0.0,0.25,0.0,0.394494013,True,,5a9c1988f6dfdd0001ea9933,,2389836,183,,evan-feature22,full_rf_b,,1
152,28835,184,,,,1,1,1.0,1.0,-1.0,0.0,,0.0-181.0,,-1.0,1348.0,1.0,0.722298145,1.0,0.7357822340000001,0.0,0.25,1.0,0.319142121,True,,5a9c1988f6dfdd0001ea9933,,2401010,184,,evan-feature22,full_rf_b,,0
153,28836,185,,,,2,2,0.0,0.0,-1.0,0.0,,0.0-182.0,,0.0,852.0,0.0,0.73149275,1.0,0.724276446,0.0,0.305856907,0.0,0.281315057,True,,5a9c1988f6dfdd0001ea9933,,2411698,185,,evan-feature22,full_rf_b,,1
154,28837,186,,,,2,2,1.0,1.0,-1.0,0.0,,0.0-183.0,,-1.0,947.0,0.0,0.7458732690000001,1.0,0.7336382459999999,1.0,0.272571964,1.0,0.266021999,True,,5a9c1988f6dfdd0001ea9933,,2422481,186,,evan-feature22,full_rf_b,,0
155,28838,187,,,,1,1,0.0,1.0,0.0,1.0,,0.0-184.0,,1.0,473.0,0.0,0.705579037,1.0,0.720778292,1.0,0.320238144,0.0,0.30971744,True,,5a9c1988f6dfdd0001ea9933,,2432771,187,,evan-feature22,full_rf_b,,1
156,28839,188,,,,1,1,0.0,1.0,0.0,1.0,,0.0-185.0,,1.0,687.0,0.0,0.700425648,1.0,0.7198784009999999,1.0,0.272590393,1.0,0.304182931,True,,5a9c1988f6dfdd0001ea9933,,2443304,188,,evan-feature22,full_rf_b,,0
157,28840,189,,,,1,1,1.0,0.0,0.0,1.0,,0.0-186.0,,0.0,894.0,1.0,0.735590785,0.0,0.722714973,0.0,0.25,1.0,0.323421091,True,,5a9c1988f6dfdd0001ea9933,,2454050,189,,evan-feature22,full_rf_b,,0
158,28841,190,,,,1,1,1.0,1.0,0.0,1.0,,0.0-187.0,,1.0,647.0,1.0,0.724807662,1.0,0.63146213,0.0,0.36836492600000004,0.0,0.34592153299999995,True,,5a9c1988f6dfdd0001ea9933,,2464515,190,,evan-feature22,full_rf_b,,0
159,28842,191,,,,1,1,0.0,1.0,-1.0,0.0,,0.0-188.0,,0.0,1067.0,0.0,0.7352796909999999,1.0,0.555111392,0.0,0.36003922,0.0,0.31433779999999995,True,,5a9c1988f6dfdd0001ea9933,,2475404,191,,evan-feature22,full_rf_b,,0
160,28843,192,notice,,,,,,,,,,0.0-189.0,"{""Q0"":""I felt more black on the first""}",,32960.0,,,,,,,,,True,,5a9c1988f6dfdd0001ea9933,,2508368,192,Q,survey-text,full_rf_b,,1
161,28844,193,track1,,[1],,,,,,,,0.0-190.0,"{""Q0"":""no""}",,6692.0,,,,,,,,,True,,5a9c1988f6dfdd0001ea9933,,2515066,193,Q,evan-quiz,full_rf_b,,1
162,28845,194,track2,,[0],,,,,,,,0.0-191.0,"{""Q0"":""yes""}",,12340.0,,,,,,,,,True,,5a9c1988f6dfdd0001ea9933,,2527412,194,Q,evan-quiz,full_rf_b,,1
163,28846,195,strat,,,,,,,,,,0.0-192.0,"{""Q0"":""I tried to check where the most positive numbers were and if I could out think it but didn't always work.""}",,80830.0,,,,,,,,,True,,5a9c1988f6dfdd0001ea9933,,2608248,195,Q,survey-text,full_rf_b,,1
