,index,Unnamed: 0,Q_name,button_pressed,choice_idxs,chosen_pos,chosen_state,chosen_state_f_1_outcome,chosen_state_f_2_outcome,f_1_reward,f_2_reward,incor_questions,internal_node_id,responses,reward_received,rt,s_1_f_1_outcome,s_1_f_1_prob,s_1_f_2_outcome,s_1_f_2_prob,s_2_f_1_outcome,s_2_f_1_prob,s_2_f_2_outcome,s_2_f_2_prob,safe_first,stimulus,subjectID,success,time_elapsed,trial_index,trial_num,trial_type,version,view_history,switching
0,30506,30,,,,1,1,1.0,1.0,0.0,1.0,,0.0-27.0,,1.0,1557.87,1.0,0.6,1.0,0.6,1.0,0.4,1.0,0.4,True,,5f10c8dee777933f01f3d3d6,,581899,30,,evan-feature22,full_rf_b,,0
1,30507,31,,,,1,1,1.0,0.0,0.0,1.0,,0.0-28.0,,0.0,2427.12,1.0,0.608053294,0.0,0.63424552,0.0,0.397152172,0.0,0.347069101,True,,5f10c8dee777933f01f3d3d6,,594162,31,,evan-feature22,full_rf_b,,0
2,30508,32,,,,1,1,0.0,1.0,0.0,1.0,,0.0-29.0,,1.0,1579.785,0.0,0.642237155,1.0,0.648566321,0.0,0.389407674,0.0,0.285525717,True,,5f10c8dee777933f01f3d3d6,,605577,32,,evan-feature22,full_rf_b,,0
3,30509,33,,,,1,1,0.0,0.0,0.0,1.0,,0.0-30.0,,0.0,2115.31,0.0,0.661086576,0.0,0.630492543,0.0,0.399058924,1.0,0.25,True,,5f10c8dee777933f01f3d3d6,,617531,33,,evan-feature22,full_rf_b,,0
4,30510,34,,,,1,1,1.0,1.0,0.0,1.0,,0.0-31.0,,1.0,2325.315,1.0,0.631324137,1.0,0.6269842929999999,0.0,0.38734784299999997,0.0,0.25,True,,5f10c8dee777933f01f3d3d6,,629693,34,,evan-feature22,full_rf_b,,0
5,30511,35,,,,2,2,1.0,0.0,0.0,1.0,,0.0-32.0,,0.0,671.16,1.0,0.6381991370000001,0.0,0.68987999,1.0,0.384107265,0.0,0.271332943,True,,5f10c8dee777933f01f3d3d6,,640161,35,,evan-feature22,full_rf_b,,1
6,30512,36,,,,1,1,0.0,0.0,0.0,1.0,,0.0-33.0,,0.0,1987.165,0.0,0.66034901,0.0,0.742641349,0.0,0.360225629,0.0,0.25,True,,5f10c8dee777933f01f3d3d6,,651982,36,,evan-feature22,full_rf_b,,1
7,30513,37,,,,1,1,0.0,1.0,-1.0,0.0,,0.0-34.0,,0.0,1703.17,0.0,0.638612418,1.0,0.75,1.0,0.367273939,0.0,0.25,True,,5f10c8dee777933f01f3d3d6,,663530,37,,evan-feature22,full_rf_b,,0
8,30514,38,,,,1,1,1.0,1.0,0.0,1.0,,0.0-35.0,,1.0,1971.92,1.0,0.624340629,1.0,0.75,1.0,0.425829545,0.0,0.25,True,,5f10c8dee777933f01f3d3d6,,675348,38,,evan-feature22,full_rf_b,,0
9,30515,39,,,,1,1,0.0,1.0,0.0,1.0,,0.0-36.0,,1.0,1692.565,0.0,0.621999804,1.0,0.75,0.0,0.368609357,0.0,0.25,True,,5f10c8dee777933f01f3d3d6,,686860,39,,evan-feature22,full_rf_b,,0
10,30516,40,,,,1,1,1.0,0.0,-1.0,0.0,,0.0-37.0,,-1.0,1917.805,1.0,0.62666403,0.0,0.75,0.0,0.311151498,0.0,0.25,True,,5f10c8dee777933f01f3d3d6,,698609,40,,evan-feature22,full_rf_b,,0
11,30517,41,,,,2,2,0.0,1.0,-1.0,0.0,,0.0-38.0,,0.0,1529.325,1.0,0.6819650009999999,0.0,0.75,0.0,0.310763048,1.0,0.25,True,,5f10c8dee777933f01f3d3d6,,709965,41,,evan-feature22,full_rf_b,,1
12,30518,42,,,,1,1,1.0,0.0,0.0,1.0,,0.0-39.0,,0.0,1881.1,1.0,0.740626951,0.0,0.75,1.0,0.25,0.0,0.25,True,,5f10c8dee777933f01f3d3d6,,721648,42,,evan-feature22,full_rf_b,,1
13,30519,43,,,,2,2,0.0,0.0,0.0,1.0,,0.0-40.0,,0.0,1237.995,1.0,0.739599242,1.0,0.742034978,0.0,0.25397114600000004,0.0,0.25,True,,5f10c8dee777933f01f3d3d6,,732731,43,,evan-feature22,full_rf_b,,1
14,30520,44,,,,1,1,0.0,1.0,0.0,1.0,,0.0-41.0,,1.0,1963.12,0.0,0.732341315,1.0,0.72735643,0.0,0.25,1.0,0.25,True,,5f10c8dee777933f01f3d3d6,,744532,44,,evan-feature22,full_rf_b,,1
15,30521,45,,,,1,1,1.0,0.0,0.0,1.0,,0.0-42.0,,0.0,1235.92,1.0,0.7062287770000001,0.0,0.75,0.0,0.29002151,0.0,0.288256649,True,,5f10c8dee777933f01f3d3d6,,755615,45,,evan-feature22,full_rf_b,,0
16,30522,46,,,,1,1,0.0,1.0,-1.0,0.0,,0.0-43.0,,0.0,1804.43,0.0,0.7086029209999999,1.0,0.75,0.0,0.274129113,0.0,0.262851608,True,,5f10c8dee777933f01f3d3d6,,767248,46,,evan-feature22,full_rf_b,,0
17,30523,47,,,,1,1,1.0,1.0,0.0,1.0,,0.0-44.0,,1.0,2694.755,1.0,0.669189651,1.0,0.727614338,0.0,0.298444036,0.0,0.296944518,True,,5f10c8dee777933f01f3d3d6,,779799,47,,evan-feature22,full_rf_b,,0
18,30524,48,,,,1,1,1.0,1.0,-1.0,0.0,,0.0-45.0,,-1.0,2208.545,1.0,0.6819912929999999,1.0,0.7179434290000001,1.0,0.265003961,0.0,0.28157921199999997,True,,5f10c8dee777933f01f3d3d6,,791862,48,,evan-feature22,full_rf_b,,0
19,30525,49,,,,2,2,1.0,0.0,-1.0,0.0,,0.0-46.0,,-1.0,1142.31,1.0,0.665275002,1.0,0.723065271,1.0,0.260414971,0.0,0.30973870000000003,True,,5f10c8dee777933f01f3d3d6,,802846,49,,evan-feature22,full_rf_b,,1
20,30526,50,,,,1,1,1.0,1.0,0.0,1.0,,0.0-47.0,,1.0,807.3,1.0,0.6660593260000001,1.0,0.728032907,0.0,0.30922817,0.0,0.338778608,True,,5f10c8dee777933f01f3d3d6,,813481,50,,evan-feature22,full_rf_b,,1
21,30527,51,,,,1,1,0.0,1.0,0.0,1.0,,0.0-48.0,,1.0,1285.845,0.0,0.702068785,1.0,0.6528750879999999,0.0,0.287329608,0.0,0.35789613200000003,True,,5f10c8dee777933f01f3d3d6,,824627,51,,evan-feature22,full_rf_b,,0
22,30528,52,,,,1,1,1.0,0.0,0.0,1.0,,0.0-49.0,,0.0,1304.37,1.0,0.651939787,0.0,0.636725589,0.0,0.284834488,1.0,0.358563756,True,,5f10c8dee777933f01f3d3d6,,835782,52,,evan-feature22,full_rf_b,,0
23,30529,53,,,,1,1,0.0,1.0,0.0,1.0,,0.0-50.0,,1.0,1787.055,0.0,0.67573929,1.0,0.612550049,0.0,0.37130387600000003,1.0,0.383542402,True,,5f10c8dee777933f01f3d3d6,,847389,53,,evan-feature22,full_rf_b,,0
24,30530,54,,,,1,1,0.0,1.0,0.0,1.0,,0.0-51.0,,1.0,1224.335,0.0,0.620753801,1.0,0.60513644,0.0,0.385529434,1.0,0.340361743,True,,5f10c8dee777933f01f3d3d6,,858432,54,,evan-feature22,full_rf_b,,0
25,30531,55,,,,1,1,1.0,0.0,-1.0,0.0,,0.0-52.0,,-1.0,1135.86,1.0,0.673564893,0.0,0.672437924,0.0,0.292955382,0.0,0.337633795,True,,5f10c8dee777933f01f3d3d6,,869394,55,,evan-feature22,full_rf_b,,0
26,30532,56,,,,1,1,0.0,1.0,0.0,1.0,,0.0-53.0,,1.0,724.5,0.0,0.6749427,1.0,0.724197502,0.0,0.32391132100000003,0.0,0.350995264,True,,5f10c8dee777933f01f3d3d6,,879981,56,,evan-feature22,full_rf_b,,0
27,30533,57,,,,1,1,1.0,1.0,0.0,1.0,,0.0-54.0,,1.0,1220.115,1.0,0.6940159379999999,1.0,0.75,1.0,0.31710554399999996,1.0,0.413450341,True,,5f10c8dee777933f01f3d3d6,,891046,57,,evan-feature22,full_rf_b,,0
28,30534,58,,,,1,1,1.0,1.0,0.0,1.0,,0.0-55.0,,1.0,847.09,1.0,0.6916018270000001,1.0,0.69001187,0.0,0.261817804,1.0,0.40038635,True,,5f10c8dee777933f01f3d3d6,,901732,58,,evan-feature22,full_rf_b,,0
29,30535,59,,,,1,1,0.0,1.0,0.0,1.0,,0.0-56.0,,1.0,1460.14,0.0,0.641061544,1.0,0.71337992,1.0,0.277296461,0.0,0.47372791700000005,True,,5f10c8dee777933f01f3d3d6,,913032,59,,evan-feature22,full_rf_b,,0
30,30536,60,,,,1,1,1.0,1.0,0.0,1.0,,0.0-57.0,,1.0,1354.92,1.0,0.6082438520000001,1.0,0.708471106,1.0,0.28745137,0.0,0.564174476,True,,5f10c8dee777933f01f3d3d6,,924213,60,,evan-feature22,full_rf_b,,0
31,30537,61,,,,2,2,0.0,0.0,-1.0,0.0,,0.0-58.0,,0.0,1320.47,0.0,0.6051112120000001,1.0,0.7118147229999999,0.0,0.272390611,0.0,0.5595149939999999,True,,5f10c8dee777933f01f3d3d6,,935365,61,,evan-feature22,full_rf_b,,1
32,30538,62,,,,1,1,1.0,1.0,-1.0,0.0,,0.0-59.0,,-1.0,1690.5,1.0,0.582420852,1.0,0.635867583,0.0,0.31089574,1.0,0.5227206520000001,True,,5f10c8dee777933f01f3d3d6,,946898,62,,evan-feature22,full_rf_b,,1
33,30539,63,,,,2,2,1.0,1.0,-1.0,0.0,,0.0-60.0,,-1.0,860.025,1.0,0.623195575,1.0,0.655026044,1.0,0.25,1.0,0.560387538,True,,5f10c8dee777933f01f3d3d6,,957584,63,,evan-feature22,full_rf_b,,1
34,30540,64,,,,1,1,1.0,0.0,0.0,1.0,,0.0-61.0,,0.0,580.735,1.0,0.601889598,0.0,0.678198724,1.0,0.25,0.0,0.559922936,True,,5f10c8dee777933f01f3d3d6,,967999,64,,evan-feature22,full_rf_b,,1
35,30541,65,,,,1,1,1.0,1.0,-1.0,0.0,,0.0-62.0,,-1.0,728.745,1.0,0.601259914,1.0,0.704681482,0.0,0.33908969299999997,1.0,0.505003715,True,,5f10c8dee777933f01f3d3d6,,978568,65,,evan-feature22,full_rf_b,,0
36,30542,66,,,,2,2,1.0,0.0,-1.0,0.0,,0.0-63.0,,-1.0,2330.0,1.0,0.59645454,0.0,0.710437172,1.0,0.327441879,0.0,0.391749613,True,,5f10c8dee777933f01f3d3d6,,990739,66,,evan-feature22,full_rf_b,,1
37,30543,67,,,,1,1,1.0,1.0,0.0,1.0,,0.0-64.0,,1.0,1451.78,1.0,0.529473,1.0,0.636758527,0.0,0.301338063,0.0,0.365661481,True,,5f10c8dee777933f01f3d3d6,,1001999,67,,evan-feature22,full_rf_b,,1
38,30544,68,,,,1,1,0.0,0.0,-1.0,0.0,,0.0-65.0,,0.0,2205.755,0.0,0.541657162,0.0,0.634541962,1.0,0.343535366,0.0,0.371763742,True,,5f10c8dee777933f01f3d3d6,,1014047,68,,evan-feature22,full_rf_b,,0
39,30545,69,,,,1,1,0.0,1.0,-1.0,0.0,,0.0-66.0,,0.0,1840.45,0.0,0.5707533260000001,1.0,0.589121171,1.0,0.326428396,1.0,0.43961622899999997,True,,5f10c8dee777933f01f3d3d6,,1025714,69,,evan-feature22,full_rf_b,,0
40,30546,70,,,,1,1,1.0,1.0,0.0,1.0,,0.0-67.0,,1.0,2436.34,1.0,0.5707533260000001,1.0,0.589121171,0.0,0.326428396,1.0,0.43961622899999997,True,,5f10c8dee777933f01f3d3d6,,1037985,70,,evan-feature22,full_rf_b,,0
41,30547,71,,,,1,1,1.0,1.0,0.0,1.0,,0.0-68.0,,1.0,1977.645,1.0,0.506271295,1.0,0.641775594,1.0,0.37149690700000004,1.0,0.404330166,True,,5f10c8dee777933f01f3d3d6,,1049776,71,,evan-feature22,full_rf_b,,0
42,30548,72,,,,1,1,0.0,0.0,-1.0,0.0,,0.0-69.0,,0.0,2475.435,0.0,0.455642565,0.0,0.623605825,0.0,0.358753011,0.0,0.346174041,True,,5f10c8dee777933f01f3d3d6,,1062062,72,,evan-feature22,full_rf_b,,0
43,30549,73,,,,2,2,1.0,0.0,0.0,1.0,,0.0-70.0,,0.0,2997.57,1.0,0.483677308,0.0,0.5904681070000001,1.0,0.402218411,0.0,0.35344697,True,,5f10c8dee777933f01f3d3d6,,1074899,73,,evan-feature22,full_rf_b,,1
44,30550,74,,,,1,1,1.0,1.0,-1.0,0.0,,0.0-71.0,,-1.0,2088.12,1.0,0.394210977,1.0,0.558925494,1.0,0.540052017,0.0,0.35182128700000004,True,,5f10c8dee777933f01f3d3d6,,1086830,74,,evan-feature22,full_rf_b,,1
45,30551,75,,,,1,1,1.0,0.0,0.0,1.0,,0.0-72.0,,0.0,1754.055,1.0,0.382300414,0.0,0.577670603,1.0,0.607608448,0.0,0.378261578,True,,5f10c8dee777933f01f3d3d6,,1098423,75,,evan-feature22,full_rf_b,,0
46,30552,76,,,,1,1,1.0,1.0,-1.0,0.0,,0.0-73.0,,-1.0,2040.02,1.0,0.357596762,1.0,0.5929076529999999,1.0,0.6579790010000001,0.0,0.401326777,True,,5f10c8dee777933f01f3d3d6,,1110299,76,,evan-feature22,full_rf_b,,0
47,30553,77,,,,1,1,1.0,0.0,0.0,1.0,,0.0-74.0,,0.0,2213.43,1.0,0.362033495,0.0,0.582308608,0.0,0.649195052,0.0,0.355158505,True,,5f10c8dee777933f01f3d3d6,,1122314,77,,evan-feature22,full_rf_b,,0
48,30554,78,,,,1,1,0.0,1.0,0.0,1.0,,0.0-75.0,,1.0,2115.185,0.0,0.369620635,1.0,0.669100864,1.0,0.706059111,0.0,0.362516241,True,,5f10c8dee777933f01f3d3d6,,1134267,78,,evan-feature22,full_rf_b,,0
49,30555,79,,,,1,1,1.0,0.0,0.0,1.0,,0.0-76.0,,0.0,1826.705,1.0,0.41477751399999996,0.0,0.7284416779999999,1.0,0.7182656940000001,0.0,0.36228040899999997,True,,5f10c8dee777933f01f3d3d6,,1145915,79,,evan-feature22,full_rf_b,,0
50,30556,80,,,,1,1,0.0,1.0,-1.0,0.0,,0.0-77.0,,0.0,2210.88,0.0,0.37675460299999997,1.0,0.703250285,1.0,0.75,1.0,0.461979164,True,,5f10c8dee777933f01f3d3d6,,1157980,80,,evan-feature22,full_rf_b,,0
51,30557,81,,,,1,1,0.0,1.0,-1.0,0.0,,0.0-78.0,,0.0,1521.88,0.0,0.398716075,1.0,0.6723864890000001,1.0,0.674153818,1.0,0.519029516,True,,5f10c8dee777933f01f3d3d6,,1169341,81,,evan-feature22,full_rf_b,,0
52,30558,82,,,,1,1,0.0,1.0,-1.0,0.0,,0.0-79.0,,0.0,2274.785,0.0,0.34677856700000004,1.0,0.69057175,1.0,0.6822438540000001,0.0,0.477292237,True,,5f10c8dee777933f01f3d3d6,,1181464,82,,evan-feature22,full_rf_b,,0
53,30559,83,,,,1,1,1.0,0.0,0.0,1.0,,0.0-80.0,,0.0,2048.57,1.0,0.28580469199999997,0.0,0.68408818,1.0,0.684207565,0.0,0.49780448299999996,True,,5f10c8dee777933f01f3d3d6,,1193363,83,,evan-feature22,full_rf_b,,0
54,30561,85,,,,1,1,0.0,1.0,0.0,1.0,,0.0-82.0,,1.0,1422.26,0.0,0.25,1.0,0.7405808970000001,0.0,0.679614108,0.0,0.436436964,True,,5f10c8dee777933f01f3d3d6,,1208280,85,,evan-feature22,full_rf_b,,0
55,30562,86,,,,1,1,1.0,1.0,0.0,1.0,,0.0-83.0,,1.0,745.155,1.0,0.29890393,1.0,0.730505706,0.0,0.7328203320000001,1.0,0.439256938,True,,5f10c8dee777933f01f3d3d6,,1218865,86,,evan-feature22,full_rf_b,,0
56,30563,87,,,,1,1,0.0,1.0,-1.0,0.0,,0.0-84.0,,0.0,2186.615,0.0,0.326762398,1.0,0.7148059609999999,1.0,0.75,1.0,0.44389608799999997,True,,5f10c8dee777933f01f3d3d6,,1230893,87,,evan-feature22,full_rf_b,,0
57,30564,88,,,,1,1,0.0,1.0,0.0,1.0,,0.0-85.0,,1.0,1666.28,0.0,0.295168515,1.0,0.739760854,1.0,0.719947008,0.0,0.35277284600000003,True,,5f10c8dee777933f01f3d3d6,,1242386,88,,evan-feature22,full_rf_b,,0
58,30565,89,,,,1,1,1.0,0.0,0.0,1.0,,0.0-86.0,,0.0,1272.15,1.0,0.25,0.0,0.70781482,0.0,0.75,0.0,0.286095925,True,,5f10c8dee777933f01f3d3d6,,1253512,89,,evan-feature22,full_rf_b,,0
59,30566,90,,,,1,1,0.0,1.0,0.0,1.0,,0.0-87.0,,1.0,1074.74,0.0,0.25638190899999996,1.0,0.704088163,1.0,0.75,0.0,0.26872601399999996,True,,5f10c8dee777933f01f3d3d6,,1264432,90,,evan-feature22,full_rf_b,,0
60,30567,91,,,,1,1,1.0,1.0,-1.0,0.0,,0.0-88.0,,-1.0,1824.77,1.0,0.271581126,1.0,0.669760107,1.0,0.733896663,1.0,0.273244572,True,,5f10c8dee777933f01f3d3d6,,1276096,91,,evan-feature22,full_rf_b,,0
61,30568,92,,,,2,2,1.0,0.0,0.0,1.0,,0.0-89.0,,0.0,2891.07,0.0,0.257144401,0.0,0.600575706,1.0,0.74488122,0.0,0.25,True,,5f10c8dee777933f01f3d3d6,,1288847,92,,evan-feature22,full_rf_b,,1
62,30569,93,,,,1,1,0.0,0.0,0.0,1.0,,0.0-90.0,,0.0,1025.25,0.0,0.25,0.0,0.616870026,1.0,0.723610234,1.0,0.25,True,,5f10c8dee777933f01f3d3d6,,1299693,93,,evan-feature22,full_rf_b,,1
63,30570,94,,,,2,2,0.0,1.0,-1.0,0.0,,0.0-91.0,,0.0,1363.88,0.0,0.25,1.0,0.583540187,0.0,0.7041042559999999,1.0,0.285961995,True,,5f10c8dee777933f01f3d3d6,,1310914,94,,evan-feature22,full_rf_b,,1
64,30571,95,,,,1,1,0.0,0.0,-1.0,0.0,,0.0-92.0,,0.0,1054.205,0.0,0.27254536,0.0,0.53875765,0.0,0.693783448,0.0,0.284961652,True,,5f10c8dee777933f01f3d3d6,,1321813,95,,evan-feature22,full_rf_b,,1
65,30572,96,,,,1,1,0.0,1.0,-1.0,0.0,,0.0-93.0,,0.0,574.945,0.0,0.25,1.0,0.548431252,0.0,0.734221895,1.0,0.279445214,True,,5f10c8dee777933f01f3d3d6,,1332221,96,,evan-feature22,full_rf_b,,0
66,30573,97,,,,1,1,0.0,1.0,0.0,1.0,,0.0-94.0,,1.0,870.93,0.0,0.258640684,1.0,0.545878066,1.0,0.725245965,1.0,0.31487537,True,,5f10c8dee777933f01f3d3d6,,1342906,97,,evan-feature22,full_rf_b,,0
67,30574,98,,,,1,1,0.0,1.0,0.0,1.0,,0.0-95.0,,1.0,763.625,0.0,0.251103711,1.0,0.5776290629999999,1.0,0.696320133,0.0,0.317831047,True,,5f10c8dee777933f01f3d3d6,,1353497,98,,evan-feature22,full_rf_b,,0
68,30575,99,,,,SLOW,SLOW,,,0.0,1.0,,0.0-96.0,,-3.0,,0.0,0.276630292,1.0,0.617329858,1.0,0.73838088,0.0,0.261471582,True,,5f10c8dee777933f01f3d3d6,,1359338,99,,evan-feature22,full_rf_b,,1
69,30576,100,,,,2,2,1.0,1.0,0.0,1.0,,0.0-97.0,,1.0,834.745,0.0,0.297716424,1.0,0.618863717,1.0,0.7402358259999999,1.0,0.262600834,True,,5f10c8dee777933f01f3d3d6,,1370013,100,,evan-feature22,full_rf_b,,1
70,30577,101,,,,1,1,1.0,1.0,-1.0,0.0,,0.0-98.0,,-1.0,1104.985,1.0,0.290935512,1.0,0.695370945,1.0,0.706570507,0.0,0.280030553,True,,5f10c8dee777933f01f3d3d6,,1380953,101,,evan-feature22,full_rf_b,,1
71,30578,102,,,,2,2,1.0,1.0,0.0,1.0,,0.0-99.0,,1.0,1385.165,0.0,0.25,1.0,0.6465277079999999,1.0,0.67766682,1.0,0.25,True,,5f10c8dee777933f01f3d3d6,,1392162,102,,evan-feature22,full_rf_b,,1
72,30579,103,,,,1,1,0.0,1.0,-1.0,0.0,,0.0-100.0,,0.0,1273.165,0.0,0.26463816,1.0,0.636100213,1.0,0.646048507,1.0,0.265607101,True,,5f10c8dee777933f01f3d3d6,,1403276,103,,evan-feature22,full_rf_b,,1
73,30580,104,,,,1,1,0.0,1.0,-1.0,0.0,,0.0-101.0,,0.0,1659.225,0.0,0.314340707,1.0,0.667795927,1.0,0.613630805,0.0,0.25,True,,5f10c8dee777933f01f3d3d6,,1414764,104,,evan-feature22,full_rf_b,,0
74,30581,105,,,,2,2,1.0,0.0,0.0,1.0,,0.0-102.0,,0.0,1165.83,0.0,0.28685784,1.0,0.6622549529999999,1.0,0.652154117,0.0,0.25,True,,5f10c8dee777933f01f3d3d6,,1425780,105,,evan-feature22,full_rf_b,,1
75,30582,106,,,,1,1,1.0,0.0,0.0,1.0,,0.0-103.0,,0.0,1715.105,1.0,0.304106554,0.0,0.631289538,1.0,0.707041942,0.0,0.29314237,True,,5f10c8dee777933f01f3d3d6,,1437347,106,,evan-feature22,full_rf_b,,1
76,30583,107,,,,1,1,0.0,0.0,0.0,1.0,,0.0-104.0,,0.0,1283.96,0.0,0.304806932,0.0,0.571167718,1.0,0.680472346,0.0,0.25,True,,5f10c8dee777933f01f3d3d6,,1448447,107,,evan-feature22,full_rf_b,,0
77,30584,108,,,,1,1,1.0,0.0,0.0,1.0,,0.0-105.0,,0.0,1463.775,1.0,0.37919861,0.0,0.5724849710000001,1.0,0.705638003,0.0,0.30179300600000003,True,,5f10c8dee777933f01f3d3d6,,1459765,108,,evan-feature22,full_rf_b,,0
78,30585,109,,,,1,1,0.0,0.0,0.0,1.0,,0.0-106.0,,0.0,1326.17,0.0,0.464277969,0.0,0.554034373,1.0,0.7372627340000001,0.0,0.264699741,True,,5f10c8dee777933f01f3d3d6,,1470931,109,,evan-feature22,full_rf_b,,0
79,30586,110,,,,1,1,0.0,1.0,0.0,1.0,,0.0-107.0,,1.0,1394.245,0.0,0.465104323,1.0,0.530793115,0.0,0.75,0.0,0.31683071,True,,5f10c8dee777933f01f3d3d6,,1482168,110,,evan-feature22,full_rf_b,,0
80,30587,111,,,,1,1,1.0,0.0,-1.0,0.0,,0.0-108.0,,-1.0,2824.88,1.0,0.465104323,0.0,0.530793115,0.0,0.75,0.0,0.31683071,True,,5f10c8dee777933f01f3d3d6,,1494830,111,,evan-feature22,full_rf_b,,0
81,30588,112,,,,1,1,1.0,1.0,-1.0,0.0,,0.0-109.0,,-1.0,2044.65,1.0,0.46833986,1.0,0.570249239,1.0,0.7244472590000001,0.0,0.364114163,True,,5f10c8dee777933f01f3d3d6,,1506732,112,,evan-feature22,full_rf_b,,0
82,30589,113,,,,2,2,0.0,1.0,-1.0,0.0,,0.0-110.0,,0.0,1278.455,0.0,0.445444024,1.0,0.649673355,0.0,0.6845441290000001,1.0,0.300660449,True,,5f10c8dee777933f01f3d3d6,,1517831,113,,evan-feature22,full_rf_b,,1
83,30590,114,,,,1,1,0.0,1.0,-1.0,0.0,,0.0-111.0,,0.0,1277.57,0.0,0.39909721299999995,1.0,0.6715179509999999,1.0,0.742310028,0.0,0.35496088299999995,True,,5f10c8dee777933f01f3d3d6,,1528943,114,,evan-feature22,full_rf_b,,1
84,30591,115,,,,1,1,0.0,0.0,0.0,1.0,,0.0-112.0,,0.0,1838.42,0.0,0.37956104799999996,0.0,0.694725302,1.0,0.7181651309999999,1.0,0.38726906299999997,True,,5f10c8dee777933f01f3d3d6,,1540614,115,,evan-feature22,full_rf_b,,0
85,30592,116,,,,1,1,1.0,1.0,0.0,1.0,,0.0-113.0,,1.0,2834.565,1.0,0.404995034,1.0,0.724375412,1.0,0.6910946859999999,0.0,0.387187347,True,,5f10c8dee777933f01f3d3d6,,1553281,116,,evan-feature22,full_rf_b,,0
86,30593,117,,,,1,1,0.0,1.0,-1.0,0.0,,0.0-114.0,,0.0,1949.525,0.0,0.461740803,1.0,0.75,1.0,0.75,0.0,0.34872038200000005,True,,5f10c8dee777933f01f3d3d6,,1565064,117,,evan-feature22,full_rf_b,,0
87,30594,118,,,,1,1,0.0,1.0,-1.0,0.0,,0.0-115.0,,0.0,2586.935,0.0,0.43821380600000004,1.0,0.738833273,1.0,0.728286963,0.0,0.399538128,True,,5f10c8dee777933f01f3d3d6,,1577481,118,,evan-feature22,full_rf_b,,0
88,30595,119,,,,2,2,0.0,1.0,0.0,1.0,,0.0-116.0,,1.0,2774.335,0.0,0.41709882,1.0,0.736666736,0.0,0.75,1.0,0.389095584,True,,5f10c8dee777933f01f3d3d6,,1590079,119,,evan-feature22,full_rf_b,,1
89,30596,120,,,,2,2,1.0,0.0,0.0,1.0,,0.0-117.0,,0.0,2940.38,1.0,0.39749009799999996,1.0,0.744320029,1.0,0.75,0.0,0.363848678,True,,5f10c8dee777933f01f3d3d6,,1602860,120,,evan-feature22,full_rf_b,,0
90,30597,121,,,,1,1,0.0,1.0,-1.0,0.0,,0.0-118.0,,0.0,3233.185,0.0,0.392653706,1.0,0.75,1.0,0.75,1.0,0.384386976,True,,5f10c8dee777933f01f3d3d6,,1615941,121,,evan-feature22,full_rf_b,,1
91,30598,122,,,,1,1,0.0,1.0,0.0,1.0,,0.0-119.0,,1.0,1601.035,0.0,0.31190902600000003,1.0,0.75,1.0,0.732413819,0.0,0.413082932,True,,5f10c8dee777933f01f3d3d6,,1627382,122,,evan-feature22,full_rf_b,,0
92,30599,123,,,,1,1,0.0,1.0,-1.0,0.0,,0.0-120.0,,0.0,2988.8,0.0,0.366917648,1.0,0.740073855,1.0,0.75,0.0,0.352861979,True,,5f10c8dee777933f01f3d3d6,,1640209,123,,evan-feature22,full_rf_b,,0
93,30600,124,,,,1,1,1.0,1.0,-1.0,0.0,,0.0-121.0,,-1.0,2151.095,1.0,0.3645172,1.0,0.721770713,1.0,0.75,0.0,0.404074511,True,,5f10c8dee777933f01f3d3d6,,1652175,124,,evan-feature22,full_rf_b,,0
94,30601,125,,,,2,2,1.0,1.0,-1.0,0.0,,0.0-122.0,,-1.0,1679.835,1.0,0.35205600299999995,0.0,0.68983859,1.0,0.739735447,1.0,0.366895945,True,,5f10c8dee777933f01f3d3d6,,1663698,125,,evan-feature22,full_rf_b,,1
95,30602,126,,,,1,1,0.0,1.0,-1.0,0.0,,0.0-123.0,,0.0,1758.57,0.0,0.40998722600000004,1.0,0.720859127,1.0,0.673854955,1.0,0.368528541,True,,5f10c8dee777933f01f3d3d6,,1675306,126,,evan-feature22,full_rf_b,,1
96,30603,127,,,,1,1,1.0,1.0,-1.0,0.0,,0.0-124.0,,-1.0,3245.14,1.0,0.353625316,1.0,0.75,1.0,0.695605473,0.0,0.38303674200000004,True,,5f10c8dee777933f01f3d3d6,,1688389,127,,evan-feature22,full_rf_b,,0
97,30604,128,,,,1,1,1.0,0.0,-1.0,0.0,,0.0-125.0,,-1.0,1479.345,1.0,0.359216989,0.0,0.75,1.0,0.6987915090000001,1.0,0.35169046200000004,True,,5f10c8dee777933f01f3d3d6,,1699677,128,,evan-feature22,full_rf_b,,0
98,30605,129,,,,2,2,1.0,1.0,-1.0,0.0,,0.0-126.0,,-1.0,1355.72,0.0,0.35834496899999996,1.0,0.75,1.0,0.707067742,1.0,0.416763636,True,,5f10c8dee777933f01f3d3d6,,1710845,129,,evan-feature22,full_rf_b,,1
99,30606,130,,,,1,1,1.0,1.0,0.0,1.0,,0.0-127.0,,1.0,1684.9,1.0,0.38741613799999997,1.0,0.7177369570000001,1.0,0.734902455,1.0,0.49438664299999996,True,,5f10c8dee777933f01f3d3d6,,1722381,130,,evan-feature22,full_rf_b,,1
100,30607,131,,,,1,1,0.0,1.0,-1.0,0.0,,0.0-128.0,,0.0,1423.045,0.0,0.405255252,1.0,0.7300466640000001,0.0,0.7027748070000001,0.0,0.504359668,True,,5f10c8dee777933f01f3d3d6,,1733615,131,,evan-feature22,full_rf_b,,0
101,30608,132,,,,1,1,0.0,0.0,-1.0,0.0,,0.0-129.0,,0.0,1845.735,0.0,0.40697073,0.0,0.7260142190000001,0.0,0.724461982,1.0,0.522779179,True,,5f10c8dee777933f01f3d3d6,,1745304,132,,evan-feature22,full_rf_b,,0
102,30609,133,,,,1,1,1.0,1.0,-1.0,0.0,,0.0-130.0,,-1.0,1315.25,1.0,0.43906215299999996,1.0,0.7252802340000001,1.0,0.719079934,0.0,0.5712990579999999,True,,5f10c8dee777933f01f3d3d6,,1756465,133,,evan-feature22,full_rf_b,,0
103,30610,134,,,,2,2,1.0,1.0,0.0,1.0,,0.0-131.0,,1.0,1773.485,0.0,0.4076705,1.0,0.73280499,1.0,0.681313127,1.0,0.523891346,True,,5f10c8dee777933f01f3d3d6,,1768077,134,,evan-feature22,full_rf_b,,1
104,30611,135,,,,1,1,0.0,1.0,0.0,1.0,,0.0-132.0,,1.0,2298.96,0.0,0.399102911,1.0,0.730498344,1.0,0.661080239,0.0,0.46742603,True,,5f10c8dee777933f01f3d3d6,,1780224,135,,evan-feature22,full_rf_b,,1
105,30612,136,,,,1,1,0.0,1.0,0.0,1.0,,0.0-133.0,,1.0,1389.58,0.0,0.356477282,1.0,0.712296395,1.0,0.641812684,0.0,0.44868414,True,,5f10c8dee777933f01f3d3d6,,1791431,136,,evan-feature22,full_rf_b,,0
106,30613,137,,,,2,2,1.0,0.0,-1.0,0.0,,0.0-134.0,,-1.0,1556.395,0.0,0.462760722,0.0,0.692349322,1.0,0.700947931,0.0,0.394680266,True,,5f10c8dee777933f01f3d3d6,,1802829,137,,evan-feature22,full_rf_b,,1
107,30614,138,,,,1,1,0.0,0.0,-1.0,0.0,,0.0-135.0,,0.0,2443.16,0.0,0.422306413,0.0,0.718375916,1.0,0.706340917,1.0,0.367787185,True,,5f10c8dee777933f01f3d3d6,,1815097,138,,evan-feature22,full_rf_b,,1
108,30616,140,,,,2,2,0.0,1.0,-1.0,0.0,,0.0-137.0,,0.0,2559.62,0.0,0.4582233,1.0,0.643834117,0.0,0.75,1.0,0.39615823299999997,True,,5f10c8dee777933f01f3d3d6,,1872530,140,,evan-feature22,full_rf_b,,1
109,30617,141,,,,1,1,1.0,0.0,-1.0,0.0,,0.0-138.0,,-1.0,1064.05,1.0,0.43813437899999996,0.0,0.651283804,1.0,0.729674191,0.0,0.37711048,True,,5f10c8dee777933f01f3d3d6,,1883465,141,,evan-feature22,full_rf_b,,1
110,30618,142,,,,2,2,1.0,0.0,-1.0,0.0,,0.0-139.0,,-1.0,1668.19,1.0,0.471199094,1.0,0.6470010979999999,1.0,0.715008097,0.0,0.410656191,True,,5f10c8dee777933f01f3d3d6,,1894947,142,,evan-feature22,full_rf_b,,1
111,30619,143,,,,2,2,1.0,0.0,-1.0,0.0,,0.0-140.0,,-1.0,2119.665,0.0,0.42486406,0.0,0.629771829,1.0,0.6550939960000001,0.0,0.459093873,True,,5f10c8dee777933f01f3d3d6,,1906893,143,,evan-feature22,full_rf_b,,0
112,30620,144,,,,1,1,1.0,0.0,-1.0,0.0,,0.0-141.0,,-1.0,1443.945,1.0,0.4803197,0.0,0.645842715,0.0,0.6421749920000001,0.0,0.443092151,True,,5f10c8dee777933f01f3d3d6,,1918160,144,,evan-feature22,full_rf_b,,1
113,30621,145,,,,1,1,1.0,1.0,0.0,1.0,,0.0-142.0,,1.0,1655.5,1.0,0.521848997,1.0,0.735801074,1.0,0.6691348460000001,1.0,0.45259351600000003,True,,5f10c8dee777933f01f3d3d6,,1929632,145,,evan-feature22,full_rf_b,,0
114,30622,146,,,,1,1,0.0,1.0,-1.0,0.0,,0.0-143.0,,0.0,2221.02,0.0,0.49565621299999996,1.0,0.742400847,1.0,0.661512553,1.0,0.483110831,True,,5f10c8dee777933f01f3d3d6,,1941698,146,,evan-feature22,full_rf_b,,0
115,30623,147,,,,1,1,0.0,1.0,-1.0,0.0,,0.0-144.0,,0.0,2161.72,0.0,0.521564361,1.0,0.731078632,1.0,0.6774886809999999,1.0,0.483263956,True,,5f10c8dee777933f01f3d3d6,,1953712,147,,evan-feature22,full_rf_b,,0
116,30624,148,,,,1,1,1.0,1.0,-1.0,0.0,,0.0-145.0,,-1.0,2590.905,1.0,0.558893102,1.0,0.719810023,1.0,0.67461031,1.0,0.499349834,True,,5f10c8dee777933f01f3d3d6,,1966160,148,,evan-feature22,full_rf_b,,0
117,30625,149,,,,2,2,0.0,0.0,-1.0,0.0,,0.0-146.0,,0.0,1607.135,1.0,0.611031046,1.0,0.75,0.0,0.688072995,0.0,0.5321422729999999,True,,5f10c8dee777933f01f3d3d6,,1977547,149,,evan-feature22,full_rf_b,,1
118,30626,150,,,,1,1,0.0,1.0,0.0,1.0,,0.0-147.0,,1.0,1791.33,0.0,0.633223941,1.0,0.713567728,1.0,0.75,1.0,0.48185314700000004,True,,5f10c8dee777933f01f3d3d6,,1989153,150,,evan-feature22,full_rf_b,,1
119,30627,151,,,,1,1,1.0,1.0,-1.0,0.0,,0.0-148.0,,-1.0,3335.555,1.0,0.664001694,1.0,0.705509768,1.0,0.75,0.0,0.500211065,True,,5f10c8dee777933f01f3d3d6,,2002329,151,,evan-feature22,full_rf_b,,0
120,30628,152,,,,2,2,1.0,0.0,-1.0,0.0,,0.0-149.0,,-1.0,2443.745,1.0,0.664001694,1.0,0.705509768,1.0,0.75,0.0,0.500211065,True,,5f10c8dee777933f01f3d3d6,,2014587,152,,evan-feature22,full_rf_b,,1
121,30629,153,,,,2,2,1.0,0.0,-1.0,0.0,,0.0-150.0,,-1.0,707.795,1.0,0.696508041,1.0,0.71066027,1.0,0.717028709,0.0,0.49792991,True,,5f10c8dee777933f01f3d3d6,,2025145,153,,evan-feature22,full_rf_b,,0
122,30630,154,,,,1,1,0.0,1.0,0.0,1.0,,0.0-151.0,,1.0,1943.91,0.0,0.699883272,1.0,0.75,1.0,0.713543895,0.0,0.496962643,True,,5f10c8dee777933f01f3d3d6,,2036925,154,,evan-feature22,full_rf_b,,1
123,30631,155,,,,1,1,0.0,1.0,0.0,1.0,,0.0-152.0,,1.0,896.28,0.0,0.741163419,1.0,0.75,1.0,0.64691024,1.0,0.513858197,True,,5f10c8dee777933f01f3d3d6,,2047656,155,,evan-feature22,full_rf_b,,0
124,30632,156,,,,1,1,1.0,1.0,0.0,1.0,,0.0-153.0,,1.0,1082.83,1.0,0.75,1.0,0.70816558,0.0,0.594499079,0.0,0.48502124,True,,5f10c8dee777933f01f3d3d6,,2058553,156,,evan-feature22,full_rf_b,,0
125,30633,157,,,,2,2,1.0,1.0,-1.0,0.0,,0.0-154.0,,-1.0,2383.655,0.0,0.75,1.0,0.721848901,1.0,0.62197249,1.0,0.48263586399999997,True,,5f10c8dee777933f01f3d3d6,,2070765,157,,evan-feature22,full_rf_b,,1
126,30634,158,,,,1,1,0.0,1.0,-1.0,0.0,,0.0-155.0,,0.0,581.235,0.0,0.75,1.0,0.74813071,0.0,0.584357161,0.0,0.411477782,True,,5f10c8dee777933f01f3d3d6,,2081181,158,,evan-feature22,full_rf_b,,1
127,30635,159,,,,1,1,1.0,0.0,-1.0,0.0,,0.0-156.0,,-1.0,1452.435,1.0,0.75,0.0,0.75,1.0,0.52287236,1.0,0.488290656,True,,5f10c8dee777933f01f3d3d6,,2092465,159,,evan-feature22,full_rf_b,,0
128,30636,160,,,,2,2,0.0,1.0,-1.0,0.0,,0.0-157.0,,0.0,2032.085,1.0,0.75,1.0,0.75,0.0,0.544321581,1.0,0.53143059,True,,5f10c8dee777933f01f3d3d6,,2104346,160,,evan-feature22,full_rf_b,,1
129,30637,161,,,,2,2,0.0,0.0,-1.0,0.0,,0.0-158.0,,0.0,1550.18,1.0,0.726754564,1.0,0.75,0.0,0.5129306370000001,0.0,0.530592445,True,,5f10c8dee777933f01f3d3d6,,2115739,161,,evan-feature22,full_rf_b,,0
130,30638,162,,,,1,1,1.0,1.0,0.0,1.0,,0.0-159.0,,1.0,1087.255,1.0,0.75,1.0,0.7392590729999999,1.0,0.479875835,1.0,0.547007051,True,,5f10c8dee777933f01f3d3d6,,2126647,162,,evan-feature22,full_rf_b,,1
131,30639,163,,,,1,1,1.0,1.0,0.0,1.0,,0.0-160.0,,1.0,657.845,1.0,0.75,1.0,0.7393376979999999,0.0,0.546045419,1.0,0.541267353,True,,5f10c8dee777933f01f3d3d6,,2137114,163,,evan-feature22,full_rf_b,,0
132,30640,164,,,,2,2,0.0,1.0,-1.0,0.0,,0.0-161.0,,0.0,1028.685,1.0,0.75,0.0,0.75,0.0,0.485725895,1.0,0.527625395,True,,5f10c8dee777933f01f3d3d6,,2147964,164,,evan-feature22,full_rf_b,,1
133,30641,165,,,,1,1,0.0,1.0,0.0,1.0,,0.0-162.0,,1.0,1119.11,0.0,0.75,1.0,0.725087974,1.0,0.488603595,1.0,0.504019206,True,,5f10c8dee777933f01f3d3d6,,2158914,165,,evan-feature22,full_rf_b,,1
134,30642,166,,,,2,2,1.0,0.0,-1.0,0.0,,0.0-163.0,,-1.0,1017.565,1.0,0.745504295,1.0,0.75,1.0,0.452379914,0.0,0.50131194,True,,5f10c8dee777933f01f3d3d6,,2169781,166,,evan-feature22,full_rf_b,,1
135,30643,167,,,,1,1,1.0,0.0,0.0,1.0,,0.0-164.0,,0.0,949.83,1.0,0.728513874,0.0,0.75,0.0,0.44125567200000004,0.0,0.531454591,True,,5f10c8dee777933f01f3d3d6,,2180564,167,,evan-feature22,full_rf_b,,1
136,30644,168,,,,1,1,0.0,1.0,-1.0,0.0,,0.0-165.0,,0.0,2126.105,0.0,0.73790804,1.0,0.75,0.0,0.413036656,0.0,0.524619035,True,,5f10c8dee777933f01f3d3d6,,2192525,168,,evan-feature22,full_rf_b,,0
137,30645,169,,,,1,1,0.0,1.0,-1.0,0.0,,0.0-166.0,,0.0,2423.675,0.0,0.7080961309999999,1.0,0.708666865,1.0,0.431915581,0.0,0.481819489,True,,5f10c8dee777933f01f3d3d6,,2204798,169,,evan-feature22,full_rf_b,,0
138,30646,170,,,,1,1,1.0,1.0,-1.0,0.0,,0.0-167.0,,-1.0,2614.825,1.0,0.721378003,1.0,0.71605913,1.0,0.36642387,0.0,0.5036739929999999,True,,5f10c8dee777933f01f3d3d6,,2217215,170,,evan-feature22,full_rf_b,,0
139,30647,171,,,,1,1,1.0,1.0,0.0,1.0,,0.0-168.0,,1.0,1404.01,1.0,0.7340618959999999,1.0,0.699323252,1.0,0.35298046299999997,1.0,0.511241692,True,,5f10c8dee777933f01f3d3d6,,2228465,171,,evan-feature22,full_rf_b,,0
140,30648,172,,,,1,1,1.0,1.0,0.0,1.0,,0.0-169.0,,1.0,883.345,1.0,0.75,1.0,0.70412698,1.0,0.380734814,0.0,0.529580116,True,,5f10c8dee777933f01f3d3d6,,2239199,172,,evan-feature22,full_rf_b,,0
141,30649,173,,,,1,1,1.0,1.0,0.0,1.0,,0.0-170.0,,1.0,2317.88,1.0,0.7436654909999999,1.0,0.711182751,1.0,0.41125331,1.0,0.49554405,True,,5f10c8dee777933f01f3d3d6,,2251363,173,,evan-feature22,full_rf_b,,0
142,30650,174,,,,2,2,0.0,0.0,-1.0,0.0,,0.0-171.0,,0.0,2839.56,1.0,0.731607915,1.0,0.651774583,0.0,0.35688023,0.0,0.45194491600000003,True,,5f10c8dee777933f01f3d3d6,,2264013,174,,evan-feature22,full_rf_b,,1
143,30651,175,,,,1,1,0.0,1.0,0.0,1.0,,0.0-172.0,,1.0,895.13,0.0,0.75,1.0,0.75,0.0,0.283145374,1.0,0.528608005,True,,5f10c8dee777933f01f3d3d6,,2274730,175,,evan-feature22,full_rf_b,,1
144,30652,176,,,,2,2,0.0,1.0,-1.0,0.0,,0.0-173.0,,0.0,1573.67,1.0,0.7491416890000001,0.0,0.7423785959999999,0.0,0.29135870399999997,1.0,0.498888318,True,,5f10c8dee777933f01f3d3d6,,2286130,176,,evan-feature22,full_rf_b,,1
145,30653,177,,,,1,1,1.0,1.0,0.0,1.0,,0.0-174.0,,1.0,1239.055,1.0,0.708569387,1.0,0.717682277,1.0,0.294421699,0.0,0.493838163,True,,5f10c8dee777933f01f3d3d6,,2297197,177,,evan-feature22,full_rf_b,,1
146,30654,178,,,,SLOW,SLOW,,,-1.0,0.0,,0.0-175.0,,-3.0,,1.0,0.75,1.0,0.7383382159999999,1.0,0.356098707,1.0,0.442533405,True,,5f10c8dee777933f01f3d3d6,,2303031,178,,evan-feature22,full_rf_b,,1
147,30655,179,,,,2,2,1.0,0.0,-1.0,0.0,,0.0-176.0,,-1.0,1278.23,1.0,0.744527075,1.0,0.75,1.0,0.334127506,0.0,0.393165805,True,,5f10c8dee777933f01f3d3d6,,2314127,179,,evan-feature22,full_rf_b,,1
148,30656,180,,,,1,1,0.0,0.0,-1.0,0.0,,0.0-177.0,,0.0,559.47,0.0,0.75,0.0,0.75,0.0,0.33571021799999995,0.0,0.350393962,True,,5f10c8dee777933f01f3d3d6,,2324490,180,,evan-feature22,full_rf_b,,1
149,30657,181,,,,1,1,1.0,1.0,0.0,1.0,,0.0-178.0,,1.0,1072.855,1.0,0.75,1.0,0.75,0.0,0.313628297,0.0,0.36349657399999996,True,,5f10c8dee777933f01f3d3d6,,2335377,181,,evan-feature22,full_rf_b,,0
150,30658,182,,,,1,1,1.0,0.0,-1.0,0.0,,0.0-179.0,,-1.0,2269.1,1.0,0.75,0.0,0.734284182,1.0,0.262667667,1.0,0.380199119,True,,5f10c8dee777933f01f3d3d6,,2347463,182,,evan-feature22,full_rf_b,,0
151,30659,183,,,,2,2,0.0,0.0,-1.0,0.0,,0.0-180.0,,0.0,857.77,0.0,0.75,0.0,0.75,0.0,0.25,0.0,0.394494013,True,,5f10c8dee777933f01f3d3d6,,2358169,183,,evan-feature22,full_rf_b,,1
152,30660,184,,,,2,2,0.0,1.0,-1.0,0.0,,0.0-181.0,,0.0,1245.445,1.0,0.722298145,1.0,0.7357822340000001,0.0,0.25,1.0,0.319142121,True,,5f10c8dee777933f01f3d3d6,,2369249,184,,evan-feature22,full_rf_b,,0
153,30661,185,,,,2,2,0.0,0.0,-1.0,0.0,,0.0-182.0,,0.0,2145.7,1.0,0.73149275,1.0,0.724276446,0.0,0.305856907,0.0,0.281315057,True,,5f10c8dee777933f01f3d3d6,,2381231,185,,evan-feature22,full_rf_b,,0
154,30662,186,,,,2,2,0.0,0.0,-1.0,0.0,,0.0-183.0,,0.0,1673.975,0.0,0.7458732690000001,1.0,0.7336382459999999,0.0,0.272571964,0.0,0.266021999,True,,5f10c8dee777933f01f3d3d6,,2392741,186,,evan-feature22,full_rf_b,,0
155,30663,187,,,,1,1,1.0,1.0,0.0,1.0,,0.0-184.0,,1.0,1143.515,1.0,0.705579037,1.0,0.720778292,1.0,0.320238144,0.0,0.30971744,True,,5f10c8dee777933f01f3d3d6,,2403708,187,,evan-feature22,full_rf_b,,1
156,30664,188,,,,1,1,1.0,1.0,0.0,1.0,,0.0-185.0,,1.0,840.165,1.0,0.700425648,1.0,0.7198784009999999,0.0,0.272590393,1.0,0.304182931,True,,5f10c8dee777933f01f3d3d6,,2414378,188,,evan-feature22,full_rf_b,,0
157,30665,189,,,,1,1,1.0,1.0,0.0,1.0,,0.0-186.0,,1.0,796.97,1.0,0.735590785,1.0,0.722714973,0.0,0.25,0.0,0.323421091,True,,5f10c8dee777933f01f3d3d6,,2425038,189,,evan-feature22,full_rf_b,,0
158,30666,190,,,,1,1,1.0,1.0,0.0,1.0,,0.0-187.0,,1.0,3746.94,1.0,0.724807662,1.0,0.63146213,0.0,0.36836492600000004,0.0,0.34592153299999995,True,,5f10c8dee777933f01f3d3d6,,2438624,190,,evan-feature22,full_rf_b,,0
159,30667,191,,,,2,2,0.0,1.0,-1.0,0.0,,0.0-188.0,,0.0,1187.285,1.0,0.7352796909999999,1.0,0.555111392,0.0,0.36003922,1.0,0.31433779999999995,True,,5f10c8dee777933f01f3d3d6,,2449629,191,,evan-feature22,full_rf_b,,1
160,30668,192,notice,,,,,,,,,,0.0-189.0,"{""Q0"":""No""}",,7915.0,,,,,,,,,True,,5f10c8dee777933f01f3d3d6,,2457548,192,Q,survey-text,full_rf_b,,1
161,30669,193,track1,,[1],,,,,,,,0.0-190.0,"{""Q0"":""no""}",,3121.0,,,,,,,,,True,,5f10c8dee777933f01f3d3d6,,2460673,193,Q,evan-quiz,full_rf_b,,1
162,30670,194,track2,,[0],,,,,,,,0.0-191.0,"{""Q0"":""yes""}",,12298.0,,,,,,,,,True,,5f10c8dee777933f01f3d3d6,,2472974,194,Q,evan-quiz,full_rf_b,,1
163,30671,195,strat,,,,,,,,,,0.0-192.0,"{""Q0"":""Chose the left hand side mostly""}",,26583.0,,,,,,,,,True,,5f10c8dee777933f01f3d3d6,,2499560,195,Q,survey-text,full_rf_b,,1
