,index,Unnamed: 0,Q_name,button_pressed,choice_idxs,chosen_pos,chosen_state,chosen_state_f_1_outcome,chosen_state_f_2_outcome,f_1_reward,f_2_reward,incor_questions,internal_node_id,responses,reward_received,rt,s_1_f_1_outcome,s_1_f_1_prob,s_1_f_2_outcome,s_1_f_2_prob,s_2_f_1_outcome,s_2_f_1_prob,s_2_f_2_outcome,s_2_f_2_prob,safe_first,stimulus,subjectID,success,time_elapsed,trial_index,trial_num,trial_type,version,view_history,switching
0,42080,30,,,,2,2,0.0,0.0,-1.0,0.0,,0.0-27.0,,0.0,1142.325,1.0,0.6,0.0,0.6,0.0,0.4,0.0,0.4,False,,5d8a62e934146e001a8ea16d,,734724,30,,evan-feature22,full_pf_b,,0
1,42081,31,,,,2,2,0.0,0.0,-1.0,0.0,,0.0-28.0,,0.0,514.545,1.0,0.608053294,1.0,0.63424552,0.0,0.397152172,0.0,0.347069101,False,,5d8a62e934146e001a8ea16d,,745005,31,,evan-feature22,full_pf_b,,0
2,42082,32,,,,2,2,0.0,0.0,-1.0,0.0,,0.0-29.0,,0.0,485.955,1.0,0.642237155,1.0,0.648566321,0.0,0.389407674,0.0,0.285525717,False,,5d8a62e934146e001a8ea16d,,755257,32,,evan-feature22,full_pf_b,,0
3,42083,33,,,,1,1,1.0,1.0,-1.0,0.0,,0.0-30.0,,-1.0,752.6,1.0,0.661086576,1.0,0.630492543,0.0,0.399058924,0.0,0.25,False,,5d8a62e934146e001a8ea16d,,765780,33,,evan-feature22,full_pf_b,,1
4,42084,34,,,,1,1,1.0,0.0,0.0,1.0,,0.0-31.0,,0.0,880.315,1.0,0.631324137,0.0,0.6269842929999999,1.0,0.38734784299999997,1.0,0.25,False,,5d8a62e934146e001a8ea16d,,776427,34,,evan-feature22,full_pf_b,,0
5,42085,35,,,,1,1,0.0,1.0,0.0,1.0,,0.0-32.0,,1.0,479.9799999,0.0,0.6381991370000001,1.0,0.68987999,0.0,0.384107265,1.0,0.271332943,False,,5d8a62e934146e001a8ea16d,,786671,35,,evan-feature22,full_pf_b,,0
6,42086,36,,,,1,1,0.0,1.0,-1.0,0.0,,0.0-33.0,,0.0,912.845,0.0,0.66034901,1.0,0.742641349,1.0,0.360225629,0.0,0.25,False,,5d8a62e934146e001a8ea16d,,797349,36,,evan-feature22,full_pf_b,,0
7,42087,37,,,,1,1,0.0,1.0,-1.0,0.0,,0.0-34.0,,0.0,1220.77,0.0,0.638612418,1.0,0.75,0.0,0.367273939,0.0,0.25,False,,5d8a62e934146e001a8ea16d,,808338,37,,evan-feature22,full_pf_b,,0
8,42088,38,,,,1,1,1.0,1.0,0.0,1.0,,0.0-35.0,,1.0,390.75,1.0,0.624340629,1.0,0.75,1.0,0.425829545,0.0,0.25,False,,5d8a62e934146e001a8ea16d,,818497,38,,evan-feature22,full_pf_b,,0
9,42089,39,,,,2,2,0.0,0.0,0.0,1.0,,0.0-36.0,,0.0,1334.09,0.0,0.621999804,1.0,0.75,0.0,0.368609357,0.0,0.25,False,,5d8a62e934146e001a8ea16d,,829595,39,,evan-feature22,full_pf_b,,1
10,42090,40,,,,1,1,1.0,1.0,-1.0,0.0,,0.0-37.0,,-1.0,324.175,1.0,0.62666403,1.0,0.75,0.0,0.311151498,1.0,0.25,False,,5d8a62e934146e001a8ea16d,,839688,40,,evan-feature22,full_pf_b,,1
11,42091,41,,,,1,1,1.0,1.0,0.0,1.0,,0.0-38.0,,1.0,573.04,1.0,0.6819650009999999,1.0,0.75,0.0,0.310763048,0.0,0.25,False,,5d8a62e934146e001a8ea16d,,850029,41,,evan-feature22,full_pf_b,,0
12,42092,42,,,,1,1,0.0,0.0,-1.0,0.0,,0.0-39.0,,0.0,479.59,0.0,0.740626951,0.0,0.75,0.0,0.25,0.0,0.25,False,,5d8a62e934146e001a8ea16d,,860273,42,,evan-feature22,full_pf_b,,0
13,42093,43,,,,1,1,1.0,1.0,-1.0,0.0,,0.0-40.0,,-1.0,316.005,1.0,0.739599242,1.0,0.742034978,0.0,0.25397114600000004,0.0,0.25,False,,5d8a62e934146e001a8ea16d,,870359,43,,evan-feature22,full_pf_b,,0
14,42094,44,,,,1,1,0.0,1.0,-1.0,0.0,,0.0-41.0,,0.0,514.725,0.0,0.732341315,1.0,0.72735643,0.0,0.25,0.0,0.25,False,,5d8a62e934146e001a8ea16d,,880638,44,,evan-feature22,full_pf_b,,0
15,42095,45,,,,2,2,1.0,1.0,-1.0,0.0,,0.0-42.0,,-1.0,823.41,1.0,0.7062287770000001,1.0,0.75,1.0,0.29002151,1.0,0.288256649,False,,5d8a62e934146e001a8ea16d,,891232,45,,evan-feature22,full_pf_b,,1
16,42096,46,,,,2,2,0.0,0.0,-1.0,0.0,,0.0-43.0,,0.0,430.255,0.0,0.7086029209999999,1.0,0.75,0.0,0.274129113,0.0,0.262851608,False,,5d8a62e934146e001a8ea16d,,901425,46,,evan-feature22,full_pf_b,,0
17,42097,47,,,,1,1,1.0,1.0,-1.0,0.0,,0.0-44.0,,-1.0,588.055,1.0,0.669189651,1.0,0.727614338,0.0,0.298444036,1.0,0.296944518,False,,5d8a62e934146e001a8ea16d,,911784,47,,evan-feature22,full_pf_b,,1
18,42098,48,,,,1,1,1.0,0.0,-1.0,0.0,,0.0-45.0,,-1.0,369.13,1.0,0.6819912929999999,0.0,0.7179434290000001,0.0,0.265003961,0.0,0.28157921199999997,False,,5d8a62e934146e001a8ea16d,,921917,48,,evan-feature22,full_pf_b,,0
19,42099,49,,,,1,1,0.0,1.0,0.0,1.0,,0.0-46.0,,1.0,402.71,0.0,0.665275002,1.0,0.723065271,0.0,0.260414971,1.0,0.30973870000000003,False,,5d8a62e934146e001a8ea16d,,932084,49,,evan-feature22,full_pf_b,,0
20,42100,50,,,,2,2,0.0,0.0,-1.0,0.0,,0.0-47.0,,0.0,387.51,1.0,0.6660593260000001,0.0,0.728032907,0.0,0.30922817,0.0,0.338778608,False,,5d8a62e934146e001a8ea16d,,942238,50,,evan-feature22,full_pf_b,,1
21,42101,51,,,,2,2,1.0,0.0,-1.0,0.0,,0.0-48.0,,-1.0,498.175,1.0,0.702068785,0.0,0.6528750879999999,1.0,0.287329608,0.0,0.35789613200000003,False,,5d8a62e934146e001a8ea16d,,952503,51,,evan-feature22,full_pf_b,,0
22,42102,52,,,,1,1,0.0,1.0,-1.0,0.0,,0.0-49.0,,0.0,462.78,0.0,0.651939787,1.0,0.636725589,0.0,0.284834488,0.0,0.358563756,False,,5d8a62e934146e001a8ea16d,,962736,52,,evan-feature22,full_pf_b,,1
23,42103,53,,,,2,2,1.0,1.0,0.0,1.0,,0.0-50.0,,1.0,363.695,1.0,0.67573929,1.0,0.612550049,1.0,0.37130387600000003,1.0,0.383542402,False,,5d8a62e934146e001a8ea16d,,972871,53,,evan-feature22,full_pf_b,,1
24,42104,54,,,,1,1,0.0,1.0,0.0,1.0,,0.0-51.0,,1.0,381.705,0.0,0.620753801,1.0,0.60513644,0.0,0.385529434,1.0,0.340361743,False,,5d8a62e934146e001a8ea16d,,983020,54,,evan-feature22,full_pf_b,,1
25,42105,55,,,,1,1,1.0,0.0,0.0,1.0,,0.0-52.0,,0.0,231.83,1.0,0.673564893,0.0,0.672437924,1.0,0.292955382,0.0,0.337633795,False,,5d8a62e934146e001a8ea16d,,993017,55,,evan-feature22,full_pf_b,,0
26,42106,56,,,,2,2,1.0,0.0,-1.0,0.0,,0.0-53.0,,-1.0,444.035,1.0,0.6749427,1.0,0.724197502,1.0,0.32391132100000003,0.0,0.350995264,False,,5d8a62e934146e001a8ea16d,,1003226,56,,evan-feature22,full_pf_b,,1
27,42107,57,,,,1,1,1.0,0.0,-1.0,0.0,,0.0-54.0,,-1.0,343.13,1.0,0.6940159379999999,0.0,0.75,0.0,0.31710554399999996,1.0,0.413450341,False,,5d8a62e934146e001a8ea16d,,1013335,57,,evan-feature22,full_pf_b,,1
28,42108,58,,,,1,1,1.0,1.0,-1.0,0.0,,0.0-55.0,,-1.0,326.51,1.0,0.6916018270000001,1.0,0.69001187,1.0,0.261817804,1.0,0.40038635,False,,5d8a62e934146e001a8ea16d,,1023435,58,,evan-feature22,full_pf_b,,0
29,42109,59,,,,2,2,1.0,1.0,-1.0,0.0,,0.0-56.0,,-1.0,459.38,0.0,0.641061544,0.0,0.71337992,1.0,0.277296461,1.0,0.47372791700000005,False,,5d8a62e934146e001a8ea16d,,1033662,59,,evan-feature22,full_pf_b,,1
30,42110,60,,,,2,2,0.0,1.0,-1.0,0.0,,0.0-57.0,,0.0,294.365,1.0,0.6082438520000001,1.0,0.708471106,0.0,0.28745137,1.0,0.564174476,False,,5d8a62e934146e001a8ea16d,,1043723,60,,evan-feature22,full_pf_b,,0
31,42111,61,,,,1,1,1.0,0.0,-1.0,0.0,,0.0-58.0,,-1.0,341.945,1.0,0.6051112120000001,0.0,0.7118147229999999,0.0,0.272390611,1.0,0.5595149939999999,False,,5d8a62e934146e001a8ea16d,,1053834,61,,evan-feature22,full_pf_b,,1
32,42112,62,,,,2,2,0.0,0.0,-1.0,0.0,,0.0-59.0,,0.0,327.33,1.0,0.582420852,0.0,0.635867583,0.0,0.31089574,0.0,0.5227206520000001,False,,5d8a62e934146e001a8ea16d,,1063927,62,,evan-feature22,full_pf_b,,1
33,42113,63,,,,1,1,1.0,1.0,0.0,1.0,,0.0-60.0,,1.0,259.53,1.0,0.623195575,1.0,0.655026044,1.0,0.25,1.0,0.560387538,False,,5d8a62e934146e001a8ea16d,,1073956,63,,evan-feature22,full_pf_b,,1
34,42114,64,,,,2,2,0.0,1.0,-1.0,0.0,,0.0-61.0,,0.0,261.31,0.0,0.601889598,1.0,0.678198724,0.0,0.25,1.0,0.559922936,False,,5d8a62e934146e001a8ea16d,,1083982,64,,evan-feature22,full_pf_b,,1
35,42115,65,,,,1,1,1.0,1.0,-1.0,0.0,,0.0-62.0,,-1.0,358.405,1.0,0.601259914,1.0,0.704681482,1.0,0.33908969299999997,0.0,0.505003715,False,,5d8a62e934146e001a8ea16d,,1094109,65,,evan-feature22,full_pf_b,,1
36,42116,66,,,,1,1,0.0,1.0,-1.0,0.0,,0.0-63.0,,0.0,255.77999989999998,0.0,0.59645454,1.0,0.710437172,0.0,0.327441879,0.0,0.391749613,False,,5d8a62e934146e001a8ea16d,,1104130,66,,evan-feature22,full_pf_b,,0
37,42117,67,,,,1,1,1.0,1.0,-1.0,0.0,,0.0-64.0,,-1.0,777.02,1.0,0.529473,1.0,0.636758527,1.0,0.301338063,1.0,0.365661481,False,,5d8a62e934146e001a8ea16d,,1114678,67,,evan-feature22,full_pf_b,,0
38,42118,68,,,,2,2,0.0,0.0,0.0,1.0,,0.0-65.0,,0.0,659.365,1.0,0.541657162,1.0,0.634541962,0.0,0.343535366,0.0,0.371763742,False,,5d8a62e934146e001a8ea16d,,1125102,68,,evan-feature22,full_pf_b,,1
39,42119,69,,,,1,1,1.0,1.0,-1.0,0.0,,0.0-66.0,,-1.0,611.38,1.0,0.5707533260000001,1.0,0.589121171,0.0,0.326428396,0.0,0.43961622899999997,False,,5d8a62e934146e001a8ea16d,,1135482,69,,evan-feature22,full_pf_b,,1
40,42120,70,,,,2,2,0.0,0.0,-1.0,0.0,,0.0-67.0,,0.0,413.5650001,1.0,0.5707533260000001,1.0,0.589121171,0.0,0.326428396,0.0,0.43961622899999997,False,,5d8a62e934146e001a8ea16d,,1145660,70,,evan-feature22,full_pf_b,,1
41,42121,71,,,,1,1,1.0,1.0,-1.0,0.0,,0.0-68.0,,-1.0,302.465,1.0,0.506271295,1.0,0.641775594,1.0,0.37149690700000004,1.0,0.404330166,False,,5d8a62e934146e001a8ea16d,,1155738,71,,evan-feature22,full_pf_b,,1
42,42122,72,,,,1,1,1.0,1.0,0.0,1.0,,0.0-69.0,,1.0,270.19,1.0,0.455642565,1.0,0.623605825,0.0,0.358753011,0.0,0.346174041,False,,5d8a62e934146e001a8ea16d,,1165778,72,,evan-feature22,full_pf_b,,0
43,42123,73,,,,2,2,0.0,1.0,0.0,1.0,,0.0-70.0,,1.0,275.8999999,0.0,0.483677308,0.0,0.5904681070000001,0.0,0.402218411,1.0,0.35344697,False,,5d8a62e934146e001a8ea16d,,1175818,73,,evan-feature22,full_pf_b,,1
44,42124,74,,,,2,2,1.0,0.0,0.0,1.0,,0.0-71.0,,0.0,346.22,0.0,0.394210977,1.0,0.558925494,1.0,0.540052017,0.0,0.35182128700000004,False,,5d8a62e934146e001a8ea16d,,1185929,74,,evan-feature22,full_pf_b,,0
45,42125,75,,,,1,1,0.0,0.0,-1.0,0.0,,0.0-72.0,,0.0,303.895,0.0,0.382300414,0.0,0.577670603,1.0,0.607608448,0.0,0.378261578,False,,5d8a62e934146e001a8ea16d,,1195998,75,,evan-feature22,full_pf_b,,1
46,42126,76,,,,1,1,0.0,1.0,-1.0,0.0,,0.0-73.0,,0.0,389.62,0.0,0.357596762,1.0,0.5929076529999999,1.0,0.6579790010000001,0.0,0.401326777,False,,5d8a62e934146e001a8ea16d,,1206150,76,,evan-feature22,full_pf_b,,0
47,42127,77,,,,2,2,1.0,0.0,-1.0,0.0,,0.0-74.0,,-1.0,322.49,1.0,0.362033495,0.0,0.582308608,1.0,0.649195052,0.0,0.355158505,False,,5d8a62e934146e001a8ea16d,,1216238,77,,evan-feature22,full_pf_b,,1
48,42128,78,,,,2,2,1.0,0.0,-1.0,0.0,,0.0-75.0,,-1.0,639.77,0.0,0.369620635,1.0,0.669100864,1.0,0.706059111,0.0,0.362516241,False,,5d8a62e934146e001a8ea16d,,1226643,78,,evan-feature22,full_pf_b,,0
49,42129,79,,,,1,1,1.0,1.0,-1.0,0.0,,0.0-76.0,,-1.0,380.705,1.0,0.41477751399999996,1.0,0.7284416779999999,0.0,0.7182656940000001,1.0,0.36228040899999997,False,,5d8a62e934146e001a8ea16d,,1236793,79,,evan-feature22,full_pf_b,,1
50,42130,80,,,,1,1,1.0,1.0,0.0,1.0,,0.0-77.0,,1.0,953.175,1.0,0.37675460299999997,1.0,0.703250285,1.0,0.75,0.0,0.461979164,False,,5d8a62e934146e001a8ea16d,,1247519,80,,evan-feature22,full_pf_b,,0
51,42131,81,,,,1,1,0.0,0.0,0.0,1.0,,0.0-78.0,,0.0,970.78,0.0,0.398716075,0.0,0.6723864890000001,1.0,0.674153818,0.0,0.519029516,False,,5d8a62e934146e001a8ea16d,,1258256,81,,evan-feature22,full_pf_b,,0
52,42132,82,,,,1,1,0.0,0.0,-1.0,0.0,,0.0-79.0,,0.0,1147.725,0.0,0.34677856700000004,0.0,0.69057175,1.0,0.6822438540000001,1.0,0.477292237,False,,5d8a62e934146e001a8ea16d,,1269167,82,,evan-feature22,full_pf_b,,0
53,42133,83,,,,2,2,0.0,1.0,0.0,1.0,,0.0-80.0,,1.0,377.11,0.0,0.28580469199999997,0.0,0.68408818,0.0,0.684207565,1.0,0.49780448299999996,False,,5d8a62e934146e001a8ea16d,,1279310,83,,evan-feature22,full_pf_b,,1
54,42135,85,,,,2,2,0.0,1.0,-1.0,0.0,,0.0-82.0,,0.0,392.315,0.0,0.25,1.0,0.7405808970000001,0.0,0.679614108,1.0,0.436436964,False,,5d8a62e934146e001a8ea16d,,1291521,85,,evan-feature22,full_pf_b,,0
55,42136,86,,,,2,2,1.0,0.0,0.0,1.0,,0.0-83.0,,0.0,303.05,0.0,0.29890393,1.0,0.730505706,1.0,0.7328203320000001,0.0,0.439256938,False,,5d8a62e934146e001a8ea16d,,1301588,86,,evan-feature22,full_pf_b,,0
56,42137,87,,,,2,2,0.0,1.0,-1.0,0.0,,0.0-84.0,,0.0,582.51,0.0,0.326762398,0.0,0.7148059609999999,0.0,0.75,1.0,0.44389608799999997,False,,5d8a62e934146e001a8ea16d,,1311934,87,,evan-feature22,full_pf_b,,0
57,42138,88,,,,1,1,0.0,1.0,-1.0,0.0,,0.0-85.0,,0.0,519.38,0.0,0.295168515,1.0,0.739760854,0.0,0.719947008,1.0,0.35277284600000003,False,,5d8a62e934146e001a8ea16d,,1322218,88,,evan-feature22,full_pf_b,,1
58,42139,89,,,,2,2,1.0,1.0,-1.0,0.0,,0.0-86.0,,-1.0,272.3,0.0,0.25,1.0,0.70781482,1.0,0.75,1.0,0.286095925,False,,5d8a62e934146e001a8ea16d,,1332260,89,,evan-feature22,full_pf_b,,1
59,42140,90,,,,2,2,1.0,1.0,0.0,1.0,,0.0-87.0,,1.0,418.68,1.0,0.25638190899999996,1.0,0.704088163,1.0,0.75,1.0,0.26872601399999996,False,,5d8a62e934146e001a8ea16d,,1342447,90,,evan-feature22,full_pf_b,,0
60,42141,91,,,,2,2,0.0,0.0,0.0,1.0,,0.0-88.0,,0.0,270.705,0.0,0.271581126,0.0,0.669760107,0.0,0.733896663,0.0,0.273244572,False,,5d8a62e934146e001a8ea16d,,1352484,91,,evan-feature22,full_pf_b,,0
61,42142,92,,,,2,2,1.0,1.0,0.0,1.0,,0.0-89.0,,1.0,420.815,0.0,0.257144401,0.0,0.600575706,1.0,0.74488122,1.0,0.25,False,,5d8a62e934146e001a8ea16d,,1362675,92,,evan-feature22,full_pf_b,,0
62,42143,93,,,,2,2,1.0,0.0,-1.0,0.0,,0.0-90.0,,-1.0,168.805,1.0,0.25,1.0,0.616870026,1.0,0.723610234,0.0,0.25,False,,5d8a62e934146e001a8ea16d,,1372613,93,,evan-feature22,full_pf_b,,0
63,42144,94,,,,2,2,0.0,0.0,0.0,1.0,,0.0-91.0,,0.0,287.88,0.0,0.25,0.0,0.583540187,0.0,0.7041042559999999,0.0,0.285961995,False,,5d8a62e934146e001a8ea16d,,1382664,94,,evan-feature22,full_pf_b,,0
64,42145,95,,,,2,2,1.0,0.0,-1.0,0.0,,0.0-92.0,,-1.0,298.535,0.0,0.27254536,0.0,0.53875765,1.0,0.693783448,0.0,0.284961652,False,,5d8a62e934146e001a8ea16d,,1392727,95,,evan-feature22,full_pf_b,,0
65,42146,96,,,,2,2,1.0,1.0,0.0,1.0,,0.0-93.0,,1.0,531.03,1.0,0.25,1.0,0.548431252,1.0,0.734221895,1.0,0.279445214,False,,5d8a62e934146e001a8ea16d,,1403029,96,,evan-feature22,full_pf_b,,0
66,42147,97,,,,2,2,1.0,0.0,-1.0,0.0,,0.0-94.0,,-1.0,830.82,0.0,0.258640684,0.0,0.545878066,1.0,0.725245965,0.0,0.31487537,False,,5d8a62e934146e001a8ea16d,,1413622,97,,evan-feature22,full_pf_b,,0
67,42148,98,,,,2,2,0.0,1.0,-1.0,0.0,,0.0-95.0,,0.0,369.36,0.0,0.251103711,0.0,0.5776290629999999,0.0,0.696320133,1.0,0.317831047,False,,5d8a62e934146e001a8ea16d,,1423761,98,,evan-feature22,full_pf_b,,0
68,42149,99,,,,2,2,1.0,0.0,-1.0,0.0,,0.0-96.0,,-1.0,490.97,0.0,0.276630292,0.0,0.617329858,1.0,0.73838088,0.0,0.261471582,False,,5d8a62e934146e001a8ea16d,,1434017,99,,evan-feature22,full_pf_b,,0
69,42150,100,,,,1,1,1.0,0.0,0.0,1.0,,0.0-97.0,,0.0,642.73,1.0,0.297716424,0.0,0.618863717,1.0,0.7402358259999999,0.0,0.262600834,False,,5d8a62e934146e001a8ea16d,,1444426,100,,evan-feature22,full_pf_b,,1
70,42151,101,,,,1,1,1.0,1.0,-1.0,0.0,,0.0-98.0,,-1.0,411.345,1.0,0.290935512,1.0,0.695370945,1.0,0.706570507,0.0,0.280030553,False,,5d8a62e934146e001a8ea16d,,1454607,101,,evan-feature22,full_pf_b,,0
71,42152,102,,,,2,2,1.0,0.0,-1.0,0.0,,0.0-99.0,,-1.0,209.76,0.0,0.25,1.0,0.6465277079999999,1.0,0.67766682,0.0,0.25,False,,5d8a62e934146e001a8ea16d,,1464587,102,,evan-feature22,full_pf_b,,1
72,42153,103,,,,2,2,0.0,1.0,-1.0,0.0,,0.0-100.0,,0.0,134.62,0.0,0.26463816,1.0,0.636100213,0.0,0.646048507,1.0,0.265607101,False,,5d8a62e934146e001a8ea16d,,1474487,103,,evan-feature22,full_pf_b,,0
73,42154,104,,,,2,2,1.0,0.0,-1.0,0.0,,0.0-101.0,,-1.0,355.58,1.0,0.314340707,0.0,0.667795927,1.0,0.613630805,0.0,0.25,False,,5d8a62e934146e001a8ea16d,,1484607,104,,evan-feature22,full_pf_b,,0
74,42155,105,,,,1,1,0.0,1.0,-1.0,0.0,,0.0-102.0,,0.0,287.015,0.0,0.28685784,1.0,0.6622549529999999,0.0,0.652154117,1.0,0.25,False,,5d8a62e934146e001a8ea16d,,1494657,105,,evan-feature22,full_pf_b,,1
75,42156,106,,,,2,2,1.0,0.0,0.0,1.0,,0.0-103.0,,0.0,321.945,0.0,0.304106554,1.0,0.631289538,1.0,0.707041942,0.0,0.29314237,False,,5d8a62e934146e001a8ea16d,,1504745,106,,evan-feature22,full_pf_b,,1
76,42157,107,,,,2,2,1.0,1.0,0.0,1.0,,0.0-104.0,,1.0,1791.01,0.0,0.304806932,1.0,0.571167718,1.0,0.680472346,1.0,0.25,False,,5d8a62e934146e001a8ea16d,,1516309,107,,evan-feature22,full_pf_b,,0
77,42158,108,,,,1,1,0.0,1.0,0.0,1.0,,0.0-105.0,,1.0,307.61,0.0,0.37919861,1.0,0.5724849710000001,1.0,0.705638003,1.0,0.30179300600000003,False,,5d8a62e934146e001a8ea16d,,1526382,108,,evan-feature22,full_pf_b,,1
78,42159,109,,,,1,1,0.0,1.0,0.0,1.0,,0.0-106.0,,1.0,275.675,0.0,0.464277969,1.0,0.554034373,0.0,0.7372627340000001,0.0,0.264699741,False,,5d8a62e934146e001a8ea16d,,1536422,109,,evan-feature22,full_pf_b,,0
79,42160,110,,,,2,2,1.0,0.0,-1.0,0.0,,0.0-107.0,,-1.0,337.01,1.0,0.465104323,0.0,0.530793115,1.0,0.75,0.0,0.31683071,False,,5d8a62e934146e001a8ea16d,,1546525,110,,evan-feature22,full_pf_b,,1
80,42161,111,,,,1,1,0.0,0.0,0.0,1.0,,0.0-108.0,,0.0,298.675,0.0,0.465104323,0.0,0.530793115,0.0,0.75,1.0,0.31683071,False,,5d8a62e934146e001a8ea16d,,1556588,111,,evan-feature22,full_pf_b,,1
81,42162,112,,,,1,1,1.0,1.0,0.0,1.0,,0.0-109.0,,1.0,200.9,1.0,0.46833986,1.0,0.570249239,0.0,0.7244472590000001,1.0,0.364114163,False,,5d8a62e934146e001a8ea16d,,1566562,112,,evan-feature22,full_pf_b,,0
82,42163,113,,,,1,1,0.0,1.0,0.0,1.0,,0.0-110.0,,1.0,1741.39,0.0,0.445444024,1.0,0.649673355,1.0,0.6845441290000001,0.0,0.300660449,False,,5d8a62e934146e001a8ea16d,,1578070,113,,evan-feature22,full_pf_b,,0
83,42164,114,,,,1,1,1.0,1.0,0.0,1.0,,0.0-111.0,,1.0,865.725,1.0,0.39909721299999995,1.0,0.6715179509999999,1.0,0.742310028,1.0,0.35496088299999995,False,,5d8a62e934146e001a8ea16d,,1588705,114,,evan-feature22,full_pf_b,,0
84,42165,115,,,,1,1,1.0,1.0,0.0,1.0,,0.0-112.0,,1.0,266.93,1.0,0.37956104799999996,1.0,0.694725302,1.0,0.7181651309999999,1.0,0.38726906299999997,False,,5d8a62e934146e001a8ea16d,,1598743,115,,evan-feature22,full_pf_b,,0
85,42166,116,,,,1,1,0.0,0.0,0.0,1.0,,0.0-113.0,,0.0,320.475,0.0,0.404995034,0.0,0.724375412,1.0,0.6910946859999999,0.0,0.387187347,False,,5d8a62e934146e001a8ea16d,,1608827,116,,evan-feature22,full_pf_b,,0
86,42167,117,,,,1,1,0.0,1.0,0.0,1.0,,0.0-114.0,,1.0,277.885,0.0,0.461740803,1.0,0.75,1.0,0.75,0.0,0.34872038200000005,False,,5d8a62e934146e001a8ea16d,,1618870,117,,evan-feature22,full_pf_b,,0
87,42168,118,,,,1,1,0.0,1.0,-1.0,0.0,,0.0-115.0,,0.0,248.52,0.0,0.43821380600000004,1.0,0.738833273,1.0,0.728286963,0.0,0.399538128,False,,5d8a62e934146e001a8ea16d,,1628888,118,,evan-feature22,full_pf_b,,0
88,42169,119,,,,1,1,0.0,0.0,0.0,1.0,,0.0-116.0,,0.0,260.915,0.0,0.41709882,0.0,0.736666736,1.0,0.75,0.0,0.389095584,False,,5d8a62e934146e001a8ea16d,,1638912,119,,evan-feature22,full_pf_b,,0
89,42170,120,,,,1,1,0.0,1.0,0.0,1.0,,0.0-117.0,,1.0,77.92499999,0.0,0.39749009799999996,1.0,0.744320029,1.0,0.75,0.0,0.363848678,False,,5d8a62e934146e001a8ea16d,,1648755,120,,evan-feature22,full_pf_b,,0
90,42171,121,,,,1,1,0.0,1.0,-1.0,0.0,,0.0-118.0,,0.0,256.34,0.0,0.392653706,1.0,0.75,0.0,0.75,0.0,0.384386976,False,,5d8a62e934146e001a8ea16d,,1658778,121,,evan-feature22,full_pf_b,,0
91,42172,122,,,,1,1,0.0,1.0,-1.0,0.0,,0.0-119.0,,0.0,238.325,0.0,0.31190902600000003,1.0,0.75,0.0,0.732413819,0.0,0.413082932,False,,5d8a62e934146e001a8ea16d,,1668784,122,,evan-feature22,full_pf_b,,0
92,42173,123,,,,1,1,1.0,1.0,0.0,1.0,,0.0-120.0,,1.0,11.35500002,1.0,0.366917648,1.0,0.740073855,1.0,0.75,0.0,0.352861979,False,,5d8a62e934146e001a8ea16d,,1678564,123,,evan-feature22,full_pf_b,,0
93,42174,124,,,,1,1,0.0,0.0,0.0,1.0,,0.0-121.0,,0.0,188.685,0.0,0.3645172,0.0,0.721770713,0.0,0.75,0.0,0.404074511,False,,5d8a62e934146e001a8ea16d,,1688515,124,,evan-feature22,full_pf_b,,0
94,42175,125,,,,1,1,1.0,1.0,0.0,1.0,,0.0-122.0,,1.0,260.895,1.0,0.35205600299999995,1.0,0.68983859,1.0,0.739735447,1.0,0.366895945,False,,5d8a62e934146e001a8ea16d,,1698541,125,,evan-feature22,full_pf_b,,0
95,42176,126,,,,1,1,0.0,0.0,0.0,1.0,,0.0-123.0,,0.0,459.08,0.0,0.40998722600000004,0.0,0.720859127,0.0,0.673854955,0.0,0.368528541,False,,5d8a62e934146e001a8ea16d,,1708764,126,,evan-feature22,full_pf_b,,0
96,42177,127,,,,1,1,0.0,1.0,-1.0,0.0,,0.0-124.0,,0.0,551.385,0.0,0.353625316,1.0,0.75,1.0,0.695605473,0.0,0.38303674200000004,False,,5d8a62e934146e001a8ea16d,,1719079,127,,evan-feature22,full_pf_b,,0
97,42178,128,,,,1,1,1.0,0.0,0.0,1.0,,0.0-125.0,,0.0,399.83,1.0,0.359216989,0.0,0.75,0.0,0.6987915090000001,0.0,0.35169046200000004,False,,5d8a62e934146e001a8ea16d,,1729243,128,,evan-feature22,full_pf_b,,0
98,42179,129,,,,1,1,0.0,1.0,-1.0,0.0,,0.0-126.0,,0.0,1930.87,0.0,0.35834496899999996,1.0,0.75,1.0,0.707067742,1.0,0.416763636,False,,5d8a62e934146e001a8ea16d,,1740940,129,,evan-feature22,full_pf_b,,0
99,42180,130,,,,1,1,0.0,1.0,-1.0,0.0,,0.0-127.0,,0.0,442.42,0.0,0.38741613799999997,1.0,0.7177369570000001,0.0,0.734902455,0.0,0.49438664299999996,False,,5d8a62e934146e001a8ea16d,,1751148,130,,evan-feature22,full_pf_b,,0
100,42181,131,,,,1,1,1.0,1.0,0.0,1.0,,0.0-128.0,,1.0,1023.48,1.0,0.405255252,1.0,0.7300466640000001,1.0,0.7027748070000001,1.0,0.504359668,False,,5d8a62e934146e001a8ea16d,,1761940,131,,evan-feature22,full_pf_b,,0
101,42182,132,,,,1,1,0.0,1.0,0.0,1.0,,0.0-129.0,,1.0,638.12,0.0,0.40697073,1.0,0.7260142190000001,1.0,0.724461982,0.0,0.522779179,False,,5d8a62e934146e001a8ea16d,,1772348,132,,evan-feature22,full_pf_b,,0
102,42183,133,,,,1,1,1.0,1.0,0.0,1.0,,0.0-130.0,,1.0,604.97,1.0,0.43906215299999996,1.0,0.7252802340000001,1.0,0.719079934,0.0,0.5712990579999999,False,,5d8a62e934146e001a8ea16d,,1782723,133,,evan-feature22,full_pf_b,,0
103,42184,134,,,,1,1,0.0,1.0,0.0,1.0,,0.0-131.0,,1.0,441.465,0.0,0.4076705,1.0,0.73280499,1.0,0.681313127,0.0,0.523891346,False,,5d8a62e934146e001a8ea16d,,1792928,134,,evan-feature22,full_pf_b,,0
104,42185,135,,,,1,1,1.0,1.0,0.0,1.0,,0.0-132.0,,1.0,335.795,1.0,0.399102911,1.0,0.730498344,1.0,0.661080239,1.0,0.46742603,False,,5d8a62e934146e001a8ea16d,,1803034,135,,evan-feature22,full_pf_b,,0
105,42186,136,,,,1,1,0.0,1.0,-1.0,0.0,,0.0-133.0,,0.0,252.245,0.0,0.356477282,1.0,0.712296395,1.0,0.641812684,1.0,0.44868414,False,,5d8a62e934146e001a8ea16d,,1813053,136,,evan-feature22,full_pf_b,,0
106,42187,137,,,,1,1,0.0,1.0,0.0,1.0,,0.0-134.0,,1.0,540.19,0.0,0.462760722,1.0,0.692349322,1.0,0.700947931,0.0,0.394680266,False,,5d8a62e934146e001a8ea16d,,1823358,137,,evan-feature22,full_pf_b,,0
107,42188,138,,,,1,1,0.0,0.0,0.0,1.0,,0.0-135.0,,0.0,590.83,0.0,0.422306413,0.0,0.718375916,0.0,0.706340917,0.0,0.367787185,False,,5d8a62e934146e001a8ea16d,,1833713,138,,evan-feature22,full_pf_b,,0
108,42190,140,,,,1,1,1.0,1.0,0.0,1.0,,0.0-137.0,,1.0,975.02,1.0,0.4582233,1.0,0.643834117,0.0,0.75,1.0,0.39615823299999997,False,,5d8a62e934146e001a8ea16d,,1847141,140,,evan-feature22,full_pf_b,,0
109,42191,141,,,,1,1,0.0,1.0,0.0,1.0,,0.0-138.0,,1.0,1114.445,0.0,0.43813437899999996,1.0,0.651283804,1.0,0.729674191,1.0,0.37711048,False,,5d8a62e934146e001a8ea16d,,1858021,141,,evan-feature22,full_pf_b,,0
110,42192,142,,,,1,1,1.0,1.0,0.0,1.0,,0.0-139.0,,1.0,1817.655,1.0,0.471199094,1.0,0.6470010979999999,1.0,0.715008097,0.0,0.410656191,False,,5d8a62e934146e001a8ea16d,,1869607,142,,evan-feature22,full_pf_b,,0
111,42193,143,,,,1,1,0.0,1.0,-1.0,0.0,,0.0-140.0,,0.0,1989.53,0.0,0.42486406,1.0,0.629771829,1.0,0.6550939960000001,0.0,0.459093873,False,,5d8a62e934146e001a8ea16d,,1881364,143,,evan-feature22,full_pf_b,,0
112,42194,144,,,,1,1,1.0,1.0,-1.0,0.0,,0.0-141.0,,-1.0,660.345,1.0,0.4803197,1.0,0.645842715,1.0,0.6421749920000001,1.0,0.443092151,False,,5d8a62e934146e001a8ea16d,,1891793,144,,evan-feature22,full_pf_b,,0
113,42195,145,,,,2,2,1.0,1.0,-1.0,0.0,,0.0-142.0,,-1.0,671.225,1.0,0.521848997,1.0,0.735801074,1.0,0.6691348460000001,1.0,0.45259351600000003,False,,5d8a62e934146e001a8ea16d,,1902233,145,,evan-feature22,full_pf_b,,1
114,42196,146,,,,2,2,1.0,1.0,0.0,1.0,,0.0-143.0,,1.0,379.76,0.0,0.49565621299999996,1.0,0.742400847,1.0,0.661512553,1.0,0.483110831,False,,5d8a62e934146e001a8ea16d,,1912380,146,,evan-feature22,full_pf_b,,0
115,42197,147,,,,1,1,0.0,1.0,-1.0,0.0,,0.0-144.0,,0.0,1054.525,0.0,0.521564361,1.0,0.731078632,1.0,0.6774886809999999,0.0,0.483263956,False,,5d8a62e934146e001a8ea16d,,1923198,147,,evan-feature22,full_pf_b,,1
116,42198,148,,,,1,1,1.0,1.0,-1.0,0.0,,0.0-145.0,,-1.0,982.57,1.0,0.558893102,1.0,0.719810023,1.0,0.67461031,1.0,0.499349834,False,,5d8a62e934146e001a8ea16d,,1933950,148,,evan-feature22,full_pf_b,,0
117,42199,149,,,,2,2,1.0,1.0,0.0,1.0,,0.0-146.0,,1.0,640.98,1.0,0.611031046,1.0,0.75,1.0,0.688072995,1.0,0.5321422729999999,False,,5d8a62e934146e001a8ea16d,,1944365,149,,evan-feature22,full_pf_b,,1
118,42200,150,,,,1,1,0.0,0.0,-1.0,0.0,,0.0-147.0,,0.0,1074.925,0.0,0.633223941,0.0,0.713567728,0.0,0.75,1.0,0.48185314700000004,False,,5d8a62e934146e001a8ea16d,,1955203,150,,evan-feature22,full_pf_b,,1
119,42201,151,,,,1,1,1.0,1.0,-1.0,0.0,,0.0-148.0,,-1.0,799.09,1.0,0.664001694,1.0,0.705509768,1.0,0.75,0.0,0.500211065,False,,5d8a62e934146e001a8ea16d,,1965772,151,,evan-feature22,full_pf_b,,0
120,42202,152,,,,1,1,1.0,0.0,0.0,1.0,,0.0-149.0,,0.0,498.165,1.0,0.664001694,0.0,0.705509768,1.0,0.75,1.0,0.500211065,False,,5d8a62e934146e001a8ea16d,,1976036,152,,evan-feature22,full_pf_b,,0
121,42203,153,,,,1,1,0.0,1.0,0.0,1.0,,0.0-150.0,,1.0,998.73,0.0,0.696508041,1.0,0.71066027,1.0,0.717028709,1.0,0.49792991,False,,5d8a62e934146e001a8ea16d,,1986805,153,,evan-feature22,full_pf_b,,0
122,42204,154,,,,1,1,1.0,1.0,-1.0,0.0,,0.0-151.0,,-1.0,502.78,1.0,0.699883272,1.0,0.75,1.0,0.713543895,1.0,0.496962643,False,,5d8a62e934146e001a8ea16d,,1997078,154,,evan-feature22,full_pf_b,,0
123,42205,155,,,,1,1,1.0,1.0,0.0,1.0,,0.0-152.0,,1.0,577.82,1.0,0.741163419,1.0,0.75,1.0,0.64691024,1.0,0.513858197,False,,5d8a62e934146e001a8ea16d,,2007427,155,,evan-feature22,full_pf_b,,0
124,42206,156,,,,1,1,0.0,1.0,-1.0,0.0,,0.0-153.0,,0.0,744.67,0.0,0.75,1.0,0.70816558,1.0,0.594499079,1.0,0.48502124,False,,5d8a62e934146e001a8ea16d,,2017937,156,,evan-feature22,full_pf_b,,0
125,42207,157,,,,1,1,1.0,0.0,0.0,1.0,,0.0-154.0,,0.0,424.53,1.0,0.75,0.0,0.721848901,0.0,0.62197249,0.0,0.48263586399999997,False,,5d8a62e934146e001a8ea16d,,2028126,157,,evan-feature22,full_pf_b,,0
126,42208,158,,,,2,2,0.0,0.0,-1.0,0.0,,0.0-155.0,,0.0,924.42,1.0,0.75,1.0,0.74813071,0.0,0.584357161,0.0,0.411477782,False,,5d8a62e934146e001a8ea16d,,2038816,158,,evan-feature22,full_pf_b,,1
127,42209,159,,,,1,1,1.0,1.0,0.0,1.0,,0.0-156.0,,1.0,1169.755,1.0,0.75,1.0,0.75,1.0,0.52287236,0.0,0.488290656,False,,5d8a62e934146e001a8ea16d,,2049753,159,,evan-feature22,full_pf_b,,1
128,42210,160,,,,2,2,1.0,1.0,0.0,1.0,,0.0-157.0,,1.0,624.475,1.0,0.75,1.0,0.75,1.0,0.544321581,1.0,0.53143059,False,,5d8a62e934146e001a8ea16d,,2060147,160,,evan-feature22,full_pf_b,,1
129,42211,161,,,,1,1,0.0,1.0,0.0,1.0,,0.0-158.0,,1.0,1050.4,0.0,0.726754564,1.0,0.75,0.0,0.5129306370000001,1.0,0.530592445,False,,5d8a62e934146e001a8ea16d,,2070963,161,,evan-feature22,full_pf_b,,1
130,42212,162,,,,1,1,1.0,1.0,-1.0,0.0,,0.0-159.0,,-1.0,511.11,1.0,0.75,1.0,0.7392590729999999,0.0,0.479875835,0.0,0.547007051,False,,5d8a62e934146e001a8ea16d,,2081245,162,,evan-feature22,full_pf_b,,0
131,42213,163,,,,2,2,1.0,0.0,-1.0,0.0,,0.0-160.0,,-1.0,1948.285,0.0,0.75,1.0,0.7393376979999999,1.0,0.546045419,0.0,0.541267353,False,,5d8a62e934146e001a8ea16d,,2092965,163,,evan-feature22,full_pf_b,,1
132,42214,164,,,,1,1,0.0,1.0,-1.0,0.0,,0.0-161.0,,0.0,1080.17,0.0,0.75,1.0,0.75,0.0,0.485725895,0.0,0.527625395,False,,5d8a62e934146e001a8ea16d,,2103809,164,,evan-feature22,full_pf_b,,1
133,42215,165,,,,1,1,1.0,0.0,0.0,1.0,,0.0-162.0,,0.0,1373.885,1.0,0.75,0.0,0.725087974,1.0,0.488603595,0.0,0.504019206,False,,5d8a62e934146e001a8ea16d,,2114946,165,,evan-feature22,full_pf_b,,0
134,42216,166,,,,1,1,1.0,1.0,0.0,1.0,,0.0-163.0,,1.0,861.885,1.0,0.745504295,1.0,0.75,0.0,0.452379914,0.0,0.50131194,False,,5d8a62e934146e001a8ea16d,,2125576,166,,evan-feature22,full_pf_b,,0
135,42217,167,,,,1,1,1.0,0.0,0.0,1.0,,0.0-164.0,,0.0,998.405,1.0,0.728513874,0.0,0.75,0.0,0.44125567200000004,0.0,0.531454591,False,,5d8a62e934146e001a8ea16d,,2136338,167,,evan-feature22,full_pf_b,,0
136,42218,168,,,,2,2,1.0,0.0,-1.0,0.0,,0.0-165.0,,-1.0,1574.24,1.0,0.73790804,1.0,0.75,1.0,0.413036656,0.0,0.524619035,False,,5d8a62e934146e001a8ea16d,,2147676,168,,evan-feature22,full_pf_b,,1
137,42219,169,,,,1,1,1.0,1.0,0.0,1.0,,0.0-166.0,,1.0,1222.285,1.0,0.7080961309999999,1.0,0.708666865,1.0,0.431915581,1.0,0.481819489,False,,5d8a62e934146e001a8ea16d,,2158667,169,,evan-feature22,full_pf_b,,1
138,42220,170,,,,1,1,1.0,1.0,0.0,1.0,,0.0-167.0,,1.0,2001.65,1.0,0.721378003,1.0,0.71605913,1.0,0.36642387,1.0,0.5036739929999999,False,,5d8a62e934146e001a8ea16d,,2170440,170,,evan-feature22,full_pf_b,,0
139,42221,171,,,,1,1,0.0,1.0,0.0,1.0,,0.0-168.0,,1.0,860.33,0.0,0.7340618959999999,1.0,0.699323252,0.0,0.35298046299999997,1.0,0.511241692,False,,5d8a62e934146e001a8ea16d,,2181067,171,,evan-feature22,full_pf_b,,0
140,42222,172,,,,2,2,1.0,0.0,-1.0,0.0,,0.0-169.0,,-1.0,1420.25,0.0,0.75,0.0,0.70412698,1.0,0.380734814,0.0,0.529580116,False,,5d8a62e934146e001a8ea16d,,2192253,172,,evan-feature22,full_pf_b,,1
141,42223,173,,,,1,1,1.0,1.0,0.0,1.0,,0.0-170.0,,1.0,769.06,1.0,0.7436654909999999,1.0,0.711182751,0.0,0.41125331,1.0,0.49554405,False,,5d8a62e934146e001a8ea16d,,2202795,173,,evan-feature22,full_pf_b,,1
142,42224,174,,,,1,1,0.0,0.0,0.0,1.0,,0.0-171.0,,0.0,1697.555,0.0,0.731607915,0.0,0.651774583,0.0,0.35688023,1.0,0.45194491600000003,False,,5d8a62e934146e001a8ea16d,,2214257,174,,evan-feature22,full_pf_b,,0
143,42225,175,,,,1,1,1.0,1.0,-1.0,0.0,,0.0-172.0,,-1.0,1894.48,1.0,0.75,1.0,0.75,0.0,0.283145374,0.0,0.528608005,False,,5d8a62e934146e001a8ea16d,,2225919,175,,evan-feature22,full_pf_b,,0
144,42226,176,,,,1,1,1.0,1.0,-1.0,0.0,,0.0-173.0,,-1.0,1551.315,1.0,0.7491416890000001,1.0,0.7423785959999999,1.0,0.29135870399999997,0.0,0.498888318,False,,5d8a62e934146e001a8ea16d,,2237239,176,,evan-feature22,full_pf_b,,0
145,42227,177,,,,1,1,1.0,1.0,-1.0,0.0,,0.0-174.0,,-1.0,372.52,1.0,0.708569387,1.0,0.717682277,1.0,0.294421699,1.0,0.493838163,False,,5d8a62e934146e001a8ea16d,,2247381,177,,evan-feature22,full_pf_b,,0
146,42228,178,,,,1,1,1.0,1.0,0.0,1.0,,0.0-175.0,,1.0,794.9,1.0,0.75,1.0,0.7383382159999999,1.0,0.356098707,0.0,0.442533405,False,,5d8a62e934146e001a8ea16d,,2257944,178,,evan-feature22,full_pf_b,,0
147,42229,179,,,,1,1,1.0,0.0,0.0,1.0,,0.0-176.0,,0.0,770.735,1.0,0.744527075,0.0,0.75,0.0,0.334127506,0.0,0.393165805,False,,5d8a62e934146e001a8ea16d,,2268481,179,,evan-feature22,full_pf_b,,0
148,42230,180,,,,1,1,0.0,1.0,0.0,1.0,,0.0-177.0,,1.0,592.31,0.0,0.75,1.0,0.75,0.0,0.33571021799999995,0.0,0.350393962,False,,5d8a62e934146e001a8ea16d,,2278842,180,,evan-feature22,full_pf_b,,0
149,42231,181,,,,1,1,1.0,1.0,0.0,1.0,,0.0-178.0,,1.0,929.22,1.0,0.75,1.0,0.75,0.0,0.313628297,1.0,0.36349657399999996,False,,5d8a62e934146e001a8ea16d,,2289539,181,,evan-feature22,full_pf_b,,0
150,42232,182,,,,1,1,1.0,0.0,-1.0,0.0,,0.0-179.0,,-1.0,1249.345,1.0,0.75,0.0,0.734284182,0.0,0.262667667,1.0,0.380199119,False,,5d8a62e934146e001a8ea16d,,2300552,182,,evan-feature22,full_pf_b,,0
151,42233,183,,,,1,1,0.0,1.0,0.0,1.0,,0.0-180.0,,1.0,503.655,0.0,0.75,1.0,0.75,0.0,0.25,0.0,0.394494013,False,,5d8a62e934146e001a8ea16d,,2310824,183,,evan-feature22,full_pf_b,,0
152,42234,184,,,,1,1,0.0,1.0,-1.0,0.0,,0.0-181.0,,0.0,742.575,0.0,0.722298145,1.0,0.7357822340000001,0.0,0.25,0.0,0.319142121,False,,5d8a62e934146e001a8ea16d,,2321334,184,,evan-feature22,full_pf_b,,0
153,42235,185,,,,2,2,0.0,0.0,-1.0,0.0,,0.0-182.0,,0.0,956.905,1.0,0.73149275,1.0,0.724276446,0.0,0.305856907,0.0,0.281315057,False,,5d8a62e934146e001a8ea16d,,2332054,185,,evan-feature22,full_pf_b,,1
154,42236,186,,,,1,1,1.0,1.0,0.0,1.0,,0.0-183.0,,1.0,602.845,1.0,0.7458732690000001,1.0,0.7336382459999999,0.0,0.272571964,1.0,0.266021999,False,,5d8a62e934146e001a8ea16d,,2342425,186,,evan-feature22,full_pf_b,,1
155,42237,187,,,,1,1,0.0,1.0,0.0,1.0,,0.0-184.0,,1.0,789.08,0.0,0.705579037,1.0,0.720778292,0.0,0.320238144,1.0,0.30971744,False,,5d8a62e934146e001a8ea16d,,2352981,187,,evan-feature22,full_pf_b,,0
156,42238,188,,,,1,1,1.0,0.0,0.0,1.0,,0.0-185.0,,0.0,840.435,1.0,0.700425648,0.0,0.7198784009999999,0.0,0.272590393,0.0,0.304182931,False,,5d8a62e934146e001a8ea16d,,2363586,188,,evan-feature22,full_pf_b,,0
157,42239,189,,,,1,1,1.0,1.0,0.0,1.0,,0.0-186.0,,1.0,1095.2,1.0,0.735590785,1.0,0.722714973,0.0,0.25,0.0,0.323421091,False,,5d8a62e934146e001a8ea16d,,2374447,189,,evan-feature22,full_pf_b,,0
158,42240,190,,,,1,1,1.0,0.0,0.0,1.0,,0.0-187.0,,0.0,785.995,1.0,0.724807662,0.0,0.63146213,1.0,0.36836492600000004,0.0,0.34592153299999995,False,,5d8a62e934146e001a8ea16d,,2384996,190,,evan-feature22,full_pf_b,,0
159,42241,191,,,,1,1,1.0,1.0,0.0,1.0,,0.0-188.0,,1.0,767.84,1.0,0.7352796909999999,1.0,0.555111392,1.0,0.36003922,0.0,0.31433779999999995,False,,5d8a62e934146e001a8ea16d,,2395532,191,,evan-feature22,full_pf_b,,0
160,42242,192,notice,,,,,,,,,,0.0-189.0,"{""Q0"":""The first half seemed random. The second favored the left option""}",,25911.0,,,,,,,,,False,,5d8a62e934146e001a8ea16d,,2421447,192,Q,survey-text,full_pf_b,,1
161,42243,193,track1,,[1],,,,,,,,0.0-190.0,"{""Q0"":""no""}",,5874.0,,,,,,,,,False,,5d8a62e934146e001a8ea16d,,2427335,193,Q,evan-quiz,full_pf_b,,1
162,42244,194,track2,,[0],,,,,,,,0.0-191.0,"{""Q0"":""yes""}",,17944.0,,,,,,,,,False,,5d8a62e934146e001a8ea16d,,2445287,194,Q,evan-quiz,full_pf_b,,1
163,42245,195,strat,,,,,,,,,,0.0-192.0,"{""Q0"":""I assumed that left had a consistently better chance, but that if the gold value was -1, right would occasionally have no alien at all. Left it seems would.""}",,69023.0,,,,,,,,,False,,5d8a62e934146e001a8ea16d,,2514319,195,Q,survey-text,full_pf_b,,1
