,index,Unnamed: 0,Q_name,button_pressed,choice_idxs,chosen_pos,chosen_state,chosen_state_f_1_outcome,chosen_state_f_2_outcome,f_1_reward,f_2_reward,incor_questions,internal_node_id,responses,reward_received,rt,s_1_f_1_outcome,s_1_f_1_prob,s_1_f_2_outcome,s_1_f_2_prob,s_2_f_1_outcome,s_2_f_1_prob,s_2_f_2_outcome,s_2_f_2_prob,safe_first,stimulus,subjectID,success,time_elapsed,trial_index,trial_num,trial_type,version,view_history,switching
0,46226,25,,,,1,1,1.0,1.0,0.0,1.0,,0.0-27.0,,1.0,715.0,1.0,0.6,1.0,0.6,1.0,0.4,1.0,0.4,True,,5ea82e03b5f29722e4b5835e,,1175913,25,,evan-feature22,full_rf_b,,0
1,46227,26,,,,1,1,0.0,0.0,0.0,1.0,,0.0-28.0,,0.0,503.0,0.0,0.608053294,0.0,0.63424552,1.0,0.397152172,1.0,0.347069101,True,,5ea82e03b5f29722e4b5835e,,1186178,26,,evan-feature22,full_rf_b,,0
2,46228,27,,,,1,1,1.0,1.0,0.0,1.0,,0.0-29.0,,1.0,1073.0,1.0,0.642237155,1.0,0.648566321,1.0,0.389407674,0.0,0.285525717,True,,5ea82e03b5f29722e4b5835e,,1197011,27,,evan-feature22,full_rf_b,,0
3,46229,28,,,,2,2,0.0,0.0,0.0,1.0,,0.0-30.0,,0.0,699.0,0.0,0.661086576,0.0,0.630492543,0.0,0.399058924,0.0,0.25,True,,5ea82e03b5f29722e4b5835e,,1207472,28,,evan-feature22,full_rf_b,,1
4,46230,29,,,,2,2,1.0,0.0,0.0,1.0,,0.0-31.0,,0.0,496.0,1.0,0.631324137,1.0,0.6269842929999999,1.0,0.38734784299999997,0.0,0.25,True,,5ea82e03b5f29722e4b5835e,,1217735,29,,evan-feature22,full_rf_b,,0
5,46231,30,,,,1,1,0.0,1.0,0.0,1.0,,0.0-32.0,,1.0,2775.0,0.0,0.6381991370000001,1.0,0.68987999,1.0,0.384107265,0.0,0.271332943,True,,5ea82e03b5f29722e4b5835e,,1230269,30,,evan-feature22,full_rf_b,,1
6,46232,31,,,,1,1,1.0,0.0,0.0,1.0,,0.0-33.0,,0.0,1368.0,1.0,0.66034901,0.0,0.742641349,0.0,0.360225629,0.0,0.25,True,,5ea82e03b5f29722e4b5835e,,1241399,31,,evan-feature22,full_rf_b,,0
7,46233,32,,,,2,2,0.0,1.0,-1.0,0.0,,0.0-34.0,,0.0,478.0,0.0,0.638612418,1.0,0.75,0.0,0.367273939,1.0,0.25,True,,5ea82e03b5f29722e4b5835e,,1251637,32,,evan-feature22,full_rf_b,,1
8,46234,33,,,,2,2,0.0,1.0,0.0,1.0,,0.0-35.0,,1.0,410.0,1.0,0.624340629,1.0,0.75,0.0,0.425829545,1.0,0.25,True,,5ea82e03b5f29722e4b5835e,,1261807,33,,evan-feature22,full_rf_b,,0
9,46235,34,,,,1,1,1.0,1.0,0.0,1.0,,0.0-36.0,,1.0,1765.0,1.0,0.621999804,1.0,0.75,0.0,0.368609357,1.0,0.25,True,,5ea82e03b5f29722e4b5835e,,1273332,34,,evan-feature22,full_rf_b,,1
10,46236,35,,,,2,2,0.0,1.0,-1.0,0.0,,0.0-37.0,,0.0,1745.0,0.0,0.62666403,1.0,0.75,0.0,0.311151498,1.0,0.25,True,,5ea82e03b5f29722e4b5835e,,1284837,35,,evan-feature22,full_rf_b,,1
11,46237,36,,,,1,1,0.0,1.0,-1.0,0.0,,0.0-38.0,,0.0,534.0,0.0,0.6819650009999999,1.0,0.75,0.0,0.310763048,0.0,0.25,True,,5ea82e03b5f29722e4b5835e,,1295132,36,,evan-feature22,full_rf_b,,1
12,46238,37,,,,2,2,1.0,0.0,0.0,1.0,,0.0-39.0,,0.0,1851.0,0.0,0.740626951,1.0,0.75,1.0,0.25,0.0,0.25,True,,5ea82e03b5f29722e4b5835e,,1306743,37,,evan-feature22,full_rf_b,,1
13,46239,38,,,,1,1,1.0,0.0,0.0,1.0,,0.0-40.0,,0.0,885.0,1.0,0.739599242,0.0,0.742034978,0.0,0.25397114600000004,0.0,0.25,True,,5ea82e03b5f29722e4b5835e,,1317385,38,,evan-feature22,full_rf_b,,1
14,46240,39,,,,2,2,0.0,1.0,0.0,1.0,,0.0-41.0,,1.0,720.0,1.0,0.732341315,0.0,0.72735643,0.0,0.25,1.0,0.25,True,,5ea82e03b5f29722e4b5835e,,1327865,39,,evan-feature22,full_rf_b,,1
15,46241,40,,,,1,1,1.0,1.0,0.0,1.0,,0.0-42.0,,1.0,509.0,1.0,0.7062287770000001,1.0,0.75,0.0,0.29002151,0.0,0.288256649,True,,5ea82e03b5f29722e4b5835e,,1338134,40,,evan-feature22,full_rf_b,,1
16,46242,41,,,,1,1,1.0,0.0,-1.0,0.0,,0.0-43.0,,-1.0,971.0,1.0,0.7086029209999999,0.0,0.75,0.0,0.274129113,0.0,0.262851608,True,,5ea82e03b5f29722e4b5835e,,1348864,41,,evan-feature22,full_rf_b,,0
17,46243,42,,,,2,2,0.0,0.0,0.0,1.0,,0.0-44.0,,0.0,986.0,1.0,0.669189651,0.0,0.727614338,0.0,0.298444036,0.0,0.296944518,True,,5ea82e03b5f29722e4b5835e,,1359609,42,,evan-feature22,full_rf_b,,1
18,46244,43,,,,1,1,0.0,0.0,-1.0,0.0,,0.0-45.0,,0.0,1055.0,0.0,0.6819912929999999,0.0,0.7179434290000001,0.0,0.265003961,0.0,0.28157921199999997,True,,5ea82e03b5f29722e4b5835e,,1370420,43,,evan-feature22,full_rf_b,,1
19,46245,44,,,,SLOW,SLOW,,,-1.0,0.0,,0.0-46.0,,-3.0,,0.0,0.665275002,0.0,0.723065271,0.0,0.260414971,0.0,0.30973870000000003,True,,5ea82e03b5f29722e4b5835e,,1376223,44,,evan-feature22,full_rf_b,,1
20,46246,45,,,,2,2,0.0,0.0,0.0,1.0,,0.0-47.0,,0.0,470.0,0.0,0.6660593260000001,1.0,0.728032907,0.0,0.30922817,0.0,0.338778608,True,,5ea82e03b5f29722e4b5835e,,1386452,45,,evan-feature22,full_rf_b,,1
21,46247,46,,,,1,1,1.0,1.0,0.0,1.0,,0.0-48.0,,1.0,443.0,1.0,0.702068785,1.0,0.6528750879999999,1.0,0.287329608,0.0,0.35789613200000003,True,,5ea82e03b5f29722e4b5835e,,1396656,46,,evan-feature22,full_rf_b,,1
22,46248,47,,,,SLOW,SLOW,,,0.0,1.0,,0.0-49.0,,-3.0,,0.0,0.651939787,0.0,0.636725589,0.0,0.284834488,0.0,0.358563756,True,,5ea82e03b5f29722e4b5835e,,1402460,47,,evan-feature22,full_rf_b,,1
23,46249,48,,,,2,2,1.0,1.0,0.0,1.0,,0.0-50.0,,1.0,537.0,1.0,0.67573929,1.0,0.612550049,1.0,0.37130387600000003,1.0,0.383542402,True,,5ea82e03b5f29722e4b5835e,,1412755,48,,evan-feature22,full_rf_b,,1
24,46250,49,,,,2,2,1.0,1.0,0.0,1.0,,0.0-51.0,,1.0,404.0,0.0,0.620753801,1.0,0.60513644,1.0,0.385529434,1.0,0.340361743,True,,5ea82e03b5f29722e4b5835e,,1422920,49,,evan-feature22,full_rf_b,,0
25,46251,50,,,,1,1,1.0,0.0,-1.0,0.0,,0.0-52.0,,-1.0,379.0,1.0,0.673564893,0.0,0.672437924,0.0,0.292955382,1.0,0.337633795,True,,5ea82e03b5f29722e4b5835e,,1433059,50,,evan-feature22,full_rf_b,,1
26,46252,51,,,,2,2,0.0,0.0,0.0,1.0,,0.0-53.0,,0.0,1127.0,0.0,0.6749427,0.0,0.724197502,0.0,0.32391132100000003,0.0,0.350995264,True,,5ea82e03b5f29722e4b5835e,,1443947,51,,evan-feature22,full_rf_b,,1
27,46253,52,,,,2,2,1.0,0.0,0.0,1.0,,0.0-54.0,,0.0,1134.0,1.0,0.6940159379999999,1.0,0.75,1.0,0.31710554399999996,0.0,0.413450341,True,,5ea82e03b5f29722e4b5835e,,1454840,52,,evan-feature22,full_rf_b,,0
28,46254,53,,,,2,2,0.0,0.0,0.0,1.0,,0.0-55.0,,0.0,1279.0,1.0,0.6916018270000001,1.0,0.69001187,0.0,0.261817804,0.0,0.40038635,True,,5ea82e03b5f29722e4b5835e,,1465877,53,,evan-feature22,full_rf_b,,0
29,46255,54,,,,1,1,1.0,0.0,0.0,1.0,,0.0-56.0,,0.0,508.0,1.0,0.641061544,0.0,0.71337992,1.0,0.277296461,0.0,0.47372791700000005,True,,5ea82e03b5f29722e4b5835e,,1476142,54,,evan-feature22,full_rf_b,,1
30,46256,55,,,,1,1,1.0,1.0,0.0,1.0,,0.0-57.0,,1.0,422.0,1.0,0.6082438520000001,1.0,0.708471106,1.0,0.28745137,0.0,0.564174476,True,,5ea82e03b5f29722e4b5835e,,1486325,55,,evan-feature22,full_rf_b,,0
31,46257,56,,,,2,2,0.0,0.0,-1.0,0.0,,0.0-58.0,,0.0,1156.0,0.0,0.6051112120000001,1.0,0.7118147229999999,0.0,0.272390611,0.0,0.5595149939999999,True,,5ea82e03b5f29722e4b5835e,,1497241,56,,evan-feature22,full_rf_b,,1
32,46258,57,,,,1,1,1.0,0.0,-1.0,0.0,,0.0-59.0,,-1.0,1214.0,1.0,0.582420852,0.0,0.635867583,1.0,0.31089574,0.0,0.5227206520000001,True,,5ea82e03b5f29722e4b5835e,,1508214,57,,evan-feature22,full_rf_b,,1
33,46259,58,,,,1,1,0.0,0.0,-1.0,0.0,,0.0-60.0,,0.0,575.0,0.0,0.623195575,0.0,0.655026044,1.0,0.25,1.0,0.560387538,True,,5ea82e03b5f29722e4b5835e,,1518547,58,,evan-feature22,full_rf_b,,0
34,46260,59,,,,1,1,1.0,1.0,0.0,1.0,,0.0-61.0,,1.0,784.0,1.0,0.601889598,1.0,0.678198724,0.0,0.25,0.0,0.559922936,True,,5ea82e03b5f29722e4b5835e,,1529090,59,,evan-feature22,full_rf_b,,0
35,46261,60,,,,2,2,1.0,0.0,-1.0,0.0,,0.0-62.0,,-1.0,2096.0,0.0,0.601259914,0.0,0.704681482,1.0,0.33908969299999997,0.0,0.505003715,True,,5ea82e03b5f29722e4b5835e,,1540945,60,,evan-feature22,full_rf_b,,1
36,46262,61,,,,1,1,1.0,0.0,-1.0,0.0,,0.0-63.0,,-1.0,639.0,1.0,0.59645454,0.0,0.710437172,0.0,0.327441879,0.0,0.391749613,True,,5ea82e03b5f29722e4b5835e,,1551342,61,,evan-feature22,full_rf_b,,1
37,46263,62,,,,1,1,0.0,0.0,0.0,1.0,,0.0-64.0,,0.0,444.0,0.0,0.529473,0.0,0.636758527,1.0,0.301338063,0.0,0.365661481,True,,5ea82e03b5f29722e4b5835e,,1561546,62,,evan-feature22,full_rf_b,,0
38,46264,63,,,,2,2,0.0,1.0,-1.0,0.0,,0.0-65.0,,0.0,1981.0,0.0,0.541657162,1.0,0.634541962,0.0,0.343535366,1.0,0.371763742,True,,5ea82e03b5f29722e4b5835e,,1573287,63,,evan-feature22,full_rf_b,,1
39,46265,64,,,,1,1,1.0,0.0,-1.0,0.0,,0.0-66.0,,-1.0,1638.0,1.0,0.5707533260000001,0.0,0.589121171,0.0,0.326428396,0.0,0.43961622899999997,True,,5ea82e03b5f29722e4b5835e,,1584686,64,,evan-feature22,full_rf_b,,1
40,46266,65,,,,2,2,1.0,0.0,0.0,1.0,,0.0-67.0,,0.0,592.0,0.0,0.5707533260000001,0.0,0.589121171,1.0,0.326428396,0.0,0.43961622899999997,True,,5ea82e03b5f29722e4b5835e,,1595038,65,,evan-feature22,full_rf_b,,1
41,46267,66,,,,1,1,0.0,0.0,0.0,1.0,,0.0-68.0,,0.0,1248.0,0.0,0.506271295,0.0,0.641775594,0.0,0.37149690700000004,0.0,0.404330166,True,,5ea82e03b5f29722e4b5835e,,1606044,66,,evan-feature22,full_rf_b,,1
42,46268,67,,,,1,1,0.0,1.0,-1.0,0.0,,0.0-69.0,,0.0,1102.0,0.0,0.455642565,1.0,0.623605825,1.0,0.358753011,0.0,0.346174041,True,,5ea82e03b5f29722e4b5835e,,1616904,67,,evan-feature22,full_rf_b,,0
43,46269,68,,,,2,2,0.0,0.0,0.0,1.0,,0.0-70.0,,0.0,1204.0,1.0,0.483677308,0.0,0.5904681070000001,0.0,0.402218411,0.0,0.35344697,True,,5ea82e03b5f29722e4b5835e,,1627867,68,,evan-feature22,full_rf_b,,1
44,46270,69,,,,2,2,1.0,0.0,-1.0,0.0,,0.0-71.0,,-1.0,1399.0,1.0,0.394210977,1.0,0.558925494,1.0,0.540052017,0.0,0.35182128700000004,True,,5ea82e03b5f29722e4b5835e,,1639024,69,,evan-feature22,full_rf_b,,0
45,46271,70,,,,2,2,1.0,0.0,0.0,1.0,,0.0-72.0,,0.0,915.0,1.0,0.382300414,0.0,0.577670603,1.0,0.607608448,0.0,0.378261578,True,,5ea82e03b5f29722e4b5835e,,1649699,70,,evan-feature22,full_rf_b,,0
46,46272,71,,,,1,1,1.0,1.0,-1.0,0.0,,0.0-73.0,,-1.0,777.0,1.0,0.357596762,1.0,0.5929076529999999,1.0,0.6579790010000001,1.0,0.401326777,True,,5ea82e03b5f29722e4b5835e,,1660236,71,,evan-feature22,full_rf_b,,1
47,46273,72,,,,1,1,1.0,0.0,0.0,1.0,,0.0-74.0,,0.0,738.0,1.0,0.362033495,0.0,0.582308608,0.0,0.649195052,1.0,0.355158505,True,,5ea82e03b5f29722e4b5835e,,1670733,72,,evan-feature22,full_rf_b,,0
48,46274,73,,,,2,2,1.0,0.0,0.0,1.0,,0.0-75.0,,0.0,3174.0,1.0,0.369620635,0.0,0.669100864,1.0,0.706059111,0.0,0.362516241,True,,5ea82e03b5f29722e4b5835e,,1683664,73,,evan-feature22,full_rf_b,,1
49,46275,74,,,,1,1,0.0,1.0,0.0,1.0,,0.0-76.0,,1.0,737.0,0.0,0.41477751399999996,1.0,0.7284416779999999,0.0,0.7182656940000001,0.0,0.36228040899999997,True,,5ea82e03b5f29722e4b5835e,,1694160,74,,evan-feature22,full_rf_b,,1
50,46276,75,,,,2,2,1.0,0.0,-1.0,0.0,,0.0-77.0,,-1.0,169.0,1.0,0.37675460299999997,1.0,0.703250285,1.0,0.75,0.0,0.461979164,True,,5ea82e03b5f29722e4b5835e,,1704089,75,,evan-feature22,full_rf_b,,1
51,46277,76,,,,1,1,1.0,0.0,-1.0,0.0,,0.0-78.0,,-1.0,1378.0,1.0,0.398716075,0.0,0.6723864890000001,1.0,0.674153818,0.0,0.519029516,True,,5ea82e03b5f29722e4b5835e,,1715228,76,,evan-feature22,full_rf_b,,1
52,46278,77,,,,2,2,1.0,0.0,-1.0,0.0,,0.0-79.0,,-1.0,1081.0,0.0,0.34677856700000004,1.0,0.69057175,1.0,0.6822438540000001,0.0,0.477292237,True,,5ea82e03b5f29722e4b5835e,,1726068,77,,evan-feature22,full_rf_b,,1
53,46279,78,,,,1,1,0.0,1.0,0.0,1.0,,0.0-80.0,,1.0,710.0,0.0,0.28580469199999997,1.0,0.68408818,1.0,0.684207565,1.0,0.49780448299999996,True,,5ea82e03b5f29722e4b5835e,,1736537,78,,evan-feature22,full_rf_b,,1
54,46281,80,,,,1,1,1.0,1.0,0.0,1.0,,0.0-82.0,,1.0,676.0,1.0,0.25,1.0,0.7405808970000001,0.0,0.679614108,1.0,0.436436964,True,,5ea82e03b5f29722e4b5835e,,1749773,80,,evan-feature22,full_rf_b,,0
55,46282,81,,,,1,1,0.0,1.0,0.0,1.0,,0.0-83.0,,1.0,451.0,0.0,0.29890393,1.0,0.730505706,1.0,0.7328203320000001,1.0,0.439256938,True,,5ea82e03b5f29722e4b5835e,,1759982,81,,evan-feature22,full_rf_b,,0
56,46283,82,,,,1,1,0.0,1.0,-1.0,0.0,,0.0-84.0,,0.0,639.0,0.0,0.326762398,1.0,0.7148059609999999,0.0,0.75,1.0,0.44389608799999997,True,,5ea82e03b5f29722e4b5835e,,1770379,82,,evan-feature22,full_rf_b,,0
57,46284,83,,,,2,2,0.0,0.0,0.0,1.0,,0.0-85.0,,0.0,584.0,0.0,0.295168515,0.0,0.739760854,0.0,0.719947008,0.0,0.35277284600000003,True,,5ea82e03b5f29722e4b5835e,,1780722,83,,evan-feature22,full_rf_b,,1
58,46285,84,,,,2,2,1.0,0.0,0.0,1.0,,0.0-86.0,,0.0,499.0,1.0,0.25,1.0,0.70781482,1.0,0.75,0.0,0.286095925,True,,5ea82e03b5f29722e4b5835e,,1790981,84,,evan-feature22,full_rf_b,,0
59,46286,85,,,,2,2,1.0,0.0,0.0,1.0,,0.0-87.0,,0.0,1859.0,0.0,0.25638190899999996,0.0,0.704088163,1.0,0.75,0.0,0.26872601399999996,True,,5ea82e03b5f29722e4b5835e,,1802598,85,,evan-feature22,full_rf_b,,0
60,46287,86,,,,1,1,0.0,1.0,-1.0,0.0,,0.0-88.0,,0.0,776.0,0.0,0.271581126,1.0,0.669760107,1.0,0.733896663,0.0,0.273244572,True,,5ea82e03b5f29722e4b5835e,,1813132,86,,evan-feature22,full_rf_b,,1
61,46288,87,,,,1,1,0.0,1.0,0.0,1.0,,0.0-89.0,,1.0,497.0,0.0,0.257144401,1.0,0.600575706,1.0,0.74488122,0.0,0.25,True,,5ea82e03b5f29722e4b5835e,,1823393,87,,evan-feature22,full_rf_b,,0
62,46289,88,,,,1,1,0.0,1.0,0.0,1.0,,0.0-90.0,,1.0,386.0,0.0,0.25,1.0,0.616870026,0.0,0.723610234,0.0,0.25,True,,5ea82e03b5f29722e4b5835e,,1833539,88,,evan-feature22,full_rf_b,,0
63,46290,89,,,,2,2,0.0,0.0,-1.0,0.0,,0.0-91.0,,0.0,407.0,0.0,0.25,0.0,0.583540187,0.0,0.7041042559999999,0.0,0.285961995,True,,5ea82e03b5f29722e4b5835e,,1843706,89,,evan-feature22,full_rf_b,,1
64,46291,90,,,,2,2,0.0,0.0,-1.0,0.0,,0.0-92.0,,0.0,2688.0,0.0,0.27254536,0.0,0.53875765,0.0,0.693783448,0.0,0.284961652,True,,5ea82e03b5f29722e4b5835e,,1856152,90,,evan-feature22,full_rf_b,,0
65,46292,91,,,,1,1,0.0,1.0,-1.0,0.0,,0.0-93.0,,0.0,1137.0,0.0,0.25,1.0,0.548431252,1.0,0.734221895,1.0,0.279445214,True,,5ea82e03b5f29722e4b5835e,,1867048,91,,evan-feature22,full_rf_b,,1
66,46293,92,,,,2,2,0.0,1.0,0.0,1.0,,0.0-94.0,,1.0,450.0,0.0,0.258640684,0.0,0.545878066,0.0,0.725245965,1.0,0.31487537,True,,5ea82e03b5f29722e4b5835e,,1877256,92,,evan-feature22,full_rf_b,,1
67,46294,93,,,,1,1,0.0,1.0,0.0,1.0,,0.0-95.0,,1.0,646.0,0.0,0.251103711,1.0,0.5776290629999999,0.0,0.696320133,0.0,0.317831047,True,,5ea82e03b5f29722e4b5835e,,1887662,93,,evan-feature22,full_rf_b,,1
68,46295,94,,,,1,1,0.0,0.0,0.0,1.0,,0.0-96.0,,0.0,3029.0,0.0,0.276630292,0.0,0.617329858,1.0,0.73838088,0.0,0.261471582,True,,5ea82e03b5f29722e4b5835e,,1900450,94,,evan-feature22,full_rf_b,,0
69,46296,95,,,,SLOW,SLOW,,,0.0,1.0,,0.0-97.0,,-3.0,,0.0,0.297716424,1.0,0.618863717,1.0,0.7402358259999999,0.0,0.262600834,True,,5ea82e03b5f29722e4b5835e,,1906254,95,,evan-feature22,full_rf_b,,1
70,46297,96,,,,1,1,0.0,1.0,-1.0,0.0,,0.0-98.0,,0.0,1454.0,0.0,0.290935512,1.0,0.695370945,1.0,0.706570507,0.0,0.280030553,True,,5ea82e03b5f29722e4b5835e,,1917469,96,,evan-feature22,full_rf_b,,1
71,46298,97,,,,1,1,0.0,1.0,0.0,1.0,,0.0-99.0,,1.0,837.0,0.0,0.25,1.0,0.6465277079999999,1.0,0.67766682,1.0,0.25,True,,5ea82e03b5f29722e4b5835e,,1928066,97,,evan-feature22,full_rf_b,,0
72,46299,98,,,,2,2,1.0,1.0,-1.0,0.0,,0.0-100.0,,-1.0,1265.0,0.0,0.26463816,0.0,0.636100213,1.0,0.646048507,1.0,0.265607101,True,,5ea82e03b5f29722e4b5835e,,1939092,98,,evan-feature22,full_rf_b,,1
73,46300,99,,,,1,1,0.0,1.0,-1.0,0.0,,0.0-101.0,,0.0,1043.0,0.0,0.314340707,1.0,0.667795927,1.0,0.613630805,0.0,0.25,True,,5ea82e03b5f29722e4b5835e,,1949893,99,,evan-feature22,full_rf_b,,1
74,46301,100,,,,1,1,0.0,1.0,0.0,1.0,,0.0-102.0,,1.0,656.0,0.0,0.28685784,1.0,0.6622549529999999,1.0,0.652154117,0.0,0.25,True,,5ea82e03b5f29722e4b5835e,,1960306,100,,evan-feature22,full_rf_b,,0
75,46302,101,,,,2,2,1.0,0.0,0.0,1.0,,0.0-103.0,,0.0,793.0,0.0,0.304106554,0.0,0.631289538,1.0,0.707041942,0.0,0.29314237,True,,5ea82e03b5f29722e4b5835e,,1970857,101,,evan-feature22,full_rf_b,,1
76,46303,102,,,,1,1,1.0,1.0,0.0,1.0,,0.0-104.0,,1.0,2600.0,1.0,0.304806932,1.0,0.571167718,1.0,0.680472346,0.0,0.25,True,,5ea82e03b5f29722e4b5835e,,1983218,102,,evan-feature22,full_rf_b,,1
77,46304,103,,,,2,2,1.0,0.0,0.0,1.0,,0.0-105.0,,0.0,751.0,0.0,0.37919861,1.0,0.5724849710000001,1.0,0.705638003,0.0,0.30179300600000003,True,,5ea82e03b5f29722e4b5835e,,1993727,103,,evan-feature22,full_rf_b,,1
78,46305,104,,,,1,1,0.0,0.0,0.0,1.0,,0.0-106.0,,0.0,2191.0,0.0,0.464277969,0.0,0.554034373,0.0,0.7372627340000001,0.0,0.264699741,True,,5ea82e03b5f29722e4b5835e,,2005675,104,,evan-feature22,full_rf_b,,1
79,46306,105,,,,2,2,1.0,1.0,0.0,1.0,,0.0-107.0,,1.0,2635.0,0.0,0.465104323,0.0,0.530793115,1.0,0.75,1.0,0.31683071,True,,5ea82e03b5f29722e4b5835e,,2018070,105,,evan-feature22,full_rf_b,,1
80,46307,106,,,,2,2,1.0,0.0,-1.0,0.0,,0.0-108.0,,-1.0,2113.0,1.0,0.465104323,1.0,0.530793115,1.0,0.75,0.0,0.31683071,True,,5ea82e03b5f29722e4b5835e,,2029942,106,,evan-feature22,full_rf_b,,0
81,46308,107,,,,1,1,1.0,0.0,-1.0,0.0,,0.0-109.0,,-1.0,1433.0,1.0,0.46833986,0.0,0.570249239,1.0,0.7244472590000001,1.0,0.364114163,True,,5ea82e03b5f29722e4b5835e,,2041138,107,,evan-feature22,full_rf_b,,1
82,46309,108,,,,2,2,1.0,0.0,-1.0,0.0,,0.0-110.0,,-1.0,971.0,1.0,0.445444024,0.0,0.649673355,1.0,0.6845441290000001,0.0,0.300660449,True,,5ea82e03b5f29722e4b5835e,,2051869,108,,evan-feature22,full_rf_b,,1
83,46310,109,,,,1,1,0.0,0.0,-1.0,0.0,,0.0-111.0,,0.0,3124.0,0.0,0.39909721299999995,0.0,0.6715179509999999,0.0,0.742310028,0.0,0.35496088299999995,True,,5ea82e03b5f29722e4b5835e,,2064752,109,,evan-feature22,full_rf_b,,1
84,46311,110,,,,2,2,0.0,1.0,0.0,1.0,,0.0-112.0,,1.0,3419.0,0.0,0.37956104799999996,0.0,0.694725302,0.0,0.7181651309999999,1.0,0.38726906299999997,True,,5ea82e03b5f29722e4b5835e,,2077932,110,,evan-feature22,full_rf_b,,1
85,46312,111,,,,2,2,1.0,0.0,0.0,1.0,,0.0-113.0,,0.0,1930.0,0.0,0.404995034,0.0,0.724375412,1.0,0.6910946859999999,0.0,0.387187347,True,,5ea82e03b5f29722e4b5835e,,2089619,111,,evan-feature22,full_rf_b,,0
86,46313,112,,,,2,2,1.0,0.0,-1.0,0.0,,0.0-114.0,,-1.0,1745.0,1.0,0.461740803,1.0,0.75,1.0,0.75,0.0,0.34872038200000005,True,,5ea82e03b5f29722e4b5835e,,2101133,112,,evan-feature22,full_rf_b,,0
87,46314,113,,,,1,1,0.0,1.0,-1.0,0.0,,0.0-115.0,,0.0,1140.0,0.0,0.43821380600000004,1.0,0.738833273,1.0,0.728286963,1.0,0.399538128,True,,5ea82e03b5f29722e4b5835e,,2112032,113,,evan-feature22,full_rf_b,,1
88,46315,114,,,,1,1,0.0,1.0,0.0,1.0,,0.0-116.0,,1.0,2070.0,0.0,0.41709882,1.0,0.736666736,0.0,0.75,0.0,0.389095584,True,,5ea82e03b5f29722e4b5835e,,2123860,114,,evan-feature22,full_rf_b,,0
89,46316,115,,,,1,1,0.0,0.0,0.0,1.0,,0.0-117.0,,0.0,1491.0,0.0,0.39749009799999996,0.0,0.744320029,0.0,0.75,0.0,0.363848678,True,,5ea82e03b5f29722e4b5835e,,2135107,115,,evan-feature22,full_rf_b,,0
90,46317,116,,,,2,2,1.0,1.0,-1.0,0.0,,0.0-118.0,,-1.0,1482.0,1.0,0.392653706,1.0,0.75,1.0,0.75,1.0,0.384386976,True,,5ea82e03b5f29722e4b5835e,,2146348,116,,evan-feature22,full_rf_b,,1
91,46318,117,,,,1,1,0.0,1.0,0.0,1.0,,0.0-119.0,,1.0,523.0,0.0,0.31190902600000003,1.0,0.75,0.0,0.732413819,1.0,0.413082932,True,,5ea82e03b5f29722e4b5835e,,2156631,117,,evan-feature22,full_rf_b,,1
92,46319,118,,,,2,2,0.0,0.0,-1.0,0.0,,0.0-120.0,,0.0,1809.0,1.0,0.366917648,0.0,0.740073855,0.0,0.75,0.0,0.352861979,True,,5ea82e03b5f29722e4b5835e,,2168200,118,,evan-feature22,full_rf_b,,1
93,46320,119,,,,2,2,1.0,1.0,-1.0,0.0,,0.0-121.0,,-1.0,1136.0,1.0,0.3645172,1.0,0.721770713,1.0,0.75,1.0,0.404074511,True,,5ea82e03b5f29722e4b5835e,,2179096,119,,evan-feature22,full_rf_b,,0
94,46321,120,,,,2,2,1.0,0.0,-1.0,0.0,,0.0-122.0,,-1.0,942.0,0.0,0.35205600299999995,0.0,0.68983859,1.0,0.739735447,0.0,0.366895945,True,,5ea82e03b5f29722e4b5835e,,2189796,120,,evan-feature22,full_rf_b,,0
95,46322,121,,,,1,1,0.0,1.0,-1.0,0.0,,0.0-123.0,,0.0,1049.0,0.0,0.40998722600000004,1.0,0.720859127,0.0,0.673854955,1.0,0.368528541,True,,5ea82e03b5f29722e4b5835e,,2200603,121,,evan-feature22,full_rf_b,,1
96,46323,122,,,,1,1,0.0,1.0,-1.0,0.0,,0.0-124.0,,0.0,2187.0,0.0,0.353625316,1.0,0.75,1.0,0.695605473,0.0,0.38303674200000004,True,,5ea82e03b5f29722e4b5835e,,2212549,122,,evan-feature22,full_rf_b,,0
97,46324,123,,,,1,1,0.0,1.0,-1.0,0.0,,0.0-125.0,,0.0,1133.0,0.0,0.359216989,1.0,0.75,1.0,0.6987915090000001,0.0,0.35169046200000004,True,,5ea82e03b5f29722e4b5835e,,2223441,123,,evan-feature22,full_rf_b,,0
98,46325,124,,,,1,1,0.0,1.0,-1.0,0.0,,0.0-126.0,,0.0,1060.0,0.0,0.35834496899999996,1.0,0.75,0.0,0.707067742,1.0,0.416763636,True,,5ea82e03b5f29722e4b5835e,,2234259,124,,evan-feature22,full_rf_b,,0
99,46326,125,,,,2,2,1.0,1.0,0.0,1.0,,0.0-127.0,,1.0,881.0,1.0,0.38741613799999997,0.0,0.7177369570000001,1.0,0.734902455,1.0,0.49438664299999996,True,,5ea82e03b5f29722e4b5835e,,2244898,125,,evan-feature22,full_rf_b,,1
100,46327,126,,,,1,1,1.0,1.0,-1.0,0.0,,0.0-128.0,,-1.0,1801.0,1.0,0.405255252,1.0,0.7300466640000001,0.0,0.7027748070000001,0.0,0.504359668,True,,5ea82e03b5f29722e4b5835e,,2256456,126,,evan-feature22,full_rf_b,,1
101,46328,127,,,,2,2,1.0,0.0,-1.0,0.0,,0.0-129.0,,-1.0,1677.0,1.0,0.40697073,1.0,0.7260142190000001,1.0,0.724461982,0.0,0.522779179,True,,5ea82e03b5f29722e4b5835e,,2267893,127,,evan-feature22,full_rf_b,,1
102,46329,128,,,,1,1,0.0,0.0,-1.0,0.0,,0.0-130.0,,0.0,951.0,0.0,0.43906215299999996,0.0,0.7252802340000001,0.0,0.719079934,1.0,0.5712990579999999,True,,5ea82e03b5f29722e4b5835e,,2278604,128,,evan-feature22,full_rf_b,,1
103,46330,129,,,,1,1,0.0,1.0,0.0,1.0,,0.0-131.0,,1.0,859.0,0.0,0.4076705,1.0,0.73280499,1.0,0.681313127,0.0,0.523891346,True,,5ea82e03b5f29722e4b5835e,,2289221,129,,evan-feature22,full_rf_b,,0
104,46331,130,,,,1,1,0.0,0.0,0.0,1.0,,0.0-132.0,,0.0,948.0,0.0,0.399102911,0.0,0.730498344,0.0,0.661080239,0.0,0.46742603,True,,5ea82e03b5f29722e4b5835e,,2299929,130,,evan-feature22,full_rf_b,,0
105,46332,131,,,,2,2,1.0,0.0,0.0,1.0,,0.0-133.0,,0.0,512.0,0.0,0.356477282,0.0,0.712296395,1.0,0.641812684,0.0,0.44868414,True,,5ea82e03b5f29722e4b5835e,,2310199,131,,evan-feature22,full_rf_b,,1
106,46333,132,,,,1,1,0.0,1.0,-1.0,0.0,,0.0-134.0,,0.0,1077.0,0.0,0.462760722,1.0,0.692349322,0.0,0.700947931,1.0,0.394680266,True,,5ea82e03b5f29722e4b5835e,,2321034,132,,evan-feature22,full_rf_b,,1
107,46334,133,,,,2,2,0.0,0.0,-1.0,0.0,,0.0-135.0,,0.0,1533.0,1.0,0.422306413,1.0,0.718375916,0.0,0.706340917,0.0,0.367787185,True,,5ea82e03b5f29722e4b5835e,,2332327,133,,evan-feature22,full_rf_b,,1
108,46336,135,,,,1,1,1.0,1.0,-1.0,0.0,,0.0-137.0,,-1.0,1176.0,1.0,0.4582233,1.0,0.643834117,0.0,0.75,1.0,0.39615823299999997,True,,5ea82e03b5f29722e4b5835e,,2358438,135,,evan-feature22,full_rf_b,,1
109,46337,136,,,,2,2,0.0,0.0,-1.0,0.0,,0.0-138.0,,0.0,574.0,1.0,0.43813437899999996,1.0,0.651283804,0.0,0.729674191,0.0,0.37711048,True,,5ea82e03b5f29722e4b5835e,,2368769,136,,evan-feature22,full_rf_b,,1
110,46338,137,,,,1,1,0.0,1.0,-1.0,0.0,,0.0-139.0,,0.0,272.0,0.0,0.471199094,1.0,0.6470010979999999,1.0,0.715008097,0.0,0.410656191,True,,5ea82e03b5f29722e4b5835e,,2378800,137,,evan-feature22,full_rf_b,,1
111,46339,138,,,,1,1,1.0,1.0,-1.0,0.0,,0.0-140.0,,-1.0,913.0,1.0,0.42486406,1.0,0.629771829,1.0,0.6550939960000001,0.0,0.459093873,True,,5ea82e03b5f29722e4b5835e,,2389474,138,,evan-feature22,full_rf_b,,0
112,46340,139,,,,1,1,1.0,0.0,-1.0,0.0,,0.0-141.0,,-1.0,2199.0,1.0,0.4803197,0.0,0.645842715,1.0,0.6421749920000001,1.0,0.443092151,True,,5ea82e03b5f29722e4b5835e,,2401434,139,,evan-feature22,full_rf_b,,0
113,46341,140,,,,2,2,1.0,0.0,0.0,1.0,,0.0-142.0,,0.0,616.0,0.0,0.521848997,1.0,0.735801074,1.0,0.6691348460000001,0.0,0.45259351600000003,True,,5ea82e03b5f29722e4b5835e,,2411807,140,,evan-feature22,full_rf_b,,1
114,46342,141,,,,1,1,0.0,1.0,-1.0,0.0,,0.0-143.0,,0.0,1660.0,0.0,0.49565621299999996,1.0,0.742400847,0.0,0.661512553,0.0,0.483110831,True,,5ea82e03b5f29722e4b5835e,,2423225,141,,evan-feature22,full_rf_b,,1
115,46343,142,,,,2,2,1.0,1.0,-1.0,0.0,,0.0-144.0,,-1.0,830.0,0.0,0.521564361,1.0,0.731078632,1.0,0.6774886809999999,1.0,0.483263956,True,,5ea82e03b5f29722e4b5835e,,2433813,142,,evan-feature22,full_rf_b,,1
116,46344,143,,,,2,2,1.0,0.0,-1.0,0.0,,0.0-145.0,,-1.0,3109.0,1.0,0.558893102,0.0,0.719810023,1.0,0.67461031,0.0,0.499349834,True,,5ea82e03b5f29722e4b5835e,,2446682,143,,evan-feature22,full_rf_b,,0
117,46345,144,,,,1,1,0.0,1.0,-1.0,0.0,,0.0-146.0,,0.0,1230.0,0.0,0.611031046,1.0,0.75,1.0,0.688072995,1.0,0.5321422729999999,True,,5ea82e03b5f29722e4b5835e,,2457671,144,,evan-feature22,full_rf_b,,1
118,46346,145,,,,2,2,1.0,1.0,0.0,1.0,,0.0-147.0,,1.0,473.0,1.0,0.633223941,1.0,0.713567728,1.0,0.75,1.0,0.48185314700000004,True,,5ea82e03b5f29722e4b5835e,,2467904,145,,evan-feature22,full_rf_b,,1
119,46347,146,,,,SLOW,SLOW,,,-1.0,0.0,,0.0-148.0,,-3.0,,0.0,0.664001694,1.0,0.705509768,1.0,0.75,1.0,0.500211065,True,,5ea82e03b5f29722e4b5835e,,2473707,146,,evan-feature22,full_rf_b,,1
120,46348,147,,,,1,1,1.0,1.0,-1.0,0.0,,0.0-149.0,,-1.0,1124.0,1.0,0.664001694,1.0,0.705509768,1.0,0.75,0.0,0.500211065,True,,5ea82e03b5f29722e4b5835e,,2484590,147,,evan-feature22,full_rf_b,,1
121,46349,148,,,,2,2,1.0,0.0,-1.0,0.0,,0.0-150.0,,-1.0,1568.0,1.0,0.696508041,1.0,0.71066027,1.0,0.717028709,0.0,0.49792991,True,,5ea82e03b5f29722e4b5835e,,2495923,148,,evan-feature22,full_rf_b,,1
122,46350,149,,,,1,1,1.0,0.0,0.0,1.0,,0.0-151.0,,0.0,930.0,1.0,0.699883272,0.0,0.75,1.0,0.713543895,0.0,0.496962643,True,,5ea82e03b5f29722e4b5835e,,2506610,149,,evan-feature22,full_rf_b,,1
123,46351,150,,,,2,2,1.0,1.0,0.0,1.0,,0.0-152.0,,1.0,477.0,0.0,0.741163419,1.0,0.75,1.0,0.64691024,1.0,0.513858197,True,,5ea82e03b5f29722e4b5835e,,2516846,150,,evan-feature22,full_rf_b,,1
124,46352,151,,,,1,1,1.0,0.0,0.0,1.0,,0.0-153.0,,0.0,3919.0,1.0,0.75,0.0,0.70816558,1.0,0.594499079,1.0,0.48502124,True,,5ea82e03b5f29722e4b5835e,,2530532,151,,evan-feature22,full_rf_b,,1
125,46353,152,,,,2,2,1.0,0.0,-1.0,0.0,,0.0-154.0,,-1.0,911.0,1.0,0.75,0.0,0.721848901,1.0,0.62197249,0.0,0.48263586399999997,True,,5ea82e03b5f29722e4b5835e,,2541202,152,,evan-feature22,full_rf_b,,1
126,46354,153,,,,SLOW,SLOW,,,-1.0,0.0,,0.0-155.0,,-3.0,,1.0,0.75,1.0,0.74813071,0.0,0.584357161,0.0,0.411477782,True,,5ea82e03b5f29722e4b5835e,,2547005,153,,evan-feature22,full_rf_b,,1
127,46355,154,,,,2,2,1.0,1.0,-1.0,0.0,,0.0-156.0,,-1.0,589.0,1.0,0.75,1.0,0.75,1.0,0.52287236,1.0,0.488290656,True,,5ea82e03b5f29722e4b5835e,,2557352,154,,evan-feature22,full_rf_b,,1
128,46356,155,,,,1,1,1.0,0.0,-1.0,0.0,,0.0-157.0,,-1.0,822.0,1.0,0.75,0.0,0.75,1.0,0.544321581,0.0,0.53143059,True,,5ea82e03b5f29722e4b5835e,,2567933,155,,evan-feature22,full_rf_b,,1
129,46357,156,,,,2,2,1.0,1.0,-1.0,0.0,,0.0-158.0,,-1.0,914.0,0.0,0.726754564,1.0,0.75,1.0,0.5129306370000001,1.0,0.530592445,True,,5ea82e03b5f29722e4b5835e,,2578608,156,,evan-feature22,full_rf_b,,1
130,46358,157,,,,1,1,1.0,0.0,0.0,1.0,,0.0-159.0,,0.0,1897.0,1.0,0.75,0.0,0.7392590729999999,0.0,0.479875835,0.0,0.547007051,True,,5ea82e03b5f29722e4b5835e,,2590266,157,,evan-feature22,full_rf_b,,1
131,46359,158,,,,2,2,0.0,1.0,0.0,1.0,,0.0-160.0,,1.0,2667.0,1.0,0.75,0.0,0.7393376979999999,0.0,0.546045419,1.0,0.541267353,True,,5ea82e03b5f29722e4b5835e,,2602692,158,,evan-feature22,full_rf_b,,1
132,46360,159,,,,2,2,0.0,0.0,-1.0,0.0,,0.0-161.0,,0.0,428.0,0.0,0.75,1.0,0.75,0.0,0.485725895,0.0,0.527625395,True,,5ea82e03b5f29722e4b5835e,,2612877,159,,evan-feature22,full_rf_b,,0
133,46361,160,,,,1,1,1.0,1.0,0.0,1.0,,0.0-162.0,,1.0,1832.0,1.0,0.75,1.0,0.725087974,0.0,0.488603595,0.0,0.504019206,True,,5ea82e03b5f29722e4b5835e,,2624467,160,,evan-feature22,full_rf_b,,1
134,46362,161,,,,2,2,1.0,1.0,-1.0,0.0,,0.0-163.0,,-1.0,1495.0,1.0,0.745504295,0.0,0.75,1.0,0.452379914,1.0,0.50131194,True,,5ea82e03b5f29722e4b5835e,,2635720,161,,evan-feature22,full_rf_b,,1
135,46363,162,,,,1,1,1.0,1.0,0.0,1.0,,0.0-164.0,,1.0,356.0,1.0,0.728513874,1.0,0.75,0.0,0.44125567200000004,1.0,0.531454591,True,,5ea82e03b5f29722e4b5835e,,2645835,162,,evan-feature22,full_rf_b,,1
136,46364,163,,,,2,2,0.0,1.0,-1.0,0.0,,0.0-165.0,,0.0,972.0,1.0,0.73790804,1.0,0.75,0.0,0.413036656,1.0,0.524619035,True,,5ea82e03b5f29722e4b5835e,,2656567,163,,evan-feature22,full_rf_b,,1
137,46365,164,,,,1,1,1.0,1.0,-1.0,0.0,,0.0-166.0,,-1.0,569.0,1.0,0.7080961309999999,1.0,0.708666865,0.0,0.431915581,0.0,0.481819489,True,,5ea82e03b5f29722e4b5835e,,2666894,164,,evan-feature22,full_rf_b,,1
138,46366,165,,,,2,2,0.0,1.0,-1.0,0.0,,0.0-167.0,,0.0,1421.0,1.0,0.721378003,1.0,0.71605913,0.0,0.36642387,1.0,0.5036739929999999,True,,5ea82e03b5f29722e4b5835e,,2678072,165,,evan-feature22,full_rf_b,,1
139,46367,166,,,,1,1,1.0,1.0,0.0,1.0,,0.0-168.0,,1.0,1304.0,1.0,0.7340618959999999,1.0,0.699323252,0.0,0.35298046299999997,0.0,0.511241692,True,,5ea82e03b5f29722e4b5835e,,2689135,166,,evan-feature22,full_rf_b,,1
140,46368,167,,,,2,2,0.0,0.0,0.0,1.0,,0.0-169.0,,0.0,3423.0,0.0,0.75,0.0,0.70412698,0.0,0.380734814,0.0,0.529580116,True,,5ea82e03b5f29722e4b5835e,,2702317,167,,evan-feature22,full_rf_b,,1
141,46369,168,,,,1,1,1.0,1.0,0.0,1.0,,0.0-170.0,,1.0,457.0,1.0,0.7436654909999999,1.0,0.711182751,1.0,0.41125331,0.0,0.49554405,True,,5ea82e03b5f29722e4b5835e,,2712532,168,,evan-feature22,full_rf_b,,1
142,46370,169,,,,2,2,0.0,1.0,-1.0,0.0,,0.0-171.0,,0.0,2147.0,0.0,0.731607915,1.0,0.651774583,0.0,0.35688023,1.0,0.45194491600000003,True,,5ea82e03b5f29722e4b5835e,,2724438,169,,evan-feature22,full_rf_b,,1
143,46371,170,,,,1,1,1.0,1.0,0.0,1.0,,0.0-172.0,,1.0,504.0,1.0,0.75,1.0,0.75,0.0,0.283145374,0.0,0.528608005,True,,5ea82e03b5f29722e4b5835e,,2734701,170,,evan-feature22,full_rf_b,,1
144,46372,171,,,,1,1,0.0,1.0,-1.0,0.0,,0.0-173.0,,0.0,476.0,0.0,0.7491416890000001,1.0,0.7423785959999999,0.0,0.29135870399999997,0.0,0.498888318,True,,5ea82e03b5f29722e4b5835e,,2744937,171,,evan-feature22,full_rf_b,,0
145,46373,172,,,,2,2,0.0,1.0,0.0,1.0,,0.0-174.0,,1.0,1612.0,1.0,0.708569387,0.0,0.717682277,0.0,0.294421699,1.0,0.493838163,True,,5ea82e03b5f29722e4b5835e,,2756308,172,,evan-feature22,full_rf_b,,1
146,46374,173,,,,1,1,1.0,1.0,-1.0,0.0,,0.0-175.0,,-1.0,156.0,1.0,0.75,1.0,0.7383382159999999,1.0,0.356098707,1.0,0.442533405,True,,5ea82e03b5f29722e4b5835e,,2766222,173,,evan-feature22,full_rf_b,,1
147,46375,174,,,,SLOW,SLOW,,,-1.0,0.0,,0.0-176.0,,-3.0,,1.0,0.744527075,1.0,0.75,0.0,0.334127506,0.0,0.393165805,True,,5ea82e03b5f29722e4b5835e,,2772025,174,,evan-feature22,full_rf_b,,1
148,46376,175,,,,1,1,1.0,1.0,-1.0,0.0,,0.0-177.0,,-1.0,2285.0,1.0,0.75,1.0,0.75,0.0,0.33571021799999995,0.0,0.350393962,True,,5ea82e03b5f29722e4b5835e,,2784068,175,,evan-feature22,full_rf_b,,1
149,46377,176,,,,2,2,1.0,0.0,0.0,1.0,,0.0-178.0,,0.0,523.0,1.0,0.75,1.0,0.75,1.0,0.313628297,0.0,0.36349657399999996,True,,5ea82e03b5f29722e4b5835e,,2794347,176,,evan-feature22,full_rf_b,,1
150,46378,177,,,,SLOW,SLOW,,,-1.0,0.0,,0.0-179.0,,-3.0,,1.0,0.75,0.0,0.734284182,0.0,0.262667667,1.0,0.380199119,True,,5ea82e03b5f29722e4b5835e,,2800151,177,,evan-feature22,full_rf_b,,1
151,46379,178,,,,2,2,1.0,0.0,-1.0,0.0,,0.0-180.0,,-1.0,1773.0,1.0,0.75,0.0,0.75,1.0,0.25,0.0,0.394494013,True,,5ea82e03b5f29722e4b5835e,,2811685,178,,evan-feature22,full_rf_b,,1
152,46380,179,,,,SLOW,SLOW,,,-1.0,0.0,,0.0-181.0,,-3.0,,1.0,0.722298145,1.0,0.7357822340000001,0.0,0.25,1.0,0.319142121,True,,5ea82e03b5f29722e4b5835e,,2817489,179,,evan-feature22,full_rf_b,,1
153,46381,180,,,,SLOW,SLOW,,,-1.0,0.0,,0.0-182.0,,-3.0,,1.0,0.73149275,1.0,0.724276446,0.0,0.305856907,0.0,0.281315057,True,,5ea82e03b5f29722e4b5835e,,2823292,180,,evan-feature22,full_rf_b,,0
154,46382,181,,,,2,2,0.0,0.0,-1.0,0.0,,0.0-183.0,,0.0,632.0,0.0,0.7458732690000001,1.0,0.7336382459999999,0.0,0.272571964,0.0,0.266021999,True,,5ea82e03b5f29722e4b5835e,,2833680,181,,evan-feature22,full_rf_b,,1
155,46383,182,,,,1,1,1.0,1.0,0.0,1.0,,0.0-184.0,,1.0,625.0,1.0,0.705579037,1.0,0.720778292,0.0,0.320238144,0.0,0.30971744,True,,5ea82e03b5f29722e4b5835e,,2844065,182,,evan-feature22,full_rf_b,,1
156,46384,183,,,,2,2,0.0,1.0,0.0,1.0,,0.0-185.0,,1.0,831.0,0.0,0.700425648,1.0,0.7198784009999999,0.0,0.272590393,1.0,0.304182931,True,,5ea82e03b5f29722e4b5835e,,2854654,183,,evan-feature22,full_rf_b,,1
157,46385,184,,,,1,1,1.0,1.0,0.0,1.0,,0.0-186.0,,1.0,2268.0,1.0,0.735590785,1.0,0.722714973,0.0,0.25,1.0,0.323421091,True,,5ea82e03b5f29722e4b5835e,,2866681,184,,evan-feature22,full_rf_b,,1
158,46386,185,,,,2,2,0.0,1.0,0.0,1.0,,0.0-187.0,,1.0,1141.0,0.0,0.724807662,1.0,0.63146213,0.0,0.36836492600000004,1.0,0.34592153299999995,True,,5ea82e03b5f29722e4b5835e,,2877581,185,,evan-feature22,full_rf_b,,1
159,46387,186,,,,1,1,1.0,1.0,-1.0,0.0,,0.0-188.0,,-1.0,1279.0,1.0,0.7352796909999999,1.0,0.555111392,0.0,0.36003922,1.0,0.31433779999999995,True,,5ea82e03b5f29722e4b5835e,,2888619,186,,evan-feature22,full_rf_b,,1
160,46388,187,notice,,,,,,,,,,0.0-189.0,"{""Q0"":""no""}",,12034.0,,,,,,,,,True,,5ea82e03b5f29722e4b5835e,,2900654,187,Q,survey-text,full_rf_b,,1
161,46389,188,track1,,[1],,,,,,,,0.0-190.0,"{""Q0"":""no""}",,9980.0,,,,,,,,,True,,5ea82e03b5f29722e4b5835e,,2910640,188,Q,evan-quiz,full_rf_b,,1
162,46390,189,track2,,[2],,,,,,,,0.0-191.0,"{""Q0"":""N/A""}",,14502.0,,,,,,,,,True,,5ea82e03b5f29722e4b5835e,,2925145,189,Q,evan-quiz,full_rf_b,,1
163,46391,190,strat,,,,,,,,,,0.0-192.0,"{""Q0"":""random""}",,7211.0,,,,,,,,,True,,5ea82e03b5f29722e4b5835e,,2932360,190,Q,survey-text,full_rf_b,,1
