,index,Unnamed: 0,Q_name,button_pressed,choice_idxs,chosen_pos,chosen_state,chosen_state_f_1_outcome,chosen_state_f_2_outcome,f_1_reward,f_2_reward,incor_questions,internal_node_id,responses,reward_received,rt,s_1_f_1_outcome,s_1_f_1_prob,s_1_f_2_outcome,s_1_f_2_prob,s_2_f_1_outcome,s_2_f_1_prob,s_2_f_2_outcome,s_2_f_2_prob,safe_first,stimulus,subjectID,success,time_elapsed,trial_index,trial_num,trial_type,version,view_history,switching
0,985,25,,,,2,2,1.0,0.0,0.0,-1.0,,0.0-27.0,,0.0,2237.26,0.0,0.6,0.0,0.6,1.0,0.4,0.0,0.4,False,,5f4697ecad5ee602362af721,,783126,25,,evan-feature22,full_pf_a,,0
1,986,26,,,,2,2,0.0,0.0,0.0,-1.0,,0.0-28.0,,0.0,2075.235,1.0,0.608053294,1.0,0.63424552,0.0,0.397152172,0.0,0.347069101,False,,5f4697ecad5ee602362af721,,794961,26,,evan-feature22,full_pf_a,,0
2,987,27,,,,1,1,1.0,1.0,0.0,-1.0,,0.0-29.0,,-1.0,1285.245,1.0,0.642237155,1.0,0.648566321,0.0,0.389407674,0.0,0.285525717,False,,5f4697ecad5ee602362af721,,806004,27,,evan-feature22,full_pf_a,,1
3,988,28,,,,2,2,0.0,0.0,0.0,-1.0,,0.0-30.0,,0.0,1396.445,1.0,0.661086576,0.0,0.630492543,0.0,0.399058924,0.0,0.25,False,,5f4697ecad5ee602362af721,,817160,28,,evan-feature22,full_pf_a,,1
4,989,29,,,,2,2,0.0,0.0,0.0,-1.0,,0.0-31.0,,0.0,1939.97,1.0,0.631324137,1.0,0.6269842929999999,0.0,0.38734784299999997,0.0,0.25,False,,5f4697ecad5ee602362af721,,828858,29,,evan-feature22,full_pf_a,,0
5,990,30,,,,1,1,1.0,0.0,0.0,-1.0,,0.0-32.0,,0.0,1661.305,1.0,0.6381991370000001,0.0,0.68987999,0.0,0.384107265,0.0,0.271332943,False,,5f4697ecad5ee602362af721,,840275,30,,evan-feature22,full_pf_a,,1
6,991,31,,,,2,2,0.0,0.0,0.0,-1.0,,0.0-33.0,,0.0,851.535,1.0,0.66034901,1.0,0.742641349,0.0,0.360225629,0.0,0.25,False,,5f4697ecad5ee602362af721,,850882,31,,evan-feature22,full_pf_a,,1
7,992,32,,,,1,1,1.0,1.0,1.0,0.0,,0.0-34.0,,1.0,765.865,1.0,0.638612418,1.0,0.75,1.0,0.367273939,0.0,0.25,False,,5f4697ecad5ee602362af721,,861406,32,,evan-feature22,full_pf_a,,1
8,993,33,,,,2,2,1.0,0.0,0.0,-1.0,,0.0-35.0,,0.0,1227.85,1.0,0.624340629,0.0,0.75,1.0,0.425829545,0.0,0.25,False,,5f4697ecad5ee602362af721,,872406,33,,evan-feature22,full_pf_a,,1
9,994,34,,,,2,2,0.0,0.0,0.0,-1.0,,0.0-36.0,,0.0,1090.495,1.0,0.621999804,1.0,0.75,0.0,0.368609357,0.0,0.25,False,,5f4697ecad5ee602362af721,,883256,34,,evan-feature22,full_pf_a,,0
10,995,35,,,,2,2,0.0,0.0,1.0,0.0,,0.0-37.0,,0.0,953.17,1.0,0.62666403,1.0,0.75,0.0,0.311151498,0.0,0.25,False,,5f4697ecad5ee602362af721,,893967,35,,evan-feature22,full_pf_a,,0
11,996,36,,,,2,2,0.0,0.0,1.0,0.0,,0.0-38.0,,0.0,927.76,1.0,0.6819650009999999,0.0,0.75,0.0,0.310763048,0.0,0.25,False,,5f4697ecad5ee602362af721,,904653,36,,evan-feature22,full_pf_a,,0
12,997,37,,,,2,2,0.0,1.0,0.0,-1.0,,0.0-39.0,,-1.0,1320.785,0.0,0.740626951,1.0,0.75,0.0,0.25,1.0,0.25,False,,5f4697ecad5ee602362af721,,915732,37,,evan-feature22,full_pf_a,,0
13,998,38,,,,1,1,0.0,1.0,0.0,-1.0,,0.0-40.0,,-1.0,1708.745,0.0,0.739599242,1.0,0.742034978,0.0,0.25397114600000004,0.0,0.25,False,,5f4697ecad5ee602362af721,,927201,38,,evan-feature22,full_pf_a,,1
14,999,39,,,,2,2,0.0,0.0,0.0,-1.0,,0.0-41.0,,0.0,1049.27,0.0,0.732341315,1.0,0.72735643,0.0,0.25,0.0,0.25,False,,5f4697ecad5ee602362af721,,938010,39,,evan-feature22,full_pf_a,,1
15,1000,40,,,,2,2,0.0,0.0,0.0,-1.0,,0.0-42.0,,0.0,1592.84,1.0,0.7062287770000001,1.0,0.75,0.0,0.29002151,0.0,0.288256649,False,,5f4697ecad5ee602362af721,,949359,40,,evan-feature22,full_pf_a,,0
16,1001,41,,,,1,1,1.0,1.0,1.0,0.0,,0.0-43.0,,1.0,1790.335,1.0,0.7086029209999999,1.0,0.75,1.0,0.274129113,0.0,0.262851608,False,,5f4697ecad5ee602362af721,,960909,41,,evan-feature22,full_pf_a,,1
17,1002,42,,,,2,2,0.0,0.0,0.0,-1.0,,0.0-44.0,,0.0,2465.8,0.0,0.669189651,0.0,0.727614338,0.0,0.298444036,0.0,0.296944518,False,,5f4697ecad5ee602362af721,,973134,42,,evan-feature22,full_pf_a,,1
18,1003,43,,,,1,1,1.0,0.0,1.0,0.0,,0.0-45.0,,1.0,1408.31,1.0,0.6819912929999999,0.0,0.7179434290000001,0.0,0.265003961,0.0,0.28157921199999997,False,,5f4697ecad5ee602362af721,,984302,43,,evan-feature22,full_pf_a,,1
19,1004,44,,,,1,1,1.0,1.0,1.0,0.0,,0.0-46.0,,1.0,1121.45,1.0,0.665275002,1.0,0.723065271,1.0,0.260414971,0.0,0.30973870000000003,False,,5f4697ecad5ee602362af721,,995179,44,,evan-feature22,full_pf_a,,0
20,1005,45,,,,2,2,0.0,1.0,0.0,-1.0,,0.0-47.0,,-1.0,1118.615,1.0,0.6660593260000001,0.0,0.728032907,0.0,0.30922817,1.0,0.338778608,False,,5f4697ecad5ee602362af721,,1006058,45,,evan-feature22,full_pf_a,,1
21,1006,46,,,,1,1,0.0,1.0,0.0,-1.0,,0.0-48.0,,-1.0,2064.465,0.0,0.702068785,1.0,0.6528750879999999,0.0,0.287329608,0.0,0.35789613200000003,False,,5f4697ecad5ee602362af721,,1017881,46,,evan-feature22,full_pf_a,,1
22,1007,47,,,,2,2,0.0,0.0,0.0,-1.0,,0.0-49.0,,0.0,3022.705,1.0,0.651939787,0.0,0.636725589,0.0,0.284834488,0.0,0.358563756,False,,5f4697ecad5ee602362af721,,1030661,47,,evan-feature22,full_pf_a,,1
23,1008,48,,,,2,2,1.0,1.0,0.0,-1.0,,0.0-50.0,,-1.0,1462.96,1.0,0.67573929,1.0,0.612550049,1.0,0.37130387600000003,1.0,0.383542402,False,,5f4697ecad5ee602362af721,,1041881,48,,evan-feature22,full_pf_a,,0
24,1009,49,,,,1,1,0.0,0.0,0.0,-1.0,,0.0-51.0,,0.0,938.57,0.0,0.620753801,0.0,0.60513644,0.0,0.385529434,0.0,0.340361743,False,,5f4697ecad5ee602362af721,,1052576,49,,evan-feature22,full_pf_a,,1
25,1010,50,,,,1,1,1.0,1.0,1.0,0.0,,0.0-52.0,,1.0,1478.67,1.0,0.673564893,1.0,0.672437924,0.0,0.292955382,1.0,0.337633795,False,,5f4697ecad5ee602362af721,,1063815,50,,evan-feature22,full_pf_a,,0
26,1011,51,,,,1,1,0.0,1.0,0.0,-1.0,,0.0-53.0,,-1.0,1608.985,0.0,0.6749427,1.0,0.724197502,0.0,0.32391132100000003,1.0,0.350995264,False,,5f4697ecad5ee602362af721,,1075182,51,,evan-feature22,full_pf_a,,0
27,1012,52,,,,1,1,1.0,1.0,0.0,-1.0,,0.0-54.0,,-1.0,2351.275,1.0,0.6940159379999999,1.0,0.75,0.0,0.31710554399999996,0.0,0.413450341,False,,5f4697ecad5ee602362af721,,1087292,52,,evan-feature22,full_pf_a,,0
28,1013,53,,,,2,2,1.0,1.0,0.0,-1.0,,0.0-55.0,,-1.0,1746.945,1.0,0.6916018270000001,1.0,0.69001187,1.0,0.261817804,1.0,0.40038635,False,,5f4697ecad5ee602362af721,,1098802,53,,evan-feature22,full_pf_a,,1
29,1014,54,,,,1,1,1.0,1.0,0.0,-1.0,,0.0-56.0,,-1.0,1977.955,1.0,0.641061544,1.0,0.71337992,0.0,0.277296461,0.0,0.47372791700000005,False,,5f4697ecad5ee602362af721,,1110539,54,,evan-feature22,full_pf_a,,1
30,1015,55,,,,2,2,0.0,1.0,0.0,-1.0,,0.0-57.0,,-1.0,1410.735,1.0,0.6082438520000001,1.0,0.708471106,0.0,0.28745137,1.0,0.564174476,False,,5f4697ecad5ee602362af721,,1121717,55,,evan-feature22,full_pf_a,,1
31,1016,56,,,,2,2,1.0,1.0,1.0,0.0,,0.0-58.0,,1.0,1798.745,1.0,0.6051112120000001,0.0,0.7118147229999999,1.0,0.272390611,1.0,0.5595149939999999,False,,5f4697ecad5ee602362af721,,1133276,56,,evan-feature22,full_pf_a,,0
32,1017,57,,,,2,2,0.0,1.0,1.0,0.0,,0.0-59.0,,0.0,1212.255,1.0,0.582420852,1.0,0.635867583,0.0,0.31089574,1.0,0.5227206520000001,False,,5f4697ecad5ee602362af721,,1144246,57,,evan-feature22,full_pf_a,,0
33,1018,58,,,,1,1,0.0,0.0,1.0,0.0,,0.0-60.0,,0.0,1163.27,0.0,0.623195575,0.0,0.655026044,0.0,0.25,1.0,0.560387538,False,,5f4697ecad5ee602362af721,,1155165,58,,evan-feature22,full_pf_a,,1
34,1019,59,,,,1,1,0.0,1.0,0.0,-1.0,,0.0-61.0,,-1.0,1277.805,0.0,0.601889598,1.0,0.678198724,0.0,0.25,0.0,0.559922936,False,,5f4697ecad5ee602362af721,,1166204,59,,evan-feature22,full_pf_a,,0
35,1020,60,,,,1,1,1.0,1.0,1.0,0.0,,0.0-62.0,,1.0,1279.005,1.0,0.601259914,1.0,0.704681482,0.0,0.33908969299999997,0.0,0.505003715,False,,5f4697ecad5ee602362af721,,1177246,60,,evan-feature22,full_pf_a,,0
36,1021,61,,,,1,1,1.0,1.0,1.0,0.0,,0.0-63.0,,1.0,1673.185,1.0,0.59645454,1.0,0.710437172,0.0,0.327441879,1.0,0.391749613,False,,5f4697ecad5ee602362af721,,1188678,61,,evan-feature22,full_pf_a,,0
37,1022,62,,,,1,1,0.0,0.0,0.0,-1.0,,0.0-64.0,,0.0,818.93,0.0,0.529473,0.0,0.636758527,0.0,0.301338063,1.0,0.365661481,False,,5f4697ecad5ee602362af721,,1199255,62,,evan-feature22,full_pf_a,,0
38,1023,63,,,,2,2,1.0,1.0,1.0,0.0,,0.0-65.0,,1.0,617.11,0.0,0.541657162,1.0,0.634541962,1.0,0.343535366,1.0,0.371763742,False,,5f4697ecad5ee602362af721,,1209632,63,,evan-feature22,full_pf_a,,1
39,1024,64,,,,1,1,1.0,0.0,1.0,0.0,,0.0-66.0,,1.0,361.965,1.0,0.5707533260000001,0.0,0.589121171,1.0,0.326428396,0.0,0.43961622899999997,False,,5f4697ecad5ee602362af721,,1219754,64,,evan-feature22,full_pf_a,,1
40,1025,65,,,,2,2,0.0,1.0,0.0,-1.0,,0.0-67.0,,-1.0,1308.855,1.0,0.5707533260000001,0.0,0.589121171,0.0,0.326428396,1.0,0.43961622899999997,False,,5f4697ecad5ee602362af721,,1230823,65,,evan-feature22,full_pf_a,,1
41,1026,66,,,,2,2,0.0,0.0,0.0,-1.0,,0.0-68.0,,0.0,1367.62,1.0,0.506271295,0.0,0.641775594,0.0,0.37149690700000004,0.0,0.404330166,False,,5f4697ecad5ee602362af721,,1241951,66,,evan-feature22,full_pf_a,,0
42,1027,67,,,,1,1,1.0,1.0,1.0,0.0,,0.0-69.0,,1.0,1077.18,1.0,0.455642565,1.0,0.623605825,0.0,0.358753011,0.0,0.346174041,False,,5f4697ecad5ee602362af721,,1252785,67,,evan-feature22,full_pf_a,,1
43,1028,68,,,,2,2,0.0,0.0,0.0,-1.0,,0.0-70.0,,0.0,659.52,1.0,0.483677308,0.0,0.5904681070000001,0.0,0.402218411,0.0,0.35344697,False,,5f4697ecad5ee602362af721,,1263201,68,,evan-feature22,full_pf_a,,1
44,1029,69,,,,1,1,1.0,0.0,1.0,0.0,,0.0-71.0,,1.0,1395.795,1.0,0.394210977,0.0,0.558925494,1.0,0.540052017,0.0,0.35182128700000004,False,,5f4697ecad5ee602362af721,,1274355,69,,evan-feature22,full_pf_a,,1
45,1030,70,,,,2,2,0.0,1.0,0.0,-1.0,,0.0-72.0,,-1.0,420.63,0.0,0.382300414,1.0,0.577670603,0.0,0.607608448,1.0,0.378261578,False,,5f4697ecad5ee602362af721,,1284536,70,,evan-feature22,full_pf_a,,1
46,1031,71,,,,2,2,0.0,0.0,1.0,0.0,,0.0-73.0,,0.0,1608.25,1.0,0.357596762,0.0,0.5929076529999999,0.0,0.6579790010000001,0.0,0.401326777,False,,5f4697ecad5ee602362af721,,1295904,71,,evan-feature22,full_pf_a,,0
47,1032,72,,,,2,2,1.0,0.0,0.0,-1.0,,0.0-74.0,,0.0,1194.415,1.0,0.362033495,1.0,0.582308608,1.0,0.649195052,0.0,0.355158505,False,,5f4697ecad5ee602362af721,,1306856,72,,evan-feature22,full_pf_a,,0
48,1033,73,,,,2,2,1.0,0.0,0.0,-1.0,,0.0-75.0,,0.0,1351.77,0.0,0.369620635,0.0,0.669100864,1.0,0.706059111,0.0,0.362516241,False,,5f4697ecad5ee602362af721,,1317965,73,,evan-feature22,full_pf_a,,0
49,1034,74,,,,1,1,0.0,1.0,0.0,-1.0,,0.0-76.0,,-1.0,509.91,0.0,0.41477751399999996,1.0,0.7284416779999999,1.0,0.7182656940000001,0.0,0.36228040899999997,False,,5f4697ecad5ee602362af721,,1328232,74,,evan-feature22,full_pf_a,,1
50,1035,75,,,,2,2,0.0,1.0,1.0,0.0,,0.0-77.0,,0.0,352.85,0.0,0.37675460299999997,1.0,0.703250285,0.0,0.75,1.0,0.461979164,False,,5f4697ecad5ee602362af721,,1338352,75,,evan-feature22,full_pf_a,,1
51,1036,76,,,,2,2,1.0,0.0,1.0,0.0,,0.0-78.0,,1.0,909.93,1.0,0.398716075,0.0,0.6723864890000001,1.0,0.674153818,0.0,0.519029516,False,,5f4697ecad5ee602362af721,,1349028,76,,evan-feature22,full_pf_a,,0
52,1037,77,,,,2,2,1.0,0.0,1.0,0.0,,0.0-79.0,,1.0,1336.695,0.0,0.34677856700000004,1.0,0.69057175,1.0,0.6822438540000001,0.0,0.477292237,False,,5f4697ecad5ee602362af721,,1360123,77,,evan-feature22,full_pf_a,,0
53,1038,78,,,,1,1,0.0,1.0,0.0,-1.0,,0.0-80.0,,-1.0,1213.98,0.0,0.28580469199999997,1.0,0.68408818,1.0,0.684207565,1.0,0.49780448299999996,False,,5f4697ecad5ee602362af721,,1371096,78,,evan-feature22,full_pf_a,,1
54,1040,80,,,,2,2,1.0,0.0,0.0,-1.0,,0.0-82.0,,0.0,1852.765,0.0,0.25,1.0,0.7405808970000001,1.0,0.679614108,0.0,0.436436964,False,,5f4697ecad5ee602362af721,,1386389,80,,evan-feature22,full_pf_a,,1
55,1041,81,,,,2,2,1.0,0.0,0.0,-1.0,,0.0-83.0,,0.0,886.36,0.0,0.29890393,1.0,0.730505706,1.0,0.7328203320000001,0.0,0.439256938,False,,5f4697ecad5ee602362af721,,1397035,81,,evan-feature22,full_pf_a,,0
56,1042,82,,,,2,2,0.0,0.0,1.0,0.0,,0.0-84.0,,0.0,715.025,0.0,0.326762398,1.0,0.7148059609999999,0.0,0.75,0.0,0.44389608799999997,False,,5f4697ecad5ee602362af721,,1407510,82,,evan-feature22,full_pf_a,,0
57,1043,83,,,,1,1,0.0,1.0,0.0,-1.0,,0.0-85.0,,-1.0,1131.165,0.0,0.295168515,1.0,0.739760854,1.0,0.719947008,0.0,0.35277284600000003,False,,5f4697ecad5ee602362af721,,1418401,83,,evan-feature22,full_pf_a,,1
58,1044,84,,,,2,2,1.0,0.0,0.0,-1.0,,0.0-86.0,,0.0,868.46,1.0,0.25,1.0,0.70781482,1.0,0.75,0.0,0.286095925,False,,5f4697ecad5ee602362af721,,1429030,84,,evan-feature22,full_pf_a,,1
59,1045,85,,,,2,2,1.0,0.0,0.0,-1.0,,0.0-87.0,,0.0,970.625,0.0,0.25638190899999996,0.0,0.704088163,1.0,0.75,0.0,0.26872601399999996,False,,5f4697ecad5ee602362af721,,1439758,85,,evan-feature22,full_pf_a,,0
60,1046,86,,,,2,2,1.0,0.0,1.0,0.0,,0.0-88.0,,1.0,878.375,0.0,0.271581126,1.0,0.669760107,1.0,0.733896663,0.0,0.273244572,False,,5f4697ecad5ee602362af721,,1450396,86,,evan-feature22,full_pf_a,,0
61,1047,87,,,,1,1,0.0,0.0,0.0,-1.0,,0.0-89.0,,0.0,981.1,0.0,0.257144401,0.0,0.600575706,0.0,0.74488122,0.0,0.25,False,,5f4697ecad5ee602362af721,,1461138,87,,evan-feature22,full_pf_a,,1
62,1048,88,,,,2,2,0.0,0.0,0.0,-1.0,,0.0-90.0,,0.0,1305.165,0.0,0.25,0.0,0.616870026,0.0,0.723610234,0.0,0.25,False,,5f4697ecad5ee602362af721,,1472200,88,,evan-feature22,full_pf_a,,1
63,1049,89,,,,1,1,0.0,0.0,1.0,0.0,,0.0-91.0,,0.0,1435.185,0.0,0.25,0.0,0.583540187,1.0,0.7041042559999999,1.0,0.285961995,False,,5f4697ecad5ee602362af721,,1483391,89,,evan-feature22,full_pf_a,,1
64,1050,90,,,,2,2,0.0,0.0,1.0,0.0,,0.0-92.0,,0.0,2296.905,0.0,0.27254536,1.0,0.53875765,0.0,0.693783448,0.0,0.284961652,False,,5f4697ecad5ee602362af721,,1495447,90,,evan-feature22,full_pf_a,,1
65,1051,91,,,,2,2,1.0,0.0,1.0,0.0,,0.0-93.0,,1.0,2167.29,0.0,0.25,1.0,0.548431252,1.0,0.734221895,0.0,0.279445214,False,,5f4697ecad5ee602362af721,,1507374,91,,evan-feature22,full_pf_a,,0
66,1052,92,,,,2,2,0.0,1.0,0.0,-1.0,,0.0-94.0,,-1.0,3758.6,0.0,0.258640684,1.0,0.545878066,0.0,0.725245965,1.0,0.31487537,False,,5f4697ecad5ee602362af721,,1520889,92,,evan-feature22,full_pf_a,,0
67,1053,93,,,,1,1,0.0,1.0,0.0,-1.0,,0.0-95.0,,-1.0,1098.985,0.0,0.251103711,1.0,0.5776290629999999,0.0,0.696320133,0.0,0.317831047,False,,5f4697ecad5ee602362af721,,1531747,93,,evan-feature22,full_pf_a,,1
68,1054,94,,,,2,2,1.0,0.0,0.0,-1.0,,0.0-96.0,,0.0,1184.65,0.0,0.276630292,0.0,0.617329858,1.0,0.73838088,0.0,0.261471582,False,,5f4697ecad5ee602362af721,,1542691,94,,evan-feature22,full_pf_a,,1
69,1055,95,,,,2,2,1.0,1.0,0.0,-1.0,,0.0-97.0,,-1.0,716.32,0.0,0.297716424,1.0,0.618863717,1.0,0.7402358259999999,1.0,0.262600834,False,,5f4697ecad5ee602362af721,,1553175,95,,evan-feature22,full_pf_a,,0
70,1056,96,,,,2,2,1.0,1.0,1.0,0.0,,0.0-98.0,,1.0,1696.27,0.0,0.290935512,0.0,0.695370945,1.0,0.706570507,1.0,0.280030553,False,,5f4697ecad5ee602362af721,,1564630,96,,evan-feature22,full_pf_a,,0
71,1057,97,,,,1,1,0.0,1.0,0.0,-1.0,,0.0-99.0,,-1.0,1177.065,0.0,0.25,1.0,0.6465277079999999,1.0,0.67766682,1.0,0.25,False,,5f4697ecad5ee602362af721,,1575567,97,,evan-feature22,full_pf_a,,1
72,1058,98,,,,2,2,1.0,1.0,1.0,0.0,,0.0-100.0,,1.0,581.225,0.0,0.26463816,0.0,0.636100213,1.0,0.646048507,1.0,0.265607101,False,,5f4697ecad5ee602362af721,,1585908,98,,evan-feature22,full_pf_a,,1
73,1059,99,,,,2,2,0.0,0.0,1.0,0.0,,0.0-101.0,,0.0,1458.62,0.0,0.314340707,1.0,0.667795927,0.0,0.613630805,0.0,0.25,False,,5f4697ecad5ee602362af721,,1597126,99,,evan-feature22,full_pf_a,,0
74,1060,100,,,,2,2,1.0,0.0,0.0,-1.0,,0.0-102.0,,0.0,1278.99,0.0,0.28685784,1.0,0.6622549529999999,1.0,0.652154117,0.0,0.25,False,,5f4697ecad5ee602362af721,,1608164,100,,evan-feature22,full_pf_a,,0
75,1061,101,,,,2,2,1.0,0.0,0.0,-1.0,,0.0-103.0,,0.0,1635.485,1.0,0.304106554,1.0,0.631289538,1.0,0.707041942,0.0,0.29314237,False,,5f4697ecad5ee602362af721,,1619559,101,,evan-feature22,full_pf_a,,0
76,1062,102,,,,2,2,1.0,0.0,0.0,-1.0,,0.0-104.0,,0.0,1349.87,0.0,0.304806932,1.0,0.571167718,1.0,0.680472346,0.0,0.25,False,,5f4697ecad5ee602362af721,,1630667,102,,evan-feature22,full_pf_a,,0
77,1063,103,,,,1,1,1.0,1.0,0.0,-1.0,,0.0-105.0,,-1.0,2200.445,1.0,0.37919861,1.0,0.5724849710000001,1.0,0.705638003,0.0,0.30179300600000003,False,,5f4697ecad5ee602362af721,,1642628,103,,evan-feature22,full_pf_a,,1
78,1064,104,,,,2,2,1.0,1.0,0.0,-1.0,,0.0-106.0,,-1.0,1128.29,0.0,0.464277969,0.0,0.554034373,1.0,0.7372627340000001,1.0,0.264699741,False,,5f4697ecad5ee602362af721,,1653517,104,,evan-feature22,full_pf_a,,1
79,1065,105,,,,1,1,0.0,1.0,0.0,-1.0,,0.0-107.0,,-1.0,1071.97,0.0,0.465104323,1.0,0.530793115,1.0,0.75,1.0,0.31683071,False,,5f4697ecad5ee602362af721,,1664350,105,,evan-feature22,full_pf_a,,1
80,1066,106,,,,1,1,0.0,1.0,1.0,0.0,,0.0-108.0,,0.0,2057.695,0.0,0.465104323,1.0,0.530793115,1.0,0.75,1.0,0.31683071,False,,5f4697ecad5ee602362af721,,1676164,106,,evan-feature22,full_pf_a,,0
81,1067,107,,,,2,2,1.0,0.0,1.0,0.0,,0.0-109.0,,1.0,944.325,1.0,0.46833986,1.0,0.570249239,1.0,0.7244472590000001,0.0,0.364114163,False,,5f4697ecad5ee602362af721,,1686868,107,,evan-feature22,full_pf_a,,1
82,1068,108,,,,2,2,1.0,1.0,1.0,0.0,,0.0-110.0,,1.0,1008.345,1.0,0.445444024,1.0,0.649673355,1.0,0.6845441290000001,1.0,0.300660449,False,,5f4697ecad5ee602362af721,,1697635,108,,evan-feature22,full_pf_a,,0
83,1069,109,,,,2,2,0.0,0.0,1.0,0.0,,0.0-111.0,,0.0,937.355,1.0,0.39909721299999995,1.0,0.6715179509999999,0.0,0.742310028,0.0,0.35496088299999995,False,,5f4697ecad5ee602362af721,,1708333,109,,evan-feature22,full_pf_a,,0
84,1070,110,,,,1,1,0.0,1.0,0.0,-1.0,,0.0-112.0,,-1.0,1135.86,0.0,0.37956104799999996,1.0,0.694725302,1.0,0.7181651309999999,1.0,0.38726906299999997,False,,5f4697ecad5ee602362af721,,1719227,110,,evan-feature22,full_pf_a,,1
85,1071,111,,,,2,2,1.0,0.0,0.0,-1.0,,0.0-113.0,,0.0,441.135,0.0,0.404995034,1.0,0.724375412,1.0,0.6910946859999999,0.0,0.387187347,False,,5f4697ecad5ee602362af721,,1729426,111,,evan-feature22,full_pf_a,,1
86,1072,112,,,,2,2,0.0,0.0,1.0,0.0,,0.0-114.0,,0.0,550.875,0.0,0.461740803,1.0,0.75,0.0,0.75,0.0,0.34872038200000005,False,,5f4697ecad5ee602362af721,,1739734,112,,evan-feature22,full_pf_a,,0
87,1073,113,,,,2,2,0.0,0.0,1.0,0.0,,0.0-115.0,,0.0,455.935,1.0,0.43821380600000004,1.0,0.738833273,0.0,0.728286963,0.0,0.399538128,False,,5f4697ecad5ee602362af721,,1749960,113,,evan-feature22,full_pf_a,,0
88,1074,114,,,,1,1,1.0,0.0,0.0,-1.0,,0.0-116.0,,0.0,817.94,1.0,0.41709882,0.0,0.736666736,1.0,0.75,1.0,0.389095584,False,,5f4697ecad5ee602362af721,,1760536,114,,evan-feature22,full_pf_a,,1
89,1075,115,,,,1,1,0.0,1.0,0.0,-1.0,,0.0-117.0,,-1.0,1827.965,0.0,0.39749009799999996,1.0,0.744320029,0.0,0.75,0.0,0.363848678,False,,5f4697ecad5ee602362af721,,1772123,115,,evan-feature22,full_pf_a,,0
90,1076,116,,,,2,2,1.0,0.0,1.0,0.0,,0.0-118.0,,1.0,892.515,0.0,0.392653706,1.0,0.75,1.0,0.75,0.0,0.384386976,False,,5f4697ecad5ee602362af721,,1782773,116,,evan-feature22,full_pf_a,,1
91,1077,117,,,,1,1,0.0,1.0,0.0,-1.0,,0.0-119.0,,-1.0,1307.64,0.0,0.31190902600000003,1.0,0.75,1.0,0.732413819,0.0,0.413082932,False,,5f4697ecad5ee602362af721,,1793841,117,,evan-feature22,full_pf_a,,1
92,1078,118,,,,2,2,0.0,0.0,1.0,0.0,,0.0-120.0,,0.0,662.57,1.0,0.366917648,1.0,0.740073855,0.0,0.75,0.0,0.352861979,False,,5f4697ecad5ee602362af721,,1804268,118,,evan-feature22,full_pf_a,,1
93,1079,119,,,,2,2,1.0,0.0,1.0,0.0,,0.0-121.0,,1.0,1026.5,0.0,0.3645172,1.0,0.721770713,1.0,0.75,0.0,0.404074511,False,,5f4697ecad5ee602362af721,,1815055,119,,evan-feature22,full_pf_a,,0
94,1080,120,,,,2,2,0.0,0.0,1.0,0.0,,0.0-122.0,,0.0,822.015,0.0,0.35205600299999995,1.0,0.68983859,0.0,0.739735447,0.0,0.366895945,False,,5f4697ecad5ee602362af721,,1825635,120,,evan-feature22,full_pf_a,,0
95,1081,121,,,,2,2,1.0,0.0,1.0,0.0,,0.0-123.0,,1.0,407.195,0.0,0.40998722600000004,1.0,0.720859127,1.0,0.673854955,0.0,0.368528541,False,,5f4697ecad5ee602362af721,,1835802,121,,evan-feature22,full_pf_a,,0
96,1082,122,,,,2,2,1.0,0.0,1.0,0.0,,0.0-124.0,,1.0,422.585,0.0,0.353625316,1.0,0.75,1.0,0.695605473,0.0,0.38303674200000004,False,,5f4697ecad5ee602362af721,,1845981,122,,evan-feature22,full_pf_a,,0
97,1083,123,,,,2,2,1.0,0.0,1.0,0.0,,0.0-125.0,,1.0,655.245,0.0,0.359216989,1.0,0.75,1.0,0.6987915090000001,0.0,0.35169046200000004,False,,5f4697ecad5ee602362af721,,1856394,123,,evan-feature22,full_pf_a,,0
98,1084,124,,,,2,2,0.0,0.0,1.0,0.0,,0.0-126.0,,0.0,609.05,1.0,0.35834496899999996,1.0,0.75,0.0,0.707067742,0.0,0.416763636,False,,5f4697ecad5ee602362af721,,1866762,124,,evan-feature22,full_pf_a,,0
99,1085,125,,,,2,2,1.0,1.0,0.0,-1.0,,0.0-127.0,,-1.0,2104.72,0.0,0.38741613799999997,1.0,0.7177369570000001,1.0,0.734902455,1.0,0.49438664299999996,False,,5f4697ecad5ee602362af721,,1878635,125,,evan-feature22,full_pf_a,,0
100,1086,126,,,,2,2,1.0,1.0,1.0,0.0,,0.0-128.0,,1.0,1361.29,0.0,0.405255252,0.0,0.7300466640000001,1.0,0.7027748070000001,1.0,0.504359668,False,,5f4697ecad5ee602362af721,,1889755,126,,evan-feature22,full_pf_a,,0
101,1087,127,,,,2,2,1.0,1.0,1.0,0.0,,0.0-129.0,,1.0,1107.535,1.0,0.40697073,1.0,0.7260142190000001,1.0,0.724461982,1.0,0.522779179,False,,5f4697ecad5ee602362af721,,1900623,127,,evan-feature22,full_pf_a,,0
102,1088,128,,,,2,2,1.0,1.0,1.0,0.0,,0.0-130.0,,1.0,1909.29,0.0,0.43906215299999996,1.0,0.7252802340000001,1.0,0.719079934,1.0,0.5712990579999999,False,,5f4697ecad5ee602362af721,,1912291,128,,evan-feature22,full_pf_a,,0
103,1089,129,,,,2,2,1.0,1.0,0.0,-1.0,,0.0-131.0,,-1.0,1699.85,0.0,0.4076705,1.0,0.73280499,1.0,0.681313127,1.0,0.523891346,False,,5f4697ecad5ee602362af721,,1923750,129,,evan-feature22,full_pf_a,,0
104,1090,130,,,,1,1,0.0,0.0,0.0,-1.0,,0.0-132.0,,0.0,2151.5,0.0,0.399102911,0.0,0.730498344,1.0,0.661080239,0.0,0.46742603,False,,5f4697ecad5ee602362af721,,1935660,130,,evan-feature22,full_pf_a,,1
105,1091,131,,,,1,1,0.0,0.0,0.0,-1.0,,0.0-133.0,,0.0,1859.43,0.0,0.356477282,0.0,0.712296395,1.0,0.641812684,0.0,0.44868414,False,,5f4697ecad5ee602362af721,,1947277,131,,evan-feature22,full_pf_a,,0
106,1092,132,,,,1,1,0.0,1.0,1.0,0.0,,0.0-134.0,,0.0,1579.375,0.0,0.462760722,1.0,0.692349322,1.0,0.700947931,1.0,0.394680266,False,,5f4697ecad5ee602362af721,,1958621,132,,evan-feature22,full_pf_a,,0
107,1093,133,,,,2,2,1.0,0.0,1.0,0.0,,0.0-135.0,,1.0,1295.535,0.0,0.422306413,1.0,0.718375916,1.0,0.706340917,0.0,0.367787185,False,,5f4697ecad5ee602362af721,,1969676,133,,evan-feature22,full_pf_a,,1
108,1095,135,,,,2,2,1.0,0.0,1.0,0.0,,0.0-137.0,,1.0,1313.655,0.0,0.4582233,0.0,0.643834117,1.0,0.75,0.0,0.39615823299999997,False,,5f4697ecad5ee602362af721,,1983400,135,,evan-feature22,full_pf_a,,0
109,1096,136,,,,2,2,1.0,0.0,1.0,0.0,,0.0-138.0,,1.0,1397.61,0.0,0.43813437899999996,0.0,0.651283804,1.0,0.729674191,0.0,0.37711048,False,,5f4697ecad5ee602362af721,,1994556,136,,evan-feature22,full_pf_a,,0
110,1097,137,,,,2,2,1.0,0.0,1.0,0.0,,0.0-139.0,,1.0,621.465,1.0,0.471199094,1.0,0.6470010979999999,1.0,0.715008097,0.0,0.410656191,False,,5f4697ecad5ee602362af721,,2004937,137,,evan-feature22,full_pf_a,,0
111,1098,138,,,,2,2,1.0,1.0,1.0,0.0,,0.0-140.0,,1.0,718.855,0.0,0.42486406,0.0,0.629771829,1.0,0.6550939960000001,1.0,0.459093873,False,,5f4697ecad5ee602362af721,,2015417,138,,evan-feature22,full_pf_a,,0
112,1099,139,,,,2,2,0.0,1.0,1.0,0.0,,0.0-141.0,,0.0,873.77,0.0,0.4803197,1.0,0.645842715,0.0,0.6421749920000001,1.0,0.443092151,False,,5f4697ecad5ee602362af721,,2026050,139,,evan-feature22,full_pf_a,,0
113,1100,140,,,,2,2,1.0,0.0,0.0,-1.0,,0.0-142.0,,0.0,360.81,0.0,0.521848997,0.0,0.735801074,1.0,0.6691348460000001,0.0,0.45259351600000003,False,,5f4697ecad5ee602362af721,,2036179,140,,evan-feature22,full_pf_a,,0
114,1101,141,,,,2,2,0.0,0.0,1.0,0.0,,0.0-143.0,,0.0,3324.91,1.0,0.49565621299999996,0.0,0.742400847,0.0,0.661512553,0.0,0.483110831,False,,5f4697ecad5ee602362af721,,2049268,141,,evan-feature22,full_pf_a,,0
115,1102,142,,,,2,2,0.0,1.0,1.0,0.0,,0.0-144.0,,0.0,809.665,1.0,0.521564361,1.0,0.731078632,0.0,0.6774886809999999,1.0,0.483263956,False,,5f4697ecad5ee602362af721,,2059836,142,,evan-feature22,full_pf_a,,0
116,1103,143,,,,2,2,1.0,0.0,1.0,0.0,,0.0-145.0,,1.0,757.345,1.0,0.558893102,1.0,0.719810023,1.0,0.67461031,0.0,0.499349834,False,,5f4697ecad5ee602362af721,,2070354,143,,evan-feature22,full_pf_a,,0
117,1104,144,,,,2,2,1.0,1.0,1.0,0.0,,0.0-146.0,,1.0,48.31999999,1.0,0.611031046,1.0,0.75,1.0,0.688072995,1.0,0.5321422729999999,False,,5f4697ecad5ee602362af721,,2080168,144,,evan-feature22,full_pf_a,,0
118,1105,145,,,,2,2,0.0,0.0,0.0,-1.0,,0.0-147.0,,0.0,360.535,1.0,0.633223941,1.0,0.713567728,0.0,0.75,0.0,0.48185314700000004,False,,5f4697ecad5ee602362af721,,2090298,145,,evan-feature22,full_pf_a,,0
119,1106,146,,,,2,2,1.0,1.0,1.0,0.0,,0.0-148.0,,1.0,435.81,1.0,0.664001694,1.0,0.705509768,1.0,0.75,1.0,0.500211065,False,,5f4697ecad5ee602362af721,,2100494,146,,evan-feature22,full_pf_a,,0
120,1107,147,,,,2,2,1.0,0.0,1.0,0.0,,0.0-149.0,,1.0,297.63,0.0,0.664001694,1.0,0.705509768,1.0,0.75,0.0,0.500211065,False,,5f4697ecad5ee602362af721,,2110554,147,,evan-feature22,full_pf_a,,0
121,1108,148,,,,2,2,1.0,0.0,1.0,0.0,,0.0-150.0,,1.0,805.145,1.0,0.696508041,1.0,0.71066027,1.0,0.717028709,0.0,0.49792991,False,,5f4697ecad5ee602362af721,,2121117,148,,evan-feature22,full_pf_a,,0
122,1109,149,,,,2,2,1.0,0.0,0.0,-1.0,,0.0-151.0,,0.0,1058.465,1.0,0.699883272,1.0,0.75,1.0,0.713543895,0.0,0.496962643,False,,5f4697ecad5ee602362af721,,2131933,149,,evan-feature22,full_pf_a,,0
123,1110,150,,,,2,2,1.0,0.0,0.0,-1.0,,0.0-152.0,,0.0,2217.575,1.0,0.741163419,1.0,0.75,1.0,0.64691024,0.0,0.513858197,False,,5f4697ecad5ee602362af721,,2143909,150,,evan-feature22,full_pf_a,,0
124,1111,151,,,,2,2,0.0,0.0,0.0,-1.0,,0.0-153.0,,0.0,665.0,0.0,0.75,1.0,0.70816558,0.0,0.594499079,0.0,0.48502124,False,,5f4697ecad5ee602362af721,,2154330,151,,evan-feature22,full_pf_a,,0
125,1112,152,,,,2,2,0.0,1.0,1.0,0.0,,0.0-154.0,,0.0,1292.61,1.0,0.75,0.0,0.721848901,0.0,0.62197249,1.0,0.48263586399999997,False,,5f4697ecad5ee602362af721,,2165379,152,,evan-feature22,full_pf_a,,0
126,1113,153,,,,2,2,1.0,0.0,1.0,0.0,,0.0-155.0,,1.0,348.24,1.0,0.75,1.0,0.74813071,1.0,0.584357161,0.0,0.411477782,False,,5f4697ecad5ee602362af721,,2175490,153,,evan-feature22,full_pf_a,,0
127,1114,154,,,,2,2,0.0,1.0,1.0,0.0,,0.0-156.0,,0.0,381.37,1.0,0.75,1.0,0.75,0.0,0.52287236,1.0,0.488290656,False,,5f4697ecad5ee602362af721,,2185631,154,,evan-feature22,full_pf_a,,0
128,1115,155,,,,2,2,0.0,1.0,1.0,0.0,,0.0-157.0,,0.0,354.86,1.0,0.75,1.0,0.75,0.0,0.544321581,1.0,0.53143059,False,,5f4697ecad5ee602362af721,,2195750,155,,evan-feature22,full_pf_a,,0
129,1116,156,,,,2,2,0.0,0.0,1.0,0.0,,0.0-158.0,,0.0,2303.39,1.0,0.726754564,1.0,0.75,0.0,0.5129306370000001,0.0,0.530592445,False,,5f4697ecad5ee602362af721,,2207809,156,,evan-feature22,full_pf_a,,0
130,1117,157,,,,1,1,1.0,1.0,0.0,-1.0,,0.0-159.0,,-1.0,1463.655,1.0,0.75,1.0,0.7392590729999999,0.0,0.479875835,1.0,0.547007051,False,,5f4697ecad5ee602362af721,,2219030,157,,evan-feature22,full_pf_a,,1
131,1118,158,,,,2,2,1.0,0.0,0.0,-1.0,,0.0-160.0,,0.0,342.51,1.0,0.75,1.0,0.7393376979999999,1.0,0.546045419,0.0,0.541267353,False,,5f4697ecad5ee602362af721,,2229136,158,,evan-feature22,full_pf_a,,1
132,1119,159,,,,2,2,0.0,1.0,1.0,0.0,,0.0-161.0,,0.0,1494.83,1.0,0.75,1.0,0.75,0.0,0.485725895,1.0,0.527625395,False,,5f4697ecad5ee602362af721,,2240390,159,,evan-feature22,full_pf_a,,0
133,1120,160,,,,1,1,0.0,0.0,0.0,-1.0,,0.0-162.0,,0.0,945.55,0.0,0.75,0.0,0.725087974,0.0,0.488603595,0.0,0.504019206,False,,5f4697ecad5ee602362af721,,2251107,160,,evan-feature22,full_pf_a,,1
134,1121,161,,,,2,2,0.0,1.0,1.0,0.0,,0.0-163.0,,0.0,1421.055,1.0,0.745504295,1.0,0.75,0.0,0.452379914,1.0,0.50131194,False,,5f4697ecad5ee602362af721,,2262287,161,,evan-feature22,full_pf_a,,1
135,1122,162,,,,2,2,0.0,0.0,0.0,-1.0,,0.0-164.0,,0.0,2073.73,0.0,0.728513874,1.0,0.75,0.0,0.44125567200000004,0.0,0.531454591,False,,5f4697ecad5ee602362af721,,2274118,162,,evan-feature22,full_pf_a,,0
136,1123,163,,,,2,2,1.0,0.0,1.0,0.0,,0.0-165.0,,1.0,1211.16,1.0,0.73790804,1.0,0.75,1.0,0.413036656,0.0,0.524619035,False,,5f4697ecad5ee602362af721,,2285103,163,,evan-feature22,full_pf_a,,0
137,1124,164,,,,2,2,0.0,0.0,1.0,0.0,,0.0-166.0,,0.0,1647.2,1.0,0.7080961309999999,1.0,0.708666865,0.0,0.431915581,0.0,0.481819489,False,,5f4697ecad5ee602362af721,,2296509,164,,evan-feature22,full_pf_a,,0
138,1125,165,,,,2,2,0.0,0.0,1.0,0.0,,0.0-167.0,,0.0,522.455,1.0,0.721378003,1.0,0.71605913,0.0,0.36642387,0.0,0.5036739929999999,False,,5f4697ecad5ee602362af721,,2306788,165,,evan-feature22,full_pf_a,,0
139,1126,166,,,,1,1,0.0,1.0,0.0,-1.0,,0.0-168.0,,-1.0,1916.59,0.0,0.7340618959999999,1.0,0.699323252,1.0,0.35298046299999997,0.0,0.511241692,False,,5f4697ecad5ee602362af721,,2318465,166,,evan-feature22,full_pf_a,,1
140,1127,167,,,,2,2,0.0,0.0,0.0,-1.0,,0.0-169.0,,0.0,1444.775,1.0,0.75,0.0,0.70412698,0.0,0.380734814,0.0,0.529580116,False,,5f4697ecad5ee602362af721,,2329678,167,,evan-feature22,full_pf_a,,1
141,1128,168,,,,1,1,1.0,1.0,0.0,-1.0,,0.0-170.0,,-1.0,849.15,1.0,0.7436654909999999,1.0,0.711182751,1.0,0.41125331,1.0,0.49554405,False,,5f4697ecad5ee602362af721,,2340284,168,,evan-feature22,full_pf_a,,1
142,1129,169,,,,1,1,1.0,1.0,1.0,0.0,,0.0-171.0,,1.0,592.565,1.0,0.731607915,1.0,0.651774583,0.0,0.35688023,1.0,0.45194491600000003,False,,5f4697ecad5ee602362af721,,2350637,169,,evan-feature22,full_pf_a,,0
143,1130,170,,,,2,2,0.0,1.0,0.0,-1.0,,0.0-172.0,,-1.0,1482.095,1.0,0.75,1.0,0.75,0.0,0.283145374,1.0,0.528608005,False,,5f4697ecad5ee602362af721,,2361878,170,,evan-feature22,full_pf_a,,1
144,1131,171,,,,SLOW,SLOW,,,1.0,0.0,,0.0-173.0,,-3.0,,1.0,0.7491416890000001,0.0,0.7423785959999999,0.0,0.29135870399999997,0.0,0.498888318,False,,5f4697ecad5ee602362af721,,2367681,171,,evan-feature22,full_pf_a,,1
145,1132,172,,,,1,1,1.0,1.0,0.0,-1.0,,0.0-174.0,,-1.0,1218.265,1.0,0.708569387,1.0,0.717682277,0.0,0.294421699,0.0,0.493838163,False,,5f4697ecad5ee602362af721,,2378658,172,,evan-feature22,full_pf_a,,1
146,1133,173,,,,2,2,1.0,1.0,1.0,0.0,,0.0-175.0,,1.0,1118.305,1.0,0.75,0.0,0.7383382159999999,1.0,0.356098707,1.0,0.442533405,False,,5f4697ecad5ee602362af721,,2389536,173,,evan-feature22,full_pf_a,,1
147,1134,174,,,,2,2,0.0,0.0,1.0,0.0,,0.0-176.0,,0.0,556.165,0.0,0.744527075,1.0,0.75,0.0,0.334127506,0.0,0.393165805,False,,5f4697ecad5ee602362af721,,2399851,174,,evan-feature22,full_pf_a,,0
148,1135,175,,,,2,2,1.0,0.0,1.0,0.0,,0.0-177.0,,1.0,1026.305,1.0,0.75,1.0,0.75,1.0,0.33571021799999995,0.0,0.350393962,False,,5f4697ecad5ee602362af721,,2410637,175,,evan-feature22,full_pf_a,,0
149,1136,176,,,,2,2,0.0,1.0,0.0,-1.0,,0.0-178.0,,-1.0,823.045,0.0,0.75,1.0,0.75,0.0,0.313628297,1.0,0.36349657399999996,False,,5f4697ecad5ee602362af721,,2421220,176,,evan-feature22,full_pf_a,,0
150,1137,177,,,,2,2,1.0,1.0,1.0,0.0,,0.0-179.0,,1.0,1211.935,1.0,0.75,1.0,0.734284182,1.0,0.262667667,1.0,0.380199119,False,,5f4697ecad5ee602362af721,,2432189,177,,evan-feature22,full_pf_a,,0
151,1138,178,,,,2,2,0.0,1.0,1.0,0.0,,0.0-180.0,,0.0,1070.705,1.0,0.75,0.0,0.75,0.0,0.25,1.0,0.394494013,False,,5f4697ecad5ee602362af721,,2443021,178,,evan-feature22,full_pf_a,,0
152,1139,179,,,,2,2,0.0,0.0,1.0,0.0,,0.0-181.0,,0.0,1286.195,1.0,0.722298145,1.0,0.7357822340000001,0.0,0.25,0.0,0.319142121,False,,5f4697ecad5ee602362af721,,2454066,179,,evan-feature22,full_pf_a,,0
153,1140,180,,,,2,2,1.0,0.0,1.0,0.0,,0.0-182.0,,1.0,1086.745,1.0,0.73149275,1.0,0.724276446,1.0,0.305856907,0.0,0.281315057,False,,5f4697ecad5ee602362af721,,2464914,180,,evan-feature22,full_pf_a,,0
154,1141,181,,,,2,2,0.0,1.0,1.0,0.0,,0.0-183.0,,0.0,1533.165,1.0,0.7458732690000001,1.0,0.7336382459999999,0.0,0.272571964,1.0,0.266021999,False,,5f4697ecad5ee602362af721,,2476206,181,,evan-feature22,full_pf_a,,0
155,1142,182,,,,1,1,0.0,1.0,0.0,-1.0,,0.0-184.0,,-1.0,1403.2,0.0,0.705579037,1.0,0.720778292,1.0,0.320238144,1.0,0.30971744,False,,5f4697ecad5ee602362af721,,2487370,182,,evan-feature22,full_pf_a,,1
156,1143,183,,,,2,2,0.0,0.0,0.0,-1.0,,0.0-185.0,,0.0,1544.04,1.0,0.700425648,1.0,0.7198784009999999,0.0,0.272590393,0.0,0.304182931,False,,5f4697ecad5ee602362af721,,2498675,183,,evan-feature22,full_pf_a,,1
157,1144,184,,,,2,2,0.0,1.0,0.0,-1.0,,0.0-186.0,,-1.0,1418.58,1.0,0.735590785,1.0,0.722714973,0.0,0.25,1.0,0.323421091,False,,5f4697ecad5ee602362af721,,2509852,184,,evan-feature22,full_pf_a,,0
158,1145,185,,,,1,1,0.0,1.0,0.0,-1.0,,0.0-187.0,,-1.0,482.35,0.0,0.724807662,1.0,0.63146213,1.0,0.36836492600000004,0.0,0.34592153299999995,False,,5f4697ecad5ee602362af721,,2520094,185,,evan-feature22,full_pf_a,,1
159,1146,186,,,,2,2,0.0,0.0,1.0,0.0,,0.0-188.0,,0.0,398.78,1.0,0.7352796909999999,1.0,0.555111392,0.0,0.36003922,0.0,0.31433779999999995,False,,5f4697ecad5ee602362af721,,2530252,186,,evan-feature22,full_pf_a,,1
160,1147,187,notice,,,,,,,,,,0.0-189.0,"{""Q0"":""It felt more random""}",,14406.0,,,,,,,,,False,,5f4697ecad5ee602362af721,,2544660,187,Q,survey-text,full_pf_a,,1
161,1148,188,track1,,[1],,,,,,,,0.0-190.0,"{""Q0"":""no""}",,9597.0,,,,,,,,,False,,5f4697ecad5ee602362af721,,2554260,188,Q,evan-quiz,full_pf_a,,1
162,1149,189,track2,,[0],,,,,,,,0.0-191.0,"{""Q0"":""yes""}",,8269.0,,,,,,,,,False,,5f4697ecad5ee602362af721,,2562532,189,Q,evan-quiz,full_pf_a,,1
163,1150,190,strat,,,,,,,,,,0.0-192.0,"{""Q0"":""At times trying to find a pattern worked but it seemed random or changing fast at times.""}",,50081.0,,,,,,,,,False,,5f4697ecad5ee602362af721,,2612616,190,Q,survey-text,full_pf_a,,1
