,index,Unnamed: 0,Q_name,button_pressed,choice_idxs,chosen_pos,chosen_state,chosen_state_f_1_outcome,chosen_state_f_2_outcome,f_1_reward,f_2_reward,incor_questions,internal_node_id,responses,reward_received,rt,s_1_f_1_outcome,s_1_f_1_prob,s_1_f_2_outcome,s_1_f_2_prob,s_2_f_1_outcome,s_2_f_1_prob,s_2_f_2_outcome,s_2_f_2_prob,safe_first,stimulus,subjectID,success,time_elapsed,trial_index,trial_num,trial_type,version,view_history,switching
0,41497,25,,,,1,1,0.0,1.0,1.0,0.0,,0.0-27.0,,0.0,354.705,0.0,0.6,1.0,0.6,0.0,0.4,1.0,0.4,True,,5f83bd0b44cc145582b0ca01,,396823,25,,evan-feature22,full_rf_a,,0
1,41498,26,,,,1,1,1.0,1.0,1.0,0.0,,0.0-28.0,,1.0,692.11,1.0,0.608053294,1.0,0.63424552,1.0,0.397152172,1.0,0.347069101,True,,5f83bd0b44cc145582b0ca01,,407281,26,,evan-feature22,full_rf_a,,0
2,41499,27,,,,2,2,1.0,0.0,1.0,0.0,,0.0-29.0,,1.0,590.085,1.0,0.642237155,1.0,0.648566321,1.0,0.389407674,0.0,0.285525717,True,,5f83bd0b44cc145582b0ca01,,417633,27,,evan-feature22,full_rf_a,,1
3,41500,28,,,,1,1,0.0,1.0,1.0,0.0,,0.0-30.0,,0.0,431.7749999,0.0,0.661086576,1.0,0.630492543,0.0,0.399058924,0.0,0.25,True,,5f83bd0b44cc145582b0ca01,,427822,28,,evan-feature22,full_rf_a,,1
4,41501,29,,,,2,2,1.0,0.0,0.0,-1.0,,0.0-31.0,,0.0,697.665,1.0,0.631324137,0.0,0.6269842929999999,1.0,0.38734784299999997,0.0,0.25,True,,5f83bd0b44cc145582b0ca01,,438282,29,,evan-feature22,full_rf_a,,1
5,41502,30,,,,1,1,0.0,1.0,0.0,-1.0,,0.0-32.0,,-1.0,817.6,0.0,0.6381991370000001,1.0,0.68987999,1.0,0.384107265,0.0,0.271332943,True,,5f83bd0b44cc145582b0ca01,,448865,30,,evan-feature22,full_rf_a,,1
6,41503,31,,,,2,2,1.0,1.0,1.0,0.0,,0.0-33.0,,1.0,804.815,0.0,0.66034901,1.0,0.742641349,1.0,0.360225629,1.0,0.25,True,,5f83bd0b44cc145582b0ca01,,459435,31,,evan-feature22,full_rf_a,,1
7,41504,32,,,,2,2,1.0,0.0,1.0,0.0,,0.0-34.0,,1.0,435.375,1.0,0.638612418,1.0,0.75,1.0,0.367273939,0.0,0.25,True,,5f83bd0b44cc145582b0ca01,,469633,32,,evan-feature22,full_rf_a,,0
8,41505,33,,,,1,1,0.0,1.0,0.0,-1.0,,0.0-35.0,,-1.0,1426.045,0.0,0.624340629,1.0,0.75,0.0,0.425829545,0.0,0.25,True,,5f83bd0b44cc145582b0ca01,,480823,33,,evan-feature22,full_rf_a,,1
9,41506,34,,,,2,2,1.0,1.0,0.0,-1.0,,0.0-36.0,,-1.0,1047.53,1.0,0.621999804,1.0,0.75,1.0,0.368609357,1.0,0.25,True,,5f83bd0b44cc145582b0ca01,,491639,34,,evan-feature22,full_rf_a,,1
10,41507,35,,,,2,2,1.0,1.0,1.0,0.0,,0.0-37.0,,1.0,621.605,0.0,0.62666403,1.0,0.75,1.0,0.311151498,1.0,0.25,True,,5f83bd0b44cc145582b0ca01,,502026,35,,evan-feature22,full_rf_a,,0
11,41508,36,,,,2,2,1.0,1.0,0.0,-1.0,,0.0-38.0,,-1.0,670.525,0.0,0.6819650009999999,1.0,0.75,1.0,0.310763048,1.0,0.25,True,,5f83bd0b44cc145582b0ca01,,512461,36,,evan-feature22,full_rf_a,,0
12,41509,37,,,,2,2,0.0,0.0,1.0,0.0,,0.0-39.0,,0.0,664.47,1.0,0.740626951,0.0,0.75,0.0,0.25,0.0,0.25,True,,5f83bd0b44cc145582b0ca01,,522889,37,,evan-feature22,full_rf_a,,0
13,41510,38,,,,2,2,0.0,0.0,1.0,0.0,,0.0-40.0,,0.0,849.93,1.0,0.739599242,1.0,0.742034978,0.0,0.25397114600000004,0.0,0.25,True,,5f83bd0b44cc145582b0ca01,,533503,38,,evan-feature22,full_rf_a,,0
14,41511,39,,,,1,1,1.0,1.0,1.0,0.0,,0.0-41.0,,1.0,950.59,1.0,0.732341315,1.0,0.72735643,1.0,0.25,0.0,0.25,True,,5f83bd0b44cc145582b0ca01,,544213,39,,evan-feature22,full_rf_a,,1
15,41512,40,,,,1,1,1.0,0.0,1.0,0.0,,0.0-42.0,,1.0,250.285,1.0,0.7062287770000001,0.0,0.75,1.0,0.29002151,0.0,0.288256649,True,,5f83bd0b44cc145582b0ca01,,554225,40,,evan-feature22,full_rf_a,,0
16,41513,41,,,,1,1,0.0,0.0,1.0,0.0,,0.0-43.0,,0.0,279.485,0.0,0.7086029209999999,0.0,0.75,0.0,0.274129113,0.0,0.262851608,True,,5f83bd0b44cc145582b0ca01,,564263,41,,evan-feature22,full_rf_a,,0
17,41514,42,,,,2,2,0.0,0.0,1.0,0.0,,0.0-44.0,,0.0,483.12,1.0,0.669189651,0.0,0.727614338,0.0,0.298444036,0.0,0.296944518,True,,5f83bd0b44cc145582b0ca01,,574505,42,,evan-feature22,full_rf_a,,1
18,41515,43,,,,1,1,1.0,1.0,1.0,0.0,,0.0-45.0,,1.0,219.88,1.0,0.6819912929999999,1.0,0.7179434290000001,0.0,0.265003961,1.0,0.28157921199999997,True,,5f83bd0b44cc145582b0ca01,,584486,43,,evan-feature22,full_rf_a,,1
19,41516,44,,,,1,1,0.0,1.0,0.0,-1.0,,0.0-46.0,,-1.0,255.445,0.0,0.665275002,1.0,0.723065271,0.0,0.260414971,0.0,0.30973870000000003,True,,5f83bd0b44cc145582b0ca01,,594503,44,,evan-feature22,full_rf_a,,0
20,41517,45,,,,2,2,0.0,1.0,1.0,0.0,,0.0-47.0,,0.0,311.475,1.0,0.6660593260000001,1.0,0.728032907,0.0,0.30922817,1.0,0.338778608,True,,5f83bd0b44cc145582b0ca01,,604578,45,,evan-feature22,full_rf_a,,1
21,41518,46,,,,1,1,1.0,1.0,1.0,0.0,,0.0-48.0,,1.0,240.48,1.0,0.702068785,1.0,0.6528750879999999,1.0,0.287329608,0.0,0.35789613200000003,True,,5f83bd0b44cc145582b0ca01,,614579,46,,evan-feature22,full_rf_a,,1
22,41519,47,,,,1,1,1.0,1.0,1.0,0.0,,0.0-49.0,,1.0,222.265,1.0,0.651939787,1.0,0.636725589,1.0,0.284834488,0.0,0.358563756,True,,5f83bd0b44cc145582b0ca01,,624565,47,,evan-feature22,full_rf_a,,0
23,41520,48,,,,2,2,1.0,1.0,0.0,-1.0,,0.0-50.0,,-1.0,1831.215,1.0,0.67573929,1.0,0.612550049,1.0,0.37130387600000003,1.0,0.383542402,True,,5f83bd0b44cc145582b0ca01,,636159,48,,evan-feature22,full_rf_a,,1
24,41521,49,,,,1,1,1.0,1.0,0.0,-1.0,,0.0-51.0,,-1.0,182.925,1.0,0.620753801,1.0,0.60513644,0.0,0.385529434,1.0,0.340361743,True,,5f83bd0b44cc145582b0ca01,,646105,49,,evan-feature22,full_rf_a,,1
25,41522,50,,,,1,1,1.0,1.0,0.0,-1.0,,0.0-52.0,,-1.0,767.455,1.0,0.673564893,1.0,0.672437924,1.0,0.292955382,0.0,0.337633795,True,,5f83bd0b44cc145582b0ca01,,656634,50,,evan-feature22,full_rf_a,,0
26,41523,51,,,,1,1,0.0,1.0,1.0,0.0,,0.0-53.0,,0.0,287.935,0.0,0.6749427,1.0,0.724197502,0.0,0.32391132100000003,1.0,0.350995264,True,,5f83bd0b44cc145582b0ca01,,666682,51,,evan-feature22,full_rf_a,,0
27,41524,52,,,,2,2,0.0,0.0,1.0,0.0,,0.0-54.0,,0.0,412.9,0.0,0.6940159379999999,1.0,0.75,0.0,0.31710554399999996,0.0,0.413450341,True,,5f83bd0b44cc145582b0ca01,,676859,52,,evan-feature22,full_rf_a,,1
28,41525,53,,,,1,1,1.0,1.0,1.0,0.0,,0.0-55.0,,1.0,697.155,1.0,0.6916018270000001,1.0,0.69001187,0.0,0.261817804,0.0,0.40038635,True,,5f83bd0b44cc145582b0ca01,,687316,53,,evan-feature22,full_rf_a,,1
29,41526,54,,,,2,2,1.0,0.0,1.0,0.0,,0.0-56.0,,1.0,602.64,0.0,0.641061544,1.0,0.71337992,1.0,0.277296461,0.0,0.47372791700000005,True,,5f83bd0b44cc145582b0ca01,,697685,54,,evan-feature22,full_rf_a,,1
30,41527,55,,,,1,1,1.0,1.0,1.0,0.0,,0.0-57.0,,1.0,1200.065,1.0,0.6082438520000001,1.0,0.708471106,0.0,0.28745137,1.0,0.564174476,True,,5f83bd0b44cc145582b0ca01,,708648,55,,evan-feature22,full_rf_a,,1
31,41528,56,,,,1,1,0.0,1.0,1.0,0.0,,0.0-58.0,,0.0,1740.52,0.0,0.6051112120000001,1.0,0.7118147229999999,0.0,0.272390611,1.0,0.5595149939999999,True,,5f83bd0b44cc145582b0ca01,,720152,56,,evan-feature22,full_rf_a,,0
32,41529,57,,,,2,2,0.0,0.0,1.0,0.0,,0.0-59.0,,0.0,394.57,0.0,0.582420852,1.0,0.635867583,0.0,0.31089574,0.0,0.5227206520000001,True,,5f83bd0b44cc145582b0ca01,,730307,57,,evan-feature22,full_rf_a,,1
33,41530,58,,,,2,2,1.0,1.0,0.0,-1.0,,0.0-60.0,,-1.0,499.685,0.0,0.623195575,0.0,0.655026044,1.0,0.25,1.0,0.560387538,True,,5f83bd0b44cc145582b0ca01,,740570,58,,evan-feature22,full_rf_a,,0
34,41531,59,,,,1,1,0.0,1.0,1.0,0.0,,0.0-61.0,,0.0,247.37,0.0,0.601889598,1.0,0.678198724,0.0,0.25,1.0,0.559922936,True,,5f83bd0b44cc145582b0ca01,,750580,59,,evan-feature22,full_rf_a,,1
35,41532,60,,,,1,1,1.0,1.0,1.0,0.0,,0.0-62.0,,1.0,16.75499999,1.0,0.601259914,1.0,0.704681482,1.0,0.33908969299999997,1.0,0.505003715,True,,5f83bd0b44cc145582b0ca01,,760364,60,,evan-feature22,full_rf_a,,0
36,41533,61,,,,2,2,0.0,0.0,1.0,0.0,,0.0-63.0,,0.0,119.51,0.0,0.59645454,1.0,0.710437172,0.0,0.327441879,0.0,0.391749613,True,,5f83bd0b44cc145582b0ca01,,770243,61,,evan-feature22,full_rf_a,,1
37,41534,62,,,,1,1,1.0,1.0,1.0,0.0,,0.0-64.0,,1.0,348.845,1.0,0.529473,1.0,0.636758527,1.0,0.301338063,0.0,0.365661481,True,,5f83bd0b44cc145582b0ca01,,780353,62,,evan-feature22,full_rf_a,,1
38,41535,63,,,,2,2,0.0,0.0,0.0,-1.0,,0.0-65.0,,0.0,385.13,1.0,0.541657162,1.0,0.634541962,0.0,0.343535366,0.0,0.371763742,True,,5f83bd0b44cc145582b0ca01,,790496,63,,evan-feature22,full_rf_a,,1
39,41536,64,,,,1,1,1.0,0.0,1.0,0.0,,0.0-66.0,,1.0,46.65500001,1.0,0.5707533260000001,0.0,0.589121171,0.0,0.326428396,1.0,0.43961622899999997,True,,5f83bd0b44cc145582b0ca01,,800304,64,,evan-feature22,full_rf_a,,1
40,41537,65,,,,2,2,0.0,0.0,1.0,0.0,,0.0-67.0,,0.0,400.615,0.0,0.5707533260000001,1.0,0.589121171,0.0,0.326428396,0.0,0.43961622899999997,True,,5f83bd0b44cc145582b0ca01,,810464,65,,evan-feature22,full_rf_a,,1
41,41538,66,,,,1,1,1.0,0.0,1.0,0.0,,0.0-68.0,,1.0,249.39,1.0,0.506271295,0.0,0.641775594,0.0,0.37149690700000004,0.0,0.404330166,True,,5f83bd0b44cc145582b0ca01,,820476,66,,evan-feature22,full_rf_a,,1
42,41539,67,,,,2,2,0.0,1.0,0.0,-1.0,,0.0-69.0,,-1.0,678.32,0.0,0.455642565,0.0,0.623605825,0.0,0.358753011,1.0,0.346174041,True,,5f83bd0b44cc145582b0ca01,,830915,67,,evan-feature22,full_rf_a,,1
43,41540,68,,,,1,1,1.0,1.0,0.0,-1.0,,0.0-70.0,,-1.0,281.455,1.0,0.483677308,1.0,0.5904681070000001,1.0,0.402218411,0.0,0.35344697,True,,5f83bd0b44cc145582b0ca01,,840961,68,,evan-feature22,full_rf_a,,1
44,41541,69,,,,2,2,0.0,0.0,0.0,-1.0,,0.0-71.0,,0.0,866.36,0.0,0.394210977,1.0,0.558925494,0.0,0.540052017,0.0,0.35182128700000004,True,,5f83bd0b44cc145582b0ca01,,851589,69,,evan-feature22,full_rf_a,,1
45,41542,70,,,,1,1,0.0,0.0,1.0,0.0,,0.0-72.0,,0.0,85.92499996,0.0,0.382300414,0.0,0.577670603,0.0,0.607608448,1.0,0.378261578,True,,5f83bd0b44cc145582b0ca01,,861439,70,,evan-feature22,full_rf_a,,1
46,41543,71,,,,1,1,0.0,1.0,1.0,0.0,,0.0-73.0,,0.0,187.07,0.0,0.357596762,1.0,0.5929076529999999,1.0,0.6579790010000001,0.0,0.401326777,True,,5f83bd0b44cc145582b0ca01,,871385,71,,evan-feature22,full_rf_a,,0
47,41544,72,,,,1,1,0.0,1.0,1.0,0.0,,0.0-74.0,,0.0,91.27500001,0.0,0.362033495,1.0,0.582308608,1.0,0.649195052,1.0,0.355158505,True,,5f83bd0b44cc145582b0ca01,,881242,72,,evan-feature22,full_rf_a,,0
48,41545,73,,,,2,2,0.0,1.0,1.0,0.0,,0.0-75.0,,0.0,2118.51,0.0,0.369620635,0.0,0.669100864,0.0,0.706059111,1.0,0.362516241,True,,5f83bd0b44cc145582b0ca01,,893125,73,,evan-feature22,full_rf_a,,1
49,41546,74,,,,2,2,1.0,1.0,1.0,0.0,,0.0-76.0,,1.0,196.945,0.0,0.41477751399999996,1.0,0.7284416779999999,1.0,0.7182656940000001,1.0,0.36228040899999997,True,,5f83bd0b44cc145582b0ca01,,903086,74,,evan-feature22,full_rf_a,,0
50,41547,75,,,,2,2,1.0,0.0,0.0,-1.0,,0.0-77.0,,0.0,136.355,0.0,0.37675460299999997,1.0,0.703250285,1.0,0.75,0.0,0.461979164,True,,5f83bd0b44cc145582b0ca01,,912982,75,,evan-feature22,full_rf_a,,0
51,41548,76,,,,2,2,1.0,0.0,0.0,-1.0,,0.0-78.0,,0.0,696.57,0.0,0.398716075,1.0,0.6723864890000001,1.0,0.674153818,0.0,0.519029516,True,,5f83bd0b44cc145582b0ca01,,923438,76,,evan-feature22,full_rf_a,,0
52,41549,77,,,,2,2,1.0,0.0,1.0,0.0,,0.0-79.0,,1.0,318.78,0.0,0.34677856700000004,1.0,0.69057175,1.0,0.6822438540000001,0.0,0.477292237,True,,5f83bd0b44cc145582b0ca01,,933576,77,,evan-feature22,full_rf_a,,0
53,41550,78,,,,2,2,1.0,0.0,0.0,-1.0,,0.0-80.0,,0.0,524.19,0.0,0.28580469199999997,1.0,0.68408818,1.0,0.684207565,0.0,0.49780448299999996,True,,5f83bd0b44cc145582b0ca01,,943862,78,,evan-feature22,full_rf_a,,0
54,41552,80,,,,2,2,1.0,1.0,1.0,0.0,,0.0-82.0,,1.0,673.07,0.0,0.25,1.0,0.7405808970000001,1.0,0.679614108,1.0,0.436436964,True,,5f83bd0b44cc145582b0ca01,,956166,80,,evan-feature22,full_rf_a,,0
55,41553,81,,,,2,2,1.0,0.0,0.0,-1.0,,0.0-83.0,,0.0,338.445,0.0,0.29890393,1.0,0.730505706,1.0,0.7328203320000001,0.0,0.439256938,True,,5f83bd0b44cc145582b0ca01,,966266,81,,evan-feature22,full_rf_a,,0
56,41554,82,,,,2,2,1.0,1.0,1.0,0.0,,0.0-84.0,,1.0,96.23499995,1.0,0.326762398,1.0,0.7148059609999999,1.0,0.75,1.0,0.44389608799999997,True,,5f83bd0b44cc145582b0ca01,,976125,82,,evan-feature22,full_rf_a,,0
57,41555,83,,,,2,2,1.0,0.0,1.0,0.0,,0.0-85.0,,1.0,210.765,0.0,0.295168515,0.0,0.739760854,1.0,0.719947008,0.0,0.35277284600000003,True,,5f83bd0b44cc145582b0ca01,,986095,83,,evan-feature22,full_rf_a,,0
58,41556,84,,,,2,2,1.0,1.0,1.0,0.0,,0.0-86.0,,1.0,226.235,0.0,0.25,1.0,0.70781482,1.0,0.75,1.0,0.286095925,True,,5f83bd0b44cc145582b0ca01,,996083,84,,evan-feature22,full_rf_a,,0
59,41557,85,,,,2,2,0.0,0.0,0.0,-1.0,,0.0-87.0,,0.0,453.75,0.0,0.25638190899999996,0.0,0.704088163,0.0,0.75,0.0,0.26872601399999996,True,,5f83bd0b44cc145582b0ca01,,1006296,85,,evan-feature22,full_rf_a,,0
60,41558,86,,,,2,2,1.0,0.0,0.0,-1.0,,0.0-88.0,,0.0,204.24,0.0,0.271581126,1.0,0.669760107,1.0,0.733896663,0.0,0.273244572,True,,5f83bd0b44cc145582b0ca01,,1016264,86,,evan-feature22,full_rf_a,,0
61,41559,87,,,,2,2,1.0,1.0,0.0,-1.0,,0.0-89.0,,-1.0,122.305,0.0,0.257144401,1.0,0.600575706,1.0,0.74488122,1.0,0.25,True,,5f83bd0b44cc145582b0ca01,,1026148,87,,evan-feature22,full_rf_a,,0
62,41560,88,,,,2,2,1.0,1.0,1.0,0.0,,0.0-90.0,,1.0,51.66,1.0,0.25,1.0,0.616870026,1.0,0.723610234,1.0,0.25,True,,5f83bd0b44cc145582b0ca01,,1035964,88,,evan-feature22,full_rf_a,,0
63,41561,89,,,,2,2,0.0,0.0,0.0,-1.0,,0.0-91.0,,0.0,284.5,0.0,0.25,1.0,0.583540187,0.0,0.7041042559999999,0.0,0.285961995,True,,5f83bd0b44cc145582b0ca01,,1046011,89,,evan-feature22,full_rf_a,,0
64,41562,90,,,,2,2,1.0,0.0,1.0,0.0,,0.0-92.0,,1.0,413.295,0.0,0.27254536,0.0,0.53875765,1.0,0.693783448,0.0,0.284961652,True,,5f83bd0b44cc145582b0ca01,,1056183,90,,evan-feature22,full_rf_a,,0
65,41563,91,,,,2,2,1.0,0.0,0.0,-1.0,,0.0-93.0,,0.0,730.75,0.0,0.25,0.0,0.548431252,1.0,0.734221895,0.0,0.279445214,True,,5f83bd0b44cc145582b0ca01,,1066676,91,,evan-feature22,full_rf_a,,0
66,41564,92,,,,2,2,1.0,1.0,1.0,0.0,,0.0-94.0,,1.0,237.935,0.0,0.258640684,0.0,0.545878066,1.0,0.725245965,1.0,0.31487537,True,,5f83bd0b44cc145582b0ca01,,1076677,92,,evan-feature22,full_rf_a,,0
67,41565,93,,,,2,2,0.0,1.0,1.0,0.0,,0.0-95.0,,0.0,80.77,0.0,0.251103711,1.0,0.5776290629999999,0.0,0.696320133,1.0,0.317831047,True,,5f83bd0b44cc145582b0ca01,,1086518,93,,evan-feature22,full_rf_a,,0
68,41566,94,,,,2,2,1.0,1.0,1.0,0.0,,0.0-96.0,,1.0,802.655,0.0,0.276630292,1.0,0.617329858,1.0,0.73838088,1.0,0.261471582,True,,5f83bd0b44cc145582b0ca01,,1097083,94,,evan-feature22,full_rf_a,,0
69,41567,95,,,,2,2,1.0,0.0,0.0,-1.0,,0.0-97.0,,0.0,248.0,1.0,0.297716424,1.0,0.618863717,1.0,0.7402358259999999,0.0,0.262600834,True,,5f83bd0b44cc145582b0ca01,,1107093,95,,evan-feature22,full_rf_a,,0
70,41568,96,,,,2,2,0.0,0.0,1.0,0.0,,0.0-98.0,,0.0,328.025,1.0,0.290935512,1.0,0.695370945,0.0,0.706570507,0.0,0.280030553,True,,5f83bd0b44cc145582b0ca01,,1117180,96,,evan-feature22,full_rf_a,,0
71,41569,97,,,,2,2,1.0,0.0,1.0,0.0,,0.0-99.0,,1.0,453.43,0.0,0.25,1.0,0.6465277079999999,1.0,0.67766682,0.0,0.25,True,,5f83bd0b44cc145582b0ca01,,1127396,97,,evan-feature22,full_rf_a,,0
72,41570,98,,,,2,2,1.0,0.0,1.0,0.0,,0.0-100.0,,1.0,1701.925,0.0,0.26463816,0.0,0.636100213,1.0,0.646048507,0.0,0.265607101,True,,5f83bd0b44cc145582b0ca01,,1138863,98,,evan-feature22,full_rf_a,,0
73,41571,99,,,,2,2,1.0,1.0,1.0,0.0,,0.0-101.0,,1.0,573.54,0.0,0.314340707,1.0,0.667795927,1.0,0.613630805,1.0,0.25,True,,5f83bd0b44cc145582b0ca01,,1149202,99,,evan-feature22,full_rf_a,,0
74,41572,100,,,,2,2,1.0,0.0,1.0,0.0,,0.0-102.0,,1.0,198.73,1.0,0.28685784,0.0,0.6622549529999999,1.0,0.652154117,0.0,0.25,True,,5f83bd0b44cc145582b0ca01,,1159163,100,,evan-feature22,full_rf_a,,0
75,41573,101,,,,2,2,1.0,1.0,0.0,-1.0,,0.0-103.0,,-1.0,218.005,0.0,0.304106554,0.0,0.631289538,1.0,0.707041942,1.0,0.29314237,True,,5f83bd0b44cc145582b0ca01,,1169141,101,,evan-feature22,full_rf_a,,0
76,41574,102,,,,2,2,1.0,0.0,0.0,-1.0,,0.0-104.0,,0.0,7.195000013,0.0,0.304806932,0.0,0.571167718,1.0,0.680472346,0.0,0.25,True,,5f83bd0b44cc145582b0ca01,,1178910,102,,evan-feature22,full_rf_a,,0
77,41575,103,,,,2,2,1.0,0.0,0.0,-1.0,,0.0-105.0,,0.0,102.21,0.0,0.37919861,0.0,0.5724849710000001,1.0,0.705638003,0.0,0.30179300600000003,True,,5f83bd0b44cc145582b0ca01,,1188772,103,,evan-feature22,full_rf_a,,0
78,41576,104,,,,2,2,0.0,0.0,0.0,-1.0,,0.0-106.0,,0.0,184.27,1.0,0.464277969,1.0,0.554034373,0.0,0.7372627340000001,0.0,0.264699741,True,,5f83bd0b44cc145582b0ca01,,1198717,104,,evan-feature22,full_rf_a,,0
79,41577,105,,,,2,2,1.0,1.0,1.0,0.0,,0.0-107.0,,1.0,10.42499999,0.0,0.465104323,1.0,0.530793115,1.0,0.75,1.0,0.31683071,True,,5f83bd0b44cc145582b0ca01,,1208490,105,,evan-feature22,full_rf_a,,0
80,41578,106,,,,2,2,1.0,1.0,0.0,-1.0,,0.0-108.0,,-1.0,159.585,1.0,0.465104323,1.0,0.530793115,1.0,0.75,1.0,0.31683071,True,,5f83bd0b44cc145582b0ca01,,1218414,106,,evan-feature22,full_rf_a,,0
81,41579,107,,,,2,2,1.0,0.0,0.0,-1.0,,0.0-109.0,,0.0,35.49500002,1.0,0.46833986,0.0,0.570249239,1.0,0.7244472590000001,0.0,0.364114163,True,,5f83bd0b44cc145582b0ca01,,1228212,107,,evan-feature22,full_rf_a,,0
82,41580,108,,,,2,2,0.0,0.0,0.0,-1.0,,0.0-110.0,,0.0,147.235,1.0,0.445444024,0.0,0.649673355,0.0,0.6845441290000001,0.0,0.300660449,True,,5f83bd0b44cc145582b0ca01,,1238123,108,,evan-feature22,full_rf_a,,0
83,41581,109,,,,2,2,1.0,0.0,0.0,-1.0,,0.0-111.0,,0.0,676.365,1.0,0.39909721299999995,1.0,0.6715179509999999,1.0,0.742310028,0.0,0.35496088299999995,True,,5f83bd0b44cc145582b0ca01,,1248559,109,,evan-feature22,full_rf_a,,0
84,41582,110,,,,2,2,0.0,1.0,0.0,-1.0,,0.0-112.0,,-1.0,641.275,0.0,0.37956104799999996,1.0,0.694725302,0.0,0.7181651309999999,1.0,0.38726906299999997,True,,5f83bd0b44cc145582b0ca01,,1258960,110,,evan-feature22,full_rf_a,,0
85,41583,111,,,,2,2,1.0,0.0,0.0,-1.0,,0.0-113.0,,0.0,97.64499997,1.0,0.404995034,0.0,0.724375412,1.0,0.6910946859999999,0.0,0.387187347,True,,5f83bd0b44cc145582b0ca01,,1268818,111,,evan-feature22,full_rf_a,,0
86,41584,112,,,,2,2,1.0,0.0,0.0,-1.0,,0.0-114.0,,0.0,172.44,0.0,0.461740803,1.0,0.75,1.0,0.75,0.0,0.34872038200000005,True,,5f83bd0b44cc145582b0ca01,,1278750,112,,evan-feature22,full_rf_a,,0
87,41585,113,,,,2,2,1.0,1.0,1.0,0.0,,0.0-115.0,,1.0,663.145,0.0,0.43821380600000004,1.0,0.738833273,1.0,0.728286963,1.0,0.399538128,True,,5f83bd0b44cc145582b0ca01,,1289177,113,,evan-feature22,full_rf_a,,0
88,41586,114,,,,2,2,0.0,0.0,0.0,-1.0,,0.0-116.0,,0.0,86.65499999,0.0,0.41709882,1.0,0.736666736,0.0,0.75,0.0,0.389095584,True,,5f83bd0b44cc145582b0ca01,,1299025,114,,evan-feature22,full_rf_a,,0
89,41587,115,,,,2,2,1.0,1.0,0.0,-1.0,,0.0-117.0,,-1.0,84.99500004,0.0,0.39749009799999996,1.0,0.744320029,1.0,0.75,1.0,0.363848678,True,,5f83bd0b44cc145582b0ca01,,1308873,115,,evan-feature22,full_rf_a,,0
90,41588,116,,,,2,2,1.0,0.0,1.0,0.0,,0.0-118.0,,1.0,153.145,0.0,0.392653706,0.0,0.75,1.0,0.75,0.0,0.384386976,True,,5f83bd0b44cc145582b0ca01,,1318788,116,,evan-feature22,full_rf_a,,0
91,41589,117,,,,SLOW,SLOW,,,1.0,0.0,,0.0-119.0,,-3.0,,1.0,0.31190902600000003,1.0,0.75,0.0,0.732413819,1.0,0.413082932,True,,5f83bd0b44cc145582b0ca01,,1324597,117,,evan-feature22,full_rf_a,,1
92,41590,118,,,,2,2,1.0,0.0,0.0,-1.0,,0.0-120.0,,0.0,190.49,1.0,0.366917648,0.0,0.740073855,1.0,0.75,0.0,0.352861979,True,,5f83bd0b44cc145582b0ca01,,1334547,118,,evan-feature22,full_rf_a,,1
93,41591,119,,,,2,2,0.0,0.0,0.0,-1.0,,0.0-121.0,,0.0,133.035,0.0,0.3645172,1.0,0.721770713,0.0,0.75,0.0,0.404074511,True,,5f83bd0b44cc145582b0ca01,,1344443,119,,evan-feature22,full_rf_a,,0
94,41592,120,,,,2,2,0.0,1.0,0.0,-1.0,,0.0-122.0,,-1.0,53.32000001,0.0,0.35205600299999995,1.0,0.68983859,0.0,0.739735447,1.0,0.366895945,True,,5f83bd0b44cc145582b0ca01,,1354255,120,,evan-feature22,full_rf_a,,0
95,41593,121,,,,2,2,1.0,1.0,0.0,-1.0,,0.0-123.0,,-1.0,165.865,1.0,0.40998722600000004,1.0,0.720859127,1.0,0.673854955,1.0,0.368528541,True,,5f83bd0b44cc145582b0ca01,,1364185,121,,evan-feature22,full_rf_a,,0
96,41594,122,,,,2,2,0.0,0.0,1.0,0.0,,0.0-124.0,,0.0,419.85,0.0,0.353625316,1.0,0.75,0.0,0.695605473,0.0,0.38303674200000004,True,,5f83bd0b44cc145582b0ca01,,1374366,122,,evan-feature22,full_rf_a,,0
97,41595,123,,,,2,2,1.0,0.0,0.0,-1.0,,0.0-125.0,,0.0,126.05,1.0,0.359216989,1.0,0.75,1.0,0.6987915090000001,0.0,0.35169046200000004,True,,5f83bd0b44cc145582b0ca01,,1384256,123,,evan-feature22,full_rf_a,,0
98,41596,124,,,,2,2,0.0,1.0,1.0,0.0,,0.0-126.0,,0.0,92.24000003,0.0,0.35834496899999996,1.0,0.75,0.0,0.707067742,1.0,0.416763636,True,,5f83bd0b44cc145582b0ca01,,1394113,124,,evan-feature22,full_rf_a,,0
99,41597,125,,,,2,2,1.0,1.0,1.0,0.0,,0.0-127.0,,1.0,99.15000002,0.0,0.38741613799999997,1.0,0.7177369570000001,1.0,0.734902455,1.0,0.49438664299999996,True,,5f83bd0b44cc145582b0ca01,,1403973,125,,evan-feature22,full_rf_a,,0
100,41598,126,,,,2,2,1.0,0.0,0.0,-1.0,,0.0-128.0,,0.0,46.57000001,1.0,0.405255252,1.0,0.7300466640000001,1.0,0.7027748070000001,0.0,0.504359668,True,,5f83bd0b44cc145582b0ca01,,1413783,126,,evan-feature22,full_rf_a,,0
101,41599,127,,,,2,2,1.0,0.0,0.0,-1.0,,0.0-129.0,,0.0,43.84499998,0.0,0.40697073,1.0,0.7260142190000001,1.0,0.724461982,0.0,0.522779179,True,,5f83bd0b44cc145582b0ca01,,1423591,127,,evan-feature22,full_rf_a,,0
102,41600,128,,,,2,2,1.0,1.0,0.0,-1.0,,0.0-130.0,,-1.0,132.53,0.0,0.43906215299999996,1.0,0.7252802340000001,1.0,0.719079934,1.0,0.5712990579999999,True,,5f83bd0b44cc145582b0ca01,,1433492,128,,evan-feature22,full_rf_a,,0
103,41601,129,,,,2,2,0.0,1.0,0.0,-1.0,,0.0-131.0,,-1.0,98.84499997,0.0,0.4076705,1.0,0.73280499,0.0,0.681313127,1.0,0.523891346,True,,5f83bd0b44cc145582b0ca01,,1443352,129,,evan-feature22,full_rf_a,,0
104,41602,130,,,,2,2,1.0,0.0,0.0,-1.0,,0.0-132.0,,0.0,139.855,1.0,0.399102911,1.0,0.730498344,1.0,0.661080239,0.0,0.46742603,True,,5f83bd0b44cc145582b0ca01,,1453255,130,,evan-feature22,full_rf_a,,0
105,41603,131,,,,2,2,1.0,1.0,1.0,0.0,,0.0-133.0,,1.0,100.755,1.0,0.356477282,1.0,0.712296395,1.0,0.641812684,1.0,0.44868414,True,,5f83bd0b44cc145582b0ca01,,1463123,131,,evan-feature22,full_rf_a,,0
106,41604,132,,,,2,2,0.0,0.0,0.0,-1.0,,0.0-134.0,,0.0,431.36,1.0,0.462760722,1.0,0.692349322,0.0,0.700947931,0.0,0.394680266,True,,5f83bd0b44cc145582b0ca01,,1473315,132,,evan-feature22,full_rf_a,,0
107,41605,133,,,,2,2,1.0,0.0,0.0,-1.0,,0.0-135.0,,0.0,62.20500002,0.0,0.422306413,0.0,0.718375916,1.0,0.706340917,0.0,0.367787185,True,,5f83bd0b44cc145582b0ca01,,1483139,133,,evan-feature22,full_rf_a,,0
108,41607,135,,,,2,2,1.0,1.0,0.0,-1.0,,0.0-137.0,,-1.0,5.229999952,1.0,0.4582233,1.0,0.643834117,1.0,0.75,1.0,0.39615823299999997,True,,5f83bd0b44cc145582b0ca01,,1502669,135,,evan-feature22,full_rf_a,,0
109,41608,136,,,,2,2,1.0,1.0,0.0,-1.0,,0.0-138.0,,-1.0,53.205,0.0,0.43813437899999996,0.0,0.651283804,1.0,0.729674191,1.0,0.37711048,True,,5f83bd0b44cc145582b0ca01,,1512484,136,,evan-feature22,full_rf_a,,0
110,41609,137,,,,2,2,0.0,0.0,0.0,-1.0,,0.0-139.0,,0.0,659.47,0.0,0.471199094,1.0,0.6470010979999999,0.0,0.715008097,0.0,0.410656191,True,,5f83bd0b44cc145582b0ca01,,1522904,137,,evan-feature22,full_rf_a,,0
111,41610,138,,,,2,2,1.0,1.0,1.0,0.0,,0.0-140.0,,1.0,24.92499998,0.0,0.42486406,0.0,0.629771829,1.0,0.6550939960000001,1.0,0.459093873,True,,5f83bd0b44cc145582b0ca01,,1532693,138,,evan-feature22,full_rf_a,,0
112,41611,139,,,,2,2,1.0,1.0,1.0,0.0,,0.0-141.0,,1.0,299.97,0.0,0.4803197,1.0,0.645842715,1.0,0.6421749920000001,1.0,0.443092151,True,,5f83bd0b44cc145582b0ca01,,1542757,139,,evan-feature22,full_rf_a,,0
113,41612,140,,,,2,2,1.0,1.0,1.0,0.0,,0.0-142.0,,1.0,123.675,0.0,0.521848997,1.0,0.735801074,1.0,0.6691348460000001,1.0,0.45259351600000003,True,,5f83bd0b44cc145582b0ca01,,1552645,140,,evan-feature22,full_rf_a,,0
114,41613,141,,,,2,2,1.0,1.0,0.0,-1.0,,0.0-143.0,,-1.0,26.81999997,0.0,0.49565621299999996,1.0,0.742400847,1.0,0.661512553,1.0,0.483110831,True,,5f83bd0b44cc145582b0ca01,,1562437,141,,evan-feature22,full_rf_a,,0
115,41614,142,,,,2,2,1.0,1.0,1.0,0.0,,0.0-144.0,,1.0,120.47,1.0,0.521564361,1.0,0.731078632,1.0,0.6774886809999999,1.0,0.483263956,True,,5f83bd0b44cc145582b0ca01,,1572318,142,,evan-feature22,full_rf_a,,0
116,41615,143,,,,2,2,1.0,0.0,1.0,0.0,,0.0-145.0,,1.0,135.995,0.0,0.558893102,1.0,0.719810023,1.0,0.67461031,0.0,0.499349834,True,,5f83bd0b44cc145582b0ca01,,1582213,143,,evan-feature22,full_rf_a,,0
117,41616,144,,,,2,2,1.0,1.0,0.0,-1.0,,0.0-146.0,,-1.0,149.455,0.0,0.611031046,1.0,0.75,1.0,0.688072995,1.0,0.5321422729999999,True,,5f83bd0b44cc145582b0ca01,,1592125,144,,evan-feature22,full_rf_a,,0
118,41617,145,,,,2,2,1.0,0.0,1.0,0.0,,0.0-147.0,,1.0,162.1,0.0,0.633223941,1.0,0.713567728,1.0,0.75,0.0,0.48185314700000004,True,,5f83bd0b44cc145582b0ca01,,1602047,145,,evan-feature22,full_rf_a,,0
119,41618,146,,,,2,2,1.0,0.0,1.0,0.0,,0.0-148.0,,1.0,177.91,0.0,0.664001694,1.0,0.705509768,1.0,0.75,0.0,0.500211065,True,,5f83bd0b44cc145582b0ca01,,1612424,146,,evan-feature22,full_rf_a,,0
120,41619,147,,,,2,2,1.0,1.0,0.0,-1.0,,0.0-149.0,,-1.0,89.28000001,1.0,0.664001694,0.0,0.705509768,1.0,0.75,1.0,0.500211065,True,,5f83bd0b44cc145582b0ca01,,1622277,147,,evan-feature22,full_rf_a,,0
121,41620,148,,,,2,2,0.0,0.0,0.0,-1.0,,0.0-150.0,,0.0,79.48499999,0.0,0.696508041,1.0,0.71066027,0.0,0.717028709,0.0,0.49792991,True,,5f83bd0b44cc145582b0ca01,,1632118,148,,evan-feature22,full_rf_a,,0
122,41621,149,,,,2,2,1.0,1.0,1.0,0.0,,0.0-151.0,,1.0,116.06,1.0,0.699883272,1.0,0.75,1.0,0.713543895,1.0,0.496962643,True,,5f83bd0b44cc145582b0ca01,,1641994,149,,evan-feature22,full_rf_a,,0
123,41622,150,,,,2,2,1.0,0.0,0.0,-1.0,,0.0-152.0,,0.0,769.91,0.0,0.741163419,1.0,0.75,1.0,0.64691024,0.0,0.513858197,True,,5f83bd0b44cc145582b0ca01,,1652523,150,,evan-feature22,full_rf_a,,0
124,41623,151,,,,2,2,0.0,1.0,1.0,0.0,,0.0-153.0,,0.0,66.24500005,1.0,0.75,0.0,0.70816558,0.0,0.594499079,1.0,0.48502124,True,,5f83bd0b44cc145582b0ca01,,1662352,151,,evan-feature22,full_rf_a,,0
125,41624,152,,,,2,2,1.0,1.0,0.0,-1.0,,0.0-154.0,,-1.0,509.475,1.0,0.75,1.0,0.721848901,1.0,0.62197249,1.0,0.48263586399999997,True,,5f83bd0b44cc145582b0ca01,,1672625,152,,evan-feature22,full_rf_a,,0
126,41625,153,,,,2,2,0.0,0.0,1.0,0.0,,0.0-155.0,,0.0,41.195,1.0,0.75,1.0,0.74813071,0.0,0.584357161,0.0,0.411477782,True,,5f83bd0b44cc145582b0ca01,,1682427,153,,evan-feature22,full_rf_a,,0
127,41626,154,,,,2,2,0.0,0.0,0.0,-1.0,,0.0-156.0,,0.0,131.035,1.0,0.75,1.0,0.75,0.0,0.52287236,0.0,0.488290656,True,,5f83bd0b44cc145582b0ca01,,1692316,154,,evan-feature22,full_rf_a,,0
128,41627,155,,,,2,2,1.0,1.0,0.0,-1.0,,0.0-157.0,,-1.0,417.77,1.0,0.75,1.0,0.75,1.0,0.544321581,1.0,0.53143059,True,,5f83bd0b44cc145582b0ca01,,1702495,155,,evan-feature22,full_rf_a,,0
129,41628,156,,,,2,2,0.0,0.0,0.0,-1.0,,0.0-158.0,,0.0,497.905,1.0,0.726754564,1.0,0.75,0.0,0.5129306370000001,0.0,0.530592445,True,,5f83bd0b44cc145582b0ca01,,1712754,156,,evan-feature22,full_rf_a,,0
130,41629,157,,,,2,2,0.0,1.0,1.0,0.0,,0.0-159.0,,0.0,13.20000004,0.0,0.75,1.0,0.7392590729999999,0.0,0.479875835,1.0,0.547007051,True,,5f83bd0b44cc145582b0ca01,,1722527,157,,evan-feature22,full_rf_a,,0
131,41630,158,,,,2,2,1.0,1.0,1.0,0.0,,0.0-160.0,,1.0,271.36,1.0,0.75,1.0,0.7393376979999999,1.0,0.546045419,1.0,0.541267353,True,,5f83bd0b44cc145582b0ca01,,1732565,158,,evan-feature22,full_rf_a,,0
132,41631,159,,,,2,2,1.0,0.0,1.0,0.0,,0.0-161.0,,1.0,1147.02,1.0,0.75,1.0,0.75,1.0,0.485725895,0.0,0.527625395,True,,5f83bd0b44cc145582b0ca01,,1743475,159,,evan-feature22,full_rf_a,,0
133,41632,160,,,,2,2,1.0,0.0,0.0,-1.0,,0.0-162.0,,0.0,295.94,0.0,0.75,1.0,0.725087974,1.0,0.488603595,0.0,0.504019206,True,,5f83bd0b44cc145582b0ca01,,1753534,160,,evan-feature22,full_rf_a,,0
134,41633,161,,,,2,2,1.0,0.0,0.0,-1.0,,0.0-163.0,,0.0,687.855,1.0,0.745504295,1.0,0.75,1.0,0.452379914,0.0,0.50131194,True,,5f83bd0b44cc145582b0ca01,,1763985,161,,evan-feature22,full_rf_a,,0
135,41634,162,,,,2,2,1.0,0.0,0.0,-1.0,,0.0-164.0,,0.0,0.100000005,0.0,0.728513874,0.0,0.75,1.0,0.44125567200000004,0.0,0.531454591,True,,5f83bd0b44cc145582b0ca01,,1773747,162,,evan-feature22,full_rf_a,,0
136,41635,163,,,,2,2,0.0,0.0,1.0,0.0,,0.0-165.0,,0.0,184.515,1.0,0.73790804,0.0,0.75,0.0,0.413036656,0.0,0.524619035,True,,5f83bd0b44cc145582b0ca01,,1783691,163,,evan-feature22,full_rf_a,,0
137,41636,164,,,,2,2,0.0,1.0,0.0,-1.0,,0.0-166.0,,-1.0,186.39,1.0,0.7080961309999999,1.0,0.708666865,0.0,0.431915581,1.0,0.481819489,True,,5f83bd0b44cc145582b0ca01,,1793636,164,,evan-feature22,full_rf_a,,0
138,41637,165,,,,2,2,1.0,1.0,0.0,-1.0,,0.0-167.0,,-1.0,661.35,0.0,0.721378003,1.0,0.71605913,1.0,0.36642387,1.0,0.5036739929999999,True,,5f83bd0b44cc145582b0ca01,,1804062,165,,evan-feature22,full_rf_a,,0
139,41638,166,,,,2,2,0.0,0.0,0.0,-1.0,,0.0-168.0,,0.0,97.61499998,1.0,0.7340618959999999,0.0,0.699323252,0.0,0.35298046299999997,0.0,0.511241692,True,,5f83bd0b44cc145582b0ca01,,1813921,166,,evan-feature22,full_rf_a,,0
140,41639,167,,,,2,2,0.0,1.0,1.0,0.0,,0.0-169.0,,0.0,168.405,1.0,0.75,1.0,0.70412698,0.0,0.380734814,1.0,0.529580116,True,,5f83bd0b44cc145582b0ca01,,1823850,167,,evan-feature22,full_rf_a,,0
141,41640,168,,,,SLOW,SLOW,,,0.0,-1.0,,0.0-170.0,,-3.0,,1.0,0.7436654909999999,1.0,0.711182751,1.0,0.41125331,1.0,0.49554405,True,,5f83bd0b44cc145582b0ca01,,1829658,168,,evan-feature22,full_rf_a,,1
142,41641,169,,,,2,2,0.0,1.0,0.0,-1.0,,0.0-171.0,,-1.0,173.075,1.0,0.731607915,1.0,0.651774583,0.0,0.35688023,1.0,0.45194491600000003,True,,5f83bd0b44cc145582b0ca01,,1839593,169,,evan-feature22,full_rf_a,,1
143,41642,170,,,,2,2,0.0,0.0,1.0,0.0,,0.0-172.0,,0.0,122.11,0.0,0.75,1.0,0.75,0.0,0.283145374,0.0,0.528608005,True,,5f83bd0b44cc145582b0ca01,,1849474,170,,evan-feature22,full_rf_a,,0
144,41643,171,,,,2,2,0.0,0.0,1.0,0.0,,0.0-173.0,,0.0,164.38,0.0,0.7491416890000001,0.0,0.7423785959999999,0.0,0.29135870399999997,0.0,0.498888318,True,,5f83bd0b44cc145582b0ca01,,1859398,171,,evan-feature22,full_rf_a,,0
145,41644,172,,,,2,2,1.0,0.0,1.0,0.0,,0.0-174.0,,1.0,115.975,1.0,0.708569387,1.0,0.717682277,1.0,0.294421699,0.0,0.493838163,True,,5f83bd0b44cc145582b0ca01,,1869277,172,,evan-feature22,full_rf_a,,0
146,41645,173,,,,2,2,0.0,0.0,0.0,-1.0,,0.0-175.0,,0.0,6.960000028,1.0,0.75,1.0,0.7383382159999999,0.0,0.356098707,0.0,0.442533405,True,,5f83bd0b44cc145582b0ca01,,1879045,173,,evan-feature22,full_rf_a,,0
147,41646,174,,,,2,2,0.0,0.0,0.0,-1.0,,0.0-176.0,,0.0,617.64,1.0,0.744527075,0.0,0.75,0.0,0.334127506,0.0,0.393165805,True,,5f83bd0b44cc145582b0ca01,,1889426,174,,evan-feature22,full_rf_a,,0
148,41647,175,,,,2,2,0.0,1.0,0.0,-1.0,,0.0-177.0,,-1.0,62.42500001,1.0,0.75,1.0,0.75,0.0,0.33571021799999995,1.0,0.350393962,True,,5f83bd0b44cc145582b0ca01,,1899251,175,,evan-feature22,full_rf_a,,0
149,41648,176,,,,2,2,0.0,1.0,0.0,-1.0,,0.0-178.0,,-1.0,61.34000001,1.0,0.75,1.0,0.75,0.0,0.313628297,1.0,0.36349657399999996,True,,5f83bd0b44cc145582b0ca01,,1909076,176,,evan-feature22,full_rf_a,,0
150,41649,177,,,,2,2,1.0,1.0,1.0,0.0,,0.0-179.0,,1.0,327.065,0.0,0.75,1.0,0.734284182,1.0,0.262667667,1.0,0.380199119,True,,5f83bd0b44cc145582b0ca01,,1919165,177,,evan-feature22,full_rf_a,,0
151,41650,178,,,,2,2,1.0,1.0,0.0,-1.0,,0.0-180.0,,-1.0,800.3450001,0.0,0.75,1.0,0.75,1.0,0.25,1.0,0.394494013,True,,5f83bd0b44cc145582b0ca01,,1930034,178,,evan-feature22,full_rf_a,,0
152,41651,179,,,,2,2,1.0,1.0,1.0,0.0,,0.0-181.0,,1.0,60.99999999,1.0,0.722298145,1.0,0.7357822340000001,1.0,0.25,1.0,0.319142121,True,,5f83bd0b44cc145582b0ca01,,1939858,179,,evan-feature22,full_rf_a,,0
153,41652,180,,,,2,2,0.0,1.0,1.0,0.0,,0.0-182.0,,0.0,177.185,1.0,0.73149275,0.0,0.724276446,0.0,0.305856907,1.0,0.281315057,True,,5f83bd0b44cc145582b0ca01,,1949797,180,,evan-feature22,full_rf_a,,0
154,41653,181,,,,2,2,1.0,1.0,0.0,-1.0,,0.0-183.0,,-1.0,1822.11,0.0,0.7458732690000001,1.0,0.7336382459999999,1.0,0.272571964,1.0,0.266021999,True,,5f83bd0b44cc145582b0ca01,,1961381,181,,evan-feature22,full_rf_a,,0
155,41654,182,,,,2,2,1.0,0.0,0.0,-1.0,,0.0-184.0,,0.0,4.354999983,0.0,0.705579037,1.0,0.720778292,1.0,0.320238144,0.0,0.30971744,True,,5f83bd0b44cc145582b0ca01,,1971146,182,,evan-feature22,full_rf_a,,0
156,41655,183,,,,2,2,0.0,0.0,0.0,-1.0,,0.0-185.0,,0.0,251.475,1.0,0.700425648,1.0,0.7198784009999999,0.0,0.272590393,0.0,0.304182931,True,,5f83bd0b44cc145582b0ca01,,1981162,183,,evan-feature22,full_rf_a,,0
157,41656,184,,,,2,2,0.0,0.0,0.0,-1.0,,0.0-186.0,,0.0,179.49,1.0,0.735590785,1.0,0.722714973,0.0,0.25,0.0,0.323421091,True,,5f83bd0b44cc145582b0ca01,,1991102,184,,evan-feature22,full_rf_a,,0
158,41657,185,,,,2,2,0.0,0.0,0.0,-1.0,,0.0-187.0,,0.0,112.97,0.0,0.724807662,1.0,0.63146213,0.0,0.36836492600000004,0.0,0.34592153299999995,True,,5f83bd0b44cc145582b0ca01,,2000976,185,,evan-feature22,full_rf_a,,0
159,41658,186,,,,2,2,0.0,1.0,0.0,-1.0,,0.0-188.0,,-1.0,57.225,0.0,0.7352796909999999,1.0,0.555111392,0.0,0.36003922,1.0,0.31433779999999995,True,,5f83bd0b44cc145582b0ca01,,2010792,186,,evan-feature22,full_rf_a,,0
160,41659,187,notice,,,,,,,,,,0.0-189.0,"{""Q0"":""Much less yellow aliens.""}",,18001.0,,,,,,,,,True,,5f83bd0b44cc145582b0ca01,,2028794,187,Q,survey-text,full_rf_a,,1
161,41660,188,track1,,[1],,,,,,,,0.0-190.0,"{""Q0"":""no""}",,5387.0,,,,,,,,,True,,5f83bd0b44cc145582b0ca01,,2034185,188,Q,evan-quiz,full_rf_a,,1
162,41661,189,track2,,[0],,,,,,,,0.0-191.0,"{""Q0"":""yes""}",,3417.0,,,,,,,,,True,,5f83bd0b44cc145582b0ca01,,2037609,189,Q,evan-quiz,full_rf_a,,1
163,41662,190,strat,,,,,,,,,,0.0-192.0,"{""Q0"":""The first block had a somewhat readable pattern where the most yellow aliens appeared on the left""}",,55505.0,,,,,,,,,True,,5f83bd0b44cc145582b0ca01,,2093121,190,Q,survey-text,full_rf_a,,1
