,index,Unnamed: 0,Q_name,button_pressed,choice_idxs,chosen_pos,chosen_state,chosen_state_f_1_outcome,chosen_state_f_2_outcome,f_1_reward,f_2_reward,incor_questions,internal_node_id,responses,reward_received,rt,s_1_f_1_outcome,s_1_f_1_prob,s_1_f_2_outcome,s_1_f_2_prob,s_2_f_1_outcome,s_2_f_1_prob,s_2_f_2_outcome,s_2_f_2_prob,safe_first,stimulus,subjectID,success,time_elapsed,trial_index,trial_num,trial_type,version,view_history,switching
0,3769,25,,,,1,1,0.0,1.0,1.0,0.0,,0.0-27.0,,0.0,1290.51,0.0,0.6,1.0,0.6,0.0,0.4,0.0,0.4,True,,5f53b73f18bf9a6ed513ca61,,518552,25,,evan-feature22,full_rf_a,,0
1,3770,26,,,,2,2,1.0,0.0,1.0,0.0,,0.0-28.0,,1.0,762.565,1.0,0.608053294,0.0,0.63424552,1.0,0.397152172,0.0,0.347069101,True,,5f53b73f18bf9a6ed513ca61,,529084,26,,evan-feature22,full_rf_a,,1
2,3771,27,,,,2,2,0.0,0.0,1.0,0.0,,0.0-29.0,,0.0,755.5799999,0.0,0.642237155,0.0,0.648566321,0.0,0.389407674,0.0,0.285525717,True,,5f53b73f18bf9a6ed513ca61,,539609,27,,evan-feature22,full_rf_a,,0
3,3772,28,,,,2,2,0.0,0.0,1.0,0.0,,0.0-30.0,,0.0,929.605,0.0,0.661086576,0.0,0.630492543,0.0,0.399058924,0.0,0.25,True,,5f53b73f18bf9a6ed513ca61,,550299,28,,evan-feature22,full_rf_a,,0
4,3773,29,,,,2,2,0.0,0.0,0.0,-1.0,,0.0-31.0,,0.0,1522.12,0.0,0.631324137,1.0,0.6269842929999999,0.0,0.38734784299999997,0.0,0.25,True,,5f53b73f18bf9a6ed513ca61,,561586,29,,evan-feature22,full_rf_a,,0
5,3774,30,,,,2,2,1.0,0.0,0.0,-1.0,,0.0-32.0,,0.0,1026.635,1.0,0.6381991370000001,0.0,0.68987999,1.0,0.384107265,0.0,0.271332943,True,,5f53b73f18bf9a6ed513ca61,,572378,30,,evan-feature22,full_rf_a,,0
6,3775,31,,,,2,2,0.0,0.0,1.0,0.0,,0.0-33.0,,0.0,818.4549999,1.0,0.66034901,0.0,0.742641349,0.0,0.360225629,0.0,0.25,True,,5f53b73f18bf9a6ed513ca61,,582964,31,,evan-feature22,full_rf_a,,0
7,3776,32,,,,2,2,0.0,1.0,1.0,0.0,,0.0-34.0,,0.0,942.7199999,0.0,0.638612418,0.0,0.75,0.0,0.367273939,1.0,0.25,True,,5f53b73f18bf9a6ed513ca61,,593671,32,,evan-feature22,full_rf_a,,0
8,3777,33,,,,2,2,0.0,0.0,0.0,-1.0,,0.0-35.0,,0.0,765.2450001,0.0,0.624340629,0.0,0.75,0.0,0.425829545,0.0,0.25,True,,5f53b73f18bf9a6ed513ca61,,604203,33,,evan-feature22,full_rf_a,,0
9,3778,34,,,,2,2,1.0,0.0,0.0,-1.0,,0.0-36.0,,0.0,944.47,1.0,0.621999804,1.0,0.75,1.0,0.368609357,0.0,0.25,True,,5f53b73f18bf9a6ed513ca61,,614915,34,,evan-feature22,full_rf_a,,0
10,3779,35,,,,2,2,1.0,0.0,1.0,0.0,,0.0-37.0,,1.0,1426.955,1.0,0.62666403,1.0,0.75,1.0,0.311151498,0.0,0.25,True,,5f53b73f18bf9a6ed513ca61,,626105,35,,evan-feature22,full_rf_a,,0
11,3780,36,,,,2,2,0.0,0.0,0.0,-1.0,,0.0-38.0,,0.0,756.1649999,1.0,0.6819650009999999,1.0,0.75,0.0,0.310763048,0.0,0.25,True,,5f53b73f18bf9a6ed513ca61,,636633,36,,evan-feature22,full_rf_a,,0
12,3781,37,,,,2,2,1.0,0.0,1.0,0.0,,0.0-39.0,,1.0,915.9850001,1.0,0.740626951,1.0,0.75,1.0,0.25,0.0,0.25,True,,5f53b73f18bf9a6ed513ca61,,647315,37,,evan-feature22,full_rf_a,,0
13,3782,38,,,,2,2,0.0,1.0,1.0,0.0,,0.0-40.0,,0.0,648.88,1.0,0.739599242,1.0,0.742034978,0.0,0.25397114600000004,1.0,0.25,True,,5f53b73f18bf9a6ed513ca61,,657731,38,,evan-feature22,full_rf_a,,0
14,3783,39,,,,2,2,1.0,0.0,1.0,0.0,,0.0-41.0,,1.0,999.9850001,0.0,0.732341315,1.0,0.72735643,1.0,0.25,0.0,0.25,True,,5f53b73f18bf9a6ed513ca61,,668498,39,,evan-feature22,full_rf_a,,0
15,3784,40,,,,2,2,1.0,0.0,1.0,0.0,,0.0-42.0,,1.0,739.205,1.0,0.7062287770000001,0.0,0.75,1.0,0.29002151,0.0,0.288256649,True,,5f53b73f18bf9a6ed513ca61,,679004,40,,evan-feature22,full_rf_a,,0
16,3785,41,,,,2,2,0.0,1.0,1.0,0.0,,0.0-43.0,,0.0,800.725,0.0,0.7086029209999999,1.0,0.75,0.0,0.274129113,1.0,0.262851608,True,,5f53b73f18bf9a6ed513ca61,,689572,41,,evan-feature22,full_rf_a,,0
17,3786,42,,,,2,2,0.0,0.0,1.0,0.0,,0.0-44.0,,0.0,616.5800001,1.0,0.669189651,1.0,0.727614338,0.0,0.298444036,0.0,0.296944518,True,,5f53b73f18bf9a6ed513ca61,,699955,42,,evan-feature22,full_rf_a,,0
18,3787,43,,,,2,2,0.0,0.0,1.0,0.0,,0.0-45.0,,0.0,1815.3,0.0,0.6819912929999999,0.0,0.7179434290000001,0.0,0.265003961,0.0,0.28157921199999997,True,,5f53b73f18bf9a6ed513ca61,,711537,43,,evan-feature22,full_rf_a,,0
19,3788,44,,,,2,2,0.0,1.0,0.0,-1.0,,0.0-46.0,,-1.0,625.25,0.0,0.665275002,1.0,0.723065271,0.0,0.260414971,1.0,0.30973870000000003,True,,5f53b73f18bf9a6ed513ca61,,721926,44,,evan-feature22,full_rf_a,,0
20,3789,45,,,,2,2,0.0,0.0,1.0,0.0,,0.0-47.0,,0.0,2491.085,1.0,0.6660593260000001,1.0,0.728032907,0.0,0.30922817,0.0,0.338778608,True,,5f53b73f18bf9a6ed513ca61,,734193,45,,evan-feature22,full_rf_a,,0
21,3790,46,,,,2,2,1.0,0.0,1.0,0.0,,0.0-48.0,,1.0,1283.005,1.0,0.702068785,1.0,0.6528750879999999,1.0,0.287329608,0.0,0.35789613200000003,True,,5f53b73f18bf9a6ed513ca61,,745242,46,,evan-feature22,full_rf_a,,0
22,3791,47,,,,2,2,0.0,0.0,1.0,0.0,,0.0-49.0,,0.0,850.7350001,1.0,0.651939787,1.0,0.636725589,0.0,0.284834488,0.0,0.358563756,True,,5f53b73f18bf9a6ed513ca61,,755861,47,,evan-feature22,full_rf_a,,0
23,3792,48,,,,2,2,0.0,1.0,0.0,-1.0,,0.0-50.0,,-1.0,855.58,0.0,0.67573929,1.0,0.612550049,0.0,0.37130387600000003,1.0,0.383542402,True,,5f53b73f18bf9a6ed513ca61,,766481,48,,evan-feature22,full_rf_a,,0
24,3793,49,,,,2,2,0.0,0.0,0.0,-1.0,,0.0-51.0,,0.0,913.87,0.0,0.620753801,1.0,0.60513644,0.0,0.385529434,0.0,0.340361743,True,,5f53b73f18bf9a6ed513ca61,,777163,49,,evan-feature22,full_rf_a,,0
25,3794,50,,,,2,2,0.0,0.0,0.0,-1.0,,0.0-52.0,,0.0,889.68,1.0,0.673564893,0.0,0.672437924,0.0,0.292955382,0.0,0.337633795,True,,5f53b73f18bf9a6ed513ca61,,787814,50,,evan-feature22,full_rf_a,,0
26,3795,51,,,,1,1,1.0,0.0,1.0,0.0,,0.0-53.0,,1.0,1311.455,1.0,0.6749427,0.0,0.724197502,0.0,0.32391132100000003,1.0,0.350995264,True,,5f53b73f18bf9a6ed513ca61,,798891,51,,evan-feature22,full_rf_a,,1
27,3796,52,,,,1,1,1.0,1.0,1.0,0.0,,0.0-54.0,,1.0,793.8499998,1.0,0.6940159379999999,1.0,0.75,0.0,0.31710554399999996,0.0,0.413450341,True,,5f53b73f18bf9a6ed513ca61,,809450,52,,evan-feature22,full_rf_a,,0
28,3797,53,,,,1,1,1.0,1.0,1.0,0.0,,0.0-55.0,,1.0,908.7199999,1.0,0.6916018270000001,1.0,0.69001187,0.0,0.261817804,1.0,0.40038635,True,,5f53b73f18bf9a6ed513ca61,,820129,53,,evan-feature22,full_rf_a,,0
29,3798,54,,,,1,1,1.0,1.0,1.0,0.0,,0.0-56.0,,1.0,755.385,1.0,0.641061544,1.0,0.71337992,0.0,0.277296461,1.0,0.47372791700000005,True,,5f53b73f18bf9a6ed513ca61,,830649,54,,evan-feature22,full_rf_a,,0
30,3799,55,,,,1,1,0.0,0.0,1.0,0.0,,0.0-57.0,,0.0,787.8149999,0.0,0.6082438520000001,0.0,0.708471106,0.0,0.28745137,1.0,0.564174476,True,,5f53b73f18bf9a6ed513ca61,,841197,55,,evan-feature22,full_rf_a,,0
31,3800,56,,,,1,1,1.0,1.0,1.0,0.0,,0.0-58.0,,1.0,606.6100001,1.0,0.6051112120000001,1.0,0.7118147229999999,0.0,0.272390611,1.0,0.5595149939999999,True,,5f53b73f18bf9a6ed513ca61,,851576,56,,evan-feature22,full_rf_a,,0
32,3801,57,,,,1,1,0.0,0.0,1.0,0.0,,0.0-59.0,,0.0,572.8300002000001,0.0,0.582420852,0.0,0.635867583,0.0,0.31089574,1.0,0.5227206520000001,True,,5f53b73f18bf9a6ed513ca61,,861915,57,,evan-feature22,full_rf_a,,0
33,3802,58,,,,1,1,1.0,0.0,0.0,-1.0,,0.0-60.0,,0.0,1497.835,1.0,0.623195575,0.0,0.655026044,0.0,0.25,0.0,0.560387538,True,,5f53b73f18bf9a6ed513ca61,,873176,58,,evan-feature22,full_rf_a,,0
34,3803,59,,,,2,2,0.0,1.0,1.0,0.0,,0.0-61.0,,0.0,970.7250001,1.0,0.601889598,1.0,0.678198724,0.0,0.25,1.0,0.559922936,True,,5f53b73f18bf9a6ed513ca61,,883915,59,,evan-feature22,full_rf_a,,1
35,3804,60,,,,1,1,0.0,1.0,1.0,0.0,,0.0-62.0,,0.0,1001.23,0.0,0.601259914,1.0,0.704681482,1.0,0.33908969299999997,1.0,0.505003715,True,,5f53b73f18bf9a6ed513ca61,,894683,60,,evan-feature22,full_rf_a,,1
36,3805,61,,,,1,1,1.0,1.0,1.0,0.0,,0.0-63.0,,1.0,1113.895,1.0,0.59645454,1.0,0.710437172,1.0,0.327441879,1.0,0.391749613,True,,5f53b73f18bf9a6ed513ca61,,905567,61,,evan-feature22,full_rf_a,,0
37,3806,62,,,,1,1,0.0,1.0,1.0,0.0,,0.0-64.0,,0.0,2315.93,0.0,0.529473,1.0,0.636758527,0.0,0.301338063,1.0,0.365661481,True,,5f53b73f18bf9a6ed513ca61,,917656,62,,evan-feature22,full_rf_a,,0
38,3807,63,,,,2,2,0.0,0.0,0.0,-1.0,,0.0-65.0,,0.0,1024.705,0.0,0.541657162,1.0,0.634541962,0.0,0.343535366,0.0,0.371763742,True,,5f53b73f18bf9a6ed513ca61,,928449,63,,evan-feature22,full_rf_a,,1
39,3808,64,,,,1,1,0.0,1.0,1.0,0.0,,0.0-66.0,,0.0,1066.785,0.0,0.5707533260000001,1.0,0.589121171,0.0,0.326428396,1.0,0.43961622899999997,True,,5f53b73f18bf9a6ed513ca61,,939284,64,,evan-feature22,full_rf_a,,1
40,3809,65,,,,1,1,1.0,0.0,1.0,0.0,,0.0-67.0,,1.0,1343.785,1.0,0.5707533260000001,0.0,0.589121171,0.0,0.326428396,1.0,0.43961622899999997,True,,5f53b73f18bf9a6ed513ca61,,950389,65,,evan-feature22,full_rf_a,,0
41,3810,66,,,,1,1,1.0,1.0,1.0,0.0,,0.0-68.0,,1.0,1151.79,1.0,0.506271295,1.0,0.641775594,0.0,0.37149690700000004,0.0,0.404330166,True,,5f53b73f18bf9a6ed513ca61,,961320,66,,evan-feature22,full_rf_a,,0
42,3811,67,,,,2,2,1.0,0.0,0.0,-1.0,,0.0-69.0,,0.0,907.81,0.0,0.455642565,0.0,0.623605825,1.0,0.358753011,0.0,0.346174041,True,,5f53b73f18bf9a6ed513ca61,,971991,67,,evan-feature22,full_rf_a,,1
43,3812,68,,,,1,1,1.0,1.0,0.0,-1.0,,0.0-70.0,,-1.0,1105.52,1.0,0.483677308,1.0,0.5904681070000001,1.0,0.402218411,1.0,0.35344697,True,,5f53b73f18bf9a6ed513ca61,,982869,68,,evan-feature22,full_rf_a,,1
44,3813,69,,,,2,2,1.0,1.0,0.0,-1.0,,0.0-71.0,,-1.0,640.01,0.0,0.394210977,1.0,0.558925494,1.0,0.540052017,1.0,0.35182128700000004,True,,5f53b73f18bf9a6ed513ca61,,993283,69,,evan-feature22,full_rf_a,,1
45,3814,70,,,,1,1,1.0,1.0,1.0,0.0,,0.0-72.0,,1.0,1785.275,1.0,0.382300414,1.0,0.577670603,0.0,0.607608448,0.0,0.378261578,True,,5f53b73f18bf9a6ed513ca61,,1004834,70,,evan-feature22,full_rf_a,,1
46,3815,71,,,,1,1,1.0,0.0,1.0,0.0,,0.0-73.0,,1.0,1098.425,1.0,0.357596762,0.0,0.5929076529999999,1.0,0.6579790010000001,1.0,0.401326777,True,,5f53b73f18bf9a6ed513ca61,,1015698,71,,evan-feature22,full_rf_a,,0
47,3816,72,,,,1,1,0.0,0.0,1.0,0.0,,0.0-74.0,,0.0,1626.47,0.0,0.362033495,0.0,0.582308608,1.0,0.649195052,0.0,0.355158505,True,,5f53b73f18bf9a6ed513ca61,,1027090,72,,evan-feature22,full_rf_a,,0
48,3817,73,,,,1,1,0.0,0.0,1.0,0.0,,0.0-75.0,,0.0,841.9649999,0.0,0.369620635,0.0,0.669100864,1.0,0.706059111,0.0,0.362516241,True,,5f53b73f18bf9a6ed513ca61,,1037693,73,,evan-feature22,full_rf_a,,0
49,3818,74,,,,1,1,1.0,1.0,1.0,0.0,,0.0-76.0,,1.0,852.1149998999999,1.0,0.41477751399999996,1.0,0.7284416779999999,1.0,0.7182656940000001,1.0,0.36228040899999997,True,,5f53b73f18bf9a6ed513ca61,,1048315,74,,evan-feature22,full_rf_a,,0
50,3819,75,,,,2,2,0.0,1.0,0.0,-1.0,,0.0-77.0,,-1.0,1661.78,1.0,0.37675460299999997,1.0,0.703250285,0.0,0.75,1.0,0.461979164,True,,5f53b73f18bf9a6ed513ca61,,1059749,75,,evan-feature22,full_rf_a,,1
51,3820,76,,,,1,1,0.0,1.0,0.0,-1.0,,0.0-78.0,,-1.0,1453.165,0.0,0.398716075,1.0,0.6723864890000001,0.0,0.674153818,1.0,0.519029516,True,,5f53b73f18bf9a6ed513ca61,,1070990,76,,evan-feature22,full_rf_a,,1
52,3821,77,,,,1,1,0.0,0.0,1.0,0.0,,0.0-79.0,,0.0,1725.25,0.0,0.34677856700000004,0.0,0.69057175,0.0,0.6822438540000001,0.0,0.477292237,True,,5f53b73f18bf9a6ed513ca61,,1082490,77,,evan-feature22,full_rf_a,,0
53,3822,78,,,,2,2,1.0,0.0,0.0,-1.0,,0.0-80.0,,0.0,1706.18,1.0,0.28580469199999997,1.0,0.68408818,1.0,0.684207565,0.0,0.49780448299999996,True,,5f53b73f18bf9a6ed513ca61,,1093978,78,,evan-feature22,full_rf_a,,1
54,3824,80,,,,1,1,0.0,1.0,1.0,0.0,,0.0-82.0,,0.0,1662.555,0.0,0.25,1.0,0.7405808970000001,1.0,0.679614108,0.0,0.436436964,True,,5f53b73f18bf9a6ed513ca61,,1108088,80,,evan-feature22,full_rf_a,,1
55,3825,81,,,,2,2,1.0,0.0,0.0,-1.0,,0.0-83.0,,0.0,1243.63,0.0,0.29890393,1.0,0.730505706,1.0,0.7328203320000001,0.0,0.439256938,True,,5f53b73f18bf9a6ed513ca61,,1119096,81,,evan-feature22,full_rf_a,,1
56,3826,82,,,,1,1,0.0,1.0,1.0,0.0,,0.0-84.0,,0.0,1968.895,0.0,0.326762398,1.0,0.7148059609999999,1.0,0.75,1.0,0.44389608799999997,True,,5f53b73f18bf9a6ed513ca61,,1130837,82,,evan-feature22,full_rf_a,,1
57,3827,83,,,,2,2,0.0,1.0,1.0,0.0,,0.0-85.0,,0.0,1333.635,0.0,0.295168515,1.0,0.739760854,0.0,0.719947008,1.0,0.35277284600000003,True,,5f53b73f18bf9a6ed513ca61,,1141939,83,,evan-feature22,full_rf_a,,1
58,3828,84,,,,1,1,1.0,1.0,1.0,0.0,,0.0-86.0,,1.0,1179.57,1.0,0.25,1.0,0.70781482,1.0,0.75,0.0,0.286095925,True,,5f53b73f18bf9a6ed513ca61,,1152880,84,,evan-feature22,full_rf_a,,1
59,3829,85,,,,2,2,1.0,0.0,0.0,-1.0,,0.0-87.0,,0.0,1443.525,1.0,0.25638190899999996,1.0,0.704088163,1.0,0.75,0.0,0.26872601399999996,True,,5f53b73f18bf9a6ed513ca61,,1164090,85,,evan-feature22,full_rf_a,,1
60,3830,86,,,,2,2,0.0,0.0,0.0,-1.0,,0.0-88.0,,0.0,1648.31,0.0,0.271581126,1.0,0.669760107,0.0,0.733896663,0.0,0.273244572,True,,5f53b73f18bf9a6ed513ca61,,1175501,86,,evan-feature22,full_rf_a,,0
61,3831,87,,,,1,1,0.0,0.0,0.0,-1.0,,0.0-89.0,,0.0,1243.54,0.0,0.257144401,0.0,0.600575706,1.0,0.74488122,0.0,0.25,True,,5f53b73f18bf9a6ed513ca61,,1186516,87,,evan-feature22,full_rf_a,,1
62,3832,88,,,,2,2,1.0,0.0,1.0,0.0,,0.0-90.0,,1.0,843.1599999,1.0,0.25,1.0,0.616870026,1.0,0.723610234,0.0,0.25,True,,5f53b73f18bf9a6ed513ca61,,1197130,88,,evan-feature22,full_rf_a,,1
63,3833,89,,,,1,1,0.0,1.0,0.0,-1.0,,0.0-91.0,,-1.0,569.9199999,0.0,0.25,1.0,0.583540187,0.0,0.7041042559999999,1.0,0.285961995,True,,5f53b73f18bf9a6ed513ca61,,1207464,89,,evan-feature22,full_rf_a,,1
64,3834,90,,,,2,2,0.0,0.0,1.0,0.0,,0.0-92.0,,0.0,1195.56,0.0,0.27254536,0.0,0.53875765,0.0,0.693783448,0.0,0.284961652,True,,5f53b73f18bf9a6ed513ca61,,1218434,90,,evan-feature22,full_rf_a,,1
65,3835,91,,,,1,1,1.0,1.0,0.0,-1.0,,0.0-93.0,,-1.0,1556.79,1.0,0.25,1.0,0.548431252,1.0,0.734221895,1.0,0.279445214,True,,5f53b73f18bf9a6ed513ca61,,1229760,91,,evan-feature22,full_rf_a,,1
66,3836,92,,,,2,2,1.0,1.0,1.0,0.0,,0.0-94.0,,1.0,1196.975,0.0,0.258640684,0.0,0.545878066,1.0,0.725245965,1.0,0.31487537,True,,5f53b73f18bf9a6ed513ca61,,1240719,92,,evan-feature22,full_rf_a,,1
67,3837,93,,,,2,2,0.0,1.0,1.0,0.0,,0.0-95.0,,0.0,1049.03,0.0,0.251103711,0.0,0.5776290629999999,0.0,0.696320133,1.0,0.317831047,True,,5f53b73f18bf9a6ed513ca61,,1251537,93,,evan-feature22,full_rf_a,,0
68,3838,94,,,,1,1,0.0,1.0,1.0,0.0,,0.0-96.0,,0.0,2172.625,0.0,0.276630292,1.0,0.617329858,1.0,0.73838088,0.0,0.261471582,True,,5f53b73f18bf9a6ed513ca61,,1263487,94,,evan-feature22,full_rf_a,,1
69,3839,95,,,,2,2,1.0,1.0,0.0,-1.0,,0.0-97.0,,-1.0,1448.455,0.0,0.297716424,1.0,0.618863717,1.0,0.7402358259999999,1.0,0.262600834,True,,5f53b73f18bf9a6ed513ca61,,1274702,95,,evan-feature22,full_rf_a,,1
70,3840,96,,,,1,1,0.0,0.0,1.0,0.0,,0.0-98.0,,0.0,1108.68,0.0,0.290935512,0.0,0.695370945,1.0,0.706570507,1.0,0.280030553,True,,5f53b73f18bf9a6ed513ca61,,1285585,96,,evan-feature22,full_rf_a,,1
71,3841,97,,,,1,1,0.0,1.0,1.0,0.0,,0.0-99.0,,0.0,1265.185,0.0,0.25,1.0,0.6465277079999999,1.0,0.67766682,0.0,0.25,True,,5f53b73f18bf9a6ed513ca61,,1296615,97,,evan-feature22,full_rf_a,,0
72,3842,98,,,,2,2,1.0,0.0,1.0,0.0,,0.0-100.0,,1.0,715.445,0.0,0.26463816,0.0,0.636100213,1.0,0.646048507,0.0,0.265607101,True,,5f53b73f18bf9a6ed513ca61,,1307099,98,,evan-feature22,full_rf_a,,1
73,3843,99,,,,2,2,0.0,0.0,1.0,0.0,,0.0-101.0,,0.0,1063.6,1.0,0.314340707,0.0,0.667795927,0.0,0.613630805,0.0,0.25,True,,5f53b73f18bf9a6ed513ca61,,1317929,99,,evan-feature22,full_rf_a,,0
74,3844,100,,,,2,2,1.0,1.0,1.0,0.0,,0.0-102.0,,1.0,1027.68,1.0,0.28685784,0.0,0.6622549529999999,1.0,0.652154117,1.0,0.25,True,,5f53b73f18bf9a6ed513ca61,,1328730,100,,evan-feature22,full_rf_a,,0
75,3845,101,,,,2,2,1.0,0.0,0.0,-1.0,,0.0-103.0,,0.0,1097.54,0.0,0.304106554,0.0,0.631289538,1.0,0.707041942,0.0,0.29314237,True,,5f53b73f18bf9a6ed513ca61,,1339590,101,,evan-feature22,full_rf_a,,0
76,3846,102,,,,2,2,1.0,0.0,0.0,-1.0,,0.0-104.0,,0.0,1036.865,0.0,0.304806932,1.0,0.571167718,1.0,0.680472346,0.0,0.25,True,,5f53b73f18bf9a6ed513ca61,,1350396,102,,evan-feature22,full_rf_a,,0
77,3847,103,,,,2,2,1.0,1.0,0.0,-1.0,,0.0-105.0,,-1.0,844.7200002000001,0.0,0.37919861,0.0,0.5724849710000001,1.0,0.705638003,1.0,0.30179300600000003,True,,5f53b73f18bf9a6ed513ca61,,1361015,103,,evan-feature22,full_rf_a,,0
78,3848,104,,,,2,2,1.0,0.0,0.0,-1.0,,0.0-106.0,,0.0,601.1399999,0.0,0.464277969,0.0,0.554034373,1.0,0.7372627340000001,0.0,0.264699741,True,,5f53b73f18bf9a6ed513ca61,,1371386,104,,evan-feature22,full_rf_a,,0
79,3849,105,,,,2,2,0.0,1.0,1.0,0.0,,0.0-107.0,,0.0,1176.615,1.0,0.465104323,1.0,0.530793115,0.0,0.75,1.0,0.31683071,True,,5f53b73f18bf9a6ed513ca61,,1382324,105,,evan-feature22,full_rf_a,,0
80,3850,106,,,,2,2,1.0,0.0,0.0,-1.0,,0.0-108.0,,0.0,1326.825,0.0,0.465104323,1.0,0.530793115,1.0,0.75,0.0,0.31683071,True,,5f53b73f18bf9a6ed513ca61,,1393417,106,,evan-feature22,full_rf_a,,0
81,3851,107,,,,2,2,1.0,0.0,0.0,-1.0,,0.0-109.0,,0.0,681.08,1.0,0.46833986,1.0,0.570249239,1.0,0.7244472590000001,0.0,0.364114163,True,,5f53b73f18bf9a6ed513ca61,,1403861,107,,evan-feature22,full_rf_a,,0
82,3852,108,,,,2,2,1.0,1.0,0.0,-1.0,,0.0-110.0,,-1.0,1467.255,0.0,0.445444024,1.0,0.649673355,1.0,0.6845441290000001,1.0,0.300660449,True,,5f53b73f18bf9a6ed513ca61,,1415093,108,,evan-feature22,full_rf_a,,0
83,3853,109,,,,1,1,1.0,0.0,0.0,-1.0,,0.0-111.0,,0.0,1174.53,1.0,0.39909721299999995,0.0,0.6715179509999999,1.0,0.742310028,0.0,0.35496088299999995,True,,5f53b73f18bf9a6ed513ca61,,1426035,109,,evan-feature22,full_rf_a,,1
84,3854,110,,,,2,2,1.0,0.0,0.0,-1.0,,0.0-112.0,,0.0,1166.915,0.0,0.37956104799999996,1.0,0.694725302,1.0,0.7181651309999999,0.0,0.38726906299999997,True,,5f53b73f18bf9a6ed513ca61,,1436969,110,,evan-feature22,full_rf_a,,1
85,3855,111,,,,2,2,1.0,0.0,0.0,-1.0,,0.0-113.0,,0.0,1681.625,1.0,0.404995034,1.0,0.724375412,1.0,0.6910946859999999,0.0,0.387187347,True,,5f53b73f18bf9a6ed513ca61,,1448416,111,,evan-feature22,full_rf_a,,0
86,3856,112,,,,1,1,1.0,1.0,0.0,-1.0,,0.0-114.0,,-1.0,1209.68,1.0,0.461740803,1.0,0.75,1.0,0.75,1.0,0.34872038200000005,True,,5f53b73f18bf9a6ed513ca61,,1459395,112,,evan-feature22,full_rf_a,,1
87,3857,113,,,,2,2,1.0,0.0,1.0,0.0,,0.0-115.0,,1.0,1067.81,0.0,0.43821380600000004,1.0,0.738833273,1.0,0.728286963,0.0,0.399538128,True,,5f53b73f18bf9a6ed513ca61,,1470230,113,,evan-feature22,full_rf_a,,1
88,3858,114,,,,1,1,0.0,0.0,0.0,-1.0,,0.0-116.0,,0.0,1264.73,0.0,0.41709882,0.0,0.736666736,1.0,0.75,0.0,0.389095584,True,,5f53b73f18bf9a6ed513ca61,,1481264,114,,evan-feature22,full_rf_a,,1
89,3859,115,,,,1,1,0.0,1.0,0.0,-1.0,,0.0-117.0,,-1.0,1294.07,0.0,0.39749009799999996,1.0,0.744320029,1.0,0.75,0.0,0.363848678,True,,5f53b73f18bf9a6ed513ca61,,1492327,115,,evan-feature22,full_rf_a,,0
90,3860,116,,,,1,1,0.0,1.0,1.0,0.0,,0.0-118.0,,0.0,763.4350001,0.0,0.392653706,1.0,0.75,1.0,0.75,1.0,0.384386976,True,,5f53b73f18bf9a6ed513ca61,,1502855,116,,evan-feature22,full_rf_a,,0
91,3861,117,,,,2,2,1.0,1.0,1.0,0.0,,0.0-119.0,,1.0,1849.43,0.0,0.31190902600000003,1.0,0.75,1.0,0.732413819,1.0,0.413082932,True,,5f53b73f18bf9a6ed513ca61,,1514472,117,,evan-feature22,full_rf_a,,1
92,3862,118,,,,1,1,1.0,1.0,0.0,-1.0,,0.0-120.0,,-1.0,1682.92,1.0,0.366917648,1.0,0.740073855,1.0,0.75,0.0,0.352861979,True,,5f53b73f18bf9a6ed513ca61,,1525922,118,,evan-feature22,full_rf_a,,1
93,3863,119,,,,2,2,0.0,1.0,0.0,-1.0,,0.0-121.0,,-1.0,688.3,0.0,0.3645172,0.0,0.721770713,0.0,0.75,1.0,0.404074511,True,,5f53b73f18bf9a6ed513ca61,,1536377,119,,evan-feature22,full_rf_a,,1
94,3864,120,,,,2,2,1.0,1.0,0.0,-1.0,,0.0-122.0,,-1.0,824.975,0.0,0.35205600299999995,1.0,0.68983859,1.0,0.739735447,1.0,0.366895945,True,,5f53b73f18bf9a6ed513ca61,,1546964,120,,evan-feature22,full_rf_a,,0
95,3865,121,,,,2,2,1.0,0.0,0.0,-1.0,,0.0-123.0,,0.0,781.6100002000001,0.0,0.40998722600000004,0.0,0.720859127,1.0,0.673854955,0.0,0.368528541,True,,5f53b73f18bf9a6ed513ca61,,1557514,121,,evan-feature22,full_rf_a,,0
96,3866,122,,,,SLOW,SLOW,,,1.0,0.0,,0.0-124.0,,-3.0,,1.0,0.353625316,1.0,0.75,1.0,0.695605473,0.0,0.38303674200000004,True,,5f53b73f18bf9a6ed513ca61,,1563325,122,,evan-feature22,full_rf_a,,1
97,3867,123,,,,2,2,1.0,0.0,0.0,-1.0,,0.0-125.0,,0.0,684.7550001,1.0,0.359216989,1.0,0.75,1.0,0.6987915090000001,0.0,0.35169046200000004,True,,5f53b73f18bf9a6ed513ca61,,1573795,123,,evan-feature22,full_rf_a,,1
98,3868,124,,,,2,2,1.0,1.0,1.0,0.0,,0.0-126.0,,1.0,1087.355,0.0,0.35834496899999996,0.0,0.75,1.0,0.707067742,1.0,0.416763636,True,,5f53b73f18bf9a6ed513ca61,,1584648,124,,evan-feature22,full_rf_a,,0
99,3869,125,,,,2,2,1.0,0.0,1.0,0.0,,0.0-127.0,,1.0,1066.82,0.0,0.38741613799999997,0.0,0.7177369570000001,1.0,0.734902455,0.0,0.49438664299999996,True,,5f53b73f18bf9a6ed513ca61,,1595483,125,,evan-feature22,full_rf_a,,0
100,3870,126,,,,2,2,0.0,1.0,0.0,-1.0,,0.0-128.0,,-1.0,952.88,0.0,0.405255252,1.0,0.7300466640000001,0.0,0.7027748070000001,1.0,0.504359668,True,,5f53b73f18bf9a6ed513ca61,,1606201,126,,evan-feature22,full_rf_a,,0
101,3871,127,,,,2,2,1.0,1.0,0.0,-1.0,,0.0-129.0,,-1.0,1084.185,0.0,0.40697073,1.0,0.7260142190000001,1.0,0.724461982,1.0,0.522779179,True,,5f53b73f18bf9a6ed513ca61,,1617054,127,,evan-feature22,full_rf_a,,0
102,3872,128,,,,1,1,0.0,1.0,0.0,-1.0,,0.0-130.0,,-1.0,671.6,0.0,0.43906215299999996,1.0,0.7252802340000001,0.0,0.719079934,1.0,0.5712990579999999,True,,5f53b73f18bf9a6ed513ca61,,1627497,128,,evan-feature22,full_rf_a,,1
103,3873,129,,,,1,1,1.0,1.0,0.0,-1.0,,0.0-131.0,,-1.0,1337.685,1.0,0.4076705,1.0,0.73280499,1.0,0.681313127,1.0,0.523891346,True,,5f53b73f18bf9a6ed513ca61,,1638601,129,,evan-feature22,full_rf_a,,0
104,3874,130,,,,2,2,0.0,1.0,0.0,-1.0,,0.0-132.0,,-1.0,2352.325,1.0,0.399102911,0.0,0.730498344,0.0,0.661080239,1.0,0.46742603,True,,5f53b73f18bf9a6ed513ca61,,1650715,130,,evan-feature22,full_rf_a,,1
105,3875,131,,,,2,2,1.0,1.0,1.0,0.0,,0.0-133.0,,1.0,686.855,0.0,0.356477282,1.0,0.712296395,1.0,0.641812684,1.0,0.44868414,True,,5f53b73f18bf9a6ed513ca61,,1661169,131,,evan-feature22,full_rf_a,,0
106,3876,132,,,,2,2,1.0,0.0,0.0,-1.0,,0.0-134.0,,0.0,828.0150001000001,0.0,0.462760722,1.0,0.692349322,1.0,0.700947931,0.0,0.394680266,True,,5f53b73f18bf9a6ed513ca61,,1671769,132,,evan-feature22,full_rf_a,,0
107,3877,133,,,,2,2,1.0,0.0,0.0,-1.0,,0.0-135.0,,0.0,631.5200001000001,1.0,0.422306413,1.0,0.718375916,1.0,0.706340917,0.0,0.367787185,True,,5f53b73f18bf9a6ed513ca61,,1682179,133,,evan-feature22,full_rf_a,,0
108,3879,135,,,,2,2,1.0,0.0,0.0,-1.0,,0.0-137.0,,0.0,2863.75,1.0,0.4582233,1.0,0.643834117,1.0,0.75,0.0,0.39615823299999997,True,,5f53b73f18bf9a6ed513ca61,,1697413,135,,evan-feature22,full_rf_a,,0
109,3880,136,,,,2,2,1.0,0.0,0.0,-1.0,,0.0-138.0,,0.0,749.1949999,0.0,0.43813437899999996,1.0,0.651283804,1.0,0.729674191,0.0,0.37711048,True,,5f53b73f18bf9a6ed513ca61,,1707930,136,,evan-feature22,full_rf_a,,0
110,3881,137,,,,2,2,0.0,1.0,0.0,-1.0,,0.0-139.0,,-1.0,887.7000001,0.0,0.471199094,0.0,0.6470010979999999,0.0,0.715008097,1.0,0.410656191,True,,5f53b73f18bf9a6ed513ca61,,1718587,137,,evan-feature22,full_rf_a,,0
111,3882,138,,,,2,2,0.0,0.0,1.0,0.0,,0.0-140.0,,0.0,2086.51,0.0,0.42486406,1.0,0.629771829,0.0,0.6550939960000001,0.0,0.459093873,True,,5f53b73f18bf9a6ed513ca61,,1730448,138,,evan-feature22,full_rf_a,,0
112,3883,139,,,,2,2,1.0,0.0,1.0,0.0,,0.0-141.0,,1.0,1330.64,0.0,0.4803197,1.0,0.645842715,1.0,0.6421749920000001,0.0,0.443092151,True,,5f53b73f18bf9a6ed513ca61,,1741541,139,,evan-feature22,full_rf_a,,0
113,3884,140,,,,2,2,1.0,0.0,1.0,0.0,,0.0-142.0,,1.0,622.2550001,1.0,0.521848997,1.0,0.735801074,1.0,0.6691348460000001,0.0,0.45259351600000003,True,,5f53b73f18bf9a6ed513ca61,,1751934,140,,evan-feature22,full_rf_a,,0
114,3885,141,,,,2,2,0.0,0.0,0.0,-1.0,,0.0-143.0,,0.0,1759.71,0.0,0.49565621299999996,1.0,0.742400847,0.0,0.661512553,0.0,0.483110831,True,,5f53b73f18bf9a6ed513ca61,,1763466,141,,evan-feature22,full_rf_a,,0
115,3886,142,,,,2,2,1.0,0.0,1.0,0.0,,0.0-144.0,,1.0,742.4650001,1.0,0.521564361,1.0,0.731078632,1.0,0.6774886809999999,0.0,0.483263956,True,,5f53b73f18bf9a6ed513ca61,,1774007,142,,evan-feature22,full_rf_a,,0
116,3887,143,,,,2,2,0.0,1.0,1.0,0.0,,0.0-145.0,,0.0,633.9800002000001,1.0,0.558893102,0.0,0.719810023,0.0,0.67461031,1.0,0.499349834,True,,5f53b73f18bf9a6ed513ca61,,1784406,143,,evan-feature22,full_rf_a,,0
117,3888,144,,,,2,2,1.0,0.0,0.0,-1.0,,0.0-146.0,,0.0,1035.86,1.0,0.611031046,1.0,0.75,1.0,0.688072995,0.0,0.5321422729999999,True,,5f53b73f18bf9a6ed513ca61,,1795217,144,,evan-feature22,full_rf_a,,0
118,3889,145,,,,2,2,1.0,1.0,1.0,0.0,,0.0-147.0,,1.0,687.0299999,0.0,0.633223941,1.0,0.713567728,1.0,0.75,1.0,0.48185314700000004,True,,5f53b73f18bf9a6ed513ca61,,1805675,145,,evan-feature22,full_rf_a,,0
119,3890,146,,,,2,2,1.0,1.0,1.0,0.0,,0.0-148.0,,1.0,717.7850001,1.0,0.664001694,0.0,0.705509768,1.0,0.75,1.0,0.500211065,True,,5f53b73f18bf9a6ed513ca61,,1816163,146,,evan-feature22,full_rf_a,,0
120,3891,147,,,,2,2,0.0,1.0,0.0,-1.0,,0.0-149.0,,-1.0,1749.165,0.0,0.664001694,0.0,0.705509768,0.0,0.75,1.0,0.500211065,True,,5f53b73f18bf9a6ed513ca61,,1827690,147,,evan-feature22,full_rf_a,,0
121,3892,148,,,,2,2,1.0,1.0,0.0,-1.0,,0.0-150.0,,-1.0,621.9300001,0.0,0.696508041,1.0,0.71066027,1.0,0.717028709,1.0,0.49792991,True,,5f53b73f18bf9a6ed513ca61,,1838085,148,,evan-feature22,full_rf_a,,0
122,3893,149,,,,2,2,1.0,0.0,1.0,0.0,,0.0-151.0,,1.0,748.53,1.0,0.699883272,1.0,0.75,1.0,0.713543895,0.0,0.496962643,True,,5f53b73f18bf9a6ed513ca61,,1848596,149,,evan-feature22,full_rf_a,,0
123,3894,150,,,,2,2,0.0,0.0,0.0,-1.0,,0.0-152.0,,0.0,936.67,0.0,0.741163419,1.0,0.75,0.0,0.64691024,0.0,0.513858197,True,,5f53b73f18bf9a6ed513ca61,,1859307,150,,evan-feature22,full_rf_a,,0
124,3895,151,,,,2,2,0.0,1.0,1.0,0.0,,0.0-153.0,,0.0,934.805,0.0,0.75,1.0,0.70816558,0.0,0.594499079,1.0,0.48502124,True,,5f53b73f18bf9a6ed513ca61,,1870006,151,,evan-feature22,full_rf_a,,0
125,3896,152,,,,2,2,1.0,1.0,0.0,-1.0,,0.0-154.0,,-1.0,954.535,1.0,0.75,1.0,0.721848901,1.0,0.62197249,1.0,0.48263586399999997,True,,5f53b73f18bf9a6ed513ca61,,1880728,152,,evan-feature22,full_rf_a,,0
126,3897,153,,,,2,2,1.0,0.0,1.0,0.0,,0.0-155.0,,1.0,1376.09,1.0,0.75,0.0,0.74813071,1.0,0.584357161,0.0,0.411477782,True,,5f53b73f18bf9a6ed513ca61,,1891871,153,,evan-feature22,full_rf_a,,0
127,3898,154,,,,2,2,0.0,1.0,0.0,-1.0,,0.0-156.0,,-1.0,530.8050001,1.0,0.75,0.0,0.75,0.0,0.52287236,1.0,0.488290656,True,,5f53b73f18bf9a6ed513ca61,,1902172,154,,evan-feature22,full_rf_a,,0
128,3899,155,,,,2,2,1.0,1.0,0.0,-1.0,,0.0-157.0,,-1.0,612.6900001,0.0,0.75,1.0,0.75,1.0,0.544321581,1.0,0.53143059,True,,5f53b73f18bf9a6ed513ca61,,1912549,155,,evan-feature22,full_rf_a,,0
129,3900,156,,,,2,2,1.0,1.0,0.0,-1.0,,0.0-158.0,,-1.0,440.17500010000003,1.0,0.726754564,1.0,0.75,1.0,0.5129306370000001,1.0,0.530592445,True,,5f53b73f18bf9a6ed513ca61,,1922762,156,,evan-feature22,full_rf_a,,0
130,3901,157,,,,2,2,0.0,0.0,1.0,0.0,,0.0-159.0,,0.0,1823.12,1.0,0.75,1.0,0.7392590729999999,0.0,0.479875835,0.0,0.547007051,True,,5f53b73f18bf9a6ed513ca61,,1934346,157,,evan-feature22,full_rf_a,,0
131,3902,158,,,,2,2,1.0,0.0,1.0,0.0,,0.0-160.0,,1.0,467.7250001,1.0,0.75,1.0,0.7393376979999999,1.0,0.546045419,0.0,0.541267353,True,,5f53b73f18bf9a6ed513ca61,,1944583,158,,evan-feature22,full_rf_a,,0
132,3903,159,,,,2,2,0.0,0.0,1.0,0.0,,0.0-161.0,,0.0,615.7799999,1.0,0.75,1.0,0.75,0.0,0.485725895,0.0,0.527625395,True,,5f53b73f18bf9a6ed513ca61,,1954968,159,,evan-feature22,full_rf_a,,0
133,3904,160,,,,2,2,1.0,1.0,0.0,-1.0,,0.0-162.0,,-1.0,754.13,1.0,0.75,1.0,0.725087974,1.0,0.488603595,1.0,0.504019206,True,,5f53b73f18bf9a6ed513ca61,,1965499,160,,evan-feature22,full_rf_a,,0
134,3905,161,,,,2,2,0.0,1.0,0.0,-1.0,,0.0-163.0,,-1.0,982.8650001,1.0,0.745504295,1.0,0.75,0.0,0.452379914,1.0,0.50131194,True,,5f53b73f18bf9a6ed513ca61,,1976246,161,,evan-feature22,full_rf_a,,0
135,3906,162,,,,2,2,0.0,1.0,0.0,-1.0,,0.0-164.0,,-1.0,554.7450001,1.0,0.728513874,0.0,0.75,0.0,0.44125567200000004,1.0,0.531454591,True,,5f53b73f18bf9a6ed513ca61,,1986567,162,,evan-feature22,full_rf_a,,0
136,3907,163,,,,2,2,1.0,1.0,1.0,0.0,,0.0-165.0,,1.0,976.67,1.0,0.73790804,0.0,0.75,1.0,0.413036656,1.0,0.524619035,True,,5f53b73f18bf9a6ed513ca61,,1997310,163,,evan-feature22,full_rf_a,,0
137,3908,164,,,,2,2,1.0,0.0,0.0,-1.0,,0.0-166.0,,0.0,723.095,1.0,0.7080961309999999,0.0,0.708666865,1.0,0.431915581,0.0,0.481819489,True,,5f53b73f18bf9a6ed513ca61,,2007795,164,,evan-feature22,full_rf_a,,0
138,3909,165,,,,2,2,0.0,0.0,0.0,-1.0,,0.0-167.0,,0.0,1244.935,1.0,0.721378003,1.0,0.71605913,0.0,0.36642387,0.0,0.5036739929999999,True,,5f53b73f18bf9a6ed513ca61,,2018803,165,,evan-feature22,full_rf_a,,0
139,3910,166,,,,2,2,1.0,1.0,0.0,-1.0,,0.0-168.0,,-1.0,995.9400001,0.0,0.7340618959999999,1.0,0.699323252,1.0,0.35298046299999997,1.0,0.511241692,True,,5f53b73f18bf9a6ed513ca61,,2029567,166,,evan-feature22,full_rf_a,,0
140,3911,167,,,,2,2,0.0,1.0,1.0,0.0,,0.0-169.0,,0.0,657.7399998999999,0.0,0.75,1.0,0.70412698,0.0,0.380734814,1.0,0.529580116,True,,5f53b73f18bf9a6ed513ca61,,2039987,167,,evan-feature22,full_rf_a,,0
141,3912,168,,,,2,2,1.0,0.0,0.0,-1.0,,0.0-170.0,,0.0,794.795,1.0,0.7436654909999999,0.0,0.711182751,1.0,0.41125331,0.0,0.49554405,True,,5f53b73f18bf9a6ed513ca61,,2050550,168,,evan-feature22,full_rf_a,,0
142,3913,169,,,,2,2,0.0,0.0,0.0,-1.0,,0.0-171.0,,0.0,1513.785,1.0,0.731607915,1.0,0.651774583,0.0,0.35688023,0.0,0.45194491600000003,True,,5f53b73f18bf9a6ed513ca61,,2061829,169,,evan-feature22,full_rf_a,,0
143,3914,170,,,,2,2,0.0,1.0,1.0,0.0,,0.0-172.0,,0.0,818.4849998999999,1.0,0.75,0.0,0.75,0.0,0.283145374,1.0,0.528608005,True,,5f53b73f18bf9a6ed513ca61,,2072411,170,,evan-feature22,full_rf_a,,0
144,3915,171,,,,SLOW,SLOW,,,1.0,0.0,,0.0-173.0,,-3.0,,0.0,0.7491416890000001,1.0,0.7423785959999999,0.0,0.29135870399999997,0.0,0.498888318,True,,5f53b73f18bf9a6ed513ca61,,2078217,171,,evan-feature22,full_rf_a,,1
145,3916,172,,,,2,2,0.0,0.0,1.0,0.0,,0.0-174.0,,0.0,1550.42,1.0,0.708569387,1.0,0.717682277,0.0,0.294421699,0.0,0.493838163,True,,5f53b73f18bf9a6ed513ca61,,2089533,172,,evan-feature22,full_rf_a,,1
146,3917,173,,,,2,2,0.0,0.0,0.0,-1.0,,0.0-175.0,,0.0,643.2699999,1.0,0.75,1.0,0.7383382159999999,0.0,0.356098707,0.0,0.442533405,True,,5f53b73f18bf9a6ed513ca61,,2099938,173,,evan-feature22,full_rf_a,,0
147,3918,174,,,,2,2,0.0,0.0,0.0,-1.0,,0.0-176.0,,0.0,438.6549999,1.0,0.744527075,1.0,0.75,0.0,0.334127506,0.0,0.393165805,True,,5f53b73f18bf9a6ed513ca61,,2110137,174,,evan-feature22,full_rf_a,,0
148,3919,175,,,,2,2,1.0,0.0,0.0,-1.0,,0.0-177.0,,0.0,1119.425,1.0,0.75,1.0,0.75,1.0,0.33571021799999995,0.0,0.350393962,True,,5f53b73f18bf9a6ed513ca61,,2121025,175,,evan-feature22,full_rf_a,,0
149,3920,176,,,,2,2,0.0,0.0,0.0,-1.0,,0.0-178.0,,0.0,1381.155,1.0,0.75,1.0,0.75,0.0,0.313628297,0.0,0.36349657399999996,True,,5f53b73f18bf9a6ed513ca61,,2132170,176,,evan-feature22,full_rf_a,,0
150,3921,177,,,,2,2,0.0,1.0,1.0,0.0,,0.0-179.0,,0.0,814.5299999,1.0,0.75,1.0,0.734284182,0.0,0.262667667,1.0,0.380199119,True,,5f53b73f18bf9a6ed513ca61,,2142744,177,,evan-feature22,full_rf_a,,0
151,3922,178,,,,2,2,1.0,0.0,0.0,-1.0,,0.0-180.0,,0.0,957.2350001,1.0,0.75,1.0,0.75,1.0,0.25,0.0,0.394494013,True,,5f53b73f18bf9a6ed513ca61,,2153470,178,,evan-feature22,full_rf_a,,0
152,3923,179,,,,2,2,0.0,0.0,1.0,0.0,,0.0-181.0,,0.0,450.76000020000004,1.0,0.722298145,1.0,0.7357822340000001,0.0,0.25,0.0,0.319142121,True,,5f53b73f18bf9a6ed513ca61,,2163683,179,,evan-feature22,full_rf_a,,0
153,3924,180,,,,2,2,0.0,1.0,1.0,0.0,,0.0-182.0,,0.0,894.3,1.0,0.73149275,1.0,0.724276446,0.0,0.305856907,1.0,0.281315057,True,,5f53b73f18bf9a6ed513ca61,,2174342,180,,evan-feature22,full_rf_a,,0
154,3925,181,,,,2,2,0.0,0.0,0.0,-1.0,,0.0-183.0,,0.0,753.5300001,1.0,0.7458732690000001,1.0,0.7336382459999999,0.0,0.272571964,0.0,0.266021999,True,,5f53b73f18bf9a6ed513ca61,,2184859,181,,evan-feature22,full_rf_a,,0
155,3926,182,,,,2,2,1.0,0.0,0.0,-1.0,,0.0-184.0,,0.0,1117.34,1.0,0.705579037,1.0,0.720778292,1.0,0.320238144,0.0,0.30971744,True,,5f53b73f18bf9a6ed513ca61,,2195737,182,,evan-feature22,full_rf_a,,0
156,3927,183,,,,2,2,0.0,0.0,0.0,-1.0,,0.0-185.0,,0.0,1134.735,0.0,0.700425648,0.0,0.7198784009999999,0.0,0.272590393,0.0,0.304182931,True,,5f53b73f18bf9a6ed513ca61,,2206637,183,,evan-feature22,full_rf_a,,0
157,3928,184,,,,2,2,0.0,1.0,0.0,-1.0,,0.0-186.0,,-1.0,428.5900001,1.0,0.735590785,1.0,0.722714973,0.0,0.25,1.0,0.323421091,True,,5f53b73f18bf9a6ed513ca61,,2216827,184,,evan-feature22,full_rf_a,,0
158,3929,185,,,,2,2,1.0,1.0,0.0,-1.0,,0.0-187.0,,-1.0,855.0249999,1.0,0.724807662,1.0,0.63146213,1.0,0.36836492600000004,1.0,0.34592153299999995,True,,5f53b73f18bf9a6ed513ca61,,2227444,185,,evan-feature22,full_rf_a,,0
159,3930,186,,,,1,1,1.0,0.0,0.0,-1.0,,0.0-188.0,,0.0,764.13,1.0,0.7352796909999999,0.0,0.555111392,1.0,0.36003922,0.0,0.31433779999999995,True,,5f53b73f18bf9a6ed513ca61,,2237973,186,,evan-feature22,full_rf_a,,1
160,3931,187,notice,,,,,,,,,,0.0-189.0,"{""Q0"":""no""}",,5435.0,,,,,,,,,True,,5f53b73f18bf9a6ed513ca61,,2243410,187,Q,survey-text,full_rf_a,,1
161,3932,188,track1,,[1],,,,,,,,0.0-190.0,"{""Q0"":""no""}",,4869.0,,,,,,,,,True,,5f53b73f18bf9a6ed513ca61,,2248285,188,Q,evan-quiz,full_rf_a,,1
162,3933,189,track2,,[0],,,,,,,,0.0-191.0,"{""Q0"":""yes""}",,7982.0,,,,,,,,,True,,5f53b73f18bf9a6ed513ca61,,2256274,189,Q,evan-quiz,full_rf_a,,1
163,3934,190,strat,,,,,,,,,,0.0-192.0,"{""Q0"":""Used the most common door showing gold aliens and changing if the probability changed""}",,24509.0,,,,,,,,,True,,5f53b73f18bf9a6ed513ca61,,2280790,190,Q,survey-text,full_rf_a,,1
