,index,Unnamed: 0,Q_name,button_pressed,choice_idxs,chosen_pos,chosen_state,chosen_state_f_1_outcome,chosen_state_f_2_outcome,f_1_reward,f_2_reward,incor_questions,internal_node_id,responses,reward_received,rt,s_1_f_1_outcome,s_1_f_1_prob,s_1_f_2_outcome,s_1_f_2_prob,s_2_f_1_outcome,s_2_f_1_prob,s_2_f_2_outcome,s_2_f_2_prob,safe_first,stimulus,subjectID,success,time_elapsed,trial_index,trial_num,trial_type,version,view_history,switching
0,35456,25,,,,2,2,0.0,0.0,0.0,-1.0,,0.0-27.0,,0.0,2035.05,0.0,0.6,1.0,0.6,0.0,0.4,0.0,0.4,False,,5c34cece6288ec00016a5363,,696532,25,,evan-feature22,full_pf_a,,0
1,35457,26,,,,2,2,0.0,1.0,0.0,-1.0,,0.0-28.0,,-1.0,1399.21,1.0,0.608053294,1.0,0.63424552,0.0,0.397152172,1.0,0.347069101,False,,5c34cece6288ec00016a5363,,707709,26,,evan-feature22,full_pf_a,,0
2,35458,27,,,,1,1,1.0,1.0,0.0,-1.0,,0.0-29.0,,-1.0,1948.845,1.0,0.642237155,1.0,0.648566321,1.0,0.389407674,0.0,0.285525717,False,,5c34cece6288ec00016a5363,,719434,27,,evan-feature22,full_pf_a,,1
3,35459,28,,,,1,1,1.0,0.0,0.0,-1.0,,0.0-30.0,,0.0,2376.46,1.0,0.661086576,0.0,0.630492543,1.0,0.399058924,0.0,0.25,False,,5c34cece6288ec00016a5363,,731600,28,,evan-feature22,full_pf_a,,0
4,35460,29,,,,1,1,0.0,1.0,0.0,-1.0,,0.0-31.0,,-1.0,2270.565,0.0,0.631324137,1.0,0.6269842929999999,0.0,0.38734784299999997,1.0,0.25,False,,5c34cece6288ec00016a5363,,743649,29,,evan-feature22,full_pf_a,,0
5,35461,30,,,,2,2,0.0,0.0,0.0,-1.0,,0.0-32.0,,0.0,1447.03,1.0,0.6381991370000001,0.0,0.68987999,0.0,0.384107265,0.0,0.271332943,False,,5c34cece6288ec00016a5363,,754864,30,,evan-feature22,full_pf_a,,1
6,35462,31,,,,2,2,0.0,1.0,0.0,-1.0,,0.0-33.0,,-1.0,1116.76,0.0,0.66034901,1.0,0.742641349,0.0,0.360225629,1.0,0.25,False,,5c34cece6288ec00016a5363,,765777,31,,evan-feature22,full_pf_a,,0
7,35463,32,,,,1,1,1.0,1.0,1.0,0.0,,0.0-34.0,,1.0,1876.105,1.0,0.638612418,1.0,0.75,0.0,0.367273939,0.0,0.25,False,,5c34cece6288ec00016a5363,,777427,32,,evan-feature22,full_pf_a,,1
8,35464,33,,,,1,1,0.0,1.0,0.0,-1.0,,0.0-35.0,,-1.0,1013.0,0.0,0.624340629,1.0,0.75,0.0,0.425829545,1.0,0.25,False,,5c34cece6288ec00016a5363,,788228,33,,evan-feature22,full_pf_a,,0
9,35465,34,,,,2,2,1.0,1.0,0.0,-1.0,,0.0-36.0,,-1.0,1957.57,1.0,0.621999804,1.0,0.75,1.0,0.368609357,1.0,0.25,False,,5c34cece6288ec00016a5363,,799968,34,,evan-feature22,full_pf_a,,1
10,35466,35,,,,1,1,1.0,1.0,1.0,0.0,,0.0-37.0,,1.0,1032.385,1.0,0.62666403,1.0,0.75,1.0,0.311151498,1.0,0.25,False,,5c34cece6288ec00016a5363,,810783,35,,evan-feature22,full_pf_a,,1
11,35467,36,,,,1,1,0.0,0.0,1.0,0.0,,0.0-38.0,,0.0,877.3999995999999,0.0,0.6819650009999999,0.0,0.75,1.0,0.310763048,0.0,0.25,False,,5c34cece6288ec00016a5363,,821431,36,,evan-feature22,full_pf_a,,0
12,35468,37,,,,1,1,0.0,0.0,0.0,-1.0,,0.0-39.0,,0.0,308.16499980000003,0.0,0.740626951,0.0,0.75,1.0,0.25,0.0,0.25,False,,5c34cece6288ec00016a5363,,831521,37,,evan-feature22,full_pf_a,,0
13,35469,38,,,,1,1,1.0,1.0,0.0,-1.0,,0.0-40.0,,-1.0,1079.755,1.0,0.739599242,1.0,0.742034978,0.0,0.25397114600000004,0.0,0.25,False,,5c34cece6288ec00016a5363,,842396,38,,evan-feature22,full_pf_a,,0
14,35470,39,,,,2,2,0.0,0.0,0.0,-1.0,,0.0-41.0,,0.0,767.3200001,1.0,0.732341315,1.0,0.72735643,0.0,0.25,0.0,0.25,False,,5c34cece6288ec00016a5363,,852994,39,,evan-feature22,full_pf_a,,1
15,35471,40,,,,2,2,1.0,0.0,0.0,-1.0,,0.0-42.0,,0.0,1963.09,0.0,0.7062287770000001,1.0,0.75,1.0,0.29002151,0.0,0.288256649,False,,5c34cece6288ec00016a5363,,864766,40,,evan-feature22,full_pf_a,,0
16,35472,41,,,,2,2,1.0,0.0,1.0,0.0,,0.0-43.0,,1.0,3083.285,1.0,0.7086029209999999,1.0,0.75,1.0,0.274129113,0.0,0.262851608,False,,5c34cece6288ec00016a5363,,877632,41,,evan-feature22,full_pf_a,,0
17,35473,42,,,,2,2,0.0,0.0,0.0,-1.0,,0.0-44.0,,0.0,1214.82,1.0,0.669189651,1.0,0.727614338,0.0,0.298444036,0.0,0.296944518,False,,5c34cece6288ec00016a5363,,888639,42,,evan-feature22,full_pf_a,,0
18,35474,43,,,,2,2,1.0,0.0,1.0,0.0,,0.0-45.0,,1.0,798.7349997,1.0,0.6819912929999999,1.0,0.7179434290000001,1.0,0.265003961,0.0,0.28157921199999997,False,,5c34cece6288ec00016a5363,,899243,43,,evan-feature22,full_pf_a,,0
19,35475,44,,,,2,2,0.0,1.0,1.0,0.0,,0.0-46.0,,0.0,839.5500001,1.0,0.665275002,1.0,0.723065271,0.0,0.260414971,1.0,0.30973870000000003,False,,5c34cece6288ec00016a5363,,909864,44,,evan-feature22,full_pf_a,,0
20,35476,45,,,,2,2,0.0,1.0,0.0,-1.0,,0.0-47.0,,-1.0,668.0049999,1.0,0.6660593260000001,1.0,0.728032907,0.0,0.30922817,1.0,0.338778608,False,,5c34cece6288ec00016a5363,,920309,45,,evan-feature22,full_pf_a,,0
21,35477,46,,,,2,2,0.0,1.0,0.0,-1.0,,0.0-48.0,,-1.0,880.7049999,0.0,0.702068785,1.0,0.6528750879999999,0.0,0.287329608,1.0,0.35789613200000003,False,,5c34cece6288ec00016a5363,,930980,46,,evan-feature22,full_pf_a,,0
22,35478,47,,,,2,2,1.0,0.0,0.0,-1.0,,0.0-49.0,,0.0,666.09,1.0,0.651939787,1.0,0.636725589,1.0,0.284834488,0.0,0.358563756,False,,5c34cece6288ec00016a5363,,941420,47,,evan-feature22,full_pf_a,,0
23,35479,48,,,,1,1,1.0,0.0,0.0,-1.0,,0.0-50.0,,0.0,719.12,1.0,0.67573929,0.0,0.612550049,1.0,0.37130387600000003,0.0,0.383542402,False,,5c34cece6288ec00016a5363,,951921,48,,evan-feature22,full_pf_a,,1
24,35480,49,,,,1,1,1.0,1.0,0.0,-1.0,,0.0-51.0,,-1.0,459.24000020000005,1.0,0.620753801,1.0,0.60513644,1.0,0.385529434,1.0,0.340361743,False,,5c34cece6288ec00016a5363,,962155,49,,evan-feature22,full_pf_a,,0
25,35481,50,,,,1,1,1.0,1.0,1.0,0.0,,0.0-52.0,,1.0,996.9199997999999,1.0,0.673564893,1.0,0.672437924,0.0,0.292955382,0.0,0.337633795,False,,5c34cece6288ec00016a5363,,972938,50,,evan-feature22,full_pf_a,,0
26,35482,51,,,,1,1,0.0,1.0,0.0,-1.0,,0.0-53.0,,-1.0,863.8449995999999,0.0,0.6749427,1.0,0.724197502,0.0,0.32391132100000003,0.0,0.350995264,False,,5c34cece6288ec00016a5363,,983588,51,,evan-feature22,full_pf_a,,0
27,35483,52,,,,1,1,1.0,1.0,0.0,-1.0,,0.0-54.0,,-1.0,1700.66,1.0,0.6940159379999999,1.0,0.75,0.0,0.31710554399999996,0.0,0.413450341,False,,5c34cece6288ec00016a5363,,995058,52,,evan-feature22,full_pf_a,,0
28,35484,53,,,,2,2,0.0,0.0,0.0,-1.0,,0.0-55.0,,0.0,425.2900002,1.0,0.6916018270000001,0.0,0.69001187,0.0,0.261817804,0.0,0.40038635,False,,5c34cece6288ec00016a5363,,1005253,53,,evan-feature22,full_pf_a,,1
29,35485,54,,,,2,2,1.0,0.0,0.0,-1.0,,0.0-56.0,,0.0,592.7150002999999,1.0,0.641061544,0.0,0.71337992,1.0,0.277296461,0.0,0.47372791700000005,False,,5c34cece6288ec00016a5363,,1015626,54,,evan-feature22,full_pf_a,,0
30,35486,55,,,,2,2,1.0,0.0,0.0,-1.0,,0.0-57.0,,0.0,2421.56,0.0,0.6082438520000001,1.0,0.708471106,1.0,0.28745137,0.0,0.564174476,False,,5c34cece6288ec00016a5363,,1027826,55,,evan-feature22,full_pf_a,,0
31,35487,56,,,,2,2,1.0,0.0,1.0,0.0,,0.0-58.0,,1.0,847.7500002,0.0,0.6051112120000001,0.0,0.7118147229999999,1.0,0.272390611,0.0,0.5595149939999999,False,,5c34cece6288ec00016a5363,,1038523,56,,evan-feature22,full_pf_a,,0
32,35488,57,,,,2,2,1.0,1.0,1.0,0.0,,0.0-59.0,,1.0,1137.535,0.0,0.582420852,1.0,0.635867583,1.0,0.31089574,1.0,0.5227206520000001,False,,5c34cece6288ec00016a5363,,1049448,57,,evan-feature22,full_pf_a,,0
33,35489,58,,,,2,2,0.0,1.0,1.0,0.0,,0.0-60.0,,0.0,1084.325,0.0,0.623195575,1.0,0.655026044,0.0,0.25,1.0,0.560387538,False,,5c34cece6288ec00016a5363,,1060341,58,,evan-feature22,full_pf_a,,0
34,35490,59,,,,2,2,1.0,1.0,0.0,-1.0,,0.0-61.0,,-1.0,651.5850001,0.0,0.601889598,1.0,0.678198724,1.0,0.25,1.0,0.559922936,False,,5c34cece6288ec00016a5363,,1070766,59,,evan-feature22,full_pf_a,,0
35,35491,60,,,,SLOW,SLOW,,,1.0,0.0,,0.0-62.0,,-3.0,,0.0,0.601259914,0.0,0.704681482,1.0,0.33908969299999997,0.0,0.505003715,False,,5c34cece6288ec00016a5363,,1076580,60,,evan-feature22,full_pf_a,,1
36,35492,61,,,,1,1,0.0,1.0,1.0,0.0,,0.0-63.0,,0.0,2137.32,0.0,0.59645454,1.0,0.710437172,0.0,0.327441879,0.0,0.391749613,False,,5c34cece6288ec00016a5363,,1088485,61,,evan-feature22,full_pf_a,,1
37,35493,62,,,,1,1,1.0,0.0,0.0,-1.0,,0.0-64.0,,0.0,1427.49,1.0,0.529473,0.0,0.636758527,1.0,0.301338063,0.0,0.365661481,False,,5c34cece6288ec00016a5363,,1099703,62,,evan-feature22,full_pf_a,,0
38,35494,63,,,,2,2,0.0,1.0,1.0,0.0,,0.0-65.0,,0.0,674.1749998,0.0,0.541657162,0.0,0.634541962,0.0,0.343535366,1.0,0.371763742,False,,5c34cece6288ec00016a5363,,1110152,63,,evan-feature22,full_pf_a,,1
39,35495,64,,,,2,2,0.0,1.0,1.0,0.0,,0.0-66.0,,0.0,965.4399999,0.0,0.5707533260000001,0.0,0.589121171,0.0,0.326428396,1.0,0.43961622899999997,False,,5c34cece6288ec00016a5363,,1120889,64,,evan-feature22,full_pf_a,,0
40,35496,65,,,,2,2,0.0,1.0,0.0,-1.0,,0.0-67.0,,-1.0,843.5050002,1.0,0.5707533260000001,1.0,0.589121171,0.0,0.326428396,1.0,0.43961622899999997,False,,5c34cece6288ec00016a5363,,1131574,65,,evan-feature22,full_pf_a,,0
41,35497,66,,,,2,2,1.0,1.0,0.0,-1.0,,0.0-68.0,,-1.0,740.0000002,0.0,0.506271295,1.0,0.641775594,1.0,0.37149690700000004,1.0,0.404330166,False,,5c34cece6288ec00016a5363,,1142101,66,,evan-feature22,full_pf_a,,0
42,35498,67,,,,2,2,0.0,0.0,1.0,0.0,,0.0-69.0,,0.0,705.6700001,0.0,0.455642565,1.0,0.623605825,0.0,0.358753011,0.0,0.346174041,False,,5c34cece6288ec00016a5363,,1152576,67,,evan-feature22,full_pf_a,,0
43,35499,68,,,,2,2,1.0,0.0,0.0,-1.0,,0.0-70.0,,0.0,929.3999997999999,1.0,0.483677308,1.0,0.5904681070000001,1.0,0.402218411,0.0,0.35344697,False,,5c34cece6288ec00016a5363,,1163274,68,,evan-feature22,full_pf_a,,0
44,35500,69,,,,2,2,0.0,1.0,1.0,0.0,,0.0-71.0,,0.0,937.7350002000001,1.0,0.394210977,0.0,0.558925494,0.0,0.540052017,1.0,0.35182128700000004,False,,5c34cece6288ec00016a5363,,1174036,69,,evan-feature22,full_pf_a,,0
45,35501,70,,,,2,2,1.0,0.0,0.0,-1.0,,0.0-72.0,,0.0,864.8649998999999,0.0,0.382300414,1.0,0.577670603,1.0,0.607608448,0.0,0.378261578,False,,5c34cece6288ec00016a5363,,1184740,70,,evan-feature22,full_pf_a,,0
46,35502,71,,,,2,2,1.0,0.0,1.0,0.0,,0.0-73.0,,1.0,819.8699998,1.0,0.357596762,0.0,0.5929076529999999,1.0,0.6579790010000001,0.0,0.401326777,False,,5c34cece6288ec00016a5363,,1195336,71,,evan-feature22,full_pf_a,,0
47,35503,72,,,,2,2,1.0,1.0,0.0,-1.0,,0.0-74.0,,-1.0,855.6199995999999,0.0,0.362033495,1.0,0.582308608,1.0,0.649195052,1.0,0.355158505,False,,5c34cece6288ec00016a5363,,1205966,72,,evan-feature22,full_pf_a,,0
48,35504,73,,,,2,2,1.0,0.0,0.0,-1.0,,0.0-75.0,,0.0,975.3100001,0.0,0.369620635,1.0,0.669100864,1.0,0.706059111,0.0,0.362516241,False,,5c34cece6288ec00016a5363,,1216790,73,,evan-feature22,full_pf_a,,0
49,35505,74,,,,2,2,1.0,1.0,0.0,-1.0,,0.0-76.0,,-1.0,884.875,0.0,0.41477751399999996,1.0,0.7284416779999999,1.0,0.7182656940000001,1.0,0.36228040899999997,False,,5c34cece6288ec00016a5363,,1227519,74,,evan-feature22,full_pf_a,,0
50,35506,75,,,,1,1,1.0,0.0,1.0,0.0,,0.0-77.0,,1.0,744.215,1.0,0.37675460299999997,0.0,0.703250285,1.0,0.75,1.0,0.461979164,False,,5c34cece6288ec00016a5363,,1238043,75,,evan-feature22,full_pf_a,,1
51,35507,76,,,,1,1,1.0,1.0,1.0,0.0,,0.0-78.0,,1.0,758.5849999,1.0,0.398716075,1.0,0.6723864890000001,0.0,0.674153818,1.0,0.519029516,False,,5c34cece6288ec00016a5363,,1248602,76,,evan-feature22,full_pf_a,,0
52,35508,77,,,,2,2,1.0,0.0,1.0,0.0,,0.0-79.0,,1.0,596.5750002999999,0.0,0.34677856700000004,1.0,0.69057175,1.0,0.6822438540000001,0.0,0.477292237,False,,5c34cece6288ec00016a5363,,1258979,77,,evan-feature22,full_pf_a,,1
53,35509,78,,,,2,2,1.0,1.0,0.0,-1.0,,0.0-80.0,,-1.0,910.3999999,1.0,0.28580469199999997,0.0,0.68408818,1.0,0.684207565,1.0,0.49780448299999996,False,,5c34cece6288ec00016a5363,,1269664,78,,evan-feature22,full_pf_a,,0
54,35511,80,,,,2,2,1.0,0.0,0.0,-1.0,,0.0-82.0,,0.0,2149.07,0.0,0.25,1.0,0.7405808970000001,1.0,0.679614108,0.0,0.436436964,False,,5c34cece6288ec00016a5363,,1287523,80,,evan-feature22,full_pf_a,,0
55,35512,81,,,,2,2,1.0,1.0,0.0,-1.0,,0.0-83.0,,-1.0,667.9699998,1.0,0.29890393,1.0,0.730505706,1.0,0.7328203320000001,1.0,0.439256938,False,,5c34cece6288ec00016a5363,,1298002,81,,evan-feature22,full_pf_a,,0
56,35513,82,,,,1,1,0.0,1.0,1.0,0.0,,0.0-84.0,,0.0,817.245,0.0,0.326762398,1.0,0.7148059609999999,1.0,0.75,1.0,0.44389608799999997,False,,5c34cece6288ec00016a5363,,1308638,82,,evan-feature22,full_pf_a,,1
57,35514,83,,,,1,1,0.0,1.0,0.0,-1.0,,0.0-85.0,,-1.0,914.2049998,0.0,0.295168515,1.0,0.739760854,1.0,0.719947008,0.0,0.35277284600000003,False,,5c34cece6288ec00016a5363,,1319332,83,,evan-feature22,full_pf_a,,0
58,35515,84,,,,1,1,1.0,1.0,0.0,-1.0,,0.0-86.0,,-1.0,1000.415,1.0,0.25,1.0,0.70781482,1.0,0.75,1.0,0.286095925,False,,5c34cece6288ec00016a5363,,1330172,84,,evan-feature22,full_pf_a,,0
59,35516,85,,,,2,2,1.0,0.0,0.0,-1.0,,0.0-87.0,,0.0,397.47000019999996,0.0,0.25638190899999996,0.0,0.704088163,1.0,0.75,0.0,0.26872601399999996,False,,5c34cece6288ec00016a5363,,1340348,85,,evan-feature22,full_pf_a,,1
60,35517,86,,,,2,2,1.0,1.0,1.0,0.0,,0.0-88.0,,1.0,694.6999999,1.0,0.271581126,1.0,0.669760107,1.0,0.733896663,1.0,0.273244572,False,,5c34cece6288ec00016a5363,,1350864,86,,evan-feature22,full_pf_a,,0
61,35518,87,,,,1,1,1.0,1.0,0.0,-1.0,,0.0-89.0,,-1.0,875.705,1.0,0.257144401,1.0,0.600575706,1.0,0.74488122,0.0,0.25,False,,5c34cece6288ec00016a5363,,1361522,87,,evan-feature22,full_pf_a,,1
62,35519,88,,,,2,2,1.0,0.0,0.0,-1.0,,0.0-90.0,,0.0,898.3850004000001,0.0,0.25,1.0,0.616870026,1.0,0.723610234,0.0,0.25,False,,5c34cece6288ec00016a5363,,1372261,88,,evan-feature22,full_pf_a,,1
63,35520,89,,,,2,2,1.0,0.0,1.0,0.0,,0.0-91.0,,1.0,1208.13,0.0,0.25,1.0,0.583540187,1.0,0.7041042559999999,0.0,0.285961995,False,,5c34cece6288ec00016a5363,,1383251,89,,evan-feature22,full_pf_a,,0
64,35521,90,,,,2,2,1.0,1.0,1.0,0.0,,0.0-92.0,,1.0,802.4550001,0.0,0.27254536,1.0,0.53875765,1.0,0.693783448,1.0,0.284961652,False,,5c34cece6288ec00016a5363,,1393851,90,,evan-feature22,full_pf_a,,0
65,35522,91,,,,1,1,0.0,0.0,1.0,0.0,,0.0-93.0,,0.0,655.4899998,0.0,0.25,0.0,0.548431252,0.0,0.734221895,0.0,0.279445214,False,,5c34cece6288ec00016a5363,,1404274,91,,evan-feature22,full_pf_a,,1
66,35523,92,,,,1,1,0.0,1.0,0.0,-1.0,,0.0-94.0,,-1.0,720.4800001,0.0,0.258640684,1.0,0.545878066,0.0,0.725245965,0.0,0.31487537,False,,5c34cece6288ec00016a5363,,1414765,92,,evan-feature22,full_pf_a,,0
67,35524,93,,,,1,1,0.0,1.0,0.0,-1.0,,0.0-95.0,,-1.0,711.8899999,0.0,0.251103711,1.0,0.5776290629999999,1.0,0.696320133,0.0,0.317831047,False,,5c34cece6288ec00016a5363,,1425256,93,,evan-feature22,full_pf_a,,0
68,35525,94,,,,1,1,0.0,0.0,0.0,-1.0,,0.0-96.0,,0.0,830.9399998,0.0,0.276630292,0.0,0.617329858,0.0,0.73838088,0.0,0.261471582,False,,5c34cece6288ec00016a5363,,1435862,94,,evan-feature22,full_pf_a,,0
69,35526,95,,,,1,1,0.0,0.0,0.0,-1.0,,0.0-97.0,,0.0,911.8000004,0.0,0.297716424,0.0,0.618863717,0.0,0.7402358259999999,0.0,0.262600834,False,,5c34cece6288ec00016a5363,,1446552,95,,evan-feature22,full_pf_a,,0
70,35527,96,,,,1,1,1.0,1.0,1.0,0.0,,0.0-98.0,,1.0,1131.805,1.0,0.290935512,1.0,0.695370945,1.0,0.706570507,0.0,0.280030553,False,,5c34cece6288ec00016a5363,,1457462,96,,evan-feature22,full_pf_a,,0
71,35528,97,,,,2,2,1.0,1.0,0.0,-1.0,,0.0-99.0,,-1.0,855.8049998,1.0,0.25,1.0,0.6465277079999999,1.0,0.67766682,1.0,0.25,False,,5c34cece6288ec00016a5363,,1468097,97,,evan-feature22,full_pf_a,,1
72,35529,98,,,,1,1,0.0,0.0,1.0,0.0,,0.0-100.0,,0.0,690.3649997,0.0,0.26463816,0.0,0.636100213,1.0,0.646048507,0.0,0.265607101,False,,5c34cece6288ec00016a5363,,1478560,98,,evan-feature22,full_pf_a,,1
73,35530,99,,,,1,1,0.0,1.0,1.0,0.0,,0.0-101.0,,0.0,1478.655,0.0,0.314340707,1.0,0.667795927,1.0,0.613630805,1.0,0.25,False,,5c34cece6288ec00016a5363,,1489880,99,,evan-feature22,full_pf_a,,0
74,35531,100,,,,2,2,1.0,1.0,0.0,-1.0,,0.0-102.0,,-1.0,2977.6,1.0,0.28685784,1.0,0.6622549529999999,1.0,0.652154117,1.0,0.25,False,,5c34cece6288ec00016a5363,,1502654,100,,evan-feature22,full_pf_a,,1
75,35532,101,,,,2,2,1.0,1.0,0.0,-1.0,,0.0-103.0,,-1.0,1581.25,0.0,0.304106554,0.0,0.631289538,1.0,0.707041942,1.0,0.29314237,False,,5c34cece6288ec00016a5363,,1514015,101,,evan-feature22,full_pf_a,,0
76,35533,102,,,,1,1,0.0,1.0,0.0,-1.0,,0.0-104.0,,-1.0,1119.76,0.0,0.304806932,1.0,0.571167718,1.0,0.680472346,0.0,0.25,False,,5c34cece6288ec00016a5363,,1524973,102,,evan-feature22,full_pf_a,,1
77,35534,103,,,,2,2,0.0,1.0,0.0,-1.0,,0.0-105.0,,-1.0,1396.25,0.0,0.37919861,0.0,0.5724849710000001,0.0,0.705638003,1.0,0.30179300600000003,False,,5c34cece6288ec00016a5363,,1536258,103,,evan-feature22,full_pf_a,,1
78,35535,104,,,,2,2,1.0,0.0,0.0,-1.0,,0.0-106.0,,0.0,876.5999995999999,0.0,0.464277969,0.0,0.554034373,1.0,0.7372627340000001,0.0,0.264699741,False,,5c34cece6288ec00016a5363,,1546969,104,,evan-feature22,full_pf_a,,0
79,35536,105,,,,2,2,0.0,0.0,0.0,-1.0,,0.0-107.0,,0.0,1023.48,1.0,0.465104323,1.0,0.530793115,0.0,0.75,0.0,0.31683071,False,,5c34cece6288ec00016a5363,,1557764,105,,evan-feature22,full_pf_a,,0
80,35537,106,,,,2,2,1.0,0.0,1.0,0.0,,0.0-108.0,,1.0,1132.71,1.0,0.465104323,1.0,0.530793115,1.0,0.75,0.0,0.31683071,False,,5c34cece6288ec00016a5363,,1568693,106,,evan-feature22,full_pf_a,,0
81,35538,107,,,,2,2,0.0,0.0,1.0,0.0,,0.0-109.0,,0.0,1158.69,1.0,0.46833986,1.0,0.570249239,0.0,0.7244472590000001,0.0,0.364114163,False,,5c34cece6288ec00016a5363,,1579623,107,,evan-feature22,full_pf_a,,0
82,35539,108,,,,2,2,1.0,0.0,1.0,0.0,,0.0-110.0,,1.0,1198.95,1.0,0.445444024,1.0,0.649673355,1.0,0.6845441290000001,0.0,0.300660449,False,,5c34cece6288ec00016a5363,,1590620,108,,evan-feature22,full_pf_a,,0
83,35540,109,,,,2,2,1.0,0.0,1.0,0.0,,0.0-111.0,,1.0,1182.135,0.0,0.39909721299999995,1.0,0.6715179509999999,1.0,0.742310028,0.0,0.35496088299999995,False,,5c34cece6288ec00016a5363,,1601575,109,,evan-feature22,full_pf_a,,0
84,35541,110,,,,2,2,1.0,1.0,0.0,-1.0,,0.0-112.0,,-1.0,947.4900002,0.0,0.37956104799999996,1.0,0.694725302,1.0,0.7181651309999999,1.0,0.38726906299999997,False,,5c34cece6288ec00016a5363,,1612318,110,,evan-feature22,full_pf_a,,0
85,35542,111,,,,2,2,0.0,0.0,0.0,-1.0,,0.0-113.0,,0.0,1799.645,0.0,0.404995034,0.0,0.724375412,0.0,0.6910946859999999,0.0,0.387187347,False,,5c34cece6288ec00016a5363,,1623886,111,,evan-feature22,full_pf_a,,0
86,35543,112,,,,2,2,1.0,0.0,1.0,0.0,,0.0-114.0,,1.0,1400.63,0.0,0.461740803,1.0,0.75,1.0,0.75,0.0,0.34872038200000005,False,,5c34cece6288ec00016a5363,,1635056,112,,evan-feature22,full_pf_a,,0
87,35544,113,,,,2,2,0.0,0.0,1.0,0.0,,0.0-115.0,,0.0,1611.555,0.0,0.43821380600000004,0.0,0.738833273,0.0,0.728286963,0.0,0.399538128,False,,5c34cece6288ec00016a5363,,1646436,113,,evan-feature22,full_pf_a,,0
88,35545,114,,,,2,2,0.0,0.0,0.0,-1.0,,0.0-116.0,,0.0,1096.135,1.0,0.41709882,1.0,0.736666736,0.0,0.75,0.0,0.389095584,False,,5c34cece6288ec00016a5363,,1657342,114,,evan-feature22,full_pf_a,,0
89,35546,115,,,,2,2,1.0,1.0,0.0,-1.0,,0.0-117.0,,-1.0,876.685,0.0,0.39749009799999996,0.0,0.744320029,1.0,0.75,1.0,0.363848678,False,,5c34cece6288ec00016a5363,,1668025,115,,evan-feature22,full_pf_a,,0
90,35547,116,,,,2,2,1.0,1.0,1.0,0.0,,0.0-118.0,,1.0,769.7550002,0.0,0.392653706,1.0,0.75,1.0,0.75,1.0,0.384386976,False,,5c34cece6288ec00016a5363,,1678638,116,,evan-feature22,full_pf_a,,0
91,35548,117,,,,2,2,1.0,0.0,0.0,-1.0,,0.0-119.0,,0.0,891.51,0.0,0.31190902600000003,0.0,0.75,1.0,0.732413819,0.0,0.413082932,False,,5c34cece6288ec00016a5363,,1689304,117,,evan-feature22,full_pf_a,,0
92,35549,118,,,,2,2,1.0,0.0,1.0,0.0,,0.0-120.0,,1.0,838.2999999,0.0,0.366917648,0.0,0.740073855,1.0,0.75,0.0,0.352861979,False,,5c34cece6288ec00016a5363,,1699917,118,,evan-feature22,full_pf_a,,0
93,35550,119,,,,2,2,1.0,1.0,1.0,0.0,,0.0-121.0,,1.0,1041.99,1.0,0.3645172,1.0,0.721770713,1.0,0.75,1.0,0.404074511,False,,5c34cece6288ec00016a5363,,1710733,119,,evan-feature22,full_pf_a,,0
94,35551,120,,,,2,2,0.0,1.0,1.0,0.0,,0.0-122.0,,0.0,927.015,1.0,0.35205600299999995,1.0,0.68983859,0.0,0.739735447,1.0,0.366895945,False,,5c34cece6288ec00016a5363,,1721440,120,,evan-feature22,full_pf_a,,0
95,35552,121,,,,2,2,1.0,0.0,1.0,0.0,,0.0-123.0,,1.0,871.7999998,0.0,0.40998722600000004,0.0,0.720859127,1.0,0.673854955,0.0,0.368528541,False,,5c34cece6288ec00016a5363,,1732092,121,,evan-feature22,full_pf_a,,0
96,35553,122,,,,2,2,1.0,1.0,1.0,0.0,,0.0-124.0,,1.0,995.6100001,0.0,0.353625316,1.0,0.75,1.0,0.695605473,1.0,0.38303674200000004,False,,5c34cece6288ec00016a5363,,1742861,122,,evan-feature22,full_pf_a,,0
97,35554,123,,,,2,2,1.0,1.0,1.0,0.0,,0.0-125.0,,1.0,939.8049996,0.0,0.359216989,1.0,0.75,1.0,0.6987915090000001,1.0,0.35169046200000004,False,,5c34cece6288ec00016a5363,,1753570,123,,evan-feature22,full_pf_a,,0
98,35555,124,,,,2,2,0.0,1.0,1.0,0.0,,0.0-126.0,,0.0,882.71,1.0,0.35834496899999996,1.0,0.75,0.0,0.707067742,1.0,0.416763636,False,,5c34cece6288ec00016a5363,,1764224,124,,evan-feature22,full_pf_a,,0
99,35556,125,,,,2,2,0.0,1.0,0.0,-1.0,,0.0-127.0,,-1.0,830.9050002,0.0,0.38741613799999997,0.0,0.7177369570000001,0.0,0.734902455,1.0,0.49438664299999996,False,,5c34cece6288ec00016a5363,,1774824,125,,evan-feature22,full_pf_a,,0
100,35557,126,,,,2,2,1.0,0.0,1.0,0.0,,0.0-128.0,,1.0,854.8750002,0.0,0.405255252,0.0,0.7300466640000001,1.0,0.7027748070000001,0.0,0.504359668,False,,5c34cece6288ec00016a5363,,1785501,126,,evan-feature22,full_pf_a,,0
101,35558,127,,,,2,2,1.0,1.0,1.0,0.0,,0.0-129.0,,1.0,854.0650001,0.0,0.40697073,1.0,0.7260142190000001,1.0,0.724461982,1.0,0.522779179,False,,5c34cece6288ec00016a5363,,1796221,127,,evan-feature22,full_pf_a,,0
102,35559,128,,,,2,2,0.0,0.0,1.0,0.0,,0.0-130.0,,0.0,927.6049998999999,1.0,0.43906215299999996,0.0,0.7252802340000001,0.0,0.719079934,0.0,0.5712990579999999,False,,5c34cece6288ec00016a5363,,1806918,128,,evan-feature22,full_pf_a,,0
103,35560,129,,,,2,2,1.0,1.0,0.0,-1.0,,0.0-131.0,,-1.0,811.4999998,0.0,0.4076705,1.0,0.73280499,1.0,0.681313127,1.0,0.523891346,False,,5c34cece6288ec00016a5363,,1817503,129,,evan-feature22,full_pf_a,,0
104,35561,130,,,,1,1,1.0,1.0,0.0,-1.0,,0.0-132.0,,-1.0,1386.385,1.0,0.399102911,1.0,0.730498344,1.0,0.661080239,1.0,0.46742603,False,,5c34cece6288ec00016a5363,,1828674,130,,evan-feature22,full_pf_a,,1
105,35562,131,,,,2,2,1.0,0.0,0.0,-1.0,,0.0-133.0,,0.0,617.7400001,1.0,0.356477282,1.0,0.712296395,1.0,0.641812684,0.0,0.44868414,False,,5c34cece6288ec00016a5363,,1839070,131,,evan-feature22,full_pf_a,,1
106,35563,132,,,,2,2,0.0,1.0,1.0,0.0,,0.0-134.0,,0.0,501.375,0.0,0.462760722,1.0,0.692349322,0.0,0.700947931,1.0,0.394680266,False,,5c34cece6288ec00016a5363,,1849343,132,,evan-feature22,full_pf_a,,0
107,35564,133,,,,2,2,1.0,0.0,1.0,0.0,,0.0-135.0,,1.0,931.7000001,0.0,0.422306413,1.0,0.718375916,1.0,0.706340917,0.0,0.367787185,False,,5c34cece6288ec00016a5363,,1860142,133,,evan-feature22,full_pf_a,,0
108,35566,135,,,,2,2,1.0,0.0,1.0,0.0,,0.0-137.0,,1.0,1530.71,0.0,0.4582233,1.0,0.643834117,1.0,0.75,0.0,0.39615823299999997,False,,5c34cece6288ec00016a5363,,1880930,135,,evan-feature22,full_pf_a,,0
109,35567,136,,,,2,2,0.0,0.0,1.0,0.0,,0.0-138.0,,0.0,726.605,1.0,0.43813437899999996,0.0,0.651283804,0.0,0.729674191,0.0,0.37711048,False,,5c34cece6288ec00016a5363,,1891428,136,,evan-feature22,full_pf_a,,0
110,35568,137,,,,2,2,1.0,1.0,1.0,0.0,,0.0-139.0,,1.0,803.4000001,0.0,0.471199094,1.0,0.6470010979999999,1.0,0.715008097,1.0,0.410656191,False,,5c34cece6288ec00016a5363,,1902006,137,,evan-feature22,full_pf_a,,0
111,35569,138,,,,2,2,0.0,0.0,1.0,0.0,,0.0-140.0,,0.0,1035.21,0.0,0.42486406,0.0,0.629771829,0.0,0.6550939960000001,0.0,0.459093873,False,,5c34cece6288ec00016a5363,,1912814,138,,evan-feature22,full_pf_a,,0
112,35570,139,,,,2,2,1.0,0.0,1.0,0.0,,0.0-141.0,,1.0,591.1000002999999,1.0,0.4803197,0.0,0.645842715,1.0,0.6421749920000001,0.0,0.443092151,False,,5c34cece6288ec00016a5363,,1923252,139,,evan-feature22,full_pf_a,,0
113,35571,140,,,,2,2,1.0,1.0,0.0,-1.0,,0.0-142.0,,-1.0,884.84,1.0,0.521848997,1.0,0.735801074,1.0,0.6691348460000001,1.0,0.45259351600000003,False,,5c34cece6288ec00016a5363,,1933971,140,,evan-feature22,full_pf_a,,0
114,35572,141,,,,2,2,1.0,0.0,1.0,0.0,,0.0-143.0,,1.0,889.5399999,1.0,0.49565621299999996,0.0,0.742400847,1.0,0.661512553,0.0,0.483110831,False,,5c34cece6288ec00016a5363,,1944651,141,,evan-feature22,full_pf_a,,0
115,35573,142,,,,2,2,1.0,0.0,1.0,0.0,,0.0-144.0,,1.0,754.3850001000001,0.0,0.521564361,1.0,0.731078632,1.0,0.6774886809999999,0.0,0.483263956,False,,5c34cece6288ec00016a5363,,1955177,142,,evan-feature22,full_pf_a,,0
116,35574,143,,,,2,2,1.0,1.0,1.0,0.0,,0.0-145.0,,1.0,705.8200003,1.0,0.558893102,1.0,0.719810023,1.0,0.67461031,1.0,0.499349834,False,,5c34cece6288ec00016a5363,,1965662,143,,evan-feature22,full_pf_a,,0
117,35575,144,,,,2,2,1.0,0.0,1.0,0.0,,0.0-146.0,,1.0,770.6249999,1.0,0.611031046,1.0,0.75,1.0,0.688072995,0.0,0.5321422729999999,False,,5c34cece6288ec00016a5363,,1976207,144,,evan-feature22,full_pf_a,,0
118,35576,145,,,,2,2,1.0,1.0,0.0,-1.0,,0.0-147.0,,-1.0,787.885,0.0,0.633223941,1.0,0.713567728,1.0,0.75,1.0,0.48185314700000004,False,,5c34cece6288ec00016a5363,,1986765,145,,evan-feature22,full_pf_a,,0
119,35577,146,,,,2,2,1.0,0.0,1.0,0.0,,0.0-148.0,,1.0,406.7900004,1.0,0.664001694,1.0,0.705509768,1.0,0.75,0.0,0.500211065,False,,5c34cece6288ec00016a5363,,1996965,146,,evan-feature22,full_pf_a,,0
120,35578,147,,,,2,2,1.0,1.0,1.0,0.0,,0.0-149.0,,1.0,825.9800002000001,0.0,0.664001694,1.0,0.705509768,1.0,0.75,1.0,0.500211065,False,,5c34cece6288ec00016a5363,,2007561,147,,evan-feature22,full_pf_a,,0
121,35579,148,,,,2,2,0.0,1.0,1.0,0.0,,0.0-150.0,,0.0,706.0199999,0.0,0.696508041,0.0,0.71066027,0.0,0.717028709,1.0,0.49792991,False,,5c34cece6288ec00016a5363,,2018052,148,,evan-feature22,full_pf_a,,0
122,35580,149,,,,2,2,1.0,1.0,0.0,-1.0,,0.0-151.0,,-1.0,908.3599998,1.0,0.699883272,1.0,0.75,1.0,0.713543895,1.0,0.496962643,False,,5c34cece6288ec00016a5363,,2028733,149,,evan-feature22,full_pf_a,,0
123,35581,150,,,,2,2,1.0,0.0,0.0,-1.0,,0.0-152.0,,0.0,809.3300001,1.0,0.741163419,1.0,0.75,1.0,0.64691024,0.0,0.513858197,False,,5c34cece6288ec00016a5363,,2039322,150,,evan-feature22,full_pf_a,,0
124,35582,151,,,,2,2,1.0,1.0,0.0,-1.0,,0.0-153.0,,-1.0,871.6099998,1.0,0.75,1.0,0.70816558,1.0,0.594499079,1.0,0.48502124,False,,5c34cece6288ec00016a5363,,2049966,151,,evan-feature22,full_pf_a,,0
125,35583,152,,,,2,2,0.0,1.0,1.0,0.0,,0.0-154.0,,0.0,772.4800002999999,0.0,0.75,1.0,0.721848901,0.0,0.62197249,1.0,0.48263586399999997,False,,5c34cece6288ec00016a5363,,2060510,152,,evan-feature22,full_pf_a,,0
126,35584,153,,,,2,2,1.0,0.0,1.0,0.0,,0.0-155.0,,1.0,846.3650001,0.0,0.75,1.0,0.74813071,1.0,0.584357161,0.0,0.411477782,False,,5c34cece6288ec00016a5363,,2071158,153,,evan-feature22,full_pf_a,,0
127,35585,154,,,,2,2,1.0,1.0,1.0,0.0,,0.0-156.0,,1.0,822.6700001,0.0,0.75,1.0,0.75,1.0,0.52287236,1.0,0.488290656,False,,5c34cece6288ec00016a5363,,2081753,154,,evan-feature22,full_pf_a,,0
128,35586,155,,,,2,2,0.0,1.0,1.0,0.0,,0.0-157.0,,0.0,590.5599999,1.0,0.75,1.0,0.75,0.0,0.544321581,1.0,0.53143059,False,,5c34cece6288ec00016a5363,,2092116,155,,evan-feature22,full_pf_a,,0
129,35587,156,,,,2,2,1.0,1.0,1.0,0.0,,0.0-158.0,,1.0,831.2300001,1.0,0.726754564,1.0,0.75,1.0,0.5129306370000001,1.0,0.530592445,False,,5c34cece6288ec00016a5363,,2102723,156,,evan-feature22,full_pf_a,,0
130,35588,157,,,,2,2,0.0,0.0,0.0,-1.0,,0.0-159.0,,0.0,869.2999999,1.0,0.75,1.0,0.7392590729999999,0.0,0.479875835,0.0,0.547007051,False,,5c34cece6288ec00016a5363,,2113359,157,,evan-feature22,full_pf_a,,0
131,35589,158,,,,2,2,1.0,0.0,0.0,-1.0,,0.0-160.0,,0.0,973.2849997999999,1.0,0.75,1.0,0.7393376979999999,1.0,0.546045419,0.0,0.541267353,False,,5c34cece6288ec00016a5363,,2124104,158,,evan-feature22,full_pf_a,,0
132,35590,159,,,,2,2,1.0,1.0,1.0,0.0,,0.0-161.0,,1.0,1397.58,1.0,0.75,1.0,0.75,1.0,0.485725895,1.0,0.527625395,False,,5c34cece6288ec00016a5363,,2135272,159,,evan-feature22,full_pf_a,,0
133,35591,160,,,,2,2,1.0,1.0,0.0,-1.0,,0.0-162.0,,-1.0,755.2750004,0.0,0.75,1.0,0.725087974,1.0,0.488603595,1.0,0.504019206,False,,5c34cece6288ec00016a5363,,2145800,160,,evan-feature22,full_pf_a,,0
134,35592,161,,,,2,2,1.0,1.0,1.0,0.0,,0.0-163.0,,1.0,808.7550001,0.0,0.745504295,1.0,0.75,1.0,0.452379914,1.0,0.50131194,False,,5c34cece6288ec00016a5363,,2156386,161,,evan-feature22,full_pf_a,,0
135,35593,162,,,,2,2,0.0,1.0,0.0,-1.0,,0.0-164.0,,-1.0,778.835,1.0,0.728513874,1.0,0.75,0.0,0.44125567200000004,1.0,0.531454591,False,,5c34cece6288ec00016a5363,,2166934,162,,evan-feature22,full_pf_a,,0
136,35594,163,,,,2,2,1.0,1.0,1.0,0.0,,0.0-165.0,,1.0,779.3450002000001,1.0,0.73790804,1.0,0.75,1.0,0.413036656,1.0,0.524619035,False,,5c34cece6288ec00016a5363,,2177484,163,,evan-feature22,full_pf_a,,0
137,35595,164,,,,2,2,0.0,0.0,1.0,0.0,,0.0-166.0,,0.0,653.0249999,0.0,0.7080961309999999,1.0,0.708666865,0.0,0.431915581,0.0,0.481819489,False,,5c34cece6288ec00016a5363,,2187903,164,,evan-feature22,full_pf_a,,0
138,35596,165,,,,SLOW,SLOW,,,1.0,0.0,,0.0-167.0,,-3.0,,1.0,0.721378003,1.0,0.71605913,0.0,0.36642387,1.0,0.5036739929999999,False,,5c34cece6288ec00016a5363,,2193710,165,,evan-feature22,full_pf_a,,1
139,35597,166,,,,2,2,0.0,1.0,0.0,-1.0,,0.0-168.0,,-1.0,1772.365,1.0,0.7340618959999999,0.0,0.699323252,0.0,0.35298046299999997,1.0,0.511241692,False,,5c34cece6288ec00016a5363,,2205260,166,,evan-feature22,full_pf_a,,1
140,35598,167,,,,2,2,0.0,0.0,0.0,-1.0,,0.0-169.0,,0.0,806.5050002,1.0,0.75,1.0,0.70412698,0.0,0.380734814,0.0,0.529580116,False,,5c34cece6288ec00016a5363,,2215838,167,,evan-feature22,full_pf_a,,0
141,35599,168,,,,2,2,0.0,0.0,0.0,-1.0,,0.0-170.0,,0.0,1348.36,0.0,0.7436654909999999,1.0,0.711182751,0.0,0.41125331,0.0,0.49554405,False,,5c34cece6288ec00016a5363,,2226955,168,,evan-feature22,full_pf_a,,0
142,35600,169,,,,2,2,0.0,1.0,1.0,0.0,,0.0-171.0,,0.0,1072.115,0.0,0.731607915,1.0,0.651774583,0.0,0.35688023,1.0,0.45194491600000003,False,,5c34cece6288ec00016a5363,,2237798,169,,evan-feature22,full_pf_a,,0
143,35601,170,,,,2,2,1.0,1.0,0.0,-1.0,,0.0-172.0,,-1.0,209.6900004,1.0,0.75,1.0,0.75,1.0,0.283145374,1.0,0.528608005,False,,5c34cece6288ec00016a5363,,2247775,170,,evan-feature22,full_pf_a,,0
144,35602,171,,,,2,2,0.0,1.0,1.0,0.0,,0.0-173.0,,0.0,1386.445,0.0,0.7491416890000001,0.0,0.7423785959999999,0.0,0.29135870399999997,1.0,0.498888318,False,,5c34cece6288ec00016a5363,,2258931,171,,evan-feature22,full_pf_a,,0
145,35603,172,,,,2,2,0.0,0.0,0.0,-1.0,,0.0-174.0,,0.0,720.6349997000001,1.0,0.708569387,1.0,0.717682277,0.0,0.294421699,0.0,0.493838163,False,,5c34cece6288ec00016a5363,,2269417,172,,evan-feature22,full_pf_a,,0
146,35604,173,,,,1,1,1.0,1.0,1.0,0.0,,0.0-175.0,,1.0,1339.435,1.0,0.75,1.0,0.7383382159999999,1.0,0.356098707,0.0,0.442533405,False,,5c34cece6288ec00016a5363,,2280528,173,,evan-feature22,full_pf_a,,1
147,35605,174,,,,2,2,1.0,1.0,1.0,0.0,,0.0-176.0,,1.0,845.3350002000001,1.0,0.744527075,0.0,0.75,1.0,0.334127506,1.0,0.393165805,False,,5c34cece6288ec00016a5363,,2291146,174,,evan-feature22,full_pf_a,,1
148,35606,175,,,,2,2,0.0,1.0,1.0,0.0,,0.0-177.0,,0.0,962.2849999,1.0,0.75,1.0,0.75,0.0,0.33571021799999995,1.0,0.350393962,False,,5c34cece6288ec00016a5363,,2301876,175,,evan-feature22,full_pf_a,,0
149,35607,176,,,,2,2,0.0,0.0,0.0,-1.0,,0.0-178.0,,0.0,1441.24,1.0,0.75,0.0,0.75,0.0,0.313628297,0.0,0.36349657399999996,False,,5c34cece6288ec00016a5363,,2313082,176,,evan-feature22,full_pf_a,,0
150,35608,177,,,,2,2,0.0,1.0,1.0,0.0,,0.0-179.0,,0.0,1396.06,1.0,0.75,0.0,0.734284182,0.0,0.262667667,1.0,0.380199119,False,,5c34cece6288ec00016a5363,,2324249,177,,evan-feature22,full_pf_a,,0
151,35609,178,,,,2,2,1.0,0.0,1.0,0.0,,0.0-180.0,,1.0,729.9699998,1.0,0.75,1.0,0.75,1.0,0.25,0.0,0.394494013,False,,5c34cece6288ec00016a5363,,2334753,178,,evan-feature22,full_pf_a,,0
152,35610,179,,,,1,1,0.0,1.0,1.0,0.0,,0.0-181.0,,0.0,753.3299997,0.0,0.722298145,1.0,0.7357822340000001,0.0,0.25,0.0,0.319142121,False,,5c34cece6288ec00016a5363,,2345275,179,,evan-feature22,full_pf_a,,1
153,35611,180,,,,2,2,1.0,0.0,1.0,0.0,,0.0-182.0,,1.0,871.0700002999998,1.0,0.73149275,0.0,0.724276446,1.0,0.305856907,0.0,0.281315057,False,,5c34cece6288ec00016a5363,,2355914,180,,evan-feature22,full_pf_a,,1
154,35612,181,,,,2,2,0.0,0.0,1.0,0.0,,0.0-183.0,,0.0,1189.55,0.0,0.7458732690000001,1.0,0.7336382459999999,0.0,0.272571964,0.0,0.266021999,False,,5c34cece6288ec00016a5363,,2366871,181,,evan-feature22,full_pf_a,,0
155,35613,182,,,,2,2,0.0,0.0,0.0,-1.0,,0.0-184.0,,0.0,714.375,1.0,0.705579037,1.0,0.720778292,0.0,0.320238144,0.0,0.30971744,False,,5c34cece6288ec00016a5363,,2377354,182,,evan-feature22,full_pf_a,,0
156,35614,183,,,,1,1,1.0,1.0,0.0,-1.0,,0.0-185.0,,-1.0,934.32,1.0,0.700425648,1.0,0.7198784009999999,0.0,0.272590393,0.0,0.304182931,False,,5c34cece6288ec00016a5363,,2388109,183,,evan-feature22,full_pf_a,,1
157,35615,184,,,,2,2,1.0,0.0,0.0,-1.0,,0.0-186.0,,0.0,2024.625,0.0,0.735590785,1.0,0.722714973,1.0,0.25,0.0,0.323421091,False,,5c34cece6288ec00016a5363,,2399905,184,,evan-feature22,full_pf_a,,1
158,35616,185,,,,2,2,0.0,0.0,0.0,-1.0,,0.0-187.0,,0.0,532.2449999,1.0,0.724807662,1.0,0.63146213,0.0,0.36836492600000004,0.0,0.34592153299999995,False,,5c34cece6288ec00016a5363,,2410206,185,,evan-feature22,full_pf_a,,0
159,35617,186,,,,2,2,1.0,1.0,1.0,0.0,,0.0-188.0,,1.0,935.9999998,0.0,0.7352796909999999,1.0,0.555111392,1.0,0.36003922,1.0,0.31433779999999995,False,,5c34cece6288ec00016a5363,,2420911,186,,evan-feature22,full_pf_a,,0
160,35618,187,notice,,,,,,,,,,0.0-189.0,"{""Q0"":""no i thought to start that the right hand one altered after the left hand one had two circles""}",,66153.0,,,,,,,,,False,,5c34cece6288ec00016a5363,,2487068,187,Q,survey-text,full_pf_a,,1
161,35619,188,track1,,[1],,,,,,,,0.0-190.0,"{""Q0"":""no""}",,7714.0,,,,,,,,,False,,5c34cece6288ec00016a5363,,2494798,188,Q,evan-quiz,full_pf_a,,1
162,35620,189,track2,,[0],,,,,,,,0.0-191.0,"{""Q0"":""yes""}",,9492.0,,,,,,,,,False,,5c34cece6288ec00016a5363,,2504301,189,Q,evan-quiz,full_pf_a,,1
163,35621,190,strat,,,,,,,,,,0.0-192.0,"{""Q0"":""I altered in the early blocks but when uable to foind a pattern stuck mainly right as I felt it was luckier""}",,86582.0,,,,,,,,,False,,5c34cece6288ec00016a5363,,2590892,190,Q,survey-text,full_pf_a,,1
