,index,Unnamed: 0,Q_name,button_pressed,choice_idxs,chosen_pos,chosen_state,chosen_state_f_1_outcome,chosen_state_f_2_outcome,f_1_reward,f_2_reward,incor_questions,internal_node_id,responses,reward_received,rt,s_1_f_1_outcome,s_1_f_1_prob,s_1_f_2_outcome,s_1_f_2_prob,s_2_f_1_outcome,s_2_f_1_prob,s_2_f_2_outcome,s_2_f_2_prob,safe_first,stimulus,subjectID,success,time_elapsed,trial_index,trial_num,trial_type,version,view_history,switching
0,39743,35,,,,1,1,1.0,1.0,-1.0,0.0,,0.0-27.0,,-1.0,1492.0,1.0,0.6,1.0,0.6,1.0,0.4,0.0,0.4,False,,5ec679a7d799ae05aa5e4747,,856461,35,,evan-feature22,full_pf_b,,0
1,39744,36,,,,2,2,0.0,0.0,-1.0,0.0,,0.0-28.0,,0.0,849.0,1.0,0.608053294,1.0,0.63424552,0.0,0.397152172,0.0,0.347069101,False,,5ec679a7d799ae05aa5e4747,,867160,36,,evan-feature22,full_pf_b,,1
2,39745,37,,,,2,2,0.0,0.0,-1.0,0.0,,0.0-29.0,,0.0,1402.0,1.0,0.642237155,0.0,0.648566321,0.0,0.389407674,0.0,0.285525717,False,,5ec679a7d799ae05aa5e4747,,878421,37,,evan-feature22,full_pf_b,,0
3,39746,38,,,,2,2,0.0,0.0,-1.0,0.0,,0.0-30.0,,0.0,487.0,0.0,0.661086576,1.0,0.630492543,0.0,0.399058924,0.0,0.25,False,,5ec679a7d799ae05aa5e4747,,888780,38,,evan-feature22,full_pf_b,,0
4,39747,39,,,,2,2,0.0,1.0,0.0,1.0,,0.0-31.0,,1.0,775.0,1.0,0.631324137,1.0,0.6269842929999999,0.0,0.38734784299999997,1.0,0.25,False,,5ec679a7d799ae05aa5e4747,,899430,39,,evan-feature22,full_pf_b,,0
5,39748,40,,,,2,2,0.0,0.0,0.0,1.0,,0.0-32.0,,0.0,2031.0,0.0,0.6381991370000001,1.0,0.68987999,0.0,0.384107265,0.0,0.271332943,False,,5ec679a7d799ae05aa5e4747,,911311,40,,evan-feature22,full_pf_b,,0
6,39749,41,,,,1,1,1.0,1.0,-1.0,0.0,,0.0-33.0,,-1.0,721.0,1.0,0.66034901,1.0,0.742641349,0.0,0.360225629,1.0,0.25,False,,5ec679a7d799ae05aa5e4747,,921910,41,,evan-feature22,full_pf_b,,1
7,39750,42,,,,2,2,1.0,0.0,-1.0,0.0,,0.0-34.0,,-1.0,574.0,0.0,0.638612418,0.0,0.75,1.0,0.367273939,0.0,0.25,False,,5ec679a7d799ae05aa5e4747,,932380,42,,evan-feature22,full_pf_b,,1
8,39751,43,,,,1,1,0.0,1.0,0.0,1.0,,0.0-35.0,,1.0,715.0,0.0,0.624340629,1.0,0.75,1.0,0.425829545,0.0,0.25,False,,5ec679a7d799ae05aa5e4747,,942945,43,,evan-feature22,full_pf_b,,1
9,39752,44,,,,1,1,1.0,1.0,0.0,1.0,,0.0-36.0,,1.0,891.0,1.0,0.621999804,1.0,0.75,0.0,0.368609357,0.0,0.25,False,,5ec679a7d799ae05aa5e4747,,953710,44,,evan-feature22,full_pf_b,,0
10,39753,45,,,,2,2,0.0,0.0,-1.0,0.0,,0.0-37.0,,0.0,2584.0,0.0,0.62666403,1.0,0.75,0.0,0.311151498,0.0,0.25,False,,5ec679a7d799ae05aa5e4747,,966130,45,,evan-feature22,full_pf_b,,1
11,39754,46,,,,1,1,1.0,1.0,0.0,1.0,,0.0-38.0,,1.0,1712.0,1.0,0.6819650009999999,1.0,0.75,0.0,0.310763048,0.0,0.25,False,,5ec679a7d799ae05aa5e4747,,977710,46,,evan-feature22,full_pf_b,,1
12,39755,47,,,,2,2,1.0,0.0,-1.0,0.0,,0.0-39.0,,-1.0,1980.0,1.0,0.740626951,0.0,0.75,1.0,0.25,0.0,0.25,False,,5ec679a7d799ae05aa5e4747,,989572,47,,evan-feature22,full_pf_b,,1
13,39756,48,,,,1,1,1.0,1.0,-1.0,0.0,,0.0-40.0,,-1.0,1729.0,1.0,0.739599242,1.0,0.742034978,0.0,0.25397114600000004,0.0,0.25,False,,5ec679a7d799ae05aa5e4747,,1001159,48,,evan-feature22,full_pf_b,,1
14,39757,49,,,,2,2,0.0,1.0,-1.0,0.0,,0.0-41.0,,0.0,1732.0,1.0,0.732341315,0.0,0.72735643,0.0,0.25,1.0,0.25,False,,5ec679a7d799ae05aa5e4747,,1012760,49,,evan-feature22,full_pf_b,,1
15,39758,50,,,,2,2,0.0,1.0,-1.0,0.0,,0.0-42.0,,0.0,1651.0,1.0,0.7062287770000001,1.0,0.75,0.0,0.29002151,1.0,0.288256649,False,,5ec679a7d799ae05aa5e4747,,1024290,50,,evan-feature22,full_pf_b,,0
16,39759,51,,,,2,2,0.0,1.0,-1.0,0.0,,0.0-43.0,,0.0,560.0,1.0,0.7086029209999999,1.0,0.75,0.0,0.274129113,1.0,0.262851608,False,,5ec679a7d799ae05aa5e4747,,1034701,51,,evan-feature22,full_pf_b,,0
17,39760,52,,,,1,1,1.0,1.0,-1.0,0.0,,0.0-44.0,,-1.0,1029.0,1.0,0.669189651,1.0,0.727614338,0.0,0.298444036,0.0,0.296944518,False,,5ec679a7d799ae05aa5e4747,,1045610,52,,evan-feature22,full_pf_b,,1
18,39761,53,,,,2,2,0.0,0.0,-1.0,0.0,,0.0-45.0,,0.0,874.0,1.0,0.6819912929999999,0.0,0.7179434290000001,0.0,0.265003961,0.0,0.28157921199999997,False,,5ec679a7d799ae05aa5e4747,,1056341,53,,evan-feature22,full_pf_b,,1
19,39762,54,,,,1,1,0.0,0.0,0.0,1.0,,0.0-46.0,,0.0,3036.0,0.0,0.665275002,0.0,0.723065271,0.0,0.260414971,0.0,0.30973870000000003,False,,5ec679a7d799ae05aa5e4747,,1069230,54,,evan-feature22,full_pf_b,,1
20,39763,55,,,,2,2,1.0,0.0,-1.0,0.0,,0.0-47.0,,-1.0,1457.0,1.0,0.6660593260000001,1.0,0.728032907,1.0,0.30922817,0.0,0.338778608,False,,5ec679a7d799ae05aa5e4747,,1080561,55,,evan-feature22,full_pf_b,,1
21,39764,56,,,,2,2,1.0,1.0,-1.0,0.0,,0.0-48.0,,-1.0,2309.0,0.0,0.702068785,0.0,0.6528750879999999,1.0,0.287329608,1.0,0.35789613200000003,False,,5ec679a7d799ae05aa5e4747,,1092740,56,,evan-feature22,full_pf_b,,0
22,39765,57,,,,1,1,1.0,0.0,-1.0,0.0,,0.0-49.0,,-1.0,470.0,1.0,0.651939787,0.0,0.636725589,0.0,0.284834488,1.0,0.358563756,False,,5ec679a7d799ae05aa5e4747,,1103102,57,,evan-feature22,full_pf_b,,1
23,39766,58,,,,1,1,1.0,1.0,0.0,1.0,,0.0-50.0,,1.0,1818.0,1.0,0.67573929,1.0,0.612550049,0.0,0.37130387600000003,1.0,0.383542402,False,,5ec679a7d799ae05aa5e4747,,1114780,58,,evan-feature22,full_pf_b,,0
24,39767,59,,,,2,2,0.0,0.0,0.0,1.0,,0.0-51.0,,0.0,1401.0,1.0,0.620753801,0.0,0.60513644,0.0,0.385529434,0.0,0.340361743,False,,5ec679a7d799ae05aa5e4747,,1126054,59,,evan-feature22,full_pf_b,,1
25,39768,60,,,,2,2,0.0,0.0,0.0,1.0,,0.0-52.0,,0.0,2437.0,1.0,0.673564893,0.0,0.672437924,0.0,0.292955382,0.0,0.337633795,False,,5ec679a7d799ae05aa5e4747,,1138330,60,,evan-feature22,full_pf_b,,0
26,39769,61,,,,1,1,1.0,0.0,-1.0,0.0,,0.0-53.0,,-1.0,1719.0,1.0,0.6749427,0.0,0.724197502,0.0,0.32391132100000003,0.0,0.350995264,False,,5ec679a7d799ae05aa5e4747,,1149911,61,,evan-feature22,full_pf_b,,1
27,39770,62,,,,2,2,0.0,0.0,-1.0,0.0,,0.0-54.0,,0.0,1246.0,1.0,0.6940159379999999,1.0,0.75,0.0,0.31710554399999996,0.0,0.413450341,False,,5ec679a7d799ae05aa5e4747,,1161000,62,,evan-feature22,full_pf_b,,1
28,39771,63,,,,2,2,0.0,0.0,-1.0,0.0,,0.0-55.0,,0.0,722.0,1.0,0.6916018270000001,0.0,0.69001187,0.0,0.261817804,0.0,0.40038635,False,,5ec679a7d799ae05aa5e4747,,1171580,63,,evan-feature22,full_pf_b,,0
29,39772,64,,,,2,2,0.0,1.0,-1.0,0.0,,0.0-56.0,,0.0,622.0,1.0,0.641061544,1.0,0.71337992,0.0,0.277296461,1.0,0.47372791700000005,False,,5ec679a7d799ae05aa5e4747,,1182071,64,,evan-feature22,full_pf_b,,0
30,39773,65,,,,2,2,0.0,1.0,-1.0,0.0,,0.0-57.0,,0.0,683.0,1.0,0.6082438520000001,1.0,0.708471106,0.0,0.28745137,1.0,0.564174476,False,,5ec679a7d799ae05aa5e4747,,1192621,65,,evan-feature22,full_pf_b,,0
31,39774,66,,,,2,2,0.0,1.0,-1.0,0.0,,0.0-58.0,,0.0,1046.0,1.0,0.6051112120000001,0.0,0.7118147229999999,0.0,0.272390611,1.0,0.5595149939999999,False,,5ec679a7d799ae05aa5e4747,,1203539,66,,evan-feature22,full_pf_b,,0
32,39775,67,,,,2,2,0.0,0.0,-1.0,0.0,,0.0-59.0,,0.0,1742.0,0.0,0.582420852,0.0,0.635867583,0.0,0.31089574,0.0,0.5227206520000001,False,,5ec679a7d799ae05aa5e4747,,1215130,67,,evan-feature22,full_pf_b,,0
33,39776,68,,,,1,1,0.0,1.0,0.0,1.0,,0.0-60.0,,1.0,1350.0,0.0,0.623195575,1.0,0.655026044,1.0,0.25,1.0,0.560387538,False,,5ec679a7d799ae05aa5e4747,,1226340,68,,evan-feature22,full_pf_b,,1
34,39777,69,,,,2,2,1.0,1.0,-1.0,0.0,,0.0-61.0,,-1.0,1510.0,0.0,0.601889598,1.0,0.678198724,1.0,0.25,1.0,0.559922936,False,,5ec679a7d799ae05aa5e4747,,1237720,69,,evan-feature22,full_pf_b,,1
35,39778,70,,,,2,2,0.0,0.0,-1.0,0.0,,0.0-62.0,,0.0,1455.0,0.0,0.601259914,0.0,0.704681482,0.0,0.33908969299999997,0.0,0.505003715,False,,5ec679a7d799ae05aa5e4747,,1249050,70,,evan-feature22,full_pf_b,,0
36,39779,71,,,,2,2,1.0,0.0,-1.0,0.0,,0.0-63.0,,-1.0,1926.0,1.0,0.59645454,1.0,0.710437172,1.0,0.327441879,0.0,0.391749613,False,,5ec679a7d799ae05aa5e4747,,1260841,71,,evan-feature22,full_pf_b,,0
37,39780,72,,,,1,1,0.0,1.0,-1.0,0.0,,0.0-64.0,,0.0,1373.0,0.0,0.529473,1.0,0.636758527,0.0,0.301338063,0.0,0.365661481,False,,5ec679a7d799ae05aa5e4747,,1272060,72,,evan-feature22,full_pf_b,,1
38,39781,73,,,,1,1,1.0,1.0,0.0,1.0,,0.0-65.0,,1.0,1286.0,1.0,0.541657162,1.0,0.634541962,0.0,0.343535366,0.0,0.371763742,False,,5ec679a7d799ae05aa5e4747,,1283210,73,,evan-feature22,full_pf_b,,0
39,39782,74,,,,2,2,1.0,1.0,-1.0,0.0,,0.0-66.0,,-1.0,1117.0,0.0,0.5707533260000001,1.0,0.589121171,1.0,0.326428396,1.0,0.43961622899999997,False,,5ec679a7d799ae05aa5e4747,,1294182,74,,evan-feature22,full_pf_b,,1
40,39783,75,,,,1,1,1.0,1.0,-1.0,0.0,,0.0-67.0,,-1.0,1731.0,1.0,0.5707533260000001,1.0,0.589121171,1.0,0.326428396,1.0,0.43961622899999997,False,,5ec679a7d799ae05aa5e4747,,1305762,75,,evan-feature22,full_pf_b,,1
41,39784,76,,,,1,1,0.0,1.0,-1.0,0.0,,0.0-68.0,,0.0,2147.0,0.0,0.506271295,1.0,0.641775594,0.0,0.37149690700000004,0.0,0.404330166,False,,5ec679a7d799ae05aa5e4747,,1317740,76,,evan-feature22,full_pf_b,,0
42,39785,77,,,,1,1,1.0,0.0,0.0,1.0,,0.0-69.0,,0.0,1231.0,1.0,0.455642565,0.0,0.623605825,1.0,0.358753011,0.0,0.346174041,False,,5ec679a7d799ae05aa5e4747,,1328849,77,,evan-feature22,full_pf_b,,0
43,39786,78,,,,1,1,0.0,0.0,0.0,1.0,,0.0-70.0,,0.0,1143.0,0.0,0.483677308,0.0,0.5904681070000001,0.0,0.402218411,1.0,0.35344697,False,,5ec679a7d799ae05aa5e4747,,1339799,78,,evan-feature22,full_pf_b,,0
44,39787,79,,,,2,2,0.0,0.0,0.0,1.0,,0.0-71.0,,0.0,1040.0,0.0,0.394210977,1.0,0.558925494,0.0,0.540052017,0.0,0.35182128700000004,False,,5ec679a7d799ae05aa5e4747,,1350680,79,,evan-feature22,full_pf_b,,1
45,39788,80,,,,2,2,1.0,1.0,-1.0,0.0,,0.0-72.0,,-1.0,2724.0,1.0,0.382300414,0.0,0.577670603,1.0,0.607608448,1.0,0.378261578,False,,5ec679a7d799ae05aa5e4747,,1363250,80,,evan-feature22,full_pf_b,,0
46,39789,81,,,,2,2,1.0,0.0,-1.0,0.0,,0.0-73.0,,-1.0,1164.0,1.0,0.357596762,0.0,0.5929076529999999,1.0,0.6579790010000001,0.0,0.401326777,False,,5ec679a7d799ae05aa5e4747,,1374279,81,,evan-feature22,full_pf_b,,0
47,39790,82,,,,2,2,0.0,0.0,-1.0,0.0,,0.0-74.0,,0.0,2438.0,0.0,0.362033495,1.0,0.582308608,0.0,0.649195052,0.0,0.355158505,False,,5ec679a7d799ae05aa5e4747,,1386590,82,,evan-feature22,full_pf_b,,0
48,39791,83,,,,1,1,0.0,1.0,-1.0,0.0,,0.0-75.0,,0.0,2228.0,0.0,0.369620635,1.0,0.669100864,0.0,0.706059111,0.0,0.362516241,False,,5ec679a7d799ae05aa5e4747,,1398690,83,,evan-feature22,full_pf_b,,1
49,39792,84,,,,1,1,1.0,1.0,-1.0,0.0,,0.0-76.0,,-1.0,2723.0,1.0,0.41477751399999996,1.0,0.7284416779999999,1.0,0.7182656940000001,1.0,0.36228040899999997,False,,5ec679a7d799ae05aa5e4747,,1411270,84,,evan-feature22,full_pf_b,,0
50,39793,85,,,,2,2,1.0,0.0,0.0,1.0,,0.0-77.0,,0.0,1771.0,0.0,0.37675460299999997,1.0,0.703250285,1.0,0.75,0.0,0.461979164,False,,5ec679a7d799ae05aa5e4747,,1422910,85,,evan-feature22,full_pf_b,,1
51,39794,86,,,,2,2,0.0,0.0,0.0,1.0,,0.0-78.0,,0.0,1859.0,1.0,0.398716075,1.0,0.6723864890000001,0.0,0.674153818,0.0,0.519029516,False,,5ec679a7d799ae05aa5e4747,,1434599,86,,evan-feature22,full_pf_b,,0
52,39795,87,,,,2,2,0.0,0.0,-1.0,0.0,,0.0-79.0,,0.0,1536.0,0.0,0.34677856700000004,1.0,0.69057175,0.0,0.6822438540000001,0.0,0.477292237,False,,5ec679a7d799ae05aa5e4747,,1445980,87,,evan-feature22,full_pf_b,,0
53,39796,88,,,,1,1,0.0,1.0,0.0,1.0,,0.0-80.0,,1.0,1007.0,0.0,0.28580469199999997,1.0,0.68408818,0.0,0.684207565,0.0,0.49780448299999996,False,,5ec679a7d799ae05aa5e4747,,1456839,88,,evan-feature22,full_pf_b,,1
54,39798,90,,,,1,1,0.0,1.0,-1.0,0.0,,0.0-82.0,,0.0,2091.0,0.0,0.25,1.0,0.7405808970000001,1.0,0.679614108,0.0,0.436436964,False,,5ec679a7d799ae05aa5e4747,,1477241,90,,evan-feature22,full_pf_b,,0
55,39799,91,,,,1,1,0.0,1.0,0.0,1.0,,0.0-83.0,,1.0,1228.0,0.0,0.29890393,1.0,0.730505706,1.0,0.7328203320000001,1.0,0.439256938,False,,5ec679a7d799ae05aa5e4747,,1488319,91,,evan-feature22,full_pf_b,,0
56,39800,92,,,,1,1,0.0,0.0,-1.0,0.0,,0.0-84.0,,0.0,2420.0,0.0,0.326762398,0.0,0.7148059609999999,1.0,0.75,0.0,0.44389608799999997,False,,5ec679a7d799ae05aa5e4747,,1500590,92,,evan-feature22,full_pf_b,,0
57,39801,93,,,,2,2,0.0,1.0,-1.0,0.0,,0.0-85.0,,0.0,2143.0,0.0,0.295168515,1.0,0.739760854,0.0,0.719947008,1.0,0.35277284600000003,False,,5ec679a7d799ae05aa5e4747,,1512591,93,,evan-feature22,full_pf_b,,1
58,39802,94,,,,1,1,0.0,1.0,-1.0,0.0,,0.0-86.0,,0.0,1064.0,0.0,0.25,1.0,0.70781482,1.0,0.75,0.0,0.286095925,False,,5ec679a7d799ae05aa5e4747,,1523530,94,,evan-feature22,full_pf_b,,1
59,39803,95,,,,1,1,0.0,0.0,0.0,1.0,,0.0-87.0,,0.0,998.0,0.0,0.25638190899999996,0.0,0.704088163,0.0,0.75,0.0,0.26872601399999996,False,,5ec679a7d799ae05aa5e4747,,1534380,95,,evan-feature22,full_pf_b,,0
60,39804,96,,,,1,1,0.0,1.0,0.0,1.0,,0.0-88.0,,1.0,1813.0,0.0,0.271581126,1.0,0.669760107,1.0,0.733896663,0.0,0.273244572,False,,5ec679a7d799ae05aa5e4747,,1546061,96,,evan-feature22,full_pf_b,,0
61,39805,97,,,,1,1,0.0,1.0,0.0,1.0,,0.0-89.0,,1.0,799.0,0.0,0.257144401,1.0,0.600575706,1.0,0.74488122,0.0,0.25,False,,5ec679a7d799ae05aa5e4747,,1556711,97,,evan-feature22,full_pf_b,,0
62,39806,98,,,,1,1,0.0,1.0,-1.0,0.0,,0.0-90.0,,0.0,2096.0,0.0,0.25,1.0,0.616870026,1.0,0.723610234,1.0,0.25,False,,5ec679a7d799ae05aa5e4747,,1568663,98,,evan-feature22,full_pf_b,,0
63,39807,99,,,,1,1,0.0,0.0,0.0,1.0,,0.0-91.0,,0.0,1095.0,0.0,0.25,0.0,0.583540187,1.0,0.7041042559999999,1.0,0.285961995,False,,5ec679a7d799ae05aa5e4747,,1579632,99,,evan-feature22,full_pf_b,,0
64,39808,100,,,,1,1,0.0,1.0,-1.0,0.0,,0.0-92.0,,0.0,1593.0,0.0,0.27254536,1.0,0.53875765,0.0,0.693783448,0.0,0.284961652,False,,5ec679a7d799ae05aa5e4747,,1591109,100,,evan-feature22,full_pf_b,,0
65,39809,101,,,,1,1,0.0,0.0,0.0,1.0,,0.0-93.0,,0.0,1065.0,0.0,0.25,0.0,0.548431252,1.0,0.734221895,1.0,0.279445214,False,,5ec679a7d799ae05aa5e4747,,1602049,101,,evan-feature22,full_pf_b,,0
66,39810,102,,,,2,2,0.0,0.0,-1.0,0.0,,0.0-94.0,,0.0,1809.0,0.0,0.258640684,1.0,0.545878066,0.0,0.725245965,0.0,0.31487537,False,,5ec679a7d799ae05aa5e4747,,1613720,102,,evan-feature22,full_pf_b,,1
67,39811,103,,,,1,1,0.0,0.0,-1.0,0.0,,0.0-95.0,,0.0,2234.0,0.0,0.251103711,0.0,0.5776290629999999,1.0,0.696320133,0.0,0.317831047,False,,5ec679a7d799ae05aa5e4747,,1625812,103,,evan-feature22,full_pf_b,,1
68,39812,104,,,,1,1,0.0,1.0,-1.0,0.0,,0.0-96.0,,0.0,1156.0,0.0,0.276630292,1.0,0.617329858,1.0,0.73838088,0.0,0.261471582,False,,5ec679a7d799ae05aa5e4747,,1636830,104,,evan-feature22,full_pf_b,,0
69,39813,105,,,,1,1,0.0,0.0,0.0,1.0,,0.0-97.0,,0.0,953.0,0.0,0.297716424,0.0,0.618863717,1.0,0.7402358259999999,0.0,0.262600834,False,,5ec679a7d799ae05aa5e4747,,1647629,105,,evan-feature22,full_pf_b,,0
70,39814,106,,,,1,1,0.0,0.0,-1.0,0.0,,0.0-98.0,,0.0,1869.0,0.0,0.290935512,0.0,0.695370945,1.0,0.706570507,0.0,0.280030553,False,,5ec679a7d799ae05aa5e4747,,1659343,106,,evan-feature22,full_pf_b,,0
71,39815,107,,,,1,1,0.0,1.0,-1.0,0.0,,0.0-99.0,,0.0,1760.0,0.0,0.25,1.0,0.6465277079999999,0.0,0.67766682,1.0,0.25,False,,5ec679a7d799ae05aa5e4747,,1670960,107,,evan-feature22,full_pf_b,,0
72,39816,108,,,,1,1,1.0,0.0,-1.0,0.0,,0.0-100.0,,-1.0,716.0,1.0,0.26463816,0.0,0.636100213,1.0,0.646048507,0.0,0.265607101,False,,5ec679a7d799ae05aa5e4747,,1681542,108,,evan-feature22,full_pf_b,,0
73,39817,109,,,,1,1,0.0,1.0,-1.0,0.0,,0.0-101.0,,0.0,950.0,0.0,0.314340707,1.0,0.667795927,0.0,0.613630805,1.0,0.25,False,,5ec679a7d799ae05aa5e4747,,1692371,109,,evan-feature22,full_pf_b,,0
74,39818,110,,,,1,1,0.0,0.0,-1.0,0.0,,0.0-102.0,,0.0,889.0,0.0,0.28685784,0.0,0.6622549529999999,0.0,0.652154117,0.0,0.25,False,,5ec679a7d799ae05aa5e4747,,1703124,110,,evan-feature22,full_pf_b,,0
75,39819,111,,,,2,2,1.0,1.0,0.0,1.0,,0.0-103.0,,1.0,1440.0,0.0,0.304106554,0.0,0.631289538,1.0,0.707041942,1.0,0.29314237,False,,5ec679a7d799ae05aa5e4747,,1714419,111,,evan-feature22,full_pf_b,,1
76,39820,112,,,,2,2,1.0,0.0,0.0,1.0,,0.0-104.0,,0.0,1594.0,0.0,0.304806932,0.0,0.571167718,1.0,0.680472346,0.0,0.25,False,,5ec679a7d799ae05aa5e4747,,1725901,112,,evan-feature22,full_pf_b,,0
77,39821,113,,,,1,1,1.0,1.0,0.0,1.0,,0.0-105.0,,1.0,1041.0,1.0,0.37919861,1.0,0.5724849710000001,0.0,0.705638003,0.0,0.30179300600000003,False,,5ec679a7d799ae05aa5e4747,,1736760,113,,evan-feature22,full_pf_b,,1
78,39822,114,,,,1,1,0.0,0.0,0.0,1.0,,0.0-106.0,,0.0,1004.0,0.0,0.464277969,0.0,0.554034373,1.0,0.7372627340000001,0.0,0.264699741,False,,5ec679a7d799ae05aa5e4747,,1747590,114,,evan-feature22,full_pf_b,,0
79,39823,115,,,,1,1,1.0,0.0,-1.0,0.0,,0.0-107.0,,-1.0,1710.0,1.0,0.465104323,0.0,0.530793115,1.0,0.75,1.0,0.31683071,False,,5ec679a7d799ae05aa5e4747,,1759182,115,,evan-feature22,full_pf_b,,0
80,39824,116,,,,1,1,0.0,0.0,0.0,1.0,,0.0-108.0,,0.0,630.0,0.0,0.465104323,0.0,0.530793115,1.0,0.75,0.0,0.31683071,False,,5ec679a7d799ae05aa5e4747,,1769661,116,,evan-feature22,full_pf_b,,0
81,39825,117,,,,1,1,1.0,1.0,0.0,1.0,,0.0-109.0,,1.0,620.0,1.0,0.46833986,1.0,0.570249239,1.0,0.7244472590000001,0.0,0.364114163,False,,5ec679a7d799ae05aa5e4747,,1780151,117,,evan-feature22,full_pf_b,,0
82,39826,118,,,,1,1,0.0,1.0,0.0,1.0,,0.0-110.0,,1.0,927.0,0.0,0.445444024,1.0,0.649673355,0.0,0.6845441290000001,1.0,0.300660449,False,,5ec679a7d799ae05aa5e4747,,1790950,118,,evan-feature22,full_pf_b,,0
83,39827,119,,,,1,1,1.0,1.0,0.0,1.0,,0.0-111.0,,1.0,1449.0,1.0,0.39909721299999995,1.0,0.6715179509999999,1.0,0.742310028,1.0,0.35496088299999995,False,,5ec679a7d799ae05aa5e4747,,1802239,119,,evan-feature22,full_pf_b,,0
84,39828,120,,,,1,1,0.0,1.0,0.0,1.0,,0.0-112.0,,1.0,1583.0,0.0,0.37956104799999996,1.0,0.694725302,1.0,0.7181651309999999,1.0,0.38726906299999997,False,,5ec679a7d799ae05aa5e4747,,1813680,120,,evan-feature22,full_pf_b,,0
85,39829,121,,,,1,1,1.0,1.0,0.0,1.0,,0.0-113.0,,1.0,768.0,1.0,0.404995034,1.0,0.724375412,0.0,0.6910946859999999,0.0,0.387187347,False,,5ec679a7d799ae05aa5e4747,,1824300,121,,evan-feature22,full_pf_b,,0
86,39830,122,,,,1,1,1.0,1.0,0.0,1.0,,0.0-114.0,,1.0,961.0,1.0,0.461740803,1.0,0.75,1.0,0.75,0.0,0.34872038200000005,False,,5ec679a7d799ae05aa5e4747,,1835120,122,,evan-feature22,full_pf_b,,0
87,39831,123,,,,2,2,1.0,1.0,-1.0,0.0,,0.0-115.0,,-1.0,2510.0,0.0,0.43821380600000004,0.0,0.738833273,1.0,0.728286963,1.0,0.399538128,False,,5ec679a7d799ae05aa5e4747,,1847479,123,,evan-feature22,full_pf_b,,1
88,39832,124,,,,1,1,0.0,1.0,0.0,1.0,,0.0-116.0,,1.0,970.0,0.0,0.41709882,1.0,0.736666736,0.0,0.75,0.0,0.389095584,False,,5ec679a7d799ae05aa5e4747,,1858330,124,,evan-feature22,full_pf_b,,1
89,39833,125,,,,1,1,0.0,1.0,0.0,1.0,,0.0-117.0,,1.0,1044.0,0.0,0.39749009799999996,1.0,0.744320029,0.0,0.75,1.0,0.363848678,False,,5ec679a7d799ae05aa5e4747,,1869229,125,,evan-feature22,full_pf_b,,0
90,39834,126,,,,1,1,0.0,1.0,-1.0,0.0,,0.0-118.0,,0.0,2298.0,0.0,0.392653706,1.0,0.75,1.0,0.75,1.0,0.384386976,False,,5ec679a7d799ae05aa5e4747,,1881410,126,,evan-feature22,full_pf_b,,0
91,39835,127,,,,1,1,1.0,1.0,-1.0,0.0,,0.0-119.0,,-1.0,1344.0,1.0,0.31190902600000003,1.0,0.75,1.0,0.732413819,0.0,0.413082932,False,,5ec679a7d799ae05aa5e4747,,1892609,127,,evan-feature22,full_pf_b,,0
92,39836,128,,,,1,1,0.0,1.0,0.0,1.0,,0.0-120.0,,1.0,1027.0,0.0,0.366917648,1.0,0.740073855,1.0,0.75,0.0,0.352861979,False,,5ec679a7d799ae05aa5e4747,,1903500,128,,evan-feature22,full_pf_b,,0
93,39837,129,,,,1,1,0.0,1.0,0.0,1.0,,0.0-121.0,,1.0,853.0,0.0,0.3645172,1.0,0.721770713,1.0,0.75,1.0,0.404074511,False,,5ec679a7d799ae05aa5e4747,,1914192,129,,evan-feature22,full_pf_b,,0
94,39838,130,,,,1,1,0.0,0.0,0.0,1.0,,0.0-122.0,,0.0,771.0,0.0,0.35205600299999995,0.0,0.68983859,1.0,0.739735447,0.0,0.366895945,False,,5ec679a7d799ae05aa5e4747,,1924802,130,,evan-feature22,full_pf_b,,0
95,39839,131,,,,1,1,1.0,1.0,0.0,1.0,,0.0-123.0,,1.0,1116.0,1.0,0.40998722600000004,1.0,0.720859127,1.0,0.673854955,0.0,0.368528541,False,,5ec679a7d799ae05aa5e4747,,1935779,131,,evan-feature22,full_pf_b,,0
96,39840,132,,,,1,1,0.0,1.0,-1.0,0.0,,0.0-124.0,,0.0,1239.0,0.0,0.353625316,1.0,0.75,0.0,0.695605473,0.0,0.38303674200000004,False,,5ec679a7d799ae05aa5e4747,,1946889,132,,evan-feature22,full_pf_b,,0
97,39841,133,,,,1,1,0.0,1.0,0.0,1.0,,0.0-125.0,,1.0,812.0,0.0,0.359216989,1.0,0.75,1.0,0.6987915090000001,0.0,0.35169046200000004,False,,5ec679a7d799ae05aa5e4747,,1957570,133,,evan-feature22,full_pf_b,,0
98,39842,134,,,,1,1,0.0,1.0,-1.0,0.0,,0.0-126.0,,0.0,471.0,0.0,0.35834496899999996,1.0,0.75,1.0,0.707067742,0.0,0.416763636,False,,5ec679a7d799ae05aa5e4747,,1967920,134,,evan-feature22,full_pf_b,,0
99,39843,135,,,,1,1,0.0,1.0,-1.0,0.0,,0.0-127.0,,0.0,1537.0,0.0,0.38741613799999997,1.0,0.7177369570000001,0.0,0.734902455,0.0,0.49438664299999996,False,,5ec679a7d799ae05aa5e4747,,1979320,135,,evan-feature22,full_pf_b,,0
100,39844,136,,,,1,1,1.0,1.0,0.0,1.0,,0.0-128.0,,1.0,568.0,1.0,0.405255252,1.0,0.7300466640000001,1.0,0.7027748070000001,1.0,0.504359668,False,,5ec679a7d799ae05aa5e4747,,1989760,136,,evan-feature22,full_pf_b,,0
101,39845,137,,,,1,1,1.0,1.0,0.0,1.0,,0.0-129.0,,1.0,904.0,1.0,0.40697073,1.0,0.7260142190000001,1.0,0.724461982,1.0,0.522779179,False,,5ec679a7d799ae05aa5e4747,,2000529,137,,evan-feature22,full_pf_b,,0
102,39846,138,,,,1,1,0.0,1.0,0.0,1.0,,0.0-130.0,,1.0,777.0,0.0,0.43906215299999996,1.0,0.7252802340000001,0.0,0.719079934,0.0,0.5712990579999999,False,,5ec679a7d799ae05aa5e4747,,2011189,138,,evan-feature22,full_pf_b,,0
103,39847,139,,,,1,1,1.0,1.0,0.0,1.0,,0.0-131.0,,1.0,960.0,1.0,0.4076705,1.0,0.73280499,1.0,0.681313127,1.0,0.523891346,False,,5ec679a7d799ae05aa5e4747,,2022030,139,,evan-feature22,full_pf_b,,0
104,39848,140,,,,1,1,0.0,1.0,0.0,1.0,,0.0-132.0,,1.0,320.0,0.0,0.399102911,1.0,0.730498344,0.0,0.661080239,0.0,0.46742603,False,,5ec679a7d799ae05aa5e4747,,2032201,140,,evan-feature22,full_pf_b,,0
105,39849,141,,,,2,2,1.0,0.0,-1.0,0.0,,0.0-133.0,,-1.0,2581.0,0.0,0.356477282,1.0,0.712296395,1.0,0.641812684,0.0,0.44868414,False,,5ec679a7d799ae05aa5e4747,,2044660,141,,evan-feature22,full_pf_b,,1
106,39850,142,,,,1,1,0.0,1.0,0.0,1.0,,0.0-134.0,,1.0,753.0,0.0,0.462760722,1.0,0.692349322,1.0,0.700947931,0.0,0.394680266,False,,5ec679a7d799ae05aa5e4747,,2055281,142,,evan-feature22,full_pf_b,,1
107,39851,143,,,,1,1,0.0,0.0,0.0,1.0,,0.0-135.0,,0.0,1033.0,0.0,0.422306413,0.0,0.718375916,1.0,0.706340917,0.0,0.367787185,False,,5ec679a7d799ae05aa5e4747,,2066150,143,,evan-feature22,full_pf_b,,0
108,39853,145,,,,1,1,0.0,1.0,0.0,1.0,,0.0-137.0,,1.0,860.0,0.0,0.4582233,1.0,0.643834117,1.0,0.75,0.0,0.39615823299999997,False,,5ec679a7d799ae05aa5e4747,,2084400,145,,evan-feature22,full_pf_b,,0
109,39854,146,,,,1,1,0.0,1.0,0.0,1.0,,0.0-138.0,,1.0,450.0,0.0,0.43813437899999996,1.0,0.651283804,1.0,0.729674191,1.0,0.37711048,False,,5ec679a7d799ae05aa5e4747,,2094711,146,,evan-feature22,full_pf_b,,0
110,39855,147,,,,1,1,0.0,1.0,0.0,1.0,,0.0-139.0,,1.0,237.0,0.0,0.471199094,1.0,0.6470010979999999,0.0,0.715008097,0.0,0.410656191,False,,5ec679a7d799ae05aa5e4747,,2104809,147,,evan-feature22,full_pf_b,,0
111,39856,148,,,,1,1,0.0,0.0,-1.0,0.0,,0.0-140.0,,0.0,397.0,0.0,0.42486406,0.0,0.629771829,1.0,0.6550939960000001,1.0,0.459093873,False,,5ec679a7d799ae05aa5e4747,,2115060,148,,evan-feature22,full_pf_b,,0
112,39857,149,,,,1,1,0.0,0.0,-1.0,0.0,,0.0-141.0,,0.0,728.0,0.0,0.4803197,0.0,0.645842715,1.0,0.6421749920000001,1.0,0.443092151,False,,5ec679a7d799ae05aa5e4747,,2125680,149,,evan-feature22,full_pf_b,,0
113,39858,150,,,,1,1,1.0,1.0,-1.0,0.0,,0.0-142.0,,-1.0,729.0,1.0,0.521848997,1.0,0.735801074,1.0,0.6691348460000001,1.0,0.45259351600000003,False,,5ec679a7d799ae05aa5e4747,,2136279,150,,evan-feature22,full_pf_b,,0
114,39859,151,,,,1,1,1.0,0.0,0.0,1.0,,0.0-143.0,,0.0,660.0,1.0,0.49565621299999996,0.0,0.742400847,1.0,0.661512553,0.0,0.483110831,False,,5ec679a7d799ae05aa5e4747,,2146799,151,,evan-feature22,full_pf_b,,0
115,39860,152,,,,1,1,1.0,1.0,-1.0,0.0,,0.0-144.0,,-1.0,550.0,1.0,0.521564361,1.0,0.731078632,0.0,0.6774886809999999,0.0,0.483263956,False,,5ec679a7d799ae05aa5e4747,,2157210,152,,evan-feature22,full_pf_b,,0
116,39861,153,,,,1,1,1.0,0.0,-1.0,0.0,,0.0-145.0,,-1.0,1509.0,1.0,0.558893102,0.0,0.719810023,1.0,0.67461031,1.0,0.499349834,False,,5ec679a7d799ae05aa5e4747,,2168610,153,,evan-feature22,full_pf_b,,0
117,39862,154,,,,2,2,0.0,0.0,0.0,1.0,,0.0-146.0,,0.0,950.0,1.0,0.611031046,0.0,0.75,0.0,0.688072995,0.0,0.5321422729999999,False,,5ec679a7d799ae05aa5e4747,,2179429,154,,evan-feature22,full_pf_b,,1
118,39863,155,,,,2,2,0.0,0.0,-1.0,0.0,,0.0-147.0,,0.0,1262.0,0.0,0.633223941,1.0,0.713567728,0.0,0.75,0.0,0.48185314700000004,False,,5ec679a7d799ae05aa5e4747,,2190548,155,,evan-feature22,full_pf_b,,0
119,39864,156,,,,1,1,1.0,1.0,-1.0,0.0,,0.0-148.0,,-1.0,1342.0,1.0,0.664001694,1.0,0.705509768,1.0,0.75,0.0,0.500211065,False,,5ec679a7d799ae05aa5e4747,,2201740,156,,evan-feature22,full_pf_b,,1
120,39865,157,,,,1,1,1.0,0.0,0.0,1.0,,0.0-149.0,,0.0,888.0,1.0,0.664001694,0.0,0.705509768,1.0,0.75,0.0,0.500211065,False,,5ec679a7d799ae05aa5e4747,,2212451,157,,evan-feature22,full_pf_b,,0
121,39866,158,,,,1,1,1.0,1.0,0.0,1.0,,0.0-150.0,,1.0,901.0,1.0,0.696508041,1.0,0.71066027,0.0,0.717028709,1.0,0.49792991,False,,5ec679a7d799ae05aa5e4747,,2223220,158,,evan-feature22,full_pf_b,,0
122,39867,159,,,,2,2,0.0,1.0,-1.0,0.0,,0.0-151.0,,0.0,1416.0,0.0,0.699883272,1.0,0.75,0.0,0.713543895,1.0,0.496962643,False,,5ec679a7d799ae05aa5e4747,,2234499,159,,evan-feature22,full_pf_b,,1
123,39868,160,,,,1,1,1.0,1.0,0.0,1.0,,0.0-152.0,,1.0,1947.0,1.0,0.741163419,1.0,0.75,0.0,0.64691024,0.0,0.513858197,False,,5ec679a7d799ae05aa5e4747,,2246319,160,,evan-feature22,full_pf_b,,1
124,39869,161,,,,2,2,0.0,0.0,-1.0,0.0,,0.0-153.0,,0.0,1293.0,1.0,0.75,1.0,0.70816558,0.0,0.594499079,0.0,0.48502124,False,,5ec679a7d799ae05aa5e4747,,2257459,161,,evan-feature22,full_pf_b,,1
125,39870,162,,,,1,1,1.0,0.0,0.0,1.0,,0.0-154.0,,0.0,1643.0,1.0,0.75,0.0,0.721848901,1.0,0.62197249,0.0,0.48263586399999997,False,,5ec679a7d799ae05aa5e4747,,2268950,162,,evan-feature22,full_pf_b,,1
126,39871,163,,,,2,2,1.0,0.0,-1.0,0.0,,0.0-155.0,,-1.0,1091.0,1.0,0.75,0.0,0.74813071,1.0,0.584357161,0.0,0.411477782,False,,5ec679a7d799ae05aa5e4747,,2279920,163,,evan-feature22,full_pf_b,,1
127,39872,164,,,,1,1,1.0,1.0,0.0,1.0,,0.0-156.0,,1.0,709.0,1.0,0.75,1.0,0.75,1.0,0.52287236,0.0,0.488290656,False,,5ec679a7d799ae05aa5e4747,,2290491,164,,evan-feature22,full_pf_b,,1
128,39873,165,,,,1,1,0.0,0.0,0.0,1.0,,0.0-157.0,,0.0,684.0,0.0,0.75,0.0,0.75,1.0,0.544321581,0.0,0.53143059,False,,5ec679a7d799ae05aa5e4747,,2301029,165,,evan-feature22,full_pf_b,,0
129,39874,166,,,,1,1,1.0,0.0,0.0,1.0,,0.0-158.0,,0.0,692.0,1.0,0.726754564,0.0,0.75,1.0,0.5129306370000001,1.0,0.530592445,False,,5ec679a7d799ae05aa5e4747,,2311579,166,,evan-feature22,full_pf_b,,0
130,39875,167,,,,2,2,1.0,0.0,-1.0,0.0,,0.0-159.0,,-1.0,1599.0,1.0,0.75,1.0,0.7392590729999999,1.0,0.479875835,0.0,0.547007051,False,,5ec679a7d799ae05aa5e4747,,2323050,167,,evan-feature22,full_pf_b,,1
131,39876,168,,,,1,1,1.0,1.0,-1.0,0.0,,0.0-160.0,,-1.0,1542.0,1.0,0.75,1.0,0.7393376979999999,1.0,0.546045419,0.0,0.541267353,False,,5ec679a7d799ae05aa5e4747,,2334440,168,,evan-feature22,full_pf_b,,1
132,39877,169,,,,1,1,1.0,1.0,-1.0,0.0,,0.0-161.0,,-1.0,1086.0,1.0,0.75,1.0,0.75,1.0,0.485725895,1.0,0.527625395,False,,5ec679a7d799ae05aa5e4747,,2345379,169,,evan-feature22,full_pf_b,,0
133,39878,170,,,,1,1,1.0,0.0,0.0,1.0,,0.0-162.0,,0.0,385.0,1.0,0.75,0.0,0.725087974,1.0,0.488603595,1.0,0.504019206,False,,5ec679a7d799ae05aa5e4747,,2355639,170,,evan-feature22,full_pf_b,,0
134,39879,171,,,,1,1,1.0,1.0,0.0,1.0,,0.0-163.0,,1.0,2499.0,1.0,0.745504295,1.0,0.75,0.0,0.452379914,0.0,0.50131194,False,,5ec679a7d799ae05aa5e4747,,2368020,171,,evan-feature22,full_pf_b,,0
135,39880,172,,,,1,1,0.0,1.0,0.0,1.0,,0.0-164.0,,1.0,652.0,0.0,0.728513874,1.0,0.75,1.0,0.44125567200000004,0.0,0.531454591,False,,5ec679a7d799ae05aa5e4747,,2378540,172,,evan-feature22,full_pf_b,,0
136,39881,173,,,,1,1,1.0,0.0,-1.0,0.0,,0.0-165.0,,-1.0,495.0,1.0,0.73790804,0.0,0.75,1.0,0.413036656,1.0,0.524619035,False,,5ec679a7d799ae05aa5e4747,,2388879,173,,evan-feature22,full_pf_b,,0
137,39882,174,,,,1,1,1.0,1.0,0.0,1.0,,0.0-166.0,,1.0,1238.0,1.0,0.7080961309999999,1.0,0.708666865,1.0,0.431915581,0.0,0.481819489,False,,5ec679a7d799ae05aa5e4747,,2399990,174,,evan-feature22,full_pf_b,,0
138,39883,175,,,,1,1,0.0,0.0,0.0,1.0,,0.0-167.0,,0.0,1076.0,0.0,0.721378003,0.0,0.71605913,0.0,0.36642387,1.0,0.5036739929999999,False,,5ec679a7d799ae05aa5e4747,,2410929,175,,evan-feature22,full_pf_b,,0
139,39884,176,,,,1,1,0.0,1.0,0.0,1.0,,0.0-168.0,,1.0,1217.0,0.0,0.7340618959999999,1.0,0.699323252,0.0,0.35298046299999997,1.0,0.511241692,False,,5ec679a7d799ae05aa5e4747,,2421990,176,,evan-feature22,full_pf_b,,0
140,39885,177,,,,1,1,1.0,1.0,-1.0,0.0,,0.0-169.0,,-1.0,398.0,1.0,0.75,1.0,0.70412698,1.0,0.380734814,0.0,0.529580116,False,,5ec679a7d799ae05aa5e4747,,2432250,177,,evan-feature22,full_pf_b,,0
141,39886,178,,,,1,1,0.0,1.0,0.0,1.0,,0.0-170.0,,1.0,1046.0,0.0,0.7436654909999999,1.0,0.711182751,0.0,0.41125331,0.0,0.49554405,False,,5ec679a7d799ae05aa5e4747,,2443149,178,,evan-feature22,full_pf_b,,0
142,39887,179,,,,1,1,1.0,1.0,0.0,1.0,,0.0-171.0,,1.0,556.0,1.0,0.731607915,1.0,0.651774583,1.0,0.35688023,1.0,0.45194491600000003,False,,5ec679a7d799ae05aa5e4747,,2453590,179,,evan-feature22,full_pf_b,,0
143,39888,180,,,,1,1,1.0,0.0,-1.0,0.0,,0.0-172.0,,-1.0,392.0,1.0,0.75,0.0,0.75,1.0,0.283145374,0.0,0.528608005,False,,5ec679a7d799ae05aa5e4747,,2463860,180,,evan-feature22,full_pf_b,,0
144,39889,181,,,,1,1,0.0,1.0,-1.0,0.0,,0.0-173.0,,0.0,708.0,0.0,0.7491416890000001,1.0,0.7423785959999999,1.0,0.29135870399999997,1.0,0.498888318,False,,5ec679a7d799ae05aa5e4747,,2474419,181,,evan-feature22,full_pf_b,,0
145,39890,182,,,,1,1,1.0,1.0,-1.0,0.0,,0.0-174.0,,-1.0,1027.0,1.0,0.708569387,1.0,0.717682277,0.0,0.294421699,0.0,0.493838163,False,,5ec679a7d799ae05aa5e4747,,2485300,182,,evan-feature22,full_pf_b,,0
146,39891,183,,,,1,1,1.0,1.0,0.0,1.0,,0.0-175.0,,1.0,868.0,1.0,0.75,1.0,0.7383382159999999,0.0,0.356098707,1.0,0.442533405,False,,5ec679a7d799ae05aa5e4747,,2496019,183,,evan-feature22,full_pf_b,,0
147,39892,184,,,,1,1,0.0,1.0,0.0,1.0,,0.0-176.0,,1.0,1119.0,0.0,0.744527075,1.0,0.75,0.0,0.334127506,0.0,0.393165805,False,,5ec679a7d799ae05aa5e4747,,2506989,184,,evan-feature22,full_pf_b,,0
148,39893,185,,,,2,2,0.0,0.0,0.0,1.0,,0.0-177.0,,0.0,1341.0,1.0,0.75,0.0,0.75,0.0,0.33571021799999995,0.0,0.350393962,False,,5ec679a7d799ae05aa5e4747,,2518192,185,,evan-feature22,full_pf_b,,1
149,39894,186,,,,1,1,1.0,0.0,0.0,1.0,,0.0-178.0,,0.0,1163.0,1.0,0.75,0.0,0.75,0.0,0.313628297,0.0,0.36349657399999996,False,,5ec679a7d799ae05aa5e4747,,2529169,186,,evan-feature22,full_pf_b,,1
150,39895,187,,,,2,2,0.0,0.0,-1.0,0.0,,0.0-179.0,,0.0,621.0,1.0,0.75,1.0,0.734284182,0.0,0.262667667,0.0,0.380199119,False,,5ec679a7d799ae05aa5e4747,,2539650,187,,evan-feature22,full_pf_b,,1
151,39896,188,,,,1,1,1.0,0.0,0.0,1.0,,0.0-180.0,,0.0,976.0,1.0,0.75,0.0,0.75,0.0,0.25,0.0,0.394494013,False,,5ec679a7d799ae05aa5e4747,,2550469,188,,evan-feature22,full_pf_b,,1
152,39897,189,,,,1,1,0.0,1.0,-1.0,0.0,,0.0-181.0,,0.0,360.0,0.0,0.722298145,1.0,0.7357822340000001,1.0,0.25,0.0,0.319142121,False,,5ec679a7d799ae05aa5e4747,,2560680,189,,evan-feature22,full_pf_b,,0
153,39898,190,,,,2,2,0.0,0.0,-1.0,0.0,,0.0-182.0,,0.0,1932.0,0.0,0.73149275,1.0,0.724276446,0.0,0.305856907,0.0,0.281315057,False,,5ec679a7d799ae05aa5e4747,,2572449,190,,evan-feature22,full_pf_b,,1
154,39899,191,,,,1,1,1.0,1.0,0.0,1.0,,0.0-183.0,,1.0,622.0,1.0,0.7458732690000001,1.0,0.7336382459999999,0.0,0.272571964,0.0,0.266021999,False,,5ec679a7d799ae05aa5e4747,,2582929,191,,evan-feature22,full_pf_b,,1
155,39900,192,,,,1,1,1.0,0.0,0.0,1.0,,0.0-184.0,,0.0,581.0,1.0,0.705579037,0.0,0.720778292,1.0,0.320238144,0.0,0.30971744,False,,5ec679a7d799ae05aa5e4747,,2593370,192,,evan-feature22,full_pf_b,,0
156,39901,193,,,,1,1,1.0,0.0,0.0,1.0,,0.0-185.0,,0.0,524.0,1.0,0.700425648,0.0,0.7198784009999999,0.0,0.272590393,0.0,0.304182931,False,,5ec679a7d799ae05aa5e4747,,2603750,193,,evan-feature22,full_pf_b,,0
157,39902,194,,,,1,1,1.0,0.0,0.0,1.0,,0.0-186.0,,0.0,848.0,1.0,0.735590785,0.0,0.722714973,1.0,0.25,0.0,0.323421091,False,,5ec679a7d799ae05aa5e4747,,2614449,194,,evan-feature22,full_pf_b,,0
158,39903,195,,,,1,1,1.0,1.0,0.0,1.0,,0.0-187.0,,1.0,687.0,1.0,0.724807662,1.0,0.63146213,0.0,0.36836492600000004,1.0,0.34592153299999995,False,,5ec679a7d799ae05aa5e4747,,2624989,195,,evan-feature22,full_pf_b,,0
159,39904,196,,,,1,1,0.0,1.0,0.0,1.0,,0.0-188.0,,1.0,829.0,0.0,0.7352796909999999,1.0,0.555111392,1.0,0.36003922,0.0,0.31433779999999995,False,,5ec679a7d799ae05aa5e4747,,2635700,196,,evan-feature22,full_pf_b,,0
160,39905,197,notice,,,,,,,,,,0.0-189.0,"{""Q0"":""""}",,6332.0,,,,,,,,,False,,5ec679a7d799ae05aa5e4747,,2642035,197,Q,survey-text,full_pf_b,,1
161,39906,198,track1,,[0],,,,,,,,0.0-190.0,"{""Q0"":""yes""}",,3989.0,,,,,,,,,False,,5ec679a7d799ae05aa5e4747,,2646034,198,Q,evan-quiz,full_pf_b,,1
162,39907,199,track2,,[2],,,,,,,,0.0-191.0,"{""Q0"":""N/A""}",,6283.0,,,,,,,,,False,,5ec679a7d799ae05aa5e4747,,2652325,199,Q,evan-quiz,full_pf_b,,1
163,39908,200,strat,,,,,,,,,,0.0-192.0,"{""Q0"":""usually black aliens were on right. Stay with that consistently.""}",,28917.0,,,,,,,,,False,,5ec679a7d799ae05aa5e4747,,2681252,200,Q,survey-text,full_pf_b,,1
