,index,Unnamed: 0,Q_name,button_pressed,choice_idxs,chosen_pos,chosen_state,chosen_state_f_1_outcome,chosen_state_f_2_outcome,f_1_reward,f_2_reward,incor_questions,internal_node_id,responses,reward_received,rt,s_1_f_1_outcome,s_1_f_1_prob,s_1_f_2_outcome,s_1_f_2_prob,s_2_f_1_outcome,s_2_f_1_prob,s_2_f_2_outcome,s_2_f_2_prob,safe_first,stimulus,subjectID,success,time_elapsed,trial_index,trial_num,trial_type,version,view_history,switching
0,5320,25,,,,1,1,1.0,1.0,0.0,1.0,,0.0-27.0,,1.0,2446.1,1.0,0.6,1.0,0.6,0.0,0.4,0.0,0.4,True,,5f84562b69c963086047a106,,704946,25,,evan-feature22,full_rf_b,,0
1,5321,26,,,,1,1,0.0,0.0,0.0,1.0,,0.0-28.0,,0.0,3061.23,0.0,0.608053294,0.0,0.63424552,0.0,0.397152172,0.0,0.347069101,True,,5f84562b69c963086047a106,,717777,26,,evan-feature22,full_rf_b,,0
2,5322,27,,,,1,1,1.0,1.0,0.0,1.0,,0.0-29.0,,1.0,1197.91,1.0,0.642237155,1.0,0.648566321,0.0,0.389407674,0.0,0.285525717,True,,5f84562b69c963086047a106,,728736,27,,evan-feature22,full_rf_b,,0
3,5323,28,,,,1,1,0.0,0.0,0.0,1.0,,0.0-30.0,,0.0,1616.73,0.0,0.661086576,0.0,0.630492543,0.0,0.399058924,0.0,0.25,True,,5f84562b69c963086047a106,,740110,28,,evan-feature22,full_rf_b,,0
4,5324,29,,,,1,1,1.0,1.0,0.0,1.0,,0.0-31.0,,1.0,881.47,1.0,0.631324137,1.0,0.6269842929999999,0.0,0.38734784299999997,0.0,0.25,True,,5f84562b69c963086047a106,,750751,29,,evan-feature22,full_rf_b,,0
5,5325,30,,,,2,2,0.0,0.0,0.0,1.0,,0.0-32.0,,0.0,809.175,1.0,0.6381991370000001,1.0,0.68987999,0.0,0.384107265,0.0,0.271332943,True,,5f84562b69c963086047a106,,761320,30,,evan-feature22,full_rf_b,,1
6,5326,31,,,,2,2,0.0,0.0,0.0,1.0,,0.0-33.0,,0.0,551.925,0.0,0.66034901,0.0,0.742641349,0.0,0.360225629,0.0,0.25,True,,5f84562b69c963086047a106,,771630,31,,evan-feature22,full_rf_b,,0
7,5327,32,,,,2,2,1.0,0.0,-1.0,0.0,,0.0-34.0,,-1.0,697.625,1.0,0.638612418,1.0,0.75,1.0,0.367273939,0.0,0.25,True,,5f84562b69c963086047a106,,782089,32,,evan-feature22,full_rf_b,,0
8,5328,33,,,,2,2,1.0,0.0,0.0,1.0,,0.0-35.0,,0.0,1111.615,1.0,0.624340629,1.0,0.75,1.0,0.425829545,0.0,0.25,True,,5f84562b69c963086047a106,,792958,33,,evan-feature22,full_rf_b,,0
9,5329,34,,,,1,1,1.0,1.0,0.0,1.0,,0.0-36.0,,1.0,753.145,1.0,0.621999804,1.0,0.75,1.0,0.368609357,1.0,0.25,True,,5f84562b69c963086047a106,,803469,34,,evan-feature22,full_rf_b,,1
10,5330,35,,,,1,1,1.0,1.0,-1.0,0.0,,0.0-37.0,,-1.0,729.66,1.0,0.62666403,1.0,0.75,0.0,0.311151498,0.0,0.25,True,,5f84562b69c963086047a106,,813960,35,,evan-feature22,full_rf_b,,0
11,5331,36,,,,2,2,1.0,0.0,-1.0,0.0,,0.0-38.0,,-1.0,726.245,0.0,0.6819650009999999,1.0,0.75,1.0,0.310763048,0.0,0.25,True,,5f84562b69c963086047a106,,824448,36,,evan-feature22,full_rf_b,,1
12,5332,37,,,,1,1,1.0,1.0,0.0,1.0,,0.0-39.0,,1.0,582.36,1.0,0.740626951,1.0,0.75,1.0,0.25,0.0,0.25,True,,5f84562b69c963086047a106,,834789,37,,evan-feature22,full_rf_b,,1
13,5333,38,,,,1,1,0.0,1.0,0.0,1.0,,0.0-40.0,,1.0,785.945,0.0,0.739599242,1.0,0.742034978,0.0,0.25397114600000004,0.0,0.25,True,,5f84562b69c963086047a106,,845334,38,,evan-feature22,full_rf_b,,0
14,5334,39,,,,1,1,1.0,0.0,0.0,1.0,,0.0-41.0,,0.0,663.935,1.0,0.732341315,0.0,0.72735643,0.0,0.25,0.0,0.25,True,,5f84562b69c963086047a106,,855756,39,,evan-feature22,full_rf_b,,0
15,5335,40,,,,2,2,1.0,1.0,0.0,1.0,,0.0-42.0,,1.0,674.02,0.0,0.7062287770000001,0.0,0.75,1.0,0.29002151,1.0,0.288256649,True,,5f84562b69c963086047a106,,866193,40,,evan-feature22,full_rf_b,,1
16,5336,41,,,,1,1,1.0,1.0,-1.0,0.0,,0.0-43.0,,-1.0,572.715,1.0,0.7086029209999999,1.0,0.75,0.0,0.274129113,0.0,0.262851608,True,,5f84562b69c963086047a106,,876529,41,,evan-feature22,full_rf_b,,1
17,5337,42,,,,2,2,1.0,0.0,0.0,1.0,,0.0-44.0,,0.0,1054.495,0.0,0.669189651,1.0,0.727614338,1.0,0.298444036,0.0,0.296944518,True,,5f84562b69c963086047a106,,887345,42,,evan-feature22,full_rf_b,,1
18,5338,43,,,,1,1,0.0,1.0,-1.0,0.0,,0.0-45.0,,0.0,700.805,0.0,0.6819912929999999,1.0,0.7179434290000001,0.0,0.265003961,0.0,0.28157921199999997,True,,5f84562b69c963086047a106,,897805,43,,evan-feature22,full_rf_b,,1
19,5339,44,,,,1,1,1.0,1.0,-1.0,0.0,,0.0-46.0,,-1.0,1353.21,1.0,0.665275002,1.0,0.723065271,0.0,0.260414971,0.0,0.30973870000000003,True,,5f84562b69c963086047a106,,908917,44,,evan-feature22,full_rf_b,,0
20,5340,45,,,,1,1,1.0,1.0,0.0,1.0,,0.0-47.0,,1.0,520.12,1.0,0.6660593260000001,1.0,0.728032907,0.0,0.30922817,0.0,0.338778608,True,,5f84562b69c963086047a106,,919197,45,,evan-feature22,full_rf_b,,0
21,5341,46,,,,1,1,1.0,1.0,0.0,1.0,,0.0-48.0,,1.0,1095.535,1.0,0.702068785,1.0,0.6528750879999999,0.0,0.287329608,0.0,0.35789613200000003,True,,5f84562b69c963086047a106,,930056,46,,evan-feature22,full_rf_b,,0
22,5342,47,,,,1,1,1.0,0.0,0.0,1.0,,0.0-49.0,,0.0,589.335,1.0,0.651939787,0.0,0.636725589,0.0,0.284834488,1.0,0.358563756,True,,5f84562b69c963086047a106,,940417,47,,evan-feature22,full_rf_b,,0
23,5343,48,,,,1,1,1.0,1.0,0.0,1.0,,0.0-50.0,,1.0,1100.12,1.0,0.67573929,1.0,0.612550049,0.0,0.37130387600000003,1.0,0.383542402,True,,5f84562b69c963086047a106,,951277,48,,evan-feature22,full_rf_b,,0
24,5344,49,,,,1,1,0.0,1.0,0.0,1.0,,0.0-51.0,,1.0,832.03,0.0,0.620753801,1.0,0.60513644,1.0,0.385529434,0.0,0.340361743,True,,5f84562b69c963086047a106,,961871,49,,evan-feature22,full_rf_b,,0
25,5345,50,,,,1,1,1.0,1.0,-1.0,0.0,,0.0-52.0,,-1.0,1182.1,1.0,0.673564893,1.0,0.672437924,1.0,0.292955382,1.0,0.337633795,True,,5f84562b69c963086047a106,,972814,50,,evan-feature22,full_rf_b,,0
26,5346,51,,,,1,1,1.0,0.0,0.0,1.0,,0.0-53.0,,0.0,574.135,1.0,0.6749427,0.0,0.724197502,1.0,0.32391132100000003,0.0,0.350995264,True,,5f84562b69c963086047a106,,983148,51,,evan-feature22,full_rf_b,,0
27,5347,52,,,,1,1,1.0,1.0,0.0,1.0,,0.0-54.0,,1.0,617.67,1.0,0.6940159379999999,1.0,0.75,0.0,0.31710554399999996,1.0,0.413450341,True,,5f84562b69c963086047a106,,993526,52,,evan-feature22,full_rf_b,,0
28,5348,53,,,,1,1,1.0,1.0,0.0,1.0,,0.0-55.0,,1.0,1502.845,1.0,0.6916018270000001,1.0,0.69001187,0.0,0.261817804,0.0,0.40038635,True,,5f84562b69c963086047a106,,1004788,53,,evan-feature22,full_rf_b,,0
29,5349,54,,,,2,2,0.0,1.0,0.0,1.0,,0.0-56.0,,1.0,544.825,1.0,0.641061544,0.0,0.71337992,0.0,0.277296461,1.0,0.47372791700000005,True,,5f84562b69c963086047a106,,1015095,54,,evan-feature22,full_rf_b,,1
30,5350,55,,,,1,1,1.0,0.0,0.0,1.0,,0.0-57.0,,0.0,1461.41,1.0,0.6082438520000001,0.0,0.708471106,1.0,0.28745137,0.0,0.564174476,True,,5f84562b69c963086047a106,,1026318,55,,evan-feature22,full_rf_b,,1
31,5351,56,,,,1,1,1.0,1.0,-1.0,0.0,,0.0-58.0,,-1.0,1285.84,1.0,0.6051112120000001,1.0,0.7118147229999999,0.0,0.272390611,0.0,0.5595149939999999,True,,5f84562b69c963086047a106,,1037364,56,,evan-feature22,full_rf_b,,0
32,5352,57,,,,2,2,0.0,0.0,-1.0,0.0,,0.0-59.0,,0.0,537.605,1.0,0.582420852,0.0,0.635867583,0.0,0.31089574,0.0,0.5227206520000001,True,,5f84562b69c963086047a106,,1047660,57,,evan-feature22,full_rf_b,,1
33,5353,58,,,,2,2,0.0,1.0,-1.0,0.0,,0.0-60.0,,0.0,592.62,0.0,0.623195575,1.0,0.655026044,0.0,0.25,1.0,0.560387538,True,,5f84562b69c963086047a106,,1058019,58,,evan-feature22,full_rf_b,,0
34,5354,59,,,,1,1,0.0,1.0,0.0,1.0,,0.0-61.0,,1.0,1546.36,0.0,0.601889598,1.0,0.678198724,1.0,0.25,1.0,0.559922936,True,,5f84562b69c963086047a106,,1069323,59,,evan-feature22,full_rf_b,,1
35,5355,60,,,,1,1,1.0,1.0,-1.0,0.0,,0.0-62.0,,-1.0,1306.095,1.0,0.601259914,1.0,0.704681482,1.0,0.33908969299999997,0.0,0.505003715,True,,5f84562b69c963086047a106,,1080388,60,,evan-feature22,full_rf_b,,0
36,5356,61,,,,1,1,1.0,0.0,-1.0,0.0,,0.0-63.0,,-1.0,624.375,1.0,0.59645454,0.0,0.710437172,1.0,0.327441879,0.0,0.391749613,True,,5f84562b69c963086047a106,,1090771,61,,evan-feature22,full_rf_b,,0
37,5357,62,,,,SLOW,SLOW,,,0.0,1.0,,0.0-64.0,,-3.0,,0.0,0.529473,0.0,0.636758527,0.0,0.301338063,0.0,0.365661481,True,,5f84562b69c963086047a106,,1096576,62,,evan-feature22,full_rf_b,,1
38,5358,63,,,,1,1,0.0,1.0,-1.0,0.0,,0.0-65.0,,0.0,2572.025,0.0,0.541657162,1.0,0.634541962,0.0,0.343535366,0.0,0.371763742,True,,5f84562b69c963086047a106,,1108908,63,,evan-feature22,full_rf_b,,1
39,5359,64,,,,1,1,0.0,1.0,-1.0,0.0,,0.0-66.0,,0.0,520.24,0.0,0.5707533260000001,1.0,0.589121171,0.0,0.326428396,0.0,0.43961622899999997,True,,5f84562b69c963086047a106,,1119188,64,,evan-feature22,full_rf_b,,0
40,5360,65,,,,1,1,1.0,1.0,0.0,1.0,,0.0-67.0,,1.0,688.055,1.0,0.5707533260000001,1.0,0.589121171,1.0,0.326428396,1.0,0.43961622899999997,True,,5f84562b69c963086047a106,,1129636,65,,evan-feature22,full_rf_b,,0
41,5361,66,,,,1,1,1.0,0.0,0.0,1.0,,0.0-68.0,,0.0,541.82,1.0,0.506271295,0.0,0.641775594,0.0,0.37149690700000004,0.0,0.404330166,True,,5f84562b69c963086047a106,,1139938,66,,evan-feature22,full_rf_b,,0
42,5362,67,,,,1,1,0.0,1.0,-1.0,0.0,,0.0-69.0,,0.0,2017.35,0.0,0.455642565,1.0,0.623605825,1.0,0.358753011,0.0,0.346174041,True,,5f84562b69c963086047a106,,1151716,67,,evan-feature22,full_rf_b,,0
43,5363,68,,,,1,1,0.0,1.0,0.0,1.0,,0.0-70.0,,1.0,655.165,0.0,0.483677308,1.0,0.5904681070000001,0.0,0.402218411,1.0,0.35344697,True,,5f84562b69c963086047a106,,1162135,68,,evan-feature22,full_rf_b,,0
44,5364,69,,,,1,1,0.0,0.0,-1.0,0.0,,0.0-71.0,,0.0,619.11,0.0,0.394210977,0.0,0.558925494,0.0,0.540052017,0.0,0.35182128700000004,True,,5f84562b69c963086047a106,,1172515,69,,evan-feature22,full_rf_b,,0
45,5365,70,,,,1,1,0.0,1.0,0.0,1.0,,0.0-72.0,,1.0,600.54,0.0,0.382300414,1.0,0.577670603,0.0,0.607608448,0.0,0.378261578,True,,5f84562b69c963086047a106,,1182886,70,,evan-feature22,full_rf_b,,0
46,5366,71,,,,1,1,0.0,1.0,-1.0,0.0,,0.0-73.0,,0.0,749.45,0.0,0.357596762,1.0,0.5929076529999999,1.0,0.6579790010000001,0.0,0.401326777,True,,5f84562b69c963086047a106,,1193396,71,,evan-feature22,full_rf_b,,0
47,5367,72,,,,1,1,1.0,1.0,0.0,1.0,,0.0-74.0,,1.0,647.135,1.0,0.362033495,1.0,0.582308608,1.0,0.649195052,0.0,0.355158505,True,,5f84562b69c963086047a106,,1203805,72,,evan-feature22,full_rf_b,,0
48,5368,73,,,,1,1,0.0,1.0,0.0,1.0,,0.0-75.0,,1.0,1116.825,0.0,0.369620635,1.0,0.669100864,1.0,0.706059111,0.0,0.362516241,True,,5f84562b69c963086047a106,,1214680,73,,evan-feature22,full_rf_b,,0
49,5369,74,,,,1,1,0.0,1.0,0.0,1.0,,0.0-76.0,,1.0,809.58,0.0,0.41477751399999996,1.0,0.7284416779999999,1.0,0.7182656940000001,1.0,0.36228040899999997,True,,5f84562b69c963086047a106,,1225247,74,,evan-feature22,full_rf_b,,0
50,5370,75,,,,1,1,1.0,0.0,-1.0,0.0,,0.0-77.0,,-1.0,491.915,1.0,0.37675460299999997,0.0,0.703250285,1.0,0.75,0.0,0.461979164,True,,5f84562b69c963086047a106,,1235498,75,,evan-feature22,full_rf_b,,0
51,5371,76,,,,1,1,0.0,1.0,-1.0,0.0,,0.0-78.0,,0.0,550.355,0.0,0.398716075,1.0,0.6723864890000001,1.0,0.674153818,0.0,0.519029516,True,,5f84562b69c963086047a106,,1245810,76,,evan-feature22,full_rf_b,,0
52,5372,77,,,,1,1,1.0,1.0,-1.0,0.0,,0.0-79.0,,-1.0,393.4,1.0,0.34677856700000004,1.0,0.69057175,1.0,0.6822438540000001,1.0,0.477292237,True,,5f84562b69c963086047a106,,1255964,77,,evan-feature22,full_rf_b,,0
53,5373,78,,,,1,1,0.0,0.0,0.0,1.0,,0.0-80.0,,0.0,710.525,0.0,0.28580469199999997,0.0,0.68408818,1.0,0.684207565,1.0,0.49780448299999996,True,,5f84562b69c963086047a106,,1266433,78,,evan-feature22,full_rf_b,,0
54,5375,80,,,,1,1,0.0,1.0,0.0,1.0,,0.0-82.0,,1.0,936.575,0.0,0.25,1.0,0.7405808970000001,1.0,0.679614108,0.0,0.436436964,True,,5f84562b69c963086047a106,,1281139,80,,evan-feature22,full_rf_b,,0
55,5376,81,,,,1,1,0.0,1.0,0.0,1.0,,0.0-83.0,,1.0,776.015,0.0,0.29890393,1.0,0.730505706,0.0,0.7328203320000001,0.0,0.439256938,True,,5f84562b69c963086047a106,,1291674,81,,evan-feature22,full_rf_b,,0
56,5377,82,,,,1,1,1.0,1.0,-1.0,0.0,,0.0-84.0,,-1.0,783.98,1.0,0.326762398,1.0,0.7148059609999999,1.0,0.75,0.0,0.44389608799999997,True,,5f84562b69c963086047a106,,1302217,82,,evan-feature22,full_rf_b,,0
57,5378,83,,,,2,2,0.0,0.0,0.0,1.0,,0.0-85.0,,0.0,610.085,0.0,0.295168515,1.0,0.739760854,0.0,0.719947008,0.0,0.35277284600000003,True,,5f84562b69c963086047a106,,1312586,83,,evan-feature22,full_rf_b,,1
58,5379,84,,,,2,2,0.0,0.0,0.0,1.0,,0.0-86.0,,0.0,599.885,0.0,0.25,1.0,0.70781482,0.0,0.75,0.0,0.286095925,True,,5f84562b69c963086047a106,,1322961,84,,evan-feature22,full_rf_b,,0
59,5380,85,,,,2,2,1.0,0.0,0.0,1.0,,0.0-87.0,,0.0,497.235,0.0,0.25638190899999996,1.0,0.704088163,1.0,0.75,0.0,0.26872601399999996,True,,5f84562b69c963086047a106,,1333217,85,,evan-feature22,full_rf_b,,0
60,5381,86,,,,2,2,0.0,0.0,-1.0,0.0,,0.0-88.0,,0.0,495.575,0.0,0.271581126,1.0,0.669760107,0.0,0.733896663,0.0,0.273244572,True,,5f84562b69c963086047a106,,1343472,86,,evan-feature22,full_rf_b,,0
61,5382,87,,,,2,2,0.0,0.0,0.0,1.0,,0.0-89.0,,0.0,40.48,0.0,0.257144401,1.0,0.600575706,0.0,0.74488122,0.0,0.25,True,,5f84562b69c963086047a106,,1353273,87,,evan-feature22,full_rf_b,,0
62,5383,88,,,,2,2,0.0,1.0,0.0,1.0,,0.0-90.0,,1.0,543.83,0.0,0.25,1.0,0.616870026,0.0,0.723610234,1.0,0.25,True,,5f84562b69c963086047a106,,1363576,88,,evan-feature22,full_rf_b,,0
63,5384,89,,,,2,2,1.0,1.0,-1.0,0.0,,0.0-91.0,,-1.0,625.065,0.0,0.25,0.0,0.583540187,1.0,0.7041042559999999,1.0,0.285961995,True,,5f84562b69c963086047a106,,1373960,89,,evan-feature22,full_rf_b,,0
64,5385,90,,,,2,2,0.0,0.0,-1.0,0.0,,0.0-92.0,,0.0,400.425,0.0,0.27254536,0.0,0.53875765,0.0,0.693783448,0.0,0.284961652,True,,5f84562b69c963086047a106,,1384120,90,,evan-feature22,full_rf_b,,0
65,5386,91,,,,1,1,0.0,0.0,-1.0,0.0,,0.0-93.0,,0.0,664.87,0.0,0.25,0.0,0.548431252,0.0,0.734221895,1.0,0.279445214,True,,5f84562b69c963086047a106,,1394547,91,,evan-feature22,full_rf_b,,1
66,5387,92,,,,1,1,0.0,1.0,0.0,1.0,,0.0-94.0,,1.0,605.89,0.0,0.258640684,1.0,0.545878066,1.0,0.725245965,0.0,0.31487537,True,,5f84562b69c963086047a106,,1404912,92,,evan-feature22,full_rf_b,,0
67,5388,93,,,,1,1,0.0,0.0,0.0,1.0,,0.0-95.0,,0.0,424.795,0.0,0.251103711,0.0,0.5776290629999999,1.0,0.696320133,0.0,0.317831047,True,,5f84562b69c963086047a106,,1415096,93,,evan-feature22,full_rf_b,,0
68,5389,94,,,,1,1,0.0,0.0,0.0,1.0,,0.0-96.0,,0.0,392.125,0.0,0.276630292,0.0,0.617329858,1.0,0.73838088,0.0,0.261471582,True,,5f84562b69c963086047a106,,1425247,94,,evan-feature22,full_rf_b,,0
69,5390,95,,,,1,1,1.0,1.0,0.0,1.0,,0.0-97.0,,1.0,473.56,1.0,0.297716424,1.0,0.618863717,1.0,0.7402358259999999,1.0,0.262600834,True,,5f84562b69c963086047a106,,1435484,95,,evan-feature22,full_rf_b,,0
70,5391,96,,,,1,1,0.0,1.0,-1.0,0.0,,0.0-98.0,,0.0,588.65,0.0,0.290935512,1.0,0.695370945,1.0,0.706570507,1.0,0.280030553,True,,5f84562b69c963086047a106,,1445833,96,,evan-feature22,full_rf_b,,0
71,5392,97,,,,1,1,0.0,1.0,0.0,1.0,,0.0-99.0,,1.0,573.85,0.0,0.25,1.0,0.6465277079999999,0.0,0.67766682,1.0,0.25,True,,5f84562b69c963086047a106,,1456165,97,,evan-feature22,full_rf_b,,0
72,5393,98,,,,1,1,0.0,0.0,-1.0,0.0,,0.0-100.0,,0.0,442.185,0.0,0.26463816,0.0,0.636100213,1.0,0.646048507,0.0,0.265607101,True,,5f84562b69c963086047a106,,1466368,98,,evan-feature22,full_rf_b,,0
73,5394,99,,,,1,1,0.0,1.0,-1.0,0.0,,0.0-101.0,,0.0,550.36,0.0,0.314340707,1.0,0.667795927,0.0,0.613630805,1.0,0.25,True,,5f84562b69c963086047a106,,1476681,99,,evan-feature22,full_rf_b,,0
74,5395,100,,,,1,1,0.0,1.0,0.0,1.0,,0.0-102.0,,1.0,669.61,0.0,0.28685784,1.0,0.6622549529999999,0.0,0.652154117,0.0,0.25,True,,5f84562b69c963086047a106,,1487111,100,,evan-feature22,full_rf_b,,0
75,5396,101,,,,1,1,1.0,1.0,0.0,1.0,,0.0-103.0,,1.0,864.66,1.0,0.304106554,1.0,0.631289538,0.0,0.707041942,0.0,0.29314237,True,,5f84562b69c963086047a106,,1497736,101,,evan-feature22,full_rf_b,,0
76,5397,102,,,,1,1,0.0,1.0,0.0,1.0,,0.0-104.0,,1.0,598.785,0.0,0.304806932,1.0,0.571167718,1.0,0.680472346,1.0,0.25,True,,5f84562b69c963086047a106,,1508095,102,,evan-feature22,full_rf_b,,0
77,5398,103,,,,1,1,1.0,0.0,0.0,1.0,,0.0-105.0,,0.0,1520.29,1.0,0.37919861,0.0,0.5724849710000001,1.0,0.705638003,0.0,0.30179300600000003,True,,5f84562b69c963086047a106,,1519376,103,,evan-feature22,full_rf_b,,0
78,5399,104,,,,1,1,1.0,0.0,0.0,1.0,,0.0-106.0,,0.0,816.125,1.0,0.464277969,0.0,0.554034373,1.0,0.7372627340000001,1.0,0.264699741,True,,5f84562b69c963086047a106,,1529951,104,,evan-feature22,full_rf_b,,0
79,5400,105,,,,1,1,1.0,1.0,0.0,1.0,,0.0-107.0,,1.0,896.075,1.0,0.465104323,1.0,0.530793115,1.0,0.75,0.0,0.31683071,True,,5f84562b69c963086047a106,,1540612,105,,evan-feature22,full_rf_b,,0
80,5401,106,,,,2,2,1.0,1.0,-1.0,0.0,,0.0-108.0,,-1.0,795.9,1.0,0.465104323,1.0,0.530793115,1.0,0.75,1.0,0.31683071,True,,5f84562b69c963086047a106,,1551169,106,,evan-feature22,full_rf_b,,1
81,5402,107,,,,2,2,0.0,0.0,-1.0,0.0,,0.0-109.0,,0.0,772.86,0.0,0.46833986,0.0,0.570249239,0.0,0.7244472590000001,0.0,0.364114163,True,,5f84562b69c963086047a106,,1561703,107,,evan-feature22,full_rf_b,,0
82,5403,108,,,,2,2,0.0,1.0,-1.0,0.0,,0.0-110.0,,0.0,727.91,0.0,0.445444024,0.0,0.649673355,0.0,0.6845441290000001,1.0,0.300660449,True,,5f84562b69c963086047a106,,1572190,108,,evan-feature22,full_rf_b,,0
83,5404,109,,,,2,2,0.0,0.0,-1.0,0.0,,0.0-111.0,,0.0,872.65,0.0,0.39909721299999995,1.0,0.6715179509999999,0.0,0.742310028,0.0,0.35496088299999995,True,,5f84562b69c963086047a106,,1582820,109,,evan-feature22,full_rf_b,,0
84,5405,110,,,,1,1,1.0,1.0,0.0,1.0,,0.0-112.0,,1.0,1019.285,1.0,0.37956104799999996,1.0,0.694725302,0.0,0.7181651309999999,0.0,0.38726906299999997,True,,5f84562b69c963086047a106,,1593598,110,,evan-feature22,full_rf_b,,1
85,5406,111,,,,1,1,0.0,1.0,0.0,1.0,,0.0-113.0,,1.0,702.495,0.0,0.404995034,1.0,0.724375412,1.0,0.6910946859999999,1.0,0.387187347,True,,5f84562b69c963086047a106,,1604065,111,,evan-feature22,full_rf_b,,0
86,5407,112,,,,2,2,0.0,1.0,-1.0,0.0,,0.0-114.0,,0.0,541.495,0.0,0.461740803,1.0,0.75,0.0,0.75,1.0,0.34872038200000005,True,,5f84562b69c963086047a106,,1614371,112,,evan-feature22,full_rf_b,,1
87,5408,113,,,,2,2,0.0,1.0,-1.0,0.0,,0.0-115.0,,0.0,594.91,0.0,0.43821380600000004,1.0,0.738833273,0.0,0.728286963,1.0,0.399538128,True,,5f84562b69c963086047a106,,1624725,113,,evan-feature22,full_rf_b,,0
88,5409,114,,,,1,1,0.0,0.0,0.0,1.0,,0.0-116.0,,0.0,719.97,0.0,0.41709882,0.0,0.736666736,1.0,0.75,0.0,0.389095584,True,,5f84562b69c963086047a106,,1635205,114,,evan-feature22,full_rf_b,,1
89,5410,115,,,,1,1,0.0,1.0,0.0,1.0,,0.0-117.0,,1.0,721.5,0.0,0.39749009799999996,1.0,0.744320029,1.0,0.75,0.0,0.363848678,True,,5f84562b69c963086047a106,,1645698,115,,evan-feature22,full_rf_b,,0
90,5411,116,,,,2,2,0.0,1.0,-1.0,0.0,,0.0-118.0,,0.0,466.5,0.0,0.392653706,0.0,0.75,0.0,0.75,1.0,0.384386976,True,,5f84562b69c963086047a106,,1655925,116,,evan-feature22,full_rf_b,,1
91,5412,117,,,,1,1,1.0,1.0,0.0,1.0,,0.0-119.0,,1.0,695.08,1.0,0.31190902600000003,1.0,0.75,1.0,0.732413819,1.0,0.413082932,True,,5f84562b69c963086047a106,,1666381,117,,evan-feature22,full_rf_b,,1
92,5413,118,,,,2,2,1.0,0.0,-1.0,0.0,,0.0-120.0,,-1.0,505.425,1.0,0.366917648,0.0,0.740073855,1.0,0.75,0.0,0.352861979,True,,5f84562b69c963086047a106,,1676643,118,,evan-feature22,full_rf_b,,1
93,5414,119,,,,2,2,1.0,0.0,-1.0,0.0,,0.0-121.0,,-1.0,610.755,0.0,0.3645172,1.0,0.721770713,1.0,0.75,0.0,0.404074511,True,,5f84562b69c963086047a106,,1687013,119,,evan-feature22,full_rf_b,,0
94,5415,120,,,,2,2,0.0,0.0,-1.0,0.0,,0.0-122.0,,0.0,600.505,1.0,0.35205600299999995,1.0,0.68983859,0.0,0.739735447,0.0,0.366895945,True,,5f84562b69c963086047a106,,1697381,120,,evan-feature22,full_rf_b,,0
95,5416,121,,,,2,2,0.0,0.0,-1.0,0.0,,0.0-123.0,,0.0,872.895,0.0,0.40998722600000004,0.0,0.720859127,0.0,0.673854955,0.0,0.368528541,True,,5f84562b69c963086047a106,,1708012,121,,evan-feature22,full_rf_b,,0
96,5417,122,,,,2,2,0.0,0.0,-1.0,0.0,,0.0-124.0,,0.0,1328.645,1.0,0.353625316,1.0,0.75,0.0,0.695605473,0.0,0.38303674200000004,True,,5f84562b69c963086047a106,,1719101,122,,evan-feature22,full_rf_b,,0
97,5418,123,,,,2,2,1.0,0.0,-1.0,0.0,,0.0-125.0,,-1.0,640.59,0.0,0.359216989,1.0,0.75,1.0,0.6987915090000001,0.0,0.35169046200000004,True,,5f84562b69c963086047a106,,1729500,123,,evan-feature22,full_rf_b,,0
98,5419,124,,,,2,2,0.0,1.0,-1.0,0.0,,0.0-126.0,,0.0,561.465,0.0,0.35834496899999996,1.0,0.75,0.0,0.707067742,1.0,0.416763636,True,,5f84562b69c963086047a106,,1739822,124,,evan-feature22,full_rf_b,,0
99,5420,125,,,,1,1,0.0,1.0,0.0,1.0,,0.0-127.0,,1.0,1006.105,0.0,0.38741613799999997,1.0,0.7177369570000001,1.0,0.734902455,1.0,0.49438664299999996,True,,5f84562b69c963086047a106,,1750591,125,,evan-feature22,full_rf_b,,1
100,5421,126,,,,2,2,1.0,0.0,-1.0,0.0,,0.0-128.0,,-1.0,533.72,0.0,0.405255252,1.0,0.7300466640000001,1.0,0.7027748070000001,0.0,0.504359668,True,,5f84562b69c963086047a106,,1760885,126,,evan-feature22,full_rf_b,,1
101,5422,127,,,,2,2,0.0,1.0,-1.0,0.0,,0.0-129.0,,0.0,533.945,0.0,0.40697073,1.0,0.7260142190000001,0.0,0.724461982,1.0,0.522779179,True,,5f84562b69c963086047a106,,1771179,127,,evan-feature22,full_rf_b,,0
102,5423,128,,,,2,2,1.0,1.0,-1.0,0.0,,0.0-130.0,,-1.0,881.275,0.0,0.43906215299999996,0.0,0.7252802340000001,1.0,0.719079934,1.0,0.5712990579999999,True,,5f84562b69c963086047a106,,1781821,128,,evan-feature22,full_rf_b,,0
103,5424,129,,,,1,1,0.0,1.0,0.0,1.0,,0.0-131.0,,1.0,887.66,0.0,0.4076705,1.0,0.73280499,1.0,0.681313127,1.0,0.523891346,True,,5f84562b69c963086047a106,,1792468,129,,evan-feature22,full_rf_b,,1
104,5425,130,,,,1,1,1.0,1.0,0.0,1.0,,0.0-132.0,,1.0,863.95,1.0,0.399102911,1.0,0.730498344,1.0,0.661080239,0.0,0.46742603,True,,5f84562b69c963086047a106,,1803093,130,,evan-feature22,full_rf_b,,0
105,5426,131,,,,1,1,1.0,1.0,0.0,1.0,,0.0-133.0,,1.0,854.655,1.0,0.356477282,1.0,0.712296395,1.0,0.641812684,0.0,0.44868414,True,,5f84562b69c963086047a106,,1813712,131,,evan-feature22,full_rf_b,,0
106,5427,132,,,,2,2,0.0,1.0,-1.0,0.0,,0.0-134.0,,0.0,812.47,0.0,0.462760722,1.0,0.692349322,0.0,0.700947931,1.0,0.394680266,True,,5f84562b69c963086047a106,,1824284,132,,evan-feature22,full_rf_b,,1
107,5428,133,,,,2,2,1.0,1.0,-1.0,0.0,,0.0-135.0,,-1.0,672.26,0.0,0.422306413,1.0,0.718375916,1.0,0.706340917,1.0,0.367787185,True,,5f84562b69c963086047a106,,1834716,133,,evan-feature22,full_rf_b,,0
108,5430,135,,,,2,2,1.0,0.0,-1.0,0.0,,0.0-137.0,,-1.0,2237.185,1.0,0.4582233,1.0,0.643834117,1.0,0.75,0.0,0.39615823299999997,True,,5f84562b69c963086047a106,,1850358,135,,evan-feature22,full_rf_b,,0
109,5431,136,,,,1,1,1.0,1.0,-1.0,0.0,,0.0-138.0,,-1.0,525.44,1.0,0.43813437899999996,1.0,0.651283804,1.0,0.729674191,0.0,0.37711048,True,,5f84562b69c963086047a106,,1860643,136,,evan-feature22,full_rf_b,,1
110,5432,137,,,,1,1,0.0,1.0,-1.0,0.0,,0.0-139.0,,0.0,737.07,0.0,0.471199094,1.0,0.6470010979999999,1.0,0.715008097,1.0,0.410656191,True,,5f84562b69c963086047a106,,1871139,137,,evan-feature22,full_rf_b,,0
111,5433,138,,,,2,2,0.0,1.0,-1.0,0.0,,0.0-140.0,,0.0,632.47,1.0,0.42486406,1.0,0.629771829,0.0,0.6550939960000001,1.0,0.459093873,True,,5f84562b69c963086047a106,,1881530,138,,evan-feature22,full_rf_b,,1
112,5434,139,,,,2,2,0.0,0.0,-1.0,0.0,,0.0-141.0,,0.0,641.825,1.0,0.4803197,1.0,0.645842715,0.0,0.6421749920000001,0.0,0.443092151,True,,5f84562b69c963086047a106,,1891931,139,,evan-feature22,full_rf_b,,0
113,5435,140,,,,1,1,0.0,1.0,0.0,1.0,,0.0-142.0,,1.0,568.015,0.0,0.521848997,1.0,0.735801074,0.0,0.6691348460000001,0.0,0.45259351600000003,True,,5f84562b69c963086047a106,,1902259,140,,evan-feature22,full_rf_b,,1
114,5436,141,,,,2,2,1.0,1.0,-1.0,0.0,,0.0-143.0,,-1.0,960.125,1.0,0.49565621299999996,0.0,0.742400847,1.0,0.661512553,1.0,0.483110831,True,,5f84562b69c963086047a106,,1912979,141,,evan-feature22,full_rf_b,,1
115,5437,142,,,,1,1,0.0,1.0,-1.0,0.0,,0.0-144.0,,0.0,512.69,0.0,0.521564361,1.0,0.731078632,0.0,0.6774886809999999,1.0,0.483263956,True,,5f84562b69c963086047a106,,1923251,142,,evan-feature22,full_rf_b,,1
116,5438,143,,,,1,1,0.0,1.0,-1.0,0.0,,0.0-145.0,,0.0,904.325,0.0,0.558893102,1.0,0.719810023,1.0,0.67461031,1.0,0.499349834,True,,5f84562b69c963086047a106,,1933922,143,,evan-feature22,full_rf_b,,0
117,5439,144,,,,1,1,1.0,1.0,-1.0,0.0,,0.0-146.0,,-1.0,641.4,1.0,0.611031046,1.0,0.75,1.0,0.688072995,1.0,0.5321422729999999,True,,5f84562b69c963086047a106,,1944323,144,,evan-feature22,full_rf_b,,0
118,5440,145,,,,1,1,0.0,0.0,0.0,1.0,,0.0-147.0,,0.0,744.155,0.0,0.633223941,0.0,0.713567728,1.0,0.75,0.0,0.48185314700000004,True,,5f84562b69c963086047a106,,1954827,145,,evan-feature22,full_rf_b,,0
119,5441,146,,,,2,2,0.0,0.0,-1.0,0.0,,0.0-148.0,,0.0,1040.34,0.0,0.664001694,1.0,0.705509768,0.0,0.75,0.0,0.500211065,True,,5f84562b69c963086047a106,,1965627,146,,evan-feature22,full_rf_b,,1
120,5442,147,,,,2,2,0.0,0.0,-1.0,0.0,,0.0-149.0,,0.0,551.085,0.0,0.664001694,1.0,0.705509768,0.0,0.75,0.0,0.500211065,True,,5f84562b69c963086047a106,,1975938,147,,evan-feature22,full_rf_b,,0
121,5443,148,,,,2,2,1.0,0.0,-1.0,0.0,,0.0-150.0,,-1.0,567.975,1.0,0.696508041,1.0,0.71066027,1.0,0.717028709,0.0,0.49792991,True,,5f84562b69c963086047a106,,1986266,148,,evan-feature22,full_rf_b,,0
122,5444,149,,,,1,1,1.0,1.0,0.0,1.0,,0.0-151.0,,1.0,528.385,1.0,0.699883272,1.0,0.75,1.0,0.713543895,0.0,0.496962643,True,,5f84562b69c963086047a106,,1996554,149,,evan-feature22,full_rf_b,,1
123,5445,150,,,,1,1,1.0,1.0,0.0,1.0,,0.0-152.0,,1.0,512.07,1.0,0.741163419,1.0,0.75,0.0,0.64691024,1.0,0.513858197,True,,5f84562b69c963086047a106,,2006827,150,,evan-feature22,full_rf_b,,0
124,5446,151,,,,1,1,1.0,1.0,0.0,1.0,,0.0-153.0,,1.0,559.995,1.0,0.75,1.0,0.70816558,1.0,0.594499079,1.0,0.48502124,True,,5f84562b69c963086047a106,,2017154,151,,evan-feature22,full_rf_b,,0
125,5447,152,,,,2,2,1.0,1.0,-1.0,0.0,,0.0-154.0,,-1.0,640.185,1.0,0.75,1.0,0.721848901,1.0,0.62197249,1.0,0.48263586399999997,True,,5f84562b69c963086047a106,,2027554,152,,evan-feature22,full_rf_b,,1
126,5448,153,,,,1,1,1.0,1.0,-1.0,0.0,,0.0-155.0,,-1.0,488.21,1.0,0.75,1.0,0.74813071,0.0,0.584357161,0.0,0.411477782,True,,5f84562b69c963086047a106,,2037804,153,,evan-feature22,full_rf_b,,1
127,5449,154,,,,1,1,1.0,1.0,-1.0,0.0,,0.0-156.0,,-1.0,581.505,1.0,0.75,1.0,0.75,1.0,0.52287236,1.0,0.488290656,True,,5f84562b69c963086047a106,,2048145,154,,evan-feature22,full_rf_b,,0
128,5450,155,,,,2,2,1.0,1.0,-1.0,0.0,,0.0-157.0,,-1.0,456.47,1.0,0.75,1.0,0.75,1.0,0.544321581,1.0,0.53143059,True,,5f84562b69c963086047a106,,2058362,155,,evan-feature22,full_rf_b,,1
129,5451,156,,,,2,2,0.0,0.0,-1.0,0.0,,0.0-158.0,,0.0,559.505,1.0,0.726754564,1.0,0.75,0.0,0.5129306370000001,0.0,0.530592445,True,,5f84562b69c963086047a106,,2068680,156,,evan-feature22,full_rf_b,,0
130,5452,157,,,,1,1,1.0,1.0,0.0,1.0,,0.0-159.0,,1.0,986.755,1.0,0.75,1.0,0.7392590729999999,1.0,0.479875835,0.0,0.547007051,True,,5f84562b69c963086047a106,,2079426,157,,evan-feature22,full_rf_b,,1
131,5453,158,,,,1,1,1.0,0.0,0.0,1.0,,0.0-160.0,,0.0,661.105,1.0,0.75,0.0,0.7393376979999999,1.0,0.546045419,0.0,0.541267353,True,,5f84562b69c963086047a106,,2089850,158,,evan-feature22,full_rf_b,,0
132,5454,159,,,,1,1,0.0,1.0,-1.0,0.0,,0.0-161.0,,0.0,1014.545,0.0,0.75,1.0,0.75,1.0,0.485725895,1.0,0.527625395,True,,5f84562b69c963086047a106,,2100633,159,,evan-feature22,full_rf_b,,0
133,5455,160,,,,1,1,1.0,1.0,0.0,1.0,,0.0-162.0,,1.0,1008.15,1.0,0.75,1.0,0.725087974,1.0,0.488603595,1.0,0.504019206,True,,5f84562b69c963086047a106,,2111405,160,,evan-feature22,full_rf_b,,0
134,5456,161,,,,1,1,1.0,1.0,-1.0,0.0,,0.0-163.0,,-1.0,1492.48,1.0,0.745504295,1.0,0.75,1.0,0.452379914,0.0,0.50131194,True,,5f84562b69c963086047a106,,2122657,161,,evan-feature22,full_rf_b,,0
135,5457,162,,,,1,1,0.0,1.0,0.0,1.0,,0.0-164.0,,1.0,887.245,0.0,0.728513874,1.0,0.75,0.0,0.44125567200000004,1.0,0.531454591,True,,5f84562b69c963086047a106,,2133307,162,,evan-feature22,full_rf_b,,0
136,5458,163,,,,2,2,0.0,1.0,-1.0,0.0,,0.0-165.0,,0.0,894.325,0.0,0.73790804,1.0,0.75,0.0,0.413036656,1.0,0.524619035,True,,5f84562b69c963086047a106,,2143961,163,,evan-feature22,full_rf_b,,1
137,5459,164,,,,2,2,1.0,0.0,-1.0,0.0,,0.0-166.0,,-1.0,813.895,0.0,0.7080961309999999,1.0,0.708666865,1.0,0.431915581,0.0,0.481819489,True,,5f84562b69c963086047a106,,2154537,164,,evan-feature22,full_rf_b,,0
138,5460,165,,,,1,1,1.0,0.0,-1.0,0.0,,0.0-167.0,,-1.0,598.36,1.0,0.721378003,0.0,0.71605913,0.0,0.36642387,1.0,0.5036739929999999,True,,5f84562b69c963086047a106,,2164897,165,,evan-feature22,full_rf_b,,1
139,5461,166,,,,1,1,0.0,0.0,0.0,1.0,,0.0-168.0,,0.0,974.63,0.0,0.7340618959999999,0.0,0.699323252,0.0,0.35298046299999997,1.0,0.511241692,True,,5f84562b69c963086047a106,,2175631,166,,evan-feature22,full_rf_b,,0
140,5462,167,,,,1,1,1.0,1.0,0.0,1.0,,0.0-169.0,,1.0,785.935,1.0,0.75,1.0,0.70412698,1.0,0.380734814,1.0,0.529580116,True,,5f84562b69c963086047a106,,2186176,167,,evan-feature22,full_rf_b,,0
141,5463,168,,,,1,1,1.0,0.0,0.0,1.0,,0.0-170.0,,0.0,927.375,1.0,0.7436654909999999,0.0,0.711182751,1.0,0.41125331,0.0,0.49554405,True,,5f84562b69c963086047a106,,2196868,168,,evan-feature22,full_rf_b,,0
142,5464,169,,,,2,2,0.0,1.0,-1.0,0.0,,0.0-171.0,,0.0,1211.93,1.0,0.731607915,0.0,0.651774583,0.0,0.35688023,1.0,0.45194491600000003,True,,5f84562b69c963086047a106,,2207840,169,,evan-feature22,full_rf_b,,1
143,5465,170,,,,1,1,1.0,1.0,0.0,1.0,,0.0-172.0,,1.0,880.915,1.0,0.75,1.0,0.75,0.0,0.283145374,1.0,0.528608005,True,,5f84562b69c963086047a106,,2218482,170,,evan-feature22,full_rf_b,,1
144,5466,171,,,,2,2,1.0,1.0,-1.0,0.0,,0.0-173.0,,-1.0,886.31,1.0,0.7491416890000001,0.0,0.7423785959999999,1.0,0.29135870399999997,1.0,0.498888318,True,,5f84562b69c963086047a106,,2229128,171,,evan-feature22,full_rf_b,,1
145,5467,172,,,,2,2,1.0,1.0,0.0,1.0,,0.0-174.0,,1.0,616.46,1.0,0.708569387,1.0,0.717682277,1.0,0.294421699,1.0,0.493838163,True,,5f84562b69c963086047a106,,2239507,172,,evan-feature22,full_rf_b,,0
146,5468,173,,,,2,2,1.0,1.0,-1.0,0.0,,0.0-175.0,,-1.0,635.285,1.0,0.75,1.0,0.7383382159999999,1.0,0.356098707,1.0,0.442533405,True,,5f84562b69c963086047a106,,2249904,173,,evan-feature22,full_rf_b,,0
147,5469,174,,,,2,2,0.0,1.0,-1.0,0.0,,0.0-176.0,,0.0,503.435,0.0,0.744527075,1.0,0.75,0.0,0.334127506,1.0,0.393165805,True,,5f84562b69c963086047a106,,2260167,174,,evan-feature22,full_rf_b,,0
148,5470,175,,,,2,2,0.0,0.0,-1.0,0.0,,0.0-177.0,,0.0,568.385,1.0,0.75,0.0,0.75,0.0,0.33571021799999995,0.0,0.350393962,True,,5f84562b69c963086047a106,,2270495,175,,evan-feature22,full_rf_b,,0
149,5471,176,,,,1,1,1.0,1.0,0.0,1.0,,0.0-178.0,,1.0,760.68,1.0,0.75,1.0,0.75,0.0,0.313628297,1.0,0.36349657399999996,True,,5f84562b69c963086047a106,,2281014,176,,evan-feature22,full_rf_b,,1
150,5472,177,,,,2,2,1.0,1.0,-1.0,0.0,,0.0-179.0,,-1.0,976.84,1.0,0.75,1.0,0.734284182,1.0,0.262667667,1.0,0.380199119,True,,5f84562b69c963086047a106,,2291751,177,,evan-feature22,full_rf_b,,1
151,5473,178,,,,2,2,1.0,1.0,-1.0,0.0,,0.0-180.0,,-1.0,406.775,1.0,0.75,0.0,0.75,1.0,0.25,1.0,0.394494013,True,,5f84562b69c963086047a106,,2301919,178,,evan-feature22,full_rf_b,,0
152,5474,179,,,,2,2,1.0,1.0,-1.0,0.0,,0.0-181.0,,-1.0,1015.83,1.0,0.722298145,1.0,0.7357822340000001,1.0,0.25,1.0,0.319142121,True,,5f84562b69c963086047a106,,2312696,179,,evan-feature22,full_rf_b,,0
153,5475,180,,,,2,2,0.0,0.0,-1.0,0.0,,0.0-182.0,,0.0,631.395,1.0,0.73149275,1.0,0.724276446,0.0,0.305856907,0.0,0.281315057,True,,5f84562b69c963086047a106,,2323089,180,,evan-feature22,full_rf_b,,0
154,5476,181,,,,2,2,0.0,0.0,-1.0,0.0,,0.0-183.0,,0.0,629.765,1.0,0.7458732690000001,1.0,0.7336382459999999,0.0,0.272571964,0.0,0.266021999,True,,5f84562b69c963086047a106,,2333479,181,,evan-feature22,full_rf_b,,0
155,5477,182,,,,1,1,1.0,0.0,0.0,1.0,,0.0-184.0,,0.0,960.935,1.0,0.705579037,0.0,0.720778292,0.0,0.320238144,1.0,0.30971744,True,,5f84562b69c963086047a106,,2344198,182,,evan-feature22,full_rf_b,,1
156,5478,183,,,,1,1,1.0,1.0,0.0,1.0,,0.0-185.0,,1.0,760.74,1.0,0.700425648,1.0,0.7198784009999999,0.0,0.272590393,1.0,0.304182931,True,,5f84562b69c963086047a106,,2354722,183,,evan-feature22,full_rf_b,,0
157,5479,184,,,,1,1,1.0,0.0,0.0,1.0,,0.0-186.0,,0.0,802.415,1.0,0.735590785,0.0,0.722714973,0.0,0.25,0.0,0.323421091,True,,5f84562b69c963086047a106,,2365307,184,,evan-feature22,full_rf_b,,0
158,5480,185,,,,1,1,0.0,1.0,0.0,1.0,,0.0-187.0,,1.0,692.355,0.0,0.724807662,1.0,0.63146213,0.0,0.36836492600000004,0.0,0.34592153299999995,True,,5f84562b69c963086047a106,,2375775,185,,evan-feature22,full_rf_b,,0
159,5481,186,,,,2,2,1.0,1.0,-1.0,0.0,,0.0-188.0,,-1.0,1008.485,1.0,0.7352796909999999,1.0,0.555111392,1.0,0.36003922,1.0,0.31433779999999995,True,,5f84562b69c963086047a106,,2386543,186,,evan-feature22,full_rf_b,,1
160,5482,187,notice,,,,,,,,,,0.0-189.0,"{""Q0"":""No""}",,14085.0,,,,,,,,,True,,5f84562b69c963086047a106,,2400629,187,Q,survey-text,full_rf_b,,1
161,5483,188,track1,,[1],,,,,,,,0.0-190.0,"{""Q0"":""no""}",,4714.0,,,,,,,,,True,,5f84562b69c963086047a106,,2405348,188,Q,evan-quiz,full_rf_b,,1
162,5484,189,track2,,[1],,,,,,,,0.0-191.0,"{""Q0"":""no""}",,14755.0,,,,,,,,,True,,5f84562b69c963086047a106,,2420106,189,Q,evan-quiz,full_rf_b,,1
163,5485,190,strat,,,,,,,,,,0.0-192.0,"{""Q0"":""Tried to spot sequences""}",,21246.0,,,,,,,,,True,,5f84562b69c963086047a106,,2441355,190,Q,survey-text,full_rf_b,,1
