,index,Unnamed: 0,Q_name,button_pressed,choice_idxs,chosen_pos,chosen_state,chosen_state_f_1_outcome,chosen_state_f_2_outcome,f_1_reward,f_2_reward,incor_questions,internal_node_id,responses,reward_received,rt,s_1_f_1_outcome,s_1_f_1_prob,s_1_f_2_outcome,s_1_f_2_prob,s_2_f_1_outcome,s_2_f_1_prob,s_2_f_2_outcome,s_2_f_2_prob,safe_first,stimulus,subjectID,success,time_elapsed,trial_index,trial_num,trial_type,version,view_history,switching
0,3181,25,,,,1,1,0.0,0.0,1.0,0.0,,0.0-27.0,,0.0,1358.145,0.0,0.6,0.0,0.6,0.0,0.4,1.0,0.4,True,,5c48df1f2381060001bf9fd1,,503774,25,,evan-feature22,full_rf_a,,0
1,3182,26,,,,2,2,1.0,0.0,1.0,0.0,,0.0-28.0,,1.0,461.7850001,1.0,0.608053294,1.0,0.63424552,1.0,0.397152172,0.0,0.347069101,True,,5c48df1f2381060001bf9fd1,,513992,26,,evan-feature22,full_rf_a,,1
2,3183,27,,,,2,2,1.0,1.0,1.0,0.0,,0.0-29.0,,1.0,780.29,1.0,0.642237155,0.0,0.648566321,1.0,0.389407674,1.0,0.285525717,True,,5c48df1f2381060001bf9fd1,,524529,27,,evan-feature22,full_rf_a,,0
3,3184,28,,,,2,2,0.0,0.0,1.0,0.0,,0.0-30.0,,0.0,789.3500001,1.0,0.661086576,1.0,0.630492543,0.0,0.399058924,0.0,0.25,True,,5c48df1f2381060001bf9fd1,,535074,28,,evan-feature22,full_rf_a,,0
4,3185,29,,,,1,1,0.0,0.0,0.0,-1.0,,0.0-31.0,,0.0,1668.77,0.0,0.631324137,0.0,0.6269842929999999,0.0,0.38734784299999997,0.0,0.25,True,,5c48df1f2381060001bf9fd1,,546500,29,,evan-feature22,full_rf_a,,1
5,3186,30,,,,1,1,1.0,1.0,0.0,-1.0,,0.0-32.0,,-1.0,1931.975,1.0,0.6381991370000001,1.0,0.68987999,0.0,0.384107265,1.0,0.271332943,True,,5c48df1f2381060001bf9fd1,,558191,30,,evan-feature22,full_rf_a,,0
6,3187,31,,,,1,1,0.0,1.0,1.0,0.0,,0.0-33.0,,0.0,1339.07,0.0,0.66034901,1.0,0.742641349,1.0,0.360225629,1.0,0.25,True,,5c48df1f2381060001bf9fd1,,569286,31,,evan-feature22,full_rf_a,,0
7,3188,32,,,,2,2,0.0,0.0,1.0,0.0,,0.0-34.0,,0.0,508.705,1.0,0.638612418,1.0,0.75,0.0,0.367273939,0.0,0.25,True,,5c48df1f2381060001bf9fd1,,579550,32,,evan-feature22,full_rf_a,,1
8,3189,33,,,,2,2,1.0,0.0,0.0,-1.0,,0.0-35.0,,0.0,1973.5,0.0,0.624340629,1.0,0.75,1.0,0.425829545,0.0,0.25,True,,5c48df1f2381060001bf9fd1,,591280,33,,evan-feature22,full_rf_a,,0
9,3190,34,,,,2,2,0.0,0.0,0.0,-1.0,,0.0-36.0,,0.0,1588.525,0.0,0.621999804,1.0,0.75,0.0,0.368609357,0.0,0.25,True,,5c48df1f2381060001bf9fd1,,602624,34,,evan-feature22,full_rf_a,,0
10,3191,35,,,,2,2,0.0,0.0,1.0,0.0,,0.0-37.0,,0.0,757.57,1.0,0.62666403,1.0,0.75,0.0,0.311151498,0.0,0.25,True,,5c48df1f2381060001bf9fd1,,613141,35,,evan-feature22,full_rf_a,,0
11,3192,36,,,,2,2,0.0,0.0,0.0,-1.0,,0.0-38.0,,0.0,1186.175,1.0,0.6819650009999999,1.0,0.75,0.0,0.310763048,0.0,0.25,True,,5c48df1f2381060001bf9fd1,,624083,36,,evan-feature22,full_rf_a,,0
12,3193,37,,,,1,1,0.0,1.0,1.0,0.0,,0.0-39.0,,0.0,757.325,0.0,0.740626951,1.0,0.75,0.0,0.25,0.0,0.25,True,,5c48df1f2381060001bf9fd1,,634597,37,,evan-feature22,full_rf_a,,1
13,3194,38,,,,1,1,1.0,1.0,1.0,0.0,,0.0-40.0,,1.0,603.4350001,1.0,0.739599242,1.0,0.742034978,0.0,0.25397114600000004,0.0,0.25,True,,5c48df1f2381060001bf9fd1,,644957,38,,evan-feature22,full_rf_a,,0
14,3195,39,,,,1,1,1.0,1.0,1.0,0.0,,0.0-41.0,,1.0,668.655,1.0,0.732341315,1.0,0.72735643,0.0,0.25,1.0,0.25,True,,5c48df1f2381060001bf9fd1,,655382,39,,evan-feature22,full_rf_a,,0
15,3196,40,,,,1,1,0.0,1.0,1.0,0.0,,0.0-42.0,,0.0,595.795,0.0,0.7062287770000001,1.0,0.75,0.0,0.29002151,0.0,0.288256649,True,,5c48df1f2381060001bf9fd1,,665736,40,,evan-feature22,full_rf_a,,0
16,3197,41,,,,1,1,0.0,0.0,1.0,0.0,,0.0-43.0,,0.0,499.635,0.0,0.7086029209999999,0.0,0.75,1.0,0.274129113,1.0,0.262851608,True,,5c48df1f2381060001bf9fd1,,675992,41,,evan-feature22,full_rf_a,,0
17,3198,42,,,,2,2,1.0,0.0,1.0,0.0,,0.0-44.0,,1.0,341.175,1.0,0.669189651,1.0,0.727614338,1.0,0.298444036,0.0,0.296944518,True,,5c48df1f2381060001bf9fd1,,686089,42,,evan-feature22,full_rf_a,,1
18,3199,43,,,,2,2,1.0,0.0,1.0,0.0,,0.0-45.0,,1.0,660.3100001,1.0,0.6819912929999999,0.0,0.7179434290000001,1.0,0.265003961,0.0,0.28157921199999997,True,,5c48df1f2381060001bf9fd1,,696507,43,,evan-feature22,full_rf_a,,0
19,3200,44,,,,2,2,0.0,1.0,0.0,-1.0,,0.0-46.0,,-1.0,1164.28,1.0,0.665275002,1.0,0.723065271,0.0,0.260414971,1.0,0.30973870000000003,True,,5c48df1f2381060001bf9fd1,,707429,44,,evan-feature22,full_rf_a,,0
20,3201,45,,,,1,1,0.0,1.0,1.0,0.0,,0.0-47.0,,0.0,499.51,0.0,0.6660593260000001,1.0,0.728032907,0.0,0.30922817,0.0,0.338778608,True,,5c48df1f2381060001bf9fd1,,717684,45,,evan-feature22,full_rf_a,,1
21,3202,46,,,,1,1,1.0,0.0,1.0,0.0,,0.0-48.0,,1.0,565.055,1.0,0.702068785,0.0,0.6528750879999999,1.0,0.287329608,1.0,0.35789613200000003,True,,5c48df1f2381060001bf9fd1,,728005,46,,evan-feature22,full_rf_a,,0
22,3203,47,,,,1,1,0.0,1.0,1.0,0.0,,0.0-49.0,,0.0,532.9399999,0.0,0.651939787,1.0,0.636725589,0.0,0.284834488,0.0,0.358563756,True,,5c48df1f2381060001bf9fd1,,738296,47,,evan-feature22,full_rf_a,,0
23,3204,48,,,,1,1,0.0,1.0,0.0,-1.0,,0.0-50.0,,-1.0,563.61,0.0,0.67573929,1.0,0.612550049,1.0,0.37130387600000003,0.0,0.383542402,True,,5c48df1f2381060001bf9fd1,,748617,48,,evan-feature22,full_rf_a,,0
24,3205,49,,,,2,2,1.0,0.0,0.0,-1.0,,0.0-51.0,,0.0,347.26,1.0,0.620753801,1.0,0.60513644,1.0,0.385529434,0.0,0.340361743,True,,5c48df1f2381060001bf9fd1,,758720,49,,evan-feature22,full_rf_a,,1
25,3206,50,,,,2,2,0.0,0.0,0.0,-1.0,,0.0-52.0,,0.0,1165.035,0.0,0.673564893,1.0,0.672437924,0.0,0.292955382,0.0,0.337633795,True,,5c48df1f2381060001bf9fd1,,769641,50,,evan-feature22,full_rf_a,,0
26,3207,51,,,,1,1,1.0,1.0,1.0,0.0,,0.0-53.0,,1.0,1333.195,1.0,0.6749427,1.0,0.724197502,0.0,0.32391132100000003,0.0,0.350995264,True,,5c48df1f2381060001bf9fd1,,780728,51,,evan-feature22,full_rf_a,,1
27,3208,52,,,,1,1,1.0,1.0,1.0,0.0,,0.0-54.0,,1.0,542.995,1.0,0.6940159379999999,1.0,0.75,0.0,0.31710554399999996,0.0,0.413450341,True,,5c48df1f2381060001bf9fd1,,791026,52,,evan-feature22,full_rf_a,,0
28,3209,53,,,,1,1,1.0,1.0,1.0,0.0,,0.0-55.0,,1.0,1253.725,1.0,0.6916018270000001,1.0,0.69001187,0.0,0.261817804,1.0,0.40038635,True,,5c48df1f2381060001bf9fd1,,802036,53,,evan-feature22,full_rf_a,,0
29,3210,54,,,,1,1,0.0,0.0,1.0,0.0,,0.0-56.0,,0.0,932.8449999,0.0,0.641061544,0.0,0.71337992,0.0,0.277296461,0.0,0.47372791700000005,True,,5c48df1f2381060001bf9fd1,,812724,54,,evan-feature22,full_rf_a,,0
30,3211,55,,,,1,1,0.0,1.0,1.0,0.0,,0.0-57.0,,0.0,1077.555,0.0,0.6082438520000001,1.0,0.708471106,0.0,0.28745137,0.0,0.564174476,True,,5c48df1f2381060001bf9fd1,,823560,55,,evan-feature22,full_rf_a,,0
31,3212,56,,,,2,2,0.0,0.0,1.0,0.0,,0.0-58.0,,0.0,298.62,1.0,0.6051112120000001,1.0,0.7118147229999999,0.0,0.272390611,0.0,0.5595149939999999,True,,5c48df1f2381060001bf9fd1,,833615,56,,evan-feature22,full_rf_a,,1
32,3213,57,,,,1,1,0.0,0.0,1.0,0.0,,0.0-59.0,,0.0,1013.115,0.0,0.582420852,0.0,0.635867583,0.0,0.31089574,1.0,0.5227206520000001,True,,5c48df1f2381060001bf9fd1,,844385,57,,evan-feature22,full_rf_a,,1
33,3214,58,,,,2,2,0.0,1.0,0.0,-1.0,,0.0-60.0,,-1.0,2580.12,1.0,0.623195575,1.0,0.655026044,0.0,0.25,1.0,0.560387538,True,,5c48df1f2381060001bf9fd1,,856723,58,,evan-feature22,full_rf_a,,1
34,3215,59,,,,1,1,1.0,1.0,1.0,0.0,,0.0-61.0,,1.0,339.58,1.0,0.601889598,1.0,0.678198724,0.0,0.25,1.0,0.559922936,True,,5c48df1f2381060001bf9fd1,,866820,59,,evan-feature22,full_rf_a,,1
35,3216,60,,,,1,1,0.0,1.0,1.0,0.0,,0.0-62.0,,0.0,43.32500009,0.0,0.601259914,1.0,0.704681482,0.0,0.33908969299999997,1.0,0.505003715,True,,5c48df1f2381060001bf9fd1,,876620,60,,evan-feature22,full_rf_a,,0
36,3217,61,,,,1,1,1.0,1.0,1.0,0.0,,0.0-63.0,,1.0,1628.52,1.0,0.59645454,1.0,0.710437172,0.0,0.327441879,0.0,0.391749613,True,,5c48df1f2381060001bf9fd1,,888005,61,,evan-feature22,full_rf_a,,0
37,3218,62,,,,1,1,0.0,1.0,1.0,0.0,,0.0-64.0,,0.0,1484.52,0.0,0.529473,1.0,0.636758527,0.0,0.301338063,1.0,0.365661481,True,,5c48df1f2381060001bf9fd1,,899245,62,,evan-feature22,full_rf_a,,0
38,3219,63,,,,2,2,0.0,0.0,0.0,-1.0,,0.0-65.0,,0.0,2596.825,0.0,0.541657162,1.0,0.634541962,0.0,0.343535366,0.0,0.371763742,True,,5c48df1f2381060001bf9fd1,,911600,63,,evan-feature22,full_rf_a,,1
39,3220,64,,,,1,1,0.0,1.0,1.0,0.0,,0.0-66.0,,0.0,1644.02,0.0,0.5707533260000001,1.0,0.589121171,1.0,0.326428396,0.0,0.43961622899999997,True,,5c48df1f2381060001bf9fd1,,923001,64,,evan-feature22,full_rf_a,,1
40,3221,65,,,,2,2,1.0,0.0,1.0,0.0,,0.0-67.0,,1.0,1036.455,1.0,0.5707533260000001,0.0,0.589121171,1.0,0.326428396,0.0,0.43961622899999997,True,,5c48df1f2381060001bf9fd1,,933793,65,,evan-feature22,full_rf_a,,1
41,3222,66,,,,2,2,0.0,0.0,1.0,0.0,,0.0-68.0,,0.0,557.155,0.0,0.506271295,1.0,0.641775594,0.0,0.37149690700000004,0.0,0.404330166,True,,5c48df1f2381060001bf9fd1,,944107,66,,evan-feature22,full_rf_a,,0
42,3223,67,,,,2,2,1.0,0.0,0.0,-1.0,,0.0-69.0,,0.0,1628.875,0.0,0.455642565,1.0,0.623605825,1.0,0.358753011,0.0,0.346174041,True,,5c48df1f2381060001bf9fd1,,955492,67,,evan-feature22,full_rf_a,,0
43,3224,68,,,,2,2,1.0,0.0,0.0,-1.0,,0.0-70.0,,0.0,948.2999999,1.0,0.483677308,0.0,0.5904681070000001,1.0,0.402218411,0.0,0.35344697,True,,5c48df1f2381060001bf9fd1,,966198,68,,evan-feature22,full_rf_a,,0
44,3225,69,,,,2,2,0.0,1.0,0.0,-1.0,,0.0-71.0,,-1.0,731.7499999,1.0,0.394210977,1.0,0.558925494,0.0,0.540052017,1.0,0.35182128700000004,True,,5c48df1f2381060001bf9fd1,,976687,69,,evan-feature22,full_rf_a,,0
45,3226,70,,,,2,2,1.0,1.0,1.0,0.0,,0.0-72.0,,1.0,1883.97,1.0,0.382300414,1.0,0.577670603,1.0,0.607608448,1.0,0.378261578,True,,5c48df1f2381060001bf9fd1,,988327,70,,evan-feature22,full_rf_a,,0
46,3227,71,,,,2,2,0.0,1.0,1.0,0.0,,0.0-73.0,,0.0,684.925,1.0,0.357596762,0.0,0.5929076529999999,0.0,0.6579790010000001,1.0,0.401326777,True,,5c48df1f2381060001bf9fd1,,998770,71,,evan-feature22,full_rf_a,,0
47,3228,72,,,,2,2,0.0,0.0,1.0,0.0,,0.0-74.0,,0.0,1659.42,0.0,0.362033495,1.0,0.582308608,0.0,0.649195052,0.0,0.355158505,True,,5c48df1f2381060001bf9fd1,,1010185,72,,evan-feature22,full_rf_a,,0
48,3229,73,,,,1,1,0.0,1.0,1.0,0.0,,0.0-75.0,,0.0,2396.805,0.0,0.369620635,1.0,0.669100864,1.0,0.706059111,0.0,0.362516241,True,,5c48df1f2381060001bf9fd1,,1022339,73,,evan-feature22,full_rf_a,,1
49,3230,74,,,,2,2,1.0,1.0,1.0,0.0,,0.0-76.0,,1.0,1195.775,0.0,0.41477751399999996,1.0,0.7284416779999999,1.0,0.7182656940000001,1.0,0.36228040899999997,True,,5c48df1f2381060001bf9fd1,,1033291,74,,evan-feature22,full_rf_a,,1
50,3231,75,,,,1,1,0.0,1.0,0.0,-1.0,,0.0-77.0,,-1.0,2229.69,0.0,0.37675460299999997,1.0,0.703250285,1.0,0.75,0.0,0.461979164,True,,5c48df1f2381060001bf9fd1,,1045278,75,,evan-feature22,full_rf_a,,1
51,3232,76,,,,SLOW,SLOW,,,0.0,-1.0,,0.0-78.0,,-3.0,,1.0,0.398716075,1.0,0.6723864890000001,1.0,0.674153818,1.0,0.519029516,True,,5c48df1f2381060001bf9fd1,,1051080,76,,evan-feature22,full_rf_a,,1
52,3233,77,,,,2,2,0.0,0.0,1.0,0.0,,0.0-79.0,,0.0,97.23499999,0.0,0.34677856700000004,0.0,0.69057175,0.0,0.6822438540000001,0.0,0.477292237,True,,5c48df1f2381060001bf9fd1,,1060934,77,,evan-feature22,full_rf_a,,1
53,3234,78,,,,1,1,0.0,0.0,0.0,-1.0,,0.0-80.0,,0.0,1653.475,0.0,0.28580469199999997,0.0,0.68408818,1.0,0.684207565,1.0,0.49780448299999996,True,,5c48df1f2381060001bf9fd1,,1072343,78,,evan-feature22,full_rf_a,,1
54,3236,80,,,,2,2,1.0,0.0,1.0,0.0,,0.0-82.0,,1.0,2053.19,0.0,0.25,0.0,0.7405808970000001,1.0,0.679614108,0.0,0.436436964,True,,5c48df1f2381060001bf9fd1,,1101530,80,,evan-feature22,full_rf_a,,1
55,3237,81,,,,2,2,1.0,0.0,0.0,-1.0,,0.0-83.0,,0.0,1756.935,0.0,0.29890393,1.0,0.730505706,1.0,0.7328203320000001,0.0,0.439256938,True,,5c48df1f2381060001bf9fd1,,1113044,81,,evan-feature22,full_rf_a,,0
56,3238,82,,,,2,2,1.0,1.0,1.0,0.0,,0.0-84.0,,1.0,2244.685,1.0,0.326762398,1.0,0.7148059609999999,1.0,0.75,1.0,0.44389608799999997,True,,5c48df1f2381060001bf9fd1,,1125046,82,,evan-feature22,full_rf_a,,0
57,3239,83,,,,2,2,1.0,1.0,1.0,0.0,,0.0-85.0,,1.0,939.2350001,1.0,0.295168515,1.0,0.739760854,1.0,0.719947008,1.0,0.35277284600000003,True,,5c48df1f2381060001bf9fd1,,1135741,83,,evan-feature22,full_rf_a,,0
58,3240,84,,,,SLOW,SLOW,,,1.0,0.0,,0.0-86.0,,-3.0,,0.0,0.25,1.0,0.70781482,0.0,0.75,0.0,0.286095925,True,,5c48df1f2381060001bf9fd1,,1141545,84,,evan-feature22,full_rf_a,,1
59,3241,85,,,,2,2,1.0,0.0,0.0,-1.0,,0.0-87.0,,0.0,1562.095,0.0,0.25638190899999996,1.0,0.704088163,1.0,0.75,0.0,0.26872601399999996,True,,5c48df1f2381060001bf9fd1,,1152865,85,,evan-feature22,full_rf_a,,1
60,3242,86,,,,2,2,1.0,1.0,0.0,-1.0,,0.0-88.0,,-1.0,1651.35,1.0,0.271581126,1.0,0.669760107,1.0,0.733896663,1.0,0.273244572,True,,5c48df1f2381060001bf9fd1,,1164271,86,,evan-feature22,full_rf_a,,0
61,3243,87,,,,SLOW,SLOW,,,0.0,-1.0,,0.0-89.0,,-3.0,,0.0,0.257144401,0.0,0.600575706,1.0,0.74488122,0.0,0.25,True,,5c48df1f2381060001bf9fd1,,1170075,87,,evan-feature22,full_rf_a,,1
62,3244,88,,,,1,1,1.0,1.0,1.0,0.0,,0.0-90.0,,1.0,370.43,1.0,0.25,1.0,0.616870026,1.0,0.723610234,0.0,0.25,True,,5c48df1f2381060001bf9fd1,,1180201,88,,evan-feature22,full_rf_a,,1
63,3245,89,,,,1,1,0.0,1.0,0.0,-1.0,,0.0-91.0,,-1.0,14.05999996,0.0,0.25,1.0,0.583540187,0.0,0.7041042559999999,0.0,0.285961995,True,,5c48df1f2381060001bf9fd1,,1189971,89,,evan-feature22,full_rf_a,,0
64,3246,90,,,,2,2,1.0,0.0,1.0,0.0,,0.0-92.0,,1.0,1060.88,0.0,0.27254536,1.0,0.53875765,1.0,0.693783448,0.0,0.284961652,True,,5c48df1f2381060001bf9fd1,,1200789,90,,evan-feature22,full_rf_a,,1
65,3247,91,,,,2,2,1.0,0.0,0.0,-1.0,,0.0-93.0,,0.0,1027.185,0.0,0.25,0.0,0.548431252,1.0,0.734221895,0.0,0.279445214,True,,5c48df1f2381060001bf9fd1,,1211573,91,,evan-feature22,full_rf_a,,0
66,3248,92,,,,2,2,1.0,1.0,1.0,0.0,,0.0-94.0,,1.0,1028.965,0.0,0.258640684,0.0,0.545878066,1.0,0.725245965,1.0,0.31487537,True,,5c48df1f2381060001bf9fd1,,1222360,92,,evan-feature22,full_rf_a,,0
67,3249,93,,,,2,2,1.0,1.0,1.0,0.0,,0.0-95.0,,1.0,2107.865,0.0,0.251103711,1.0,0.5776290629999999,1.0,0.696320133,1.0,0.317831047,True,,5c48df1f2381060001bf9fd1,,1234223,93,,evan-feature22,full_rf_a,,0
68,3250,94,,,,2,2,1.0,0.0,1.0,0.0,,0.0-96.0,,1.0,869.2150001,0.0,0.276630292,1.0,0.617329858,1.0,0.73838088,0.0,0.261471582,True,,5c48df1f2381060001bf9fd1,,1244850,94,,evan-feature22,full_rf_a,,0
69,3251,95,,,,2,2,0.0,0.0,0.0,-1.0,,0.0-97.0,,0.0,3099.87,0.0,0.297716424,0.0,0.618863717,0.0,0.7402358259999999,0.0,0.262600834,True,,5c48df1f2381060001bf9fd1,,1257707,95,,evan-feature22,full_rf_a,,0
70,3252,96,,,,2,2,1.0,0.0,1.0,0.0,,0.0-98.0,,1.0,547.0200001000001,1.0,0.290935512,0.0,0.695370945,1.0,0.706570507,0.0,0.280030553,True,,5c48df1f2381060001bf9fd1,,1268009,96,,evan-feature22,full_rf_a,,0
71,3253,97,,,,2,2,1.0,0.0,1.0,0.0,,0.0-99.0,,1.0,902.03,0.0,0.25,1.0,0.6465277079999999,1.0,0.67766682,0.0,0.25,True,,5c48df1f2381060001bf9fd1,,1278666,97,,evan-feature22,full_rf_a,,0
72,3254,98,,,,2,2,1.0,0.0,1.0,0.0,,0.0-100.0,,1.0,277.87,0.0,0.26463816,1.0,0.636100213,1.0,0.646048507,0.0,0.265607101,True,,5c48df1f2381060001bf9fd1,,1288700,98,,evan-feature22,full_rf_a,,0
73,3255,99,,,,2,2,0.0,1.0,1.0,0.0,,0.0-101.0,,0.0,941.99,0.0,0.314340707,1.0,0.667795927,0.0,0.613630805,1.0,0.25,True,,5c48df1f2381060001bf9fd1,,1299398,99,,evan-feature22,full_rf_a,,0
74,3256,100,,,,2,2,0.0,0.0,1.0,0.0,,0.0-102.0,,0.0,676.475,1.0,0.28685784,1.0,0.6622549529999999,0.0,0.652154117,0.0,0.25,True,,5c48df1f2381060001bf9fd1,,1309831,100,,evan-feature22,full_rf_a,,0
75,3257,101,,,,2,2,1.0,0.0,0.0,-1.0,,0.0-103.0,,0.0,724.3100001,0.0,0.304106554,0.0,0.631289538,1.0,0.707041942,0.0,0.29314237,True,,5c48df1f2381060001bf9fd1,,1320311,101,,evan-feature22,full_rf_a,,0
76,3258,102,,,,2,2,0.0,0.0,0.0,-1.0,,0.0-104.0,,0.0,3669.615,0.0,0.304806932,0.0,0.571167718,0.0,0.680472346,0.0,0.25,True,,5c48df1f2381060001bf9fd1,,1333736,102,,evan-feature22,full_rf_a,,0
77,3259,103,,,,2,2,1.0,1.0,0.0,-1.0,,0.0-105.0,,-1.0,1173.58,0.0,0.37919861,1.0,0.5724849710000001,1.0,0.705638003,1.0,0.30179300600000003,True,,5c48df1f2381060001bf9fd1,,1344667,103,,evan-feature22,full_rf_a,,0
78,3260,104,,,,1,1,0.0,0.0,0.0,-1.0,,0.0-106.0,,0.0,116.08000009999999,0.0,0.464277969,0.0,0.554034373,1.0,0.7372627340000001,0.0,0.264699741,True,,5c48df1f2381060001bf9fd1,,1354540,104,,evan-feature22,full_rf_a,,1
79,3261,105,,,,1,1,1.0,1.0,1.0,0.0,,0.0-107.0,,1.0,963.8500001,1.0,0.465104323,1.0,0.530793115,1.0,0.75,0.0,0.31683071,True,,5c48df1f2381060001bf9fd1,,1365259,105,,evan-feature22,full_rf_a,,0
80,3262,106,,,,1,1,0.0,0.0,0.0,-1.0,,0.0-108.0,,0.0,381.37,0.0,0.465104323,0.0,0.530793115,0.0,0.75,0.0,0.31683071,True,,5c48df1f2381060001bf9fd1,,1375398,106,,evan-feature22,full_rf_a,,0
81,3263,107,,,,1,1,1.0,0.0,0.0,-1.0,,0.0-109.0,,0.0,643.395,1.0,0.46833986,0.0,0.570249239,1.0,0.7244472590000001,1.0,0.364114163,True,,5c48df1f2381060001bf9fd1,,1385797,107,,evan-feature22,full_rf_a,,0
82,3264,108,,,,1,1,0.0,1.0,0.0,-1.0,,0.0-110.0,,-1.0,1069.585,0.0,0.445444024,1.0,0.649673355,0.0,0.6845441290000001,0.0,0.300660449,True,,5c48df1f2381060001bf9fd1,,1396623,108,,evan-feature22,full_rf_a,,0
83,3265,109,,,,2,2,1.0,0.0,0.0,-1.0,,0.0-111.0,,0.0,404.645,0.0,0.39909721299999995,1.0,0.6715179509999999,1.0,0.742310028,0.0,0.35496088299999995,True,,5c48df1f2381060001bf9fd1,,1406783,109,,evan-feature22,full_rf_a,,1
84,3266,110,,,,2,2,1.0,1.0,0.0,-1.0,,0.0-112.0,,-1.0,701.8200001,1.0,0.37956104799999996,0.0,0.694725302,1.0,0.7181651309999999,1.0,0.38726906299999997,True,,5c48df1f2381060001bf9fd1,,1417241,110,,evan-feature22,full_rf_a,,0
85,3267,111,,,,1,1,0.0,1.0,0.0,-1.0,,0.0-113.0,,-1.0,476.27,0.0,0.404995034,1.0,0.724375412,1.0,0.6910946859999999,1.0,0.387187347,True,,5c48df1f2381060001bf9fd1,,1427474,111,,evan-feature22,full_rf_a,,1
86,3268,112,,,,2,2,1.0,0.0,0.0,-1.0,,0.0-114.0,,0.0,1173.26,0.0,0.461740803,1.0,0.75,1.0,0.75,0.0,0.34872038200000005,True,,5c48df1f2381060001bf9fd1,,1438403,112,,evan-feature22,full_rf_a,,1
87,3269,113,,,,2,2,0.0,0.0,1.0,0.0,,0.0-115.0,,0.0,932.415,1.0,0.43821380600000004,1.0,0.738833273,0.0,0.728286963,0.0,0.399538128,True,,5c48df1f2381060001bf9fd1,,1449092,113,,evan-feature22,full_rf_a,,0
88,3270,114,,,,2,2,1.0,0.0,0.0,-1.0,,0.0-116.0,,0.0,381.42,1.0,0.41709882,1.0,0.736666736,1.0,0.75,0.0,0.389095584,True,,5c48df1f2381060001bf9fd1,,1459230,114,,evan-feature22,full_rf_a,,0
89,3271,115,,,,2,2,0.0,0.0,0.0,-1.0,,0.0-117.0,,0.0,948.28,0.0,0.39749009799999996,0.0,0.744320029,0.0,0.75,0.0,0.363848678,True,,5c48df1f2381060001bf9fd1,,1469934,115,,evan-feature22,full_rf_a,,0
90,3272,116,,,,2,2,0.0,0.0,1.0,0.0,,0.0-118.0,,0.0,781.1500001,1.0,0.392653706,1.0,0.75,0.0,0.75,0.0,0.384386976,True,,5c48df1f2381060001bf9fd1,,1480472,116,,evan-feature22,full_rf_a,,0
91,3273,117,,,,2,2,0.0,0.0,1.0,0.0,,0.0-119.0,,0.0,683.17,1.0,0.31190902600000003,1.0,0.75,0.0,0.732413819,0.0,0.413082932,True,,5c48df1f2381060001bf9fd1,,1490913,117,,evan-feature22,full_rf_a,,0
92,3274,118,,,,2,2,1.0,1.0,0.0,-1.0,,0.0-120.0,,-1.0,1508.275,0.0,0.366917648,0.0,0.740073855,1.0,0.75,1.0,0.352861979,True,,5c48df1f2381060001bf9fd1,,1502178,118,,evan-feature22,full_rf_a,,0
93,3275,119,,,,1,1,1.0,1.0,0.0,-1.0,,0.0-121.0,,-1.0,331.895,1.0,0.3645172,1.0,0.721770713,0.0,0.75,1.0,0.404074511,True,,5c48df1f2381060001bf9fd1,,1512266,119,,evan-feature22,full_rf_a,,1
94,3276,120,,,,2,2,1.0,1.0,0.0,-1.0,,0.0-122.0,,-1.0,653.53,0.0,0.35205600299999995,0.0,0.68983859,1.0,0.739735447,1.0,0.366895945,True,,5c48df1f2381060001bf9fd1,,1522676,120,,evan-feature22,full_rf_a,,1
95,3277,121,,,,1,1,1.0,1.0,0.0,-1.0,,0.0-123.0,,-1.0,316.49,1.0,0.40998722600000004,1.0,0.720859127,0.0,0.673854955,0.0,0.368528541,True,,5c48df1f2381060001bf9fd1,,1532749,121,,evan-feature22,full_rf_a,,1
96,3278,122,,,,2,2,1.0,0.0,1.0,0.0,,0.0-124.0,,1.0,339.4350001,0.0,0.353625316,0.0,0.75,1.0,0.695605473,0.0,0.38303674200000004,True,,5c48df1f2381060001bf9fd1,,1542845,122,,evan-feature22,full_rf_a,,1
97,3279,123,,,,2,2,1.0,0.0,0.0,-1.0,,0.0-125.0,,0.0,685.4300001,0.0,0.359216989,1.0,0.75,1.0,0.6987915090000001,0.0,0.35169046200000004,True,,5c48df1f2381060001bf9fd1,,1553288,123,,evan-feature22,full_rf_a,,0
98,3280,124,,,,2,2,0.0,0.0,1.0,0.0,,0.0-126.0,,0.0,379.265,0.0,0.35834496899999996,1.0,0.75,0.0,0.707067742,0.0,0.416763636,True,,5c48df1f2381060001bf9fd1,,1563424,124,,evan-feature22,full_rf_a,,0
99,3281,125,,,,2,2,0.0,1.0,1.0,0.0,,0.0-127.0,,0.0,476.205,0.0,0.38741613799999997,0.0,0.7177369570000001,0.0,0.734902455,1.0,0.49438664299999996,True,,5c48df1f2381060001bf9fd1,,1573657,125,,evan-feature22,full_rf_a,,0
100,3282,126,,,,2,2,1.0,0.0,0.0,-1.0,,0.0-128.0,,0.0,948.3449999,1.0,0.405255252,1.0,0.7300466640000001,1.0,0.7027748070000001,0.0,0.504359668,True,,5c48df1f2381060001bf9fd1,,1584362,126,,evan-feature22,full_rf_a,,0
101,3283,127,,,,2,2,0.0,1.0,0.0,-1.0,,0.0-129.0,,-1.0,1171.335,0.0,0.40697073,1.0,0.7260142190000001,0.0,0.724461982,1.0,0.522779179,True,,5c48df1f2381060001bf9fd1,,1595291,127,,evan-feature22,full_rf_a,,0
102,3284,128,,,,1,1,0.0,1.0,0.0,-1.0,,0.0-130.0,,-1.0,1508.355,0.0,0.43906215299999996,1.0,0.7252802340000001,0.0,0.719079934,1.0,0.5712990579999999,True,,5c48df1f2381060001bf9fd1,,1606558,128,,evan-feature22,full_rf_a,,1
103,3285,129,,,,1,1,1.0,1.0,0.0,-1.0,,0.0-131.0,,-1.0,2147.2,1.0,0.4076705,1.0,0.73280499,1.0,0.681313127,1.0,0.523891346,True,,5c48df1f2381060001bf9fd1,,1618461,129,,evan-feature22,full_rf_a,,0
104,3286,130,,,,2,2,1.0,1.0,0.0,-1.0,,0.0-132.0,,-1.0,316.495,1.0,0.399102911,1.0,0.730498344,1.0,0.661080239,1.0,0.46742603,True,,5c48df1f2381060001bf9fd1,,1628534,130,,evan-feature22,full_rf_a,,1
105,3287,131,,,,1,1,1.0,1.0,1.0,0.0,,0.0-133.0,,1.0,172.285,1.0,0.356477282,1.0,0.712296395,0.0,0.641812684,0.0,0.44868414,True,,5c48df1f2381060001bf9fd1,,1638462,131,,evan-feature22,full_rf_a,,1
106,3288,132,,,,1,1,0.0,1.0,0.0,-1.0,,0.0-134.0,,-1.0,1549.68,0.0,0.462760722,1.0,0.692349322,1.0,0.700947931,0.0,0.394680266,True,,5c48df1f2381060001bf9fd1,,1649768,132,,evan-feature22,full_rf_a,,0
107,3289,133,,,,2,2,1.0,0.0,0.0,-1.0,,0.0-135.0,,0.0,717.2599999,0.0,0.422306413,1.0,0.718375916,1.0,0.706340917,0.0,0.367787185,True,,5c48df1f2381060001bf9fd1,,1660241,133,,evan-feature22,full_rf_a,,1
108,3291,135,,,,2,2,1.0,1.0,0.0,-1.0,,0.0-137.0,,-1.0,2238.55,0.0,0.4582233,0.0,0.643834117,1.0,0.75,1.0,0.39615823299999997,True,,5c48df1f2381060001bf9fd1,,1684388,135,,evan-feature22,full_rf_a,,0
109,3292,136,,,,1,1,1.0,0.0,0.0,-1.0,,0.0-138.0,,0.0,331.895,1.0,0.43813437899999996,0.0,0.651283804,1.0,0.729674191,1.0,0.37711048,True,,5c48df1f2381060001bf9fd1,,1694476,136,,evan-feature22,full_rf_a,,1
110,3293,137,,,,1,1,1.0,1.0,0.0,-1.0,,0.0-139.0,,-1.0,428.995,1.0,0.471199094,1.0,0.6470010979999999,1.0,0.715008097,0.0,0.410656191,True,,5c48df1f2381060001bf9fd1,,1704663,137,,evan-feature22,full_rf_a,,0
111,3294,138,,,,1,1,0.0,1.0,1.0,0.0,,0.0-140.0,,0.0,570.53,0.0,0.42486406,1.0,0.629771829,1.0,0.6550939960000001,1.0,0.459093873,True,,5c48df1f2381060001bf9fd1,,1714990,138,,evan-feature22,full_rf_a,,0
112,3295,139,,,,1,1,1.0,1.0,1.0,0.0,,0.0-141.0,,1.0,396.785,1.0,0.4803197,1.0,0.645842715,1.0,0.6421749920000001,1.0,0.443092151,True,,5c48df1f2381060001bf9fd1,,1725144,139,,evan-feature22,full_rf_a,,0
113,3296,140,,,,1,1,0.0,0.0,1.0,0.0,,0.0-142.0,,0.0,1108.84,0.0,0.521848997,0.0,0.735801074,0.0,0.6691348460000001,0.0,0.45259351600000003,True,,5c48df1f2381060001bf9fd1,,1736011,140,,evan-feature22,full_rf_a,,0
114,3297,141,,,,1,1,1.0,1.0,0.0,-1.0,,0.0-143.0,,-1.0,330.74,1.0,0.49565621299999996,1.0,0.742400847,1.0,0.661512553,0.0,0.483110831,True,,5c48df1f2381060001bf9fd1,,1746099,141,,evan-feature22,full_rf_a,,0
115,3298,142,,,,2,2,0.0,0.0,1.0,0.0,,0.0-144.0,,0.0,675.97,1.0,0.521564361,1.0,0.731078632,0.0,0.6774886809999999,0.0,0.483263956,True,,5c48df1f2381060001bf9fd1,,1756532,142,,evan-feature22,full_rf_a,,1
116,3299,143,,,,2,2,0.0,1.0,1.0,0.0,,0.0-145.0,,0.0,419.495,0.0,0.558893102,0.0,0.719810023,0.0,0.67461031,1.0,0.499349834,True,,5c48df1f2381060001bf9fd1,,1766708,143,,evan-feature22,full_rf_a,,0
117,3300,144,,,,2,2,0.0,1.0,0.0,-1.0,,0.0-146.0,,-1.0,324.945,0.0,0.611031046,0.0,0.75,0.0,0.688072995,1.0,0.5321422729999999,True,,5c48df1f2381060001bf9fd1,,1776790,144,,evan-feature22,full_rf_a,,0
118,3301,145,,,,1,1,0.0,0.0,1.0,0.0,,0.0-147.0,,0.0,555.82,0.0,0.633223941,0.0,0.713567728,0.0,0.75,1.0,0.48185314700000004,True,,5c48df1f2381060001bf9fd1,,1787103,145,,evan-feature22,full_rf_a,,1
119,3302,146,,,,1,1,0.0,1.0,1.0,0.0,,0.0-148.0,,0.0,323.7750001,0.0,0.664001694,1.0,0.705509768,1.0,0.75,1.0,0.500211065,True,,5c48df1f2381060001bf9fd1,,1797184,146,,evan-feature22,full_rf_a,,0
120,3303,147,,,,1,1,1.0,1.0,0.0,-1.0,,0.0-149.0,,-1.0,603.4349999,1.0,0.664001694,1.0,0.705509768,1.0,0.75,1.0,0.500211065,True,,5c48df1f2381060001bf9fd1,,1807546,147,,evan-feature22,full_rf_a,,0
121,3304,148,,,,2,2,0.0,1.0,0.0,-1.0,,0.0-150.0,,-1.0,33.55000005,0.0,0.696508041,1.0,0.71066027,0.0,0.717028709,1.0,0.49792991,True,,5c48df1f2381060001bf9fd1,,1817337,148,,evan-feature22,full_rf_a,,1
122,3305,149,,,,1,1,1.0,1.0,1.0,0.0,,0.0-151.0,,1.0,404.215,1.0,0.699883272,1.0,0.75,1.0,0.713543895,1.0,0.496962643,True,,5c48df1f2381060001bf9fd1,,1827497,149,,evan-feature22,full_rf_a,,1
123,3306,150,,,,1,1,1.0,1.0,0.0,-1.0,,0.0-152.0,,-1.0,475.8250001,1.0,0.741163419,1.0,0.75,1.0,0.64691024,1.0,0.513858197,True,,5c48df1f2381060001bf9fd1,,1837731,150,,evan-feature22,full_rf_a,,0
124,3307,151,,,,2,2,0.0,1.0,1.0,0.0,,0.0-153.0,,0.0,332.88,1.0,0.75,1.0,0.70816558,0.0,0.594499079,1.0,0.48502124,True,,5c48df1f2381060001bf9fd1,,1847822,151,,evan-feature22,full_rf_a,,1
125,3308,152,,,,2,2,1.0,0.0,0.0,-1.0,,0.0-154.0,,0.0,490.32,1.0,0.75,0.0,0.721848901,1.0,0.62197249,0.0,0.48263586399999997,True,,5c48df1f2381060001bf9fd1,,1858070,152,,evan-feature22,full_rf_a,,0
126,3309,153,,,,2,2,0.0,1.0,1.0,0.0,,0.0-155.0,,0.0,371.4299999,1.0,0.75,1.0,0.74813071,0.0,0.584357161,1.0,0.411477782,True,,5c48df1f2381060001bf9fd1,,1868199,153,,evan-feature22,full_rf_a,,0
127,3310,154,,,,2,2,1.0,1.0,0.0,-1.0,,0.0-156.0,,-1.0,890.895,1.0,0.75,1.0,0.75,1.0,0.52287236,1.0,0.488290656,True,,5c48df1f2381060001bf9fd1,,1878848,154,,evan-feature22,full_rf_a,,0
128,3311,155,,,,1,1,0.0,0.0,0.0,-1.0,,0.0-157.0,,0.0,458.86,0.0,0.75,0.0,0.75,1.0,0.544321581,0.0,0.53143059,True,,5c48df1f2381060001bf9fd1,,1889063,155,,evan-feature22,full_rf_a,,1
129,3312,156,,,,1,1,1.0,1.0,0.0,-1.0,,0.0-158.0,,-1.0,909.43,1.0,0.726754564,1.0,0.75,1.0,0.5129306370000001,1.0,0.530592445,True,,5c48df1f2381060001bf9fd1,,1899729,156,,evan-feature22,full_rf_a,,0
130,3313,157,,,,2,2,1.0,0.0,1.0,0.0,,0.0-159.0,,1.0,380.3450001,1.0,0.75,0.0,0.7392590729999999,1.0,0.479875835,0.0,0.547007051,True,,5c48df1f2381060001bf9fd1,,1909867,157,,evan-feature22,full_rf_a,,1
131,3314,158,,,,2,2,0.0,1.0,1.0,0.0,,0.0-160.0,,0.0,323.3149999,1.0,0.75,1.0,0.7393376979999999,0.0,0.546045419,1.0,0.541267353,True,,5c48df1f2381060001bf9fd1,,1919948,158,,evan-feature22,full_rf_a,,0
132,3315,159,,,,2,2,1.0,1.0,1.0,0.0,,0.0-161.0,,1.0,339.51999989999996,1.0,0.75,1.0,0.75,1.0,0.485725895,1.0,0.527625395,True,,5c48df1f2381060001bf9fd1,,1930046,159,,evan-feature22,full_rf_a,,0
133,3316,160,,,,2,2,1.0,1.0,0.0,-1.0,,0.0-162.0,,-1.0,801.77,1.0,0.75,1.0,0.725087974,1.0,0.488603595,1.0,0.504019206,True,,5c48df1f2381060001bf9fd1,,1940605,160,,evan-feature22,full_rf_a,,0
134,3317,161,,,,1,1,1.0,1.0,0.0,-1.0,,0.0-163.0,,-1.0,364.41500010000004,1.0,0.745504295,1.0,0.75,0.0,0.452379914,0.0,0.50131194,True,,5c48df1f2381060001bf9fd1,,1950726,161,,evan-feature22,full_rf_a,,1
135,3318,162,,,,1,1,1.0,0.0,0.0,-1.0,,0.0-164.0,,0.0,1916.62,1.0,0.728513874,0.0,0.75,0.0,0.44125567200000004,0.0,0.531454591,True,,5c48df1f2381060001bf9fd1,,1962399,162,,evan-feature22,full_rf_a,,0
136,3319,163,,,,1,1,1.0,0.0,1.0,0.0,,0.0-165.0,,1.0,660.67,1.0,0.73790804,0.0,0.75,0.0,0.413036656,0.0,0.524619035,True,,5c48df1f2381060001bf9fd1,,1972817,163,,evan-feature22,full_rf_a,,0
137,3320,164,,,,1,1,1.0,0.0,0.0,-1.0,,0.0-166.0,,0.0,571.815,1.0,0.7080961309999999,0.0,0.708666865,0.0,0.431915581,0.0,0.481819489,True,,5c48df1f2381060001bf9fd1,,1983145,164,,evan-feature22,full_rf_a,,0
138,3321,165,,,,1,1,1.0,1.0,0.0,-1.0,,0.0-167.0,,-1.0,317.405,1.0,0.721378003,1.0,0.71605913,1.0,0.36642387,0.0,0.5036739929999999,True,,5c48df1f2381060001bf9fd1,,1993218,165,,evan-feature22,full_rf_a,,0
139,3322,166,,,,2,2,0.0,1.0,0.0,-1.0,,0.0-168.0,,-1.0,684.585,1.0,0.7340618959999999,0.0,0.699323252,0.0,0.35298046299999997,1.0,0.511241692,True,,5c48df1f2381060001bf9fd1,,2003659,166,,evan-feature22,full_rf_a,,1
140,3323,167,,,,1,1,1.0,0.0,1.0,0.0,,0.0-169.0,,1.0,293.1,1.0,0.75,0.0,0.70412698,0.0,0.380734814,1.0,0.529580116,True,,5c48df1f2381060001bf9fd1,,2013707,167,,evan-feature22,full_rf_a,,1
141,3324,168,,,,1,1,1.0,1.0,0.0,-1.0,,0.0-170.0,,-1.0,885.365,1.0,0.7436654909999999,1.0,0.711182751,1.0,0.41125331,1.0,0.49554405,True,,5c48df1f2381060001bf9fd1,,2024349,168,,evan-feature22,full_rf_a,,0
142,3325,169,,,,2,2,0.0,0.0,0.0,-1.0,,0.0-171.0,,0.0,1227.73,1.0,0.731607915,1.0,0.651774583,0.0,0.35688023,0.0,0.45194491600000003,True,,5c48df1f2381060001bf9fd1,,2035334,169,,evan-feature22,full_rf_a,,1
143,3326,170,,,,2,2,1.0,0.0,1.0,0.0,,0.0-172.0,,1.0,413.205,1.0,0.75,1.0,0.75,1.0,0.283145374,0.0,0.528608005,True,,5c48df1f2381060001bf9fd1,,2045505,170,,evan-feature22,full_rf_a,,0
144,3327,171,,,,2,2,1.0,1.0,1.0,0.0,,0.0-173.0,,1.0,1475.28,1.0,0.7491416890000001,1.0,0.7423785959999999,1.0,0.29135870399999997,1.0,0.498888318,True,,5c48df1f2381060001bf9fd1,,2056737,171,,evan-feature22,full_rf_a,,0
145,3328,172,,,,2,2,0.0,1.0,1.0,0.0,,0.0-174.0,,0.0,460.94499989999997,0.0,0.708569387,1.0,0.717682277,0.0,0.294421699,1.0,0.493838163,True,,5c48df1f2381060001bf9fd1,,2066954,172,,evan-feature22,full_rf_a,,0
146,3329,173,,,,SLOW,SLOW,,,0.0,-1.0,,0.0-175.0,,-3.0,,0.0,0.75,0.0,0.7383382159999999,0.0,0.356098707,0.0,0.442533405,True,,5c48df1f2381060001bf9fd1,,2072757,173,,evan-feature22,full_rf_a,,1
147,3330,174,,,,2,2,1.0,0.0,0.0,-1.0,,0.0-176.0,,0.0,1025.65,1.0,0.744527075,1.0,0.75,1.0,0.334127506,0.0,0.393165805,True,,5c48df1f2381060001bf9fd1,,2083540,174,,evan-feature22,full_rf_a,,1
148,3331,175,,,,2,2,0.0,1.0,0.0,-1.0,,0.0-177.0,,-1.0,1028.33,1.0,0.75,1.0,0.75,0.0,0.33571021799999995,1.0,0.350393962,True,,5c48df1f2381060001bf9fd1,,2094324,175,,evan-feature22,full_rf_a,,0
149,3332,176,,,,1,1,1.0,0.0,0.0,-1.0,,0.0-178.0,,0.0,372.7449999,1.0,0.75,0.0,0.75,0.0,0.313628297,0.0,0.36349657399999996,True,,5c48df1f2381060001bf9fd1,,2104453,176,,evan-feature22,full_rf_a,,1
150,3333,177,,,,1,1,1.0,1.0,1.0,0.0,,0.0-179.0,,1.0,708.83,1.0,0.75,1.0,0.734284182,0.0,0.262667667,0.0,0.380199119,True,,5c48df1f2381060001bf9fd1,,2114919,177,,evan-feature22,full_rf_a,,0
151,3334,178,,,,1,1,1.0,1.0,0.0,-1.0,,0.0-180.0,,-1.0,1715.475,1.0,0.75,1.0,0.75,1.0,0.25,0.0,0.394494013,True,,5c48df1f2381060001bf9fd1,,2126392,178,,evan-feature22,full_rf_a,,0
152,3335,179,,,,2,2,1.0,0.0,1.0,0.0,,0.0-181.0,,1.0,452.775,1.0,0.722298145,1.0,0.7357822340000001,1.0,0.25,0.0,0.319142121,True,,5c48df1f2381060001bf9fd1,,2136601,179,,evan-feature22,full_rf_a,,1
153,3336,180,,,,2,2,0.0,0.0,1.0,0.0,,0.0-182.0,,0.0,508.395,1.0,0.73149275,1.0,0.724276446,0.0,0.305856907,0.0,0.281315057,True,,5c48df1f2381060001bf9fd1,,2146866,180,,evan-feature22,full_rf_a,,0
154,3337,181,,,,2,2,0.0,0.0,0.0,-1.0,,0.0-183.0,,0.0,563.4550001,1.0,0.7458732690000001,1.0,0.7336382459999999,0.0,0.272571964,0.0,0.266021999,True,,5c48df1f2381060001bf9fd1,,2157186,181,,evan-feature22,full_rf_a,,0
155,3338,182,,,,2,2,0.0,0.0,0.0,-1.0,,0.0-184.0,,0.0,2557.93,1.0,0.705579037,1.0,0.720778292,0.0,0.320238144,0.0,0.30971744,True,,5c48df1f2381060001bf9fd1,,2169500,182,,evan-feature22,full_rf_a,,0
156,3339,183,,,,1,1,1.0,0.0,0.0,-1.0,,0.0-185.0,,0.0,780.8300001,1.0,0.700425648,0.0,0.7198784009999999,0.0,0.272590393,0.0,0.304182931,True,,5c48df1f2381060001bf9fd1,,2180036,183,,evan-feature22,full_rf_a,,1
157,3340,184,,,,2,2,0.0,0.0,0.0,-1.0,,0.0-186.0,,0.0,349.4750001,1.0,0.735590785,1.0,0.722714973,0.0,0.25,0.0,0.323421091,True,,5c48df1f2381060001bf9fd1,,2190141,184,,evan-feature22,full_rf_a,,1
158,3341,185,,,,2,2,0.0,0.0,0.0,-1.0,,0.0-187.0,,0.0,420.4500001,1.0,0.724807662,1.0,0.63146213,0.0,0.36836492600000004,0.0,0.34592153299999995,True,,5c48df1f2381060001bf9fd1,,2200318,185,,evan-feature22,full_rf_a,,0
159,3342,186,,,,2,2,1.0,1.0,0.0,-1.0,,0.0-188.0,,-1.0,1742.13,1.0,0.7352796909999999,1.0,0.555111392,1.0,0.36003922,1.0,0.31433779999999995,True,,5c48df1f2381060001bf9fd1,,2211817,186,,evan-feature22,full_rf_a,,0
160,3343,187,notice,,,,,,,,,,0.0-189.0,"{""Q0"":""no""}",,9493.0,,,,,,,,,True,,5c48df1f2381060001bf9fd1,,2221311,187,Q,survey-text,full_rf_a,,1
161,3344,188,track1,,[1],,,,,,,,0.0-190.0,"{""Q0"":""no""}",,4118.0,,,,,,,,,True,,5c48df1f2381060001bf9fd1,,2225432,188,Q,evan-quiz,full_rf_a,,1
162,3345,189,track2,,[0],,,,,,,,0.0-191.0,"{""Q0"":""yes""}",,11119.0,,,,,,,,,True,,5c48df1f2381060001bf9fd1,,2236552,189,Q,evan-quiz,full_rf_a,,1
163,3346,190,strat,,,,,,,,,,0.0-192.0,"{""Q0"":""I tired to memorise a pattern but was unsuccessful""}",,31817.0,,,,,,,,,True,,5c48df1f2381060001bf9fd1,,2268371,190,Q,survey-text,full_rf_a,,1
