,index,Unnamed: 0,Q_name,button_pressed,choice_idxs,chosen_pos,chosen_state,chosen_state_f_1_outcome,chosen_state_f_2_outcome,f_1_reward,f_2_reward,incor_questions,internal_node_id,responses,reward_received,rt,s_1_f_1_outcome,s_1_f_1_prob,s_1_f_2_outcome,s_1_f_2_prob,s_2_f_1_outcome,s_2_f_1_prob,s_2_f_2_outcome,s_2_f_2_prob,safe_first,stimulus,subjectID,success,time_elapsed,trial_index,trial_num,trial_type,version,view_history,switching
0,8592,25,,,,2,2,0.0,0.0,0.0,1.0,,0.0-27.0,,0.0,3113.875,1.0,0.6,0.0,0.6,0.0,0.4,0.0,0.4,True,,5dd85601e05cad808fd62f3b,,449103,25,,evan-feature22,full_rf_b,,0
1,8593,26,,,,1,1,0.0,1.0,0.0,1.0,,0.0-28.0,,1.0,3673.44,0.0,0.608053294,1.0,0.63424552,0.0,0.397152172,0.0,0.347069101,True,,5dd85601e05cad808fd62f3b,,462642,26,,evan-feature22,full_rf_b,,1
2,8594,27,,,,1,1,0.0,1.0,0.0,1.0,,0.0-29.0,,1.0,3661.105,0.0,0.642237155,1.0,0.648566321,1.0,0.389407674,0.0,0.285525717,True,,5dd85601e05cad808fd62f3b,,476162,27,,evan-feature22,full_rf_b,,0
3,8595,28,,,,1,1,1.0,1.0,0.0,1.0,,0.0-30.0,,1.0,1385.015,1.0,0.661086576,1.0,0.630492543,1.0,0.399058924,1.0,0.25,True,,5dd85601e05cad808fd62f3b,,487399,28,,evan-feature22,full_rf_b,,0
4,8596,29,,,,1,1,1.0,0.0,0.0,1.0,,0.0-31.0,,0.0,1755.915,1.0,0.631324137,0.0,0.6269842929999999,0.0,0.38734784299999997,0.0,0.25,True,,5dd85601e05cad808fd62f3b,,498986,29,,evan-feature22,full_rf_b,,0
5,8597,30,,,,1,1,1.0,1.0,0.0,1.0,,0.0-32.0,,1.0,1357.535,1.0,0.6381991370000001,1.0,0.68987999,1.0,0.384107265,0.0,0.271332943,True,,5dd85601e05cad808fd62f3b,,510189,30,,evan-feature22,full_rf_b,,0
6,8598,31,,,,1,1,0.0,1.0,0.0,1.0,,0.0-33.0,,1.0,607.33,0.0,0.66034901,1.0,0.742641349,1.0,0.360225629,1.0,0.25,True,,5dd85601e05cad808fd62f3b,,520642,31,,evan-feature22,full_rf_b,,0
7,8599,32,,,,2,2,1.0,1.0,-1.0,0.0,,0.0-34.0,,-1.0,3284.44,1.0,0.638612418,0.0,0.75,1.0,0.367273939,1.0,0.25,True,,5dd85601e05cad808fd62f3b,,533798,32,,evan-feature22,full_rf_b,,1
8,8600,33,,,,1,1,0.0,1.0,0.0,1.0,,0.0-35.0,,1.0,1483.555,0.0,0.624340629,1.0,0.75,1.0,0.425829545,0.0,0.25,True,,5dd85601e05cad808fd62f3b,,545117,33,,evan-feature22,full_rf_b,,1
9,8601,34,,,,1,1,1.0,1.0,0.0,1.0,,0.0-36.0,,1.0,832.095,1.0,0.621999804,1.0,0.75,0.0,0.368609357,1.0,0.25,True,,5dd85601e05cad808fd62f3b,,555803,34,,evan-feature22,full_rf_b,,0
10,8602,35,,,,1,1,1.0,0.0,-1.0,0.0,,0.0-37.0,,-1.0,3787.27,1.0,0.62666403,0.0,0.75,0.0,0.311151498,0.0,0.25,True,,5dd85601e05cad808fd62f3b,,569442,35,,evan-feature22,full_rf_b,,0
11,8603,36,,,,2,2,0.0,1.0,-1.0,0.0,,0.0-38.0,,0.0,1890.36,1.0,0.6819650009999999,1.0,0.75,0.0,0.310763048,1.0,0.25,True,,5dd85601e05cad808fd62f3b,,581194,36,,evan-feature22,full_rf_b,,1
12,8604,37,,,,1,1,0.0,0.0,0.0,1.0,,0.0-39.0,,0.0,1190.505,0.0,0.740626951,0.0,0.75,0.0,0.25,0.0,0.25,True,,5dd85601e05cad808fd62f3b,,592233,37,,evan-feature22,full_rf_b,,1
13,8605,38,,,,1,1,1.0,1.0,0.0,1.0,,0.0-40.0,,1.0,1113.48,1.0,0.739599242,1.0,0.742034978,0.0,0.25397114600000004,0.0,0.25,True,,5dd85601e05cad808fd62f3b,,603184,38,,evan-feature22,full_rf_b,,0
14,8606,39,,,,1,1,1.0,1.0,0.0,1.0,,0.0-41.0,,1.0,842.105,1.0,0.732341315,1.0,0.72735643,0.0,0.25,0.0,0.25,True,,5dd85601e05cad808fd62f3b,,613837,39,,evan-feature22,full_rf_b,,0
15,8607,40,,,,1,1,0.0,0.0,0.0,1.0,,0.0-42.0,,0.0,923.92,0.0,0.7062287770000001,0.0,0.75,1.0,0.29002151,0.0,0.288256649,True,,5dd85601e05cad808fd62f3b,,624606,40,,evan-feature22,full_rf_b,,0
16,8608,41,,,,2,2,1.0,0.0,-1.0,0.0,,0.0-43.0,,-1.0,2213.905,1.0,0.7086029209999999,1.0,0.75,1.0,0.274129113,0.0,0.262851608,True,,5dd85601e05cad808fd62f3b,,636628,41,,evan-feature22,full_rf_b,,1
17,8609,42,,,,1,1,0.0,0.0,0.0,1.0,,0.0-44.0,,0.0,1612.995,0.0,0.669189651,0.0,0.727614338,0.0,0.298444036,1.0,0.296944518,True,,5dd85601e05cad808fd62f3b,,648081,42,,evan-feature22,full_rf_b,,1
18,8610,43,,,,1,1,1.0,0.0,-1.0,0.0,,0.0-45.0,,-1.0,1750.19,1.0,0.6819912929999999,0.0,0.7179434290000001,0.0,0.265003961,0.0,0.28157921199999997,True,,5dd85601e05cad808fd62f3b,,659652,43,,evan-feature22,full_rf_b,,0
19,8611,44,,,,2,2,0.0,0.0,-1.0,0.0,,0.0-46.0,,0.0,1682.24,0.0,0.665275002,1.0,0.723065271,0.0,0.260414971,0.0,0.30973870000000003,True,,5dd85601e05cad808fd62f3b,,671205,44,,evan-feature22,full_rf_b,,1
20,8612,45,,,,1,1,1.0,1.0,0.0,1.0,,0.0-47.0,,1.0,761.69,1.0,0.6660593260000001,1.0,0.728032907,0.0,0.30922817,0.0,0.338778608,True,,5dd85601e05cad808fd62f3b,,681792,45,,evan-feature22,full_rf_b,,1
21,8613,46,,,,1,1,1.0,1.0,0.0,1.0,,0.0-48.0,,1.0,690.49,1.0,0.702068785,1.0,0.6528750879999999,0.0,0.287329608,1.0,0.35789613200000003,True,,5dd85601e05cad808fd62f3b,,692317,46,,evan-feature22,full_rf_b,,0
22,8614,47,,,,1,1,1.0,0.0,0.0,1.0,,0.0-49.0,,0.0,703.74,1.0,0.651939787,0.0,0.636725589,0.0,0.284834488,1.0,0.358563756,True,,5dd85601e05cad808fd62f3b,,702865,47,,evan-feature22,full_rf_b,,0
23,8615,48,,,,2,2,0.0,0.0,0.0,1.0,,0.0-50.0,,0.0,1455.23,1.0,0.67573929,1.0,0.612550049,0.0,0.37130387600000003,0.0,0.383542402,True,,5dd85601e05cad808fd62f3b,,714184,48,,evan-feature22,full_rf_b,,1
24,8616,49,,,,1,1,1.0,0.0,0.0,1.0,,0.0-51.0,,0.0,1720.605,1.0,0.620753801,0.0,0.60513644,1.0,0.385529434,0.0,0.340361743,True,,5dd85601e05cad808fd62f3b,,725754,49,,evan-feature22,full_rf_b,,1
25,8617,50,,,,2,2,0.0,0.0,-1.0,0.0,,0.0-52.0,,0.0,1607.155,0.0,0.673564893,1.0,0.672437924,0.0,0.292955382,0.0,0.337633795,True,,5dd85601e05cad808fd62f3b,,737224,50,,evan-feature22,full_rf_b,,1
26,8618,51,,,,1,1,0.0,1.0,0.0,1.0,,0.0-53.0,,1.0,891.09,0.0,0.6749427,1.0,0.724197502,0.0,0.32391132100000003,1.0,0.350995264,True,,5dd85601e05cad808fd62f3b,,747978,51,,evan-feature22,full_rf_b,,1
27,8619,52,,,,1,1,1.0,1.0,0.0,1.0,,0.0-54.0,,1.0,1157.96,1.0,0.6940159379999999,1.0,0.75,0.0,0.31710554399999996,0.0,0.413450341,True,,5dd85601e05cad808fd62f3b,,758998,52,,evan-feature22,full_rf_b,,0
28,8620,53,,,,1,1,0.0,1.0,0.0,1.0,,0.0-55.0,,1.0,1162.155,0.0,0.6916018270000001,1.0,0.69001187,0.0,0.261817804,0.0,0.40038635,True,,5dd85601e05cad808fd62f3b,,769989,53,,evan-feature22,full_rf_b,,0
29,8621,54,,,,1,1,1.0,1.0,0.0,1.0,,0.0-56.0,,1.0,1356.73,1.0,0.641061544,1.0,0.71337992,0.0,0.277296461,0.0,0.47372791700000005,True,,5dd85601e05cad808fd62f3b,,781205,54,,evan-feature22,full_rf_b,,0
30,8622,55,,,,1,1,1.0,1.0,0.0,1.0,,0.0-57.0,,1.0,965.995,1.0,0.6082438520000001,1.0,0.708471106,0.0,0.28745137,0.0,0.564174476,True,,5dd85601e05cad808fd62f3b,,792025,55,,evan-feature22,full_rf_b,,0
31,8623,56,,,,2,2,1.0,1.0,-1.0,0.0,,0.0-58.0,,-1.0,1711.945,1.0,0.6051112120000001,0.0,0.7118147229999999,1.0,0.272390611,1.0,0.5595149939999999,True,,5dd85601e05cad808fd62f3b,,803595,56,,evan-feature22,full_rf_b,,1
32,8624,57,,,,2,2,0.0,0.0,-1.0,0.0,,0.0-59.0,,0.0,936.225,0.0,0.582420852,1.0,0.635867583,0.0,0.31089574,0.0,0.5227206520000001,True,,5dd85601e05cad808fd62f3b,,814365,57,,evan-feature22,full_rf_b,,0
33,8625,58,,,,2,2,0.0,0.0,-1.0,0.0,,0.0-60.0,,0.0,1060.655,1.0,0.623195575,0.0,0.655026044,0.0,0.25,0.0,0.560387538,True,,5dd85601e05cad808fd62f3b,,825251,58,,evan-feature22,full_rf_b,,0
34,8626,59,,,,1,1,1.0,0.0,0.0,1.0,,0.0-61.0,,0.0,852.585,1.0,0.601889598,0.0,0.678198724,0.0,0.25,0.0,0.559922936,True,,5dd85601e05cad808fd62f3b,,835938,59,,evan-feature22,full_rf_b,,1
35,8627,60,,,,2,2,0.0,0.0,-1.0,0.0,,0.0-62.0,,0.0,952.705,1.0,0.601259914,0.0,0.704681482,0.0,0.33908969299999997,0.0,0.505003715,True,,5dd85601e05cad808fd62f3b,,846758,60,,evan-feature22,full_rf_b,,1
36,8628,61,,,,2,2,1.0,1.0,-1.0,0.0,,0.0-63.0,,-1.0,1491.06,0.0,0.59645454,1.0,0.710437172,1.0,0.327441879,1.0,0.391749613,True,,5dd85601e05cad808fd62f3b,,858111,61,,evan-feature22,full_rf_b,,0
37,8629,62,,,,1,1,0.0,1.0,0.0,1.0,,0.0-64.0,,1.0,898.8,0.0,0.529473,1.0,0.636758527,0.0,0.301338063,1.0,0.365661481,True,,5dd85601e05cad808fd62f3b,,868856,62,,evan-feature22,full_rf_b,,1
38,8630,63,,,,2,2,0.0,0.0,-1.0,0.0,,0.0-65.0,,0.0,1399.31,1.0,0.541657162,0.0,0.634541962,0.0,0.343535366,0.0,0.371763742,True,,5dd85601e05cad808fd62f3b,,880119,63,,evan-feature22,full_rf_b,,1
39,8631,64,,,,2,2,0.0,1.0,-1.0,0.0,,0.0-66.0,,0.0,571.175,0.0,0.5707533260000001,1.0,0.589121171,0.0,0.326428396,1.0,0.43961622899999997,True,,5dd85601e05cad808fd62f3b,,890555,64,,evan-feature22,full_rf_b,,0
40,8632,65,,,,1,1,1.0,0.0,0.0,1.0,,0.0-67.0,,0.0,1082.455,1.0,0.5707533260000001,0.0,0.589121171,1.0,0.326428396,1.0,0.43961622899999997,True,,5dd85601e05cad808fd62f3b,,901490,65,,evan-feature22,full_rf_b,,1
41,8633,66,,,,1,1,0.0,1.0,0.0,1.0,,0.0-68.0,,1.0,957.595,0.0,0.506271295,1.0,0.641775594,0.0,0.37149690700000004,0.0,0.404330166,True,,5dd85601e05cad808fd62f3b,,912295,66,,evan-feature22,full_rf_b,,0
42,8634,67,,,,2,2,1.0,0.0,-1.0,0.0,,0.0-69.0,,-1.0,1228.83,0.0,0.455642565,0.0,0.623605825,1.0,0.358753011,0.0,0.346174041,True,,5dd85601e05cad808fd62f3b,,923382,67,,evan-feature22,full_rf_b,,1
43,8635,68,,,,1,1,0.0,1.0,0.0,1.0,,0.0-70.0,,1.0,1006.865,0.0,0.483677308,1.0,0.5904681070000001,0.0,0.402218411,1.0,0.35344697,True,,5dd85601e05cad808fd62f3b,,934235,68,,evan-feature22,full_rf_b,,1
44,8636,69,,,,1,1,1.0,1.0,-1.0,0.0,,0.0-71.0,,-1.0,1553.49,1.0,0.394210977,1.0,0.558925494,0.0,0.540052017,0.0,0.35182128700000004,True,,5dd85601e05cad808fd62f3b,,945620,69,,evan-feature22,full_rf_b,,0
45,8637,70,,,,1,1,1.0,1.0,0.0,1.0,,0.0-72.0,,1.0,835.235,1.0,0.382300414,1.0,0.577670603,0.0,0.607608448,0.0,0.378261578,True,,5dd85601e05cad808fd62f3b,,956292,70,,evan-feature22,full_rf_b,,0
46,8638,71,,,,2,2,1.0,0.0,-1.0,0.0,,0.0-73.0,,-1.0,1031.115,0.0,0.357596762,0.0,0.5929076529999999,1.0,0.6579790010000001,0.0,0.401326777,True,,5dd85601e05cad808fd62f3b,,967162,71,,evan-feature22,full_rf_b,,1
47,8639,72,,,,1,1,1.0,1.0,0.0,1.0,,0.0-74.0,,1.0,553.81,1.0,0.362033495,1.0,0.582308608,0.0,0.649195052,1.0,0.355158505,True,,5dd85601e05cad808fd62f3b,,977582,72,,evan-feature22,full_rf_b,,1
48,8640,73,,,,1,1,0.0,1.0,0.0,1.0,,0.0-75.0,,1.0,592.91,0.0,0.369620635,1.0,0.669100864,0.0,0.706059111,0.0,0.362516241,True,,5dd85601e05cad808fd62f3b,,988035,73,,evan-feature22,full_rf_b,,0
49,8641,74,,,,1,1,0.0,1.0,0.0,1.0,,0.0-76.0,,1.0,1517.225,0.0,0.41477751399999996,1.0,0.7284416779999999,0.0,0.7182656940000001,0.0,0.36228040899999997,True,,5dd85601e05cad808fd62f3b,,999388,74,,evan-feature22,full_rf_b,,0
50,8642,75,,,,2,2,1.0,0.0,-1.0,0.0,,0.0-77.0,,-1.0,1166.25,0.0,0.37675460299999997,1.0,0.703250285,1.0,0.75,0.0,0.461979164,True,,5dd85601e05cad808fd62f3b,,1010409,75,,evan-feature22,full_rf_b,,1
51,8643,76,,,,1,1,0.0,1.0,-1.0,0.0,,0.0-78.0,,0.0,682.045,0.0,0.398716075,1.0,0.6723864890000001,1.0,0.674153818,0.0,0.519029516,True,,5dd85601e05cad808fd62f3b,,1020943,76,,evan-feature22,full_rf_b,,1
52,8644,77,,,,1,1,1.0,0.0,-1.0,0.0,,0.0-79.0,,-1.0,1252.94,1.0,0.34677856700000004,0.0,0.69057175,1.0,0.6822438540000001,0.0,0.477292237,True,,5dd85601e05cad808fd62f3b,,1032066,77,,evan-feature22,full_rf_b,,0
53,8645,78,,,,1,1,0.0,1.0,0.0,1.0,,0.0-80.0,,1.0,1277.82,0.0,0.28580469199999997,1.0,0.68408818,0.0,0.684207565,1.0,0.49780448299999996,True,,5dd85601e05cad808fd62f3b,,1043194,78,,evan-feature22,full_rf_b,,0
54,8647,80,,,,1,1,0.0,0.0,0.0,1.0,,0.0-82.0,,0.0,1242.0,0.0,0.25,0.0,0.7405808970000001,1.0,0.679614108,1.0,0.436436964,True,,5dd85601e05cad808fd62f3b,,1058306,80,,evan-feature22,full_rf_b,,0
55,8648,81,,,,2,2,1.0,0.0,0.0,1.0,,0.0-83.0,,0.0,1309.58,1.0,0.29890393,1.0,0.730505706,1.0,0.7328203320000001,0.0,0.439256938,True,,5dd85601e05cad808fd62f3b,,1069459,81,,evan-feature22,full_rf_b,,1
56,8649,82,,,,2,2,1.0,1.0,-1.0,0.0,,0.0-84.0,,-1.0,927.515,0.0,0.326762398,1.0,0.7148059609999999,1.0,0.75,1.0,0.44389608799999997,True,,5dd85601e05cad808fd62f3b,,1080219,82,,evan-feature22,full_rf_b,,0
57,8650,83,,,,1,1,1.0,1.0,0.0,1.0,,0.0-85.0,,1.0,1683.62,1.0,0.295168515,1.0,0.739760854,1.0,0.719947008,1.0,0.35277284600000003,True,,5dd85601e05cad808fd62f3b,,1091733,83,,evan-feature22,full_rf_b,,1
58,8651,84,,,,1,1,0.0,1.0,0.0,1.0,,0.0-86.0,,1.0,2986.895,0.0,0.25,1.0,0.70781482,1.0,0.75,0.0,0.286095925,True,,5dd85601e05cad808fd62f3b,,1104553,84,,evan-feature22,full_rf_b,,0
59,8652,85,,,,1,1,0.0,1.0,0.0,1.0,,0.0-87.0,,1.0,1440.39,0.0,0.25638190899999996,1.0,0.704088163,1.0,0.75,0.0,0.26872601399999996,True,,5dd85601e05cad808fd62f3b,,1115823,85,,evan-feature22,full_rf_b,,0
60,8653,86,,,,1,1,0.0,1.0,-1.0,0.0,,0.0-88.0,,0.0,1300.035,0.0,0.271581126,1.0,0.669760107,0.0,0.733896663,0.0,0.273244572,True,,5dd85601e05cad808fd62f3b,,1126957,86,,evan-feature22,full_rf_b,,0
61,8654,87,,,,1,1,0.0,1.0,0.0,1.0,,0.0-89.0,,1.0,930.77,0.0,0.257144401,1.0,0.600575706,1.0,0.74488122,0.0,0.25,True,,5dd85601e05cad808fd62f3b,,1137713,87,,evan-feature22,full_rf_b,,0
62,8655,88,,,,1,1,0.0,1.0,0.0,1.0,,0.0-90.0,,1.0,1124.26,0.0,0.25,1.0,0.616870026,1.0,0.723610234,0.0,0.25,True,,5dd85601e05cad808fd62f3b,,1148667,88,,evan-feature22,full_rf_b,,0
63,8656,89,,,,2,2,1.0,0.0,-1.0,0.0,,0.0-91.0,,-1.0,1393.57,0.0,0.25,1.0,0.583540187,1.0,0.7041042559999999,0.0,0.285961995,True,,5dd85601e05cad808fd62f3b,,1159904,89,,evan-feature22,full_rf_b,,1
64,8657,90,,,,2,2,1.0,1.0,-1.0,0.0,,0.0-92.0,,-1.0,1344.295,1.0,0.27254536,0.0,0.53875765,1.0,0.693783448,1.0,0.284961652,True,,5dd85601e05cad808fd62f3b,,1171107,90,,evan-feature22,full_rf_b,,0
65,8658,91,,,,1,1,0.0,1.0,-1.0,0.0,,0.0-93.0,,0.0,1177.725,0.0,0.25,1.0,0.548431252,1.0,0.734221895,1.0,0.279445214,True,,5dd85601e05cad808fd62f3b,,1182143,91,,evan-feature22,full_rf_b,,1
66,8659,92,,,,1,1,0.0,0.0,0.0,1.0,,0.0-94.0,,0.0,2397.905,0.0,0.258640684,0.0,0.545878066,1.0,0.725245965,0.0,0.31487537,True,,5dd85601e05cad808fd62f3b,,1194414,92,,evan-feature22,full_rf_b,,0
67,8660,93,,,,1,1,1.0,1.0,0.0,1.0,,0.0-95.0,,1.0,1266.28,1.0,0.251103711,1.0,0.5776290629999999,0.0,0.696320133,1.0,0.317831047,True,,5dd85601e05cad808fd62f3b,,1205551,93,,evan-feature22,full_rf_b,,0
68,8661,94,,,,2,2,0.0,0.0,0.0,1.0,,0.0-96.0,,0.0,1527.205,0.0,0.276630292,0.0,0.617329858,0.0,0.73838088,0.0,0.261471582,True,,5dd85601e05cad808fd62f3b,,1216921,94,,evan-feature22,full_rf_b,,1
69,8662,95,,,,1,1,0.0,0.0,0.0,1.0,,0.0-97.0,,0.0,1713.575,0.0,0.297716424,0.0,0.618863717,0.0,0.7402358259999999,0.0,0.262600834,True,,5dd85601e05cad808fd62f3b,,1228487,95,,evan-feature22,full_rf_b,,1
70,8663,96,,,,2,2,1.0,0.0,-1.0,0.0,,0.0-98.0,,-1.0,1177.115,1.0,0.290935512,0.0,0.695370945,1.0,0.706570507,0.0,0.280030553,True,,5dd85601e05cad808fd62f3b,,1239511,96,,evan-feature22,full_rf_b,,1
71,8664,97,,,,1,1,1.0,1.0,0.0,1.0,,0.0-99.0,,1.0,932.08,1.0,0.25,1.0,0.6465277079999999,1.0,0.67766682,1.0,0.25,True,,5dd85601e05cad808fd62f3b,,1250287,97,,evan-feature22,full_rf_b,,1
72,8665,98,,,,1,1,0.0,1.0,-1.0,0.0,,0.0-100.0,,0.0,1070.625,0.0,0.26463816,1.0,0.636100213,1.0,0.646048507,1.0,0.265607101,True,,5dd85601e05cad808fd62f3b,,1261182,98,,evan-feature22,full_rf_b,,0
73,8666,99,,,,2,2,0.0,0.0,-1.0,0.0,,0.0-101.0,,0.0,1868.89,0.0,0.314340707,1.0,0.667795927,0.0,0.613630805,0.0,0.25,True,,5dd85601e05cad808fd62f3b,,1272904,99,,evan-feature22,full_rf_b,,1
74,8667,100,,,,1,1,1.0,1.0,0.0,1.0,,0.0-102.0,,1.0,3884.81,1.0,0.28685784,1.0,0.6622549529999999,1.0,0.652154117,1.0,0.25,True,,5dd85601e05cad808fd62f3b,,1286642,100,,evan-feature22,full_rf_b,,1
75,8668,101,,,,1,1,0.0,0.0,0.0,1.0,,0.0-103.0,,0.0,1018.635,0.0,0.304106554,0.0,0.631289538,1.0,0.707041942,1.0,0.29314237,True,,5dd85601e05cad808fd62f3b,,1297512,101,,evan-feature22,full_rf_b,,0
76,8669,102,,,,1,1,0.0,0.0,0.0,1.0,,0.0-104.0,,0.0,1081.51,0.0,0.304806932,0.0,0.571167718,1.0,0.680472346,0.0,0.25,True,,5dd85601e05cad808fd62f3b,,1308433,102,,evan-feature22,full_rf_b,,0
77,8670,103,,,,1,1,0.0,0.0,0.0,1.0,,0.0-105.0,,0.0,1282.725,0.0,0.37919861,0.0,0.5724849710000001,0.0,0.705638003,0.0,0.30179300600000003,True,,5dd85601e05cad808fd62f3b,,1319553,103,,evan-feature22,full_rf_b,,0
78,8671,104,,,,1,1,0.0,0.0,0.0,1.0,,0.0-106.0,,0.0,1665.665,0.0,0.464277969,0.0,0.554034373,1.0,0.7372627340000001,1.0,0.264699741,True,,5dd85601e05cad808fd62f3b,,1331073,104,,evan-feature22,full_rf_b,,0
79,8672,105,,,,2,2,1.0,0.0,0.0,1.0,,0.0-107.0,,0.0,295.325,0.0,0.465104323,0.0,0.530793115,1.0,0.75,0.0,0.31683071,True,,5dd85601e05cad808fd62f3b,,1341209,105,,evan-feature22,full_rf_b,,1
80,8673,106,,,,1,1,1.0,0.0,-1.0,0.0,,0.0-108.0,,-1.0,1638.165,1.0,0.465104323,0.0,0.530793115,1.0,0.75,1.0,0.31683071,True,,5dd85601e05cad808fd62f3b,,1352696,106,,evan-feature22,full_rf_b,,1
81,8674,107,,,,1,1,0.0,0.0,-1.0,0.0,,0.0-109.0,,0.0,1817.94,0.0,0.46833986,0.0,0.570249239,1.0,0.7244472590000001,1.0,0.364114163,True,,5dd85601e05cad808fd62f3b,,1364365,107,,evan-feature22,full_rf_b,,0
82,8675,108,,,,1,1,1.0,1.0,-1.0,0.0,,0.0-110.0,,-1.0,844.3,1.0,0.445444024,1.0,0.649673355,0.0,0.6845441290000001,1.0,0.300660449,True,,5dd85601e05cad808fd62f3b,,1375086,108,,evan-feature22,full_rf_b,,0
83,8676,109,,,,2,2,0.0,1.0,-1.0,0.0,,0.0-111.0,,0.0,916.37,0.0,0.39909721299999995,0.0,0.6715179509999999,0.0,0.742310028,1.0,0.35496088299999995,True,,5dd85601e05cad808fd62f3b,,1385856,109,,evan-feature22,full_rf_b,,1
84,8677,110,,,,1,1,0.0,1.0,0.0,1.0,,0.0-112.0,,1.0,665.995,0.0,0.37956104799999996,1.0,0.694725302,0.0,0.7181651309999999,1.0,0.38726906299999997,True,,5dd85601e05cad808fd62f3b,,1396393,110,,evan-feature22,full_rf_b,,1
85,8678,111,,,,1,1,0.0,1.0,0.0,1.0,,0.0-113.0,,1.0,1814.18,0.0,0.404995034,1.0,0.724375412,1.0,0.6910946859999999,1.0,0.387187347,True,,5dd85601e05cad808fd62f3b,,1408063,111,,evan-feature22,full_rf_b,,0
86,8679,112,,,,2,2,1.0,0.0,-1.0,0.0,,0.0-114.0,,-1.0,1336.92,0.0,0.461740803,1.0,0.75,1.0,0.75,0.0,0.34872038200000005,True,,5dd85601e05cad808fd62f3b,,1419249,112,,evan-feature22,full_rf_b,,1
87,8680,113,,,,1,1,1.0,0.0,-1.0,0.0,,0.0-115.0,,-1.0,1018.45,1.0,0.43821380600000004,0.0,0.738833273,1.0,0.728286963,0.0,0.399538128,True,,5dd85601e05cad808fd62f3b,,1430101,113,,evan-feature22,full_rf_b,,1
88,8681,114,,,,1,1,0.0,1.0,0.0,1.0,,0.0-116.0,,1.0,1307.24,0.0,0.41709882,1.0,0.736666736,1.0,0.75,0.0,0.389095584,True,,5dd85601e05cad808fd62f3b,,1441273,114,,evan-feature22,full_rf_b,,0
89,8682,115,,,,1,1,0.0,1.0,0.0,1.0,,0.0-117.0,,1.0,793.085,0.0,0.39749009799999996,1.0,0.744320029,1.0,0.75,1.0,0.363848678,True,,5dd85601e05cad808fd62f3b,,1451859,115,,evan-feature22,full_rf_b,,0
90,8683,116,,,,2,2,1.0,0.0,-1.0,0.0,,0.0-118.0,,-1.0,1340.7,0.0,0.392653706,1.0,0.75,1.0,0.75,0.0,0.384386976,True,,5dd85601e05cad808fd62f3b,,1463046,116,,evan-feature22,full_rf_b,,1
91,8684,117,,,,2,2,0.0,0.0,0.0,1.0,,0.0-119.0,,0.0,2101.155,1.0,0.31190902600000003,0.0,0.75,0.0,0.732413819,0.0,0.413082932,True,,5dd85601e05cad808fd62f3b,,1474999,117,,evan-feature22,full_rf_b,,0
92,8685,118,,,,2,2,1.0,0.0,-1.0,0.0,,0.0-120.0,,-1.0,1019.9,0.0,0.366917648,1.0,0.740073855,1.0,0.75,0.0,0.352861979,True,,5dd85601e05cad808fd62f3b,,1485853,118,,evan-feature22,full_rf_b,,0
93,8686,119,,,,2,2,1.0,1.0,-1.0,0.0,,0.0-121.0,,-1.0,1106.495,0.0,0.3645172,1.0,0.721770713,1.0,0.75,1.0,0.404074511,True,,5dd85601e05cad808fd62f3b,,1496806,119,,evan-feature22,full_rf_b,,0
94,8687,120,,,,1,1,1.0,1.0,-1.0,0.0,,0.0-122.0,,-1.0,1176.23,1.0,0.35205600299999995,1.0,0.68983859,0.0,0.739735447,1.0,0.366895945,True,,5dd85601e05cad808fd62f3b,,1507827,120,,evan-feature22,full_rf_b,,1
95,8688,121,,,,1,1,0.0,1.0,-1.0,0.0,,0.0-123.0,,0.0,1307.995,0.0,0.40998722600000004,1.0,0.720859127,0.0,0.673854955,0.0,0.368528541,True,,5dd85601e05cad808fd62f3b,,1518946,121,,evan-feature22,full_rf_b,,0
96,8689,122,,,,2,2,1.0,0.0,-1.0,0.0,,0.0-124.0,,-1.0,797.315,1.0,0.353625316,1.0,0.75,1.0,0.695605473,0.0,0.38303674200000004,True,,5dd85601e05cad808fd62f3b,,1529600,122,,evan-feature22,full_rf_b,,1
97,8690,123,,,,2,2,1.0,1.0,-1.0,0.0,,0.0-125.0,,-1.0,2979.485,0.0,0.359216989,1.0,0.75,1.0,0.6987915090000001,1.0,0.35169046200000004,True,,5dd85601e05cad808fd62f3b,,1542420,123,,evan-feature22,full_rf_b,,0
98,8691,124,,,,1,1,0.0,1.0,-1.0,0.0,,0.0-126.0,,0.0,797.045,0.0,0.35834496899999996,1.0,0.75,1.0,0.707067742,1.0,0.416763636,True,,5dd85601e05cad808fd62f3b,,1553057,124,,evan-feature22,full_rf_b,,1
99,8692,125,,,,1,1,1.0,1.0,0.0,1.0,,0.0-127.0,,1.0,926.26,1.0,0.38741613799999997,1.0,0.7177369570000001,0.0,0.734902455,0.0,0.49438664299999996,True,,5dd85601e05cad808fd62f3b,,1563811,125,,evan-feature22,full_rf_b,,0
100,8693,126,,,,2,2,1.0,1.0,-1.0,0.0,,0.0-128.0,,-1.0,1125.075,1.0,0.405255252,1.0,0.7300466640000001,1.0,0.7027748070000001,1.0,0.504359668,True,,5dd85601e05cad808fd62f3b,,1574746,126,,evan-feature22,full_rf_b,,1
101,8694,127,,,,2,2,0.0,0.0,-1.0,0.0,,0.0-129.0,,0.0,730.08,0.0,0.40697073,1.0,0.7260142190000001,0.0,0.724461982,0.0,0.522779179,True,,5dd85601e05cad808fd62f3b,,1585317,127,,evan-feature22,full_rf_b,,0
102,8695,128,,,,2,2,0.0,1.0,-1.0,0.0,,0.0-130.0,,0.0,1078.35,0.0,0.43906215299999996,1.0,0.7252802340000001,0.0,0.719079934,1.0,0.5712990579999999,True,,5dd85601e05cad808fd62f3b,,1596237,128,,evan-feature22,full_rf_b,,0
103,8696,129,,,,2,2,1.0,0.0,0.0,1.0,,0.0-131.0,,0.0,1075.66,1.0,0.4076705,0.0,0.73280499,1.0,0.681313127,0.0,0.523891346,True,,5dd85601e05cad808fd62f3b,,1607149,129,,evan-feature22,full_rf_b,,0
104,8697,130,,,,1,1,1.0,1.0,0.0,1.0,,0.0-132.0,,1.0,1069.725,1.0,0.399102911,1.0,0.730498344,1.0,0.661080239,0.0,0.46742603,True,,5dd85601e05cad808fd62f3b,,1618074,130,,evan-feature22,full_rf_b,,1
105,8698,131,,,,1,1,0.0,0.0,0.0,1.0,,0.0-133.0,,0.0,922.12,0.0,0.356477282,0.0,0.712296395,0.0,0.641812684,0.0,0.44868414,True,,5dd85601e05cad808fd62f3b,,1628830,131,,evan-feature22,full_rf_b,,0
106,8699,132,,,,2,2,0.0,0.0,-1.0,0.0,,0.0-134.0,,0.0,1500.075,0.0,0.462760722,1.0,0.692349322,0.0,0.700947931,0.0,0.394680266,True,,5dd85601e05cad808fd62f3b,,1640167,132,,evan-feature22,full_rf_b,,1
107,8700,133,,,,1,1,1.0,1.0,-1.0,0.0,,0.0-135.0,,-1.0,1562.205,1.0,0.422306413,1.0,0.718375916,1.0,0.706340917,0.0,0.367787185,True,,5dd85601e05cad808fd62f3b,,1651570,133,,evan-feature22,full_rf_b,,1
108,8702,135,,,,2,2,1.0,0.0,-1.0,0.0,,0.0-137.0,,-1.0,1687.14,1.0,0.4582233,1.0,0.643834117,1.0,0.75,0.0,0.39615823299999997,True,,5dd85601e05cad808fd62f3b,,1665991,135,,evan-feature22,full_rf_b,,1
109,8703,136,,,,1,1,1.0,1.0,-1.0,0.0,,0.0-138.0,,-1.0,1199.85,1.0,0.43813437899999996,1.0,0.651283804,1.0,0.729674191,0.0,0.37711048,True,,5dd85601e05cad808fd62f3b,,1677044,136,,evan-feature22,full_rf_b,,1
110,8704,137,,,,1,1,0.0,0.0,-1.0,0.0,,0.0-139.0,,0.0,2329.38,0.0,0.471199094,0.0,0.6470010979999999,1.0,0.715008097,0.0,0.410656191,True,,5dd85601e05cad808fd62f3b,,1689198,137,,evan-feature22,full_rf_b,,0
111,8705,138,,,,2,2,1.0,0.0,-1.0,0.0,,0.0-140.0,,-1.0,910.54,0.0,0.42486406,0.0,0.629771829,1.0,0.6550939960000001,0.0,0.459093873,True,,5dd85601e05cad808fd62f3b,,1699951,138,,evan-feature22,full_rf_b,,1
112,8706,139,,,,1,1,0.0,0.0,-1.0,0.0,,0.0-141.0,,0.0,701.135,0.0,0.4803197,0.0,0.645842715,1.0,0.6421749920000001,0.0,0.443092151,True,,5dd85601e05cad808fd62f3b,,1710481,139,,evan-feature22,full_rf_b,,1
113,8707,140,,,,1,1,0.0,0.0,0.0,1.0,,0.0-142.0,,0.0,2011.255,0.0,0.521848997,0.0,0.735801074,1.0,0.6691348460000001,1.0,0.45259351600000003,True,,5dd85601e05cad808fd62f3b,,1722325,140,,evan-feature22,full_rf_b,,0
114,8708,141,,,,2,2,0.0,1.0,-1.0,0.0,,0.0-143.0,,0.0,367.34,1.0,0.49565621299999996,0.0,0.742400847,0.0,0.661512553,1.0,0.483110831,True,,5dd85601e05cad808fd62f3b,,1732511,141,,evan-feature22,full_rf_b,,1
115,8709,142,,,,1,1,0.0,1.0,-1.0,0.0,,0.0-144.0,,0.0,655.655,0.0,0.521564361,1.0,0.731078632,0.0,0.6774886809999999,0.0,0.483263956,True,,5dd85601e05cad808fd62f3b,,1742998,142,,evan-feature22,full_rf_b,,1
116,8710,143,,,,2,2,1.0,0.0,-1.0,0.0,,0.0-145.0,,-1.0,2671.325,1.0,0.558893102,0.0,0.719810023,1.0,0.67461031,0.0,0.499349834,True,,5dd85601e05cad808fd62f3b,,1755491,143,,evan-feature22,full_rf_b,,1
117,8711,144,,,,1,1,0.0,1.0,-1.0,0.0,,0.0-146.0,,0.0,3265.885,0.0,0.611031046,1.0,0.75,1.0,0.688072995,0.0,0.5321422729999999,True,,5dd85601e05cad808fd62f3b,,1768572,144,,evan-feature22,full_rf_b,,1
118,8712,145,,,,1,1,1.0,1.0,0.0,1.0,,0.0-147.0,,1.0,2169.745,1.0,0.633223941,1.0,0.713567728,1.0,0.75,1.0,0.48185314700000004,True,,5dd85601e05cad808fd62f3b,,1780610,145,,evan-feature22,full_rf_b,,0
119,8713,146,,,,2,2,1.0,0.0,-1.0,0.0,,0.0-148.0,,-1.0,1083.08,1.0,0.664001694,1.0,0.705509768,1.0,0.75,0.0,0.500211065,True,,5dd85601e05cad808fd62f3b,,1791546,146,,evan-feature22,full_rf_b,,1
120,8714,147,,,,1,1,1.0,0.0,-1.0,0.0,,0.0-149.0,,-1.0,646.83,1.0,0.664001694,0.0,0.705509768,0.0,0.75,1.0,0.500211065,True,,5dd85601e05cad808fd62f3b,,1802016,147,,evan-feature22,full_rf_b,,1
121,8715,148,,,,2,2,1.0,1.0,-1.0,0.0,,0.0-150.0,,-1.0,963.26,0.0,0.696508041,1.0,0.71066027,1.0,0.717028709,1.0,0.49792991,True,,5dd85601e05cad808fd62f3b,,1812803,148,,evan-feature22,full_rf_b,,1
122,8716,149,,,,1,1,1.0,1.0,0.0,1.0,,0.0-151.0,,1.0,1362.47,1.0,0.699883272,1.0,0.75,0.0,0.713543895,0.0,0.496962643,True,,5dd85601e05cad808fd62f3b,,1824007,149,,evan-feature22,full_rf_b,,1
123,8717,150,,,,2,2,1.0,0.0,0.0,1.0,,0.0-152.0,,0.0,1450.855,1.0,0.741163419,1.0,0.75,1.0,0.64691024,0.0,0.513858197,True,,5dd85601e05cad808fd62f3b,,1835293,150,,evan-feature22,full_rf_b,,1
124,8718,151,,,,1,1,1.0,1.0,0.0,1.0,,0.0-153.0,,1.0,1394.245,1.0,0.75,1.0,0.70816558,1.0,0.594499079,0.0,0.48502124,True,,5dd85601e05cad808fd62f3b,,1846522,151,,evan-feature22,full_rf_b,,1
125,8719,152,,,,2,2,0.0,1.0,-1.0,0.0,,0.0-154.0,,0.0,1289.555,1.0,0.75,1.0,0.721848901,0.0,0.62197249,1.0,0.48263586399999997,True,,5dd85601e05cad808fd62f3b,,1857666,152,,evan-feature22,full_rf_b,,1
126,8720,153,,,,2,2,0.0,0.0,-1.0,0.0,,0.0-155.0,,0.0,1460.995,1.0,0.75,1.0,0.74813071,0.0,0.584357161,0.0,0.411477782,True,,5dd85601e05cad808fd62f3b,,1868986,153,,evan-feature22,full_rf_b,,0
127,8721,154,,,,1,1,1.0,1.0,-1.0,0.0,,0.0-156.0,,-1.0,3731.045,1.0,0.75,1.0,0.75,0.0,0.52287236,1.0,0.488290656,True,,5dd85601e05cad808fd62f3b,,1882571,154,,evan-feature22,full_rf_b,,1
128,8722,155,,,,1,1,1.0,1.0,-1.0,0.0,,0.0-157.0,,-1.0,784.33,1.0,0.75,1.0,0.75,0.0,0.544321581,1.0,0.53143059,True,,5dd85601e05cad808fd62f3b,,1893225,155,,evan-feature22,full_rf_b,,0
129,8723,156,,,,1,1,1.0,1.0,-1.0,0.0,,0.0-158.0,,-1.0,1940.855,1.0,0.726754564,1.0,0.75,0.0,0.5129306370000001,0.0,0.530592445,True,,5dd85601e05cad808fd62f3b,,1905013,156,,evan-feature22,full_rf_b,,0
130,8724,157,,,,2,2,1.0,0.0,0.0,1.0,,0.0-159.0,,0.0,3900.61,1.0,0.75,0.0,0.7392590729999999,1.0,0.479875835,0.0,0.547007051,True,,5dd85601e05cad808fd62f3b,,1918785,157,,evan-feature22,full_rf_b,,1
131,8725,158,,,,1,1,1.0,1.0,0.0,1.0,,0.0-160.0,,1.0,551.215,1.0,0.75,1.0,0.7393376979999999,1.0,0.546045419,0.0,0.541267353,True,,5dd85601e05cad808fd62f3b,,1929155,158,,evan-feature22,full_rf_b,,1
132,8726,159,,,,2,2,0.0,1.0,-1.0,0.0,,0.0-161.0,,0.0,566.025,1.0,0.75,1.0,0.75,0.0,0.485725895,1.0,0.527625395,True,,5dd85601e05cad808fd62f3b,,1939551,159,,evan-feature22,full_rf_b,,1
133,8727,160,,,,2,2,0.0,1.0,0.0,1.0,,0.0-162.0,,1.0,736.435,1.0,0.75,1.0,0.725087974,0.0,0.488603595,1.0,0.504019206,True,,5dd85601e05cad808fd62f3b,,1950111,160,,evan-feature22,full_rf_b,,0
134,8728,161,,,,2,2,1.0,1.0,-1.0,0.0,,0.0-163.0,,-1.0,1256.12,1.0,0.745504295,1.0,0.75,1.0,0.452379914,1.0,0.50131194,True,,5dd85601e05cad808fd62f3b,,1961198,161,,evan-feature22,full_rf_b,,0
135,8729,162,,,,1,1,1.0,1.0,0.0,1.0,,0.0-164.0,,1.0,1977.72,1.0,0.728513874,1.0,0.75,0.0,0.44125567200000004,0.0,0.531454591,True,,5dd85601e05cad808fd62f3b,,1973034,162,,evan-feature22,full_rf_b,,1
136,8730,163,,,,SLOW,SLOW,,,-1.0,0.0,,0.0-165.0,,-3.0,,1.0,0.73790804,1.0,0.75,0.0,0.413036656,1.0,0.524619035,True,,5dd85601e05cad808fd62f3b,,1978886,163,,evan-feature22,full_rf_b,,1
137,8731,164,,,,2,2,0.0,0.0,-1.0,0.0,,0.0-166.0,,0.0,827.425,1.0,0.7080961309999999,1.0,0.708666865,0.0,0.431915581,0.0,0.481819489,True,,5dd85601e05cad808fd62f3b,,1989562,164,,evan-feature22,full_rf_b,,1
138,8732,165,,,,1,1,1.0,1.0,-1.0,0.0,,0.0-167.0,,-1.0,1200.195,1.0,0.721378003,1.0,0.71605913,0.0,0.36642387,0.0,0.5036739929999999,True,,5dd85601e05cad808fd62f3b,,2000568,165,,evan-feature22,full_rf_b,,1
139,8733,166,,,,2,2,1.0,1.0,0.0,1.0,,0.0-168.0,,1.0,784.87,1.0,0.7340618959999999,1.0,0.699323252,1.0,0.35298046299999997,1.0,0.511241692,True,,5dd85601e05cad808fd62f3b,,2011196,166,,evan-feature22,full_rf_b,,1
140,8734,167,,,,1,1,1.0,1.0,0.0,1.0,,0.0-169.0,,1.0,484.56,1.0,0.75,1.0,0.70412698,0.0,0.380734814,1.0,0.529580116,True,,5dd85601e05cad808fd62f3b,,2021517,167,,evan-feature22,full_rf_b,,1
141,8735,168,,,,2,2,0.0,0.0,0.0,1.0,,0.0-170.0,,0.0,615.875,1.0,0.7436654909999999,1.0,0.711182751,0.0,0.41125331,0.0,0.49554405,True,,5dd85601e05cad808fd62f3b,,2031967,168,,evan-feature22,full_rf_b,,1
142,8736,169,,,,1,1,1.0,0.0,-1.0,0.0,,0.0-171.0,,-1.0,789.235,1.0,0.731607915,0.0,0.651774583,0.0,0.35688023,1.0,0.45194491600000003,True,,5dd85601e05cad808fd62f3b,,2042586,169,,evan-feature22,full_rf_b,,1
143,8737,170,,,,2,2,1.0,0.0,0.0,1.0,,0.0-172.0,,0.0,1378.46,1.0,0.75,1.0,0.75,1.0,0.283145374,0.0,0.528608005,True,,5dd85601e05cad808fd62f3b,,2053808,170,,evan-feature22,full_rf_b,,1
144,8738,171,,,,1,1,0.0,1.0,-1.0,0.0,,0.0-173.0,,0.0,301.02,0.0,0.7491416890000001,1.0,0.7423785959999999,0.0,0.29135870399999997,0.0,0.498888318,True,,5dd85601e05cad808fd62f3b,,2063962,171,,evan-feature22,full_rf_b,,1
145,8739,172,,,,2,2,0.0,1.0,0.0,1.0,,0.0-174.0,,1.0,300.255,1.0,0.708569387,1.0,0.717682277,0.0,0.294421699,1.0,0.493838163,True,,5dd85601e05cad808fd62f3b,,2074098,172,,evan-feature22,full_rf_b,,1
146,8740,173,,,,1,1,0.0,0.0,-1.0,0.0,,0.0-175.0,,0.0,1106.47,0.0,0.75,0.0,0.7383382159999999,0.0,0.356098707,1.0,0.442533405,True,,5dd85601e05cad808fd62f3b,,2085068,173,,evan-feature22,full_rf_b,,1
147,8741,174,,,,2,2,1.0,0.0,-1.0,0.0,,0.0-176.0,,-1.0,576.775,1.0,0.744527075,1.0,0.75,1.0,0.334127506,0.0,0.393165805,True,,5dd85601e05cad808fd62f3b,,2095487,174,,evan-feature22,full_rf_b,,1
148,8742,175,,,,1,1,1.0,1.0,-1.0,0.0,,0.0-177.0,,-1.0,952.95,1.0,0.75,1.0,0.75,0.0,0.33571021799999995,0.0,0.350393962,True,,5dd85601e05cad808fd62f3b,,2106308,175,,evan-feature22,full_rf_b,,1
149,8743,176,,,,2,2,0.0,0.0,0.0,1.0,,0.0-178.0,,0.0,167.815,0.0,0.75,0.0,0.75,0.0,0.313628297,0.0,0.36349657399999996,True,,5dd85601e05cad808fd62f3b,,2116311,176,,evan-feature22,full_rf_b,,1
150,8744,177,,,,1,1,1.0,1.0,-1.0,0.0,,0.0-179.0,,-1.0,561.335,1.0,0.75,1.0,0.734284182,0.0,0.262667667,1.0,0.380199119,True,,5dd85601e05cad808fd62f3b,,2126731,177,,evan-feature22,full_rf_b,,1
151,8745,178,,,,2,2,0.0,1.0,-1.0,0.0,,0.0-180.0,,0.0,3531.725,1.0,0.75,0.0,0.75,0.0,0.25,1.0,0.394494013,True,,5dd85601e05cad808fd62f3b,,2140103,178,,evan-feature22,full_rf_b,,1
152,8746,179,,,,1,1,1.0,1.0,-1.0,0.0,,0.0-181.0,,-1.0,420.545,1.0,0.722298145,1.0,0.7357822340000001,0.0,0.25,0.0,0.319142121,True,,5dd85601e05cad808fd62f3b,,2150340,179,,evan-feature22,full_rf_b,,1
153,8747,180,,,,1,1,1.0,1.0,-1.0,0.0,,0.0-182.0,,-1.0,489.085,1.0,0.73149275,1.0,0.724276446,1.0,0.305856907,0.0,0.281315057,True,,5dd85601e05cad808fd62f3b,,2160692,180,,evan-feature22,full_rf_b,,0
154,8748,181,,,,2,2,0.0,0.0,-1.0,0.0,,0.0-183.0,,0.0,353.495,1.0,0.7458732690000001,1.0,0.7336382459999999,0.0,0.272571964,0.0,0.266021999,True,,5dd85601e05cad808fd62f3b,,2170895,181,,evan-feature22,full_rf_b,,1
155,8749,182,,,,2,2,0.0,1.0,0.0,1.0,,0.0-184.0,,1.0,838.25,1.0,0.705579037,1.0,0.720778292,0.0,0.320238144,1.0,0.30971744,True,,5dd85601e05cad808fd62f3b,,2181582,182,,evan-feature22,full_rf_b,,0
156,8750,183,,,,1,1,0.0,1.0,0.0,1.0,,0.0-185.0,,1.0,2143.455,0.0,0.700425648,1.0,0.7198784009999999,0.0,0.272590393,0.0,0.304182931,True,,5dd85601e05cad808fd62f3b,,2193553,183,,evan-feature22,full_rf_b,,1
157,8751,184,,,,2,2,0.0,0.0,0.0,1.0,,0.0-186.0,,0.0,1198.775,0.0,0.735590785,0.0,0.722714973,0.0,0.25,0.0,0.323421091,True,,5dd85601e05cad808fd62f3b,,2204587,184,,evan-feature22,full_rf_b,,1
158,8752,185,,,,1,1,1.0,1.0,0.0,1.0,,0.0-187.0,,1.0,313.59,1.0,0.724807662,1.0,0.63146213,0.0,0.36836492600000004,0.0,0.34592153299999995,True,,5dd85601e05cad808fd62f3b,,2214742,185,,evan-feature22,full_rf_b,,1
159,8753,186,,,,2,2,1.0,0.0,-1.0,0.0,,0.0-188.0,,-1.0,963.54,1.0,0.7352796909999999,1.0,0.555111392,1.0,0.36003922,0.0,0.31433779999999995,True,,5dd85601e05cad808fd62f3b,,2225561,186,,evan-feature22,full_rf_b,,1
160,8754,187,notice,,,,,,,,,,0.0-189.0,"{""Q0"":""""}",,4974.0,,,,,,,,,True,,5dd85601e05cad808fd62f3b,,2230539,187,Q,survey-text,full_rf_b,,1
161,8755,188,track1,,[1],,,,,,,,0.0-190.0,"{""Q0"":""no""}",,15664.0,,,,,,,,,True,,5dd85601e05cad808fd62f3b,,2246207,188,Q,evan-quiz,full_rf_b,,1
162,8756,189,track2,,[0],,,,,,,,0.0-191.0,"{""Q0"":""yes""}",,2952.0,,,,,,,,,True,,5dd85601e05cad808fd62f3b,,2249162,189,Q,evan-quiz,full_rf_b,,1
163,8757,190,strat,,,,,,,,,,0.0-192.0,"{""Q0"":""""}",,16609.0,,,,,,,,,True,,5dd85601e05cad808fd62f3b,,2265773,190,Q,survey-text,full_rf_b,,1
