,index,Unnamed: 0,Q_name,button_pressed,choice_idxs,chosen_pos,chosen_state,chosen_state_f_1_outcome,chosen_state_f_2_outcome,f_1_reward,f_2_reward,incor_questions,internal_node_id,responses,reward_received,rt,s_1_f_1_outcome,s_1_f_1_prob,s_1_f_2_outcome,s_1_f_2_prob,s_2_f_1_outcome,s_2_f_1_prob,s_2_f_2_outcome,s_2_f_2_prob,safe_first,stimulus,subjectID,success,time_elapsed,trial_index,trial_num,trial_type,version,view_history,switching
0,11868,25,,,,1,1,0.0,1.0,0.0,-1.0,,0.0-27.0,,-1.0,267.7249999,0.0,0.6,1.0,0.6,0.0,0.4,1.0,0.4,False,,5f3bd0e50bf2cb92bfc8a141,,482987,25,,evan-feature22,full_pf_a,,0
1,11869,26,,,,2,2,0.0,0.0,0.0,-1.0,,0.0-28.0,,0.0,1845.395,1.0,0.608053294,0.0,0.63424552,0.0,0.397152172,0.0,0.347069101,False,,5f3bd0e50bf2cb92bfc8a141,,494594,26,,evan-feature22,full_pf_a,,1
2,11870,27,,,,1,1,0.0,1.0,0.0,-1.0,,0.0-29.0,,-1.0,500.3449999,0.0,0.642237155,1.0,0.648566321,0.0,0.389407674,0.0,0.285525717,False,,5f3bd0e50bf2cb92bfc8a141,,504855,27,,evan-feature22,full_pf_a,,1
3,11871,28,,,,2,2,1.0,0.0,0.0,-1.0,,0.0-30.0,,0.0,1553.205,0.0,0.661086576,1.0,0.630492543,1.0,0.399058924,0.0,0.25,False,,5f3bd0e50bf2cb92bfc8a141,,516166,28,,evan-feature22,full_pf_a,,1
4,11872,29,,,,2,2,0.0,0.0,0.0,-1.0,,0.0-31.0,,0.0,374.6550001,0.0,0.631324137,0.0,0.6269842929999999,0.0,0.38734784299999997,0.0,0.25,False,,5f3bd0e50bf2cb92bfc8a141,,526296,29,,evan-feature22,full_pf_a,,0
5,11873,30,,,,2,2,1.0,0.0,0.0,-1.0,,0.0-32.0,,0.0,113.72,0.0,0.6381991370000001,1.0,0.68987999,1.0,0.384107265,0.0,0.271332943,False,,5f3bd0e50bf2cb92bfc8a141,,536169,30,,evan-feature22,full_pf_a,,0
6,11874,31,,,,1,1,1.0,0.0,0.0,-1.0,,0.0-33.0,,0.0,3487.32,1.0,0.66034901,0.0,0.742641349,0.0,0.360225629,0.0,0.25,False,,5f3bd0e50bf2cb92bfc8a141,,549418,31,,evan-feature22,full_pf_a,,1
7,11875,32,,,,1,1,1.0,1.0,1.0,0.0,,0.0-34.0,,1.0,1601.86,1.0,0.638612418,1.0,0.75,1.0,0.367273939,1.0,0.25,False,,5f3bd0e50bf2cb92bfc8a141,,560780,32,,evan-feature22,full_pf_a,,0
8,11876,33,,,,1,1,1.0,1.0,0.0,-1.0,,0.0-35.0,,-1.0,2438.03,1.0,0.624340629,1.0,0.75,1.0,0.425829545,1.0,0.25,False,,5f3bd0e50bf2cb92bfc8a141,,572977,33,,evan-feature22,full_pf_a,,0
9,11877,34,,,,2,2,0.0,1.0,0.0,-1.0,,0.0-36.0,,-1.0,400.2800001,0.0,0.621999804,0.0,0.75,0.0,0.368609357,1.0,0.25,False,,5f3bd0e50bf2cb92bfc8a141,,583138,34,,evan-feature22,full_pf_a,,1
10,11878,35,,,,1,1,0.0,1.0,1.0,0.0,,0.0-37.0,,0.0,485.195,0.0,0.62666403,1.0,0.75,1.0,0.311151498,0.0,0.25,False,,5f3bd0e50bf2cb92bfc8a141,,593385,35,,evan-feature22,full_pf_a,,1
11,11879,36,,,,1,1,1.0,1.0,1.0,0.0,,0.0-38.0,,1.0,3348.635,1.0,0.6819650009999999,1.0,0.75,1.0,0.310763048,0.0,0.25,False,,5f3bd0e50bf2cb92bfc8a141,,606498,36,,evan-feature22,full_pf_a,,0
12,11880,37,,,,1,1,1.0,1.0,0.0,-1.0,,0.0-39.0,,-1.0,1122.695,1.0,0.740626951,1.0,0.75,0.0,0.25,0.0,0.25,False,,5f3bd0e50bf2cb92bfc8a141,,617385,37,,evan-feature22,full_pf_a,,0
13,11881,38,,,,2,2,0.0,0.0,0.0,-1.0,,0.0-40.0,,0.0,887.975,1.0,0.739599242,1.0,0.742034978,0.0,0.25397114600000004,0.0,0.25,False,,5f3bd0e50bf2cb92bfc8a141,,628035,38,,evan-feature22,full_pf_a,,1
14,11882,39,,,,2,2,1.0,1.0,0.0,-1.0,,0.0-41.0,,-1.0,511.95,1.0,0.732341315,1.0,0.72735643,1.0,0.25,1.0,0.25,False,,5f3bd0e50bf2cb92bfc8a141,,638306,39,,evan-feature22,full_pf_a,,0
15,11883,40,,,,2,2,0.0,1.0,0.0,-1.0,,0.0-42.0,,-1.0,1781.525,1.0,0.7062287770000001,1.0,0.75,0.0,0.29002151,1.0,0.288256649,False,,5f3bd0e50bf2cb92bfc8a141,,649849,40,,evan-feature22,full_pf_a,,0
16,11884,41,,,,1,1,1.0,1.0,1.0,0.0,,0.0-43.0,,1.0,318.00999989999997,1.0,0.7086029209999999,1.0,0.75,0.0,0.274129113,0.0,0.262851608,False,,5f3bd0e50bf2cb92bfc8a141,,659928,41,,evan-feature22,full_pf_a,,1
17,11885,42,,,,2,2,0.0,0.0,0.0,-1.0,,0.0-44.0,,0.0,776.25,1.0,0.669189651,1.0,0.727614338,0.0,0.298444036,0.0,0.296944518,False,,5f3bd0e50bf2cb92bfc8a141,,670466,42,,evan-feature22,full_pf_a,,1
18,11886,43,,,,1,1,1.0,1.0,1.0,0.0,,0.0-45.0,,1.0,418.17,1.0,0.6819912929999999,1.0,0.7179434290000001,0.0,0.265003961,0.0,0.28157921199999997,False,,5f3bd0e50bf2cb92bfc8a141,,680648,43,,evan-feature22,full_pf_a,,1
19,11887,44,,,,1,1,1.0,1.0,1.0,0.0,,0.0-46.0,,1.0,1063.86,1.0,0.665275002,1.0,0.723065271,0.0,0.260414971,1.0,0.30973870000000003,False,,5f3bd0e50bf2cb92bfc8a141,,691475,44,,evan-feature22,full_pf_a,,0
20,11888,45,,,,SLOW,SLOW,,,0.0,-1.0,,0.0-47.0,,-3.0,,1.0,0.6660593260000001,1.0,0.728032907,0.0,0.30922817,0.0,0.338778608,False,,5f3bd0e50bf2cb92bfc8a141,,697281,45,,evan-feature22,full_pf_a,,1
21,11889,46,,,,1,1,1.0,1.0,0.0,-1.0,,0.0-48.0,,-1.0,64.89499996,1.0,0.702068785,1.0,0.6528750879999999,1.0,0.287329608,0.0,0.35789613200000003,False,,5f3bd0e50bf2cb92bfc8a141,,707107,46,,evan-feature22,full_pf_a,,1
22,11890,47,,,,1,1,1.0,1.0,0.0,-1.0,,0.0-49.0,,-1.0,833.435,1.0,0.651939787,1.0,0.636725589,0.0,0.284834488,0.0,0.358563756,False,,5f3bd0e50bf2cb92bfc8a141,,717702,47,,evan-feature22,full_pf_a,,0
23,11891,48,,,,2,2,0.0,0.0,0.0,-1.0,,0.0-50.0,,0.0,278.605,1.0,0.67573929,0.0,0.612550049,0.0,0.37130387600000003,0.0,0.383542402,False,,5f3bd0e50bf2cb92bfc8a141,,727739,48,,evan-feature22,full_pf_a,,1
24,11892,49,,,,1,1,1.0,1.0,0.0,-1.0,,0.0-51.0,,-1.0,709.65,1.0,0.620753801,1.0,0.60513644,0.0,0.385529434,1.0,0.340361743,False,,5f3bd0e50bf2cb92bfc8a141,,738213,49,,evan-feature22,full_pf_a,,1
25,11893,50,,,,1,1,1.0,1.0,1.0,0.0,,0.0-52.0,,1.0,75.96000005,1.0,0.673564893,1.0,0.672437924,0.0,0.292955382,0.0,0.337633795,False,,5f3bd0e50bf2cb92bfc8a141,,748049,50,,evan-feature22,full_pf_a,,0
26,11894,51,,,,SLOW,SLOW,,,0.0,-1.0,,0.0-53.0,,-3.0,,1.0,0.6749427,0.0,0.724197502,0.0,0.32391132100000003,1.0,0.350995264,False,,5f3bd0e50bf2cb92bfc8a141,,753854,51,,evan-feature22,full_pf_a,,1
27,11895,52,,,,1,1,1.0,0.0,0.0,-1.0,,0.0-54.0,,0.0,1350.765,1.0,0.6940159379999999,0.0,0.75,0.0,0.31710554399999996,1.0,0.413450341,False,,5f3bd0e50bf2cb92bfc8a141,,764965,52,,evan-feature22,full_pf_a,,1
28,11896,53,,,,1,1,0.0,1.0,0.0,-1.0,,0.0-55.0,,-1.0,929.3,0.0,0.6916018270000001,1.0,0.69001187,1.0,0.261817804,1.0,0.40038635,False,,5f3bd0e50bf2cb92bfc8a141,,775659,53,,evan-feature22,full_pf_a,,0
29,11897,54,,,,2,2,1.0,0.0,0.0,-1.0,,0.0-56.0,,0.0,676.4549999,0.0,0.641061544,0.0,0.71337992,1.0,0.277296461,0.0,0.47372791700000005,False,,5f3bd0e50bf2cb92bfc8a141,,786098,54,,evan-feature22,full_pf_a,,1
30,11898,55,,,,2,2,0.0,0.0,0.0,-1.0,,0.0-57.0,,0.0,306.16,0.0,0.6082438520000001,1.0,0.708471106,0.0,0.28745137,0.0,0.564174476,False,,5f3bd0e50bf2cb92bfc8a141,,796164,55,,evan-feature22,full_pf_a,,0
31,11899,56,,,,2,2,0.0,1.0,1.0,0.0,,0.0-58.0,,0.0,326.325,1.0,0.6051112120000001,0.0,0.7118147229999999,0.0,0.272390611,1.0,0.5595149939999999,False,,5f3bd0e50bf2cb92bfc8a141,,806254,56,,evan-feature22,full_pf_a,,0
32,11900,57,,,,2,2,1.0,1.0,1.0,0.0,,0.0-59.0,,1.0,1311.45,1.0,0.582420852,0.0,0.635867583,1.0,0.31089574,1.0,0.5227206520000001,False,,5f3bd0e50bf2cb92bfc8a141,,817327,57,,evan-feature22,full_pf_a,,0
33,11901,58,,,,2,2,0.0,1.0,1.0,0.0,,0.0-60.0,,0.0,1133.345,1.0,0.623195575,0.0,0.655026044,0.0,0.25,1.0,0.560387538,False,,5f3bd0e50bf2cb92bfc8a141,,828220,58,,evan-feature22,full_pf_a,,0
34,11902,59,,,,1,1,1.0,1.0,0.0,-1.0,,0.0-61.0,,-1.0,737.225,1.0,0.601889598,1.0,0.678198724,0.0,0.25,1.0,0.559922936,False,,5f3bd0e50bf2cb92bfc8a141,,838715,59,,evan-feature22,full_pf_a,,1
35,11903,60,,,,2,2,0.0,1.0,1.0,0.0,,0.0-62.0,,0.0,453.5249999,0.0,0.601259914,0.0,0.704681482,0.0,0.33908969299999997,1.0,0.505003715,False,,5f3bd0e50bf2cb92bfc8a141,,848928,60,,evan-feature22,full_pf_a,,1
36,11904,61,,,,2,2,0.0,0.0,1.0,0.0,,0.0-63.0,,0.0,235.12999989999997,0.0,0.59645454,1.0,0.710437172,0.0,0.327441879,0.0,0.391749613,False,,5f3bd0e50bf2cb92bfc8a141,,858922,61,,evan-feature22,full_pf_a,,0
37,11905,62,,,,1,1,1.0,1.0,0.0,-1.0,,0.0-64.0,,-1.0,985.7699999,1.0,0.529473,1.0,0.636758527,0.0,0.301338063,0.0,0.365661481,False,,5f3bd0e50bf2cb92bfc8a141,,869668,62,,evan-feature22,full_pf_a,,1
38,11906,63,,,,2,2,0.0,0.0,1.0,0.0,,0.0-65.0,,0.0,1112.915,0.0,0.541657162,1.0,0.634541962,0.0,0.343535366,0.0,0.371763742,False,,5f3bd0e50bf2cb92bfc8a141,,880543,63,,evan-feature22,full_pf_a,,1
39,11907,64,,,,2,2,0.0,1.0,1.0,0.0,,0.0-66.0,,0.0,458.2999999,0.0,0.5707533260000001,1.0,0.589121171,0.0,0.326428396,1.0,0.43961622899999997,False,,5f3bd0e50bf2cb92bfc8a141,,890766,64,,evan-feature22,full_pf_a,,0
40,11908,65,,,,2,2,1.0,0.0,0.0,-1.0,,0.0-67.0,,0.0,338.26999989999996,0.0,0.5707533260000001,1.0,0.589121171,1.0,0.326428396,0.0,0.43961622899999997,False,,5f3bd0e50bf2cb92bfc8a141,,900866,65,,evan-feature22,full_pf_a,,0
41,11909,66,,,,2,2,0.0,1.0,0.0,-1.0,,0.0-68.0,,-1.0,521.0050001,0.0,0.506271295,0.0,0.641775594,0.0,0.37149690700000004,1.0,0.404330166,False,,5f3bd0e50bf2cb92bfc8a141,,911151,66,,evan-feature22,full_pf_a,,0
42,11910,67,,,,2,2,1.0,0.0,1.0,0.0,,0.0-69.0,,1.0,909.945,1.0,0.455642565,1.0,0.623605825,1.0,0.358753011,0.0,0.346174041,False,,5f3bd0e50bf2cb92bfc8a141,,921821,67,,evan-feature22,full_pf_a,,0
43,11911,68,,,,1,1,1.0,1.0,0.0,-1.0,,0.0-70.0,,-1.0,749.94,1.0,0.483677308,1.0,0.5904681070000001,0.0,0.402218411,0.0,0.35344697,False,,5f3bd0e50bf2cb92bfc8a141,,932333,68,,evan-feature22,full_pf_a,,1
44,11912,69,,,,2,2,0.0,0.0,1.0,0.0,,0.0-71.0,,0.0,622.4399999,1.0,0.394210977,0.0,0.558925494,0.0,0.540052017,0.0,0.35182128700000004,False,,5f3bd0e50bf2cb92bfc8a141,,942714,69,,evan-feature22,full_pf_a,,1
45,11913,70,,,,2,2,1.0,0.0,0.0,-1.0,,0.0-72.0,,0.0,543.1649999,0.0,0.382300414,1.0,0.577670603,1.0,0.607608448,0.0,0.378261578,False,,5f3bd0e50bf2cb92bfc8a141,,953019,70,,evan-feature22,full_pf_a,,0
46,11914,71,,,,2,2,0.0,0.0,1.0,0.0,,0.0-73.0,,0.0,962.185,0.0,0.357596762,1.0,0.5929076529999999,0.0,0.6579790010000001,0.0,0.401326777,False,,5f3bd0e50bf2cb92bfc8a141,,963741,71,,evan-feature22,full_pf_a,,0
47,11915,72,,,,1,1,0.0,0.0,0.0,-1.0,,0.0-74.0,,0.0,368.58,0.0,0.362033495,0.0,0.582308608,1.0,0.649195052,1.0,0.355158505,False,,5f3bd0e50bf2cb92bfc8a141,,973867,72,,evan-feature22,full_pf_a,,1
48,11916,73,,,,2,2,1.0,0.0,0.0,-1.0,,0.0-75.0,,0.0,696.46,0.0,0.369620635,1.0,0.669100864,1.0,0.706059111,0.0,0.362516241,False,,5f3bd0e50bf2cb92bfc8a141,,984322,73,,evan-feature22,full_pf_a,,1
49,11917,74,,,,1,1,1.0,1.0,0.0,-1.0,,0.0-76.0,,-1.0,256.53,1.0,0.41477751399999996,1.0,0.7284416779999999,0.0,0.7182656940000001,0.0,0.36228040899999997,False,,5f3bd0e50bf2cb92bfc8a141,,994340,74,,evan-feature22,full_pf_a,,1
50,11918,75,,,,2,2,0.0,1.0,1.0,0.0,,0.0-77.0,,0.0,476.315,1.0,0.37675460299999997,1.0,0.703250285,0.0,0.75,1.0,0.461979164,False,,5f3bd0e50bf2cb92bfc8a141,,1004579,75,,evan-feature22,full_pf_a,,1
51,11919,76,,,,2,2,1.0,0.0,1.0,0.0,,0.0-78.0,,1.0,429.38499989999997,0.0,0.398716075,0.0,0.6723864890000001,1.0,0.674153818,0.0,0.519029516,False,,5f3bd0e50bf2cb92bfc8a141,,1014773,76,,evan-feature22,full_pf_a,,0
52,11920,77,,,,2,2,0.0,1.0,1.0,0.0,,0.0-79.0,,0.0,1763.17,0.0,0.34677856700000004,1.0,0.69057175,0.0,0.6822438540000001,1.0,0.477292237,False,,5f3bd0e50bf2cb92bfc8a141,,1026297,77,,evan-feature22,full_pf_a,,0
53,11921,78,,,,1,1,1.0,0.0,0.0,-1.0,,0.0-80.0,,0.0,1215.0,1.0,0.28580469199999997,0.0,0.68408818,1.0,0.684207565,1.0,0.49780448299999996,False,,5f3bd0e50bf2cb92bfc8a141,,1037273,78,,evan-feature22,full_pf_a,,1
54,11923,80,,,,2,2,1.0,0.0,0.0,-1.0,,0.0-82.0,,0.0,840.1649999,0.0,0.25,1.0,0.7405808970000001,1.0,0.679614108,0.0,0.436436964,False,,5f3bd0e50bf2cb92bfc8a141,,1053589,80,,evan-feature22,full_pf_a,,1
55,11924,81,,,,2,2,1.0,1.0,0.0,-1.0,,0.0-83.0,,-1.0,111.67500009999999,0.0,0.29890393,1.0,0.730505706,1.0,0.7328203320000001,1.0,0.439256938,False,,5f3bd0e50bf2cb92bfc8a141,,1063460,81,,evan-feature22,full_pf_a,,0
56,11925,82,,,,1,1,0.0,1.0,1.0,0.0,,0.0-84.0,,0.0,196.19,0.0,0.326762398,1.0,0.7148059609999999,1.0,0.75,0.0,0.44389608799999997,False,,5f3bd0e50bf2cb92bfc8a141,,1073417,82,,evan-feature22,full_pf_a,,1
57,11926,83,,,,2,2,1.0,0.0,0.0,-1.0,,0.0-85.0,,0.0,628.195,0.0,0.295168515,1.0,0.739760854,1.0,0.719947008,0.0,0.35277284600000003,False,,5f3bd0e50bf2cb92bfc8a141,,1083807,83,,evan-feature22,full_pf_a,,1
58,11927,84,,,,1,1,0.0,1.0,0.0,-1.0,,0.0-86.0,,-1.0,1780.605,0.0,0.25,1.0,0.70781482,1.0,0.75,0.0,0.286095925,False,,5f3bd0e50bf2cb92bfc8a141,,1095349,84,,evan-feature22,full_pf_a,,1
59,11928,85,,,,2,2,0.0,0.0,0.0,-1.0,,0.0-87.0,,0.0,932.8900001000001,1.0,0.25638190899999996,1.0,0.704088163,0.0,0.75,0.0,0.26872601399999996,False,,5f3bd0e50bf2cb92bfc8a141,,1106040,85,,evan-feature22,full_pf_a,,1
60,11929,86,,,,2,2,1.0,0.0,1.0,0.0,,0.0-88.0,,1.0,287.4350001,0.0,0.271581126,0.0,0.669760107,1.0,0.733896663,0.0,0.273244572,False,,5f3bd0e50bf2cb92bfc8a141,,1116088,86,,evan-feature22,full_pf_a,,0
61,11930,87,,,,SLOW,SLOW,,,0.0,-1.0,,0.0-89.0,,-3.0,,0.0,0.257144401,0.0,0.600575706,1.0,0.74488122,0.0,0.25,False,,5f3bd0e50bf2cb92bfc8a141,,1121893,87,,evan-feature22,full_pf_a,,1
62,11931,88,,,,1,1,0.0,1.0,0.0,-1.0,,0.0-90.0,,-1.0,910.39,0.0,0.25,1.0,0.616870026,1.0,0.723610234,1.0,0.25,False,,5f3bd0e50bf2cb92bfc8a141,,1132566,88,,evan-feature22,full_pf_a,,1
63,11932,89,,,,1,1,0.0,0.0,1.0,0.0,,0.0-91.0,,0.0,375.565,0.0,0.25,0.0,0.583540187,1.0,0.7041042559999999,0.0,0.285961995,False,,5f3bd0e50bf2cb92bfc8a141,,1142703,89,,evan-feature22,full_pf_a,,0
64,11933,90,,,,2,2,1.0,1.0,1.0,0.0,,0.0-92.0,,1.0,422.535,0.0,0.27254536,0.0,0.53875765,1.0,0.693783448,1.0,0.284961652,False,,5f3bd0e50bf2cb92bfc8a141,,1152887,90,,evan-feature22,full_pf_a,,1
65,11934,91,,,,1,1,1.0,0.0,1.0,0.0,,0.0-93.0,,1.0,108.685,1.0,0.25,0.0,0.548431252,1.0,0.734221895,0.0,0.279445214,False,,5f3bd0e50bf2cb92bfc8a141,,1162756,91,,evan-feature22,full_pf_a,,1
66,11935,92,,,,2,2,1.0,0.0,0.0,-1.0,,0.0-94.0,,0.0,1951.165,0.0,0.258640684,0.0,0.545878066,1.0,0.725245965,0.0,0.31487537,False,,5f3bd0e50bf2cb92bfc8a141,,1174468,92,,evan-feature22,full_pf_a,,1
67,11936,93,,,,1,1,1.0,0.0,0.0,-1.0,,0.0-95.0,,0.0,264.735,1.0,0.251103711,0.0,0.5776290629999999,0.0,0.696320133,1.0,0.317831047,False,,5f3bd0e50bf2cb92bfc8a141,,1184491,93,,evan-feature22,full_pf_a,,1
68,11937,94,,,,2,2,1.0,0.0,0.0,-1.0,,0.0-96.0,,0.0,761.2299998999999,1.0,0.276630292,0.0,0.617329858,1.0,0.73838088,0.0,0.261471582,False,,5f3bd0e50bf2cb92bfc8a141,,1195013,94,,evan-feature22,full_pf_a,,1
69,11938,95,,,,2,2,1.0,0.0,0.0,-1.0,,0.0-97.0,,0.0,474.7949999,0.0,0.297716424,0.0,0.618863717,1.0,0.7402358259999999,0.0,0.262600834,False,,5f3bd0e50bf2cb92bfc8a141,,1205248,95,,evan-feature22,full_pf_a,,0
70,11939,96,,,,2,2,1.0,1.0,1.0,0.0,,0.0-98.0,,1.0,307.27,0.0,0.290935512,1.0,0.695370945,1.0,0.706570507,1.0,0.280030553,False,,5f3bd0e50bf2cb92bfc8a141,,1215317,96,,evan-feature22,full_pf_a,,0
71,11940,97,,,,2,2,1.0,0.0,0.0,-1.0,,0.0-99.0,,0.0,387.425,0.0,0.25,1.0,0.6465277079999999,1.0,0.67766682,0.0,0.25,False,,5f3bd0e50bf2cb92bfc8a141,,1225466,97,,evan-feature22,full_pf_a,,0
72,11941,98,,,,1,1,0.0,1.0,1.0,0.0,,0.0-100.0,,0.0,732.055,0.0,0.26463816,1.0,0.636100213,1.0,0.646048507,1.0,0.265607101,False,,5f3bd0e50bf2cb92bfc8a141,,1235959,98,,evan-feature22,full_pf_a,,1
73,11942,99,,,,SLOW,SLOW,,,1.0,0.0,,0.0-101.0,,-3.0,,0.0,0.314340707,1.0,0.667795927,0.0,0.613630805,1.0,0.25,False,,5f3bd0e50bf2cb92bfc8a141,,1241764,99,,evan-feature22,full_pf_a,,1
74,11943,100,,,,2,2,1.0,0.0,0.0,-1.0,,0.0-102.0,,0.0,268.97,0.0,0.28685784,1.0,0.6622549529999999,1.0,0.652154117,0.0,0.25,False,,5f3bd0e50bf2cb92bfc8a141,,1251793,100,,evan-feature22,full_pf_a,,1
75,11944,101,,,,2,2,1.0,1.0,0.0,-1.0,,0.0-103.0,,-1.0,405.0,0.0,0.304106554,1.0,0.631289538,1.0,0.707041942,1.0,0.29314237,False,,5f3bd0e50bf2cb92bfc8a141,,1261962,101,,evan-feature22,full_pf_a,,0
76,11945,102,,,,2,2,0.0,1.0,0.0,-1.0,,0.0-104.0,,-1.0,1698.48,0.0,0.304806932,1.0,0.571167718,0.0,0.680472346,1.0,0.25,False,,5f3bd0e50bf2cb92bfc8a141,,1273421,102,,evan-feature22,full_pf_a,,0
77,11946,103,,,,2,2,1.0,0.0,0.0,-1.0,,0.0-105.0,,0.0,1028.815,1.0,0.37919861,1.0,0.5724849710000001,1.0,0.705638003,0.0,0.30179300600000003,False,,5f3bd0e50bf2cb92bfc8a141,,1284210,103,,evan-feature22,full_pf_a,,0
78,11947,104,,,,2,2,1.0,0.0,0.0,-1.0,,0.0-106.0,,0.0,721.715,0.0,0.464277969,1.0,0.554034373,1.0,0.7372627340000001,0.0,0.264699741,False,,5f3bd0e50bf2cb92bfc8a141,,1294692,104,,evan-feature22,full_pf_a,,0
79,11948,105,,,,1,1,1.0,0.0,0.0,-1.0,,0.0-107.0,,0.0,566.9600001,1.0,0.465104323,0.0,0.530793115,1.0,0.75,1.0,0.31683071,False,,5f3bd0e50bf2cb92bfc8a141,,1305017,105,,evan-feature22,full_pf_a,,1
80,11949,106,,,,1,1,0.0,1.0,1.0,0.0,,0.0-108.0,,0.0,1084.865,0.0,0.465104323,1.0,0.530793115,1.0,0.75,0.0,0.31683071,False,,5f3bd0e50bf2cb92bfc8a141,,1315863,106,,evan-feature22,full_pf_a,,0
81,11950,107,,,,2,2,1.0,0.0,1.0,0.0,,0.0-109.0,,1.0,1067.865,1.0,0.46833986,1.0,0.570249239,1.0,0.7244472590000001,0.0,0.364114163,False,,5f3bd0e50bf2cb92bfc8a141,,1326693,107,,evan-feature22,full_pf_a,,1
82,11951,108,,,,2,2,1.0,1.0,1.0,0.0,,0.0-110.0,,1.0,3383.57,0.0,0.445444024,1.0,0.649673355,1.0,0.6845441290000001,1.0,0.300660449,False,,5f3bd0e50bf2cb92bfc8a141,,1339837,108,,evan-feature22,full_pf_a,,0
83,11952,109,,,,2,2,1.0,0.0,1.0,0.0,,0.0-111.0,,1.0,888.955,0.0,0.39909721299999995,1.0,0.6715179509999999,1.0,0.742310028,0.0,0.35496088299999995,False,,5f3bd0e50bf2cb92bfc8a141,,1350487,109,,evan-feature22,full_pf_a,,0
84,11953,110,,,,1,1,0.0,0.0,0.0,-1.0,,0.0-112.0,,0.0,1521.915,0.0,0.37956104799999996,0.0,0.694725302,1.0,0.7181651309999999,1.0,0.38726906299999997,False,,5f3bd0e50bf2cb92bfc8a141,,1361767,110,,evan-feature22,full_pf_a,,1
85,11954,111,,,,2,2,0.0,1.0,0.0,-1.0,,0.0-113.0,,-1.0,367.3,0.0,0.404995034,1.0,0.724375412,0.0,0.6910946859999999,1.0,0.387187347,False,,5f3bd0e50bf2cb92bfc8a141,,1371893,111,,evan-feature22,full_pf_a,,1
86,11955,112,,,,2,2,1.0,0.0,1.0,0.0,,0.0-114.0,,1.0,513.3349999,0.0,0.461740803,1.0,0.75,1.0,0.75,0.0,0.34872038200000005,False,,5f3bd0e50bf2cb92bfc8a141,,1382164,112,,evan-feature22,full_pf_a,,0
87,11956,113,,,,1,1,1.0,0.0,1.0,0.0,,0.0-115.0,,1.0,324.19,1.0,0.43821380600000004,0.0,0.738833273,1.0,0.728286963,0.0,0.399538128,False,,5f3bd0e50bf2cb92bfc8a141,,1392251,113,,evan-feature22,full_pf_a,,1
88,11957,114,,,,2,2,1.0,1.0,0.0,-1.0,,0.0-116.0,,-1.0,436.26,1.0,0.41709882,1.0,0.736666736,1.0,0.75,1.0,0.389095584,False,,5f3bd0e50bf2cb92bfc8a141,,1402447,114,,evan-feature22,full_pf_a,,1
89,11958,115,,,,2,2,0.0,1.0,0.0,-1.0,,0.0-117.0,,-1.0,333.17,1.0,0.39749009799999996,1.0,0.744320029,0.0,0.75,1.0,0.363848678,False,,5f3bd0e50bf2cb92bfc8a141,,1412539,115,,evan-feature22,full_pf_a,,0
90,11959,116,,,,SLOW,SLOW,,,1.0,0.0,,0.0-118.0,,-3.0,,0.0,0.392653706,1.0,0.75,0.0,0.75,1.0,0.384386976,False,,5f3bd0e50bf2cb92bfc8a141,,1418345,116,,evan-feature22,full_pf_a,,1
91,11960,117,,,,2,2,1.0,1.0,0.0,-1.0,,0.0-119.0,,-1.0,1886.495,1.0,0.31190902600000003,1.0,0.75,1.0,0.732413819,1.0,0.413082932,False,,5f3bd0e50bf2cb92bfc8a141,,1429995,117,,evan-feature22,full_pf_a,,1
92,11961,118,,,,1,1,1.0,1.0,1.0,0.0,,0.0-120.0,,1.0,721.9949999,1.0,0.366917648,1.0,0.740073855,1.0,0.75,0.0,0.352861979,False,,5f3bd0e50bf2cb92bfc8a141,,1440477,118,,evan-feature22,full_pf_a,,1
93,11962,119,,,,2,2,1.0,1.0,1.0,0.0,,0.0-121.0,,1.0,506.825,1.0,0.3645172,1.0,0.721770713,1.0,0.75,1.0,0.404074511,False,,5f3bd0e50bf2cb92bfc8a141,,1450746,119,,evan-feature22,full_pf_a,,1
94,11963,120,,,,1,1,0.0,1.0,1.0,0.0,,0.0-122.0,,0.0,898.9950001,0.0,0.35205600299999995,1.0,0.68983859,1.0,0.739735447,0.0,0.366895945,False,,5f3bd0e50bf2cb92bfc8a141,,1461404,120,,evan-feature22,full_pf_a,,1
95,11964,121,,,,2,2,1.0,0.0,1.0,0.0,,0.0-123.0,,1.0,165.715,0.0,0.40998722600000004,1.0,0.720859127,1.0,0.673854955,0.0,0.368528541,False,,5f3bd0e50bf2cb92bfc8a141,,1471332,121,,evan-feature22,full_pf_a,,1
96,11965,122,,,,1,1,0.0,1.0,1.0,0.0,,0.0-124.0,,0.0,171.175,0.0,0.353625316,1.0,0.75,0.0,0.695605473,0.0,0.38303674200000004,False,,5f3bd0e50bf2cb92bfc8a141,,1481263,122,,evan-feature22,full_pf_a,,1
97,11966,123,,,,1,1,0.0,1.0,1.0,0.0,,0.0-125.0,,0.0,346.29,0.0,0.359216989,1.0,0.75,0.0,0.6987915090000001,0.0,0.35169046200000004,False,,5f3bd0e50bf2cb92bfc8a141,,1491368,123,,evan-feature22,full_pf_a,,0
98,11967,124,,,,2,2,0.0,0.0,1.0,0.0,,0.0-126.0,,0.0,497.625,1.0,0.35834496899999996,1.0,0.75,0.0,0.707067742,0.0,0.416763636,False,,5f3bd0e50bf2cb92bfc8a141,,1501626,124,,evan-feature22,full_pf_a,,1
99,11968,125,,,,2,2,0.0,1.0,0.0,-1.0,,0.0-127.0,,-1.0,546.63,0.0,0.38741613799999997,0.0,0.7177369570000001,0.0,0.734902455,1.0,0.49438664299999996,False,,5f3bd0e50bf2cb92bfc8a141,,1511935,125,,evan-feature22,full_pf_a,,0
100,11969,126,,,,1,1,1.0,0.0,1.0,0.0,,0.0-128.0,,1.0,568.82,1.0,0.405255252,0.0,0.7300466640000001,1.0,0.7027748070000001,0.0,0.504359668,False,,5f3bd0e50bf2cb92bfc8a141,,1522264,126,,evan-feature22,full_pf_a,,1
101,11970,127,,,,1,1,1.0,0.0,1.0,0.0,,0.0-129.0,,1.0,387.675,1.0,0.40697073,0.0,0.7260142190000001,1.0,0.724461982,0.0,0.522779179,False,,5f3bd0e50bf2cb92bfc8a141,,1532417,127,,evan-feature22,full_pf_a,,0
102,11971,128,,,,1,1,1.0,1.0,1.0,0.0,,0.0-130.0,,1.0,808.005,1.0,0.43906215299999996,1.0,0.7252802340000001,0.0,0.719079934,0.0,0.5712990579999999,False,,5f3bd0e50bf2cb92bfc8a141,,1542984,128,,evan-feature22,full_pf_a,,0
103,11972,129,,,,2,2,0.0,1.0,0.0,-1.0,,0.0-131.0,,-1.0,669.1149998999999,0.0,0.4076705,1.0,0.73280499,0.0,0.681313127,1.0,0.523891346,False,,5f3bd0e50bf2cb92bfc8a141,,1553412,129,,evan-feature22,full_pf_a,,1
104,11973,130,,,,1,1,0.0,1.0,0.0,-1.0,,0.0-132.0,,-1.0,49.86000003,0.0,0.399102911,1.0,0.730498344,0.0,0.661080239,1.0,0.46742603,False,,5f3bd0e50bf2cb92bfc8a141,,1563224,130,,evan-feature22,full_pf_a,,1
105,11974,131,,,,2,2,1.0,1.0,0.0,-1.0,,0.0-133.0,,-1.0,383.62,0.0,0.356477282,1.0,0.712296395,1.0,0.641812684,1.0,0.44868414,False,,5f3bd0e50bf2cb92bfc8a141,,1573371,131,,evan-feature22,full_pf_a,,1
106,11975,132,,,,2,2,1.0,1.0,1.0,0.0,,0.0-134.0,,1.0,600.0,0.0,0.462760722,0.0,0.692349322,1.0,0.700947931,1.0,0.394680266,False,,5f3bd0e50bf2cb92bfc8a141,,1583733,132,,evan-feature22,full_pf_a,,0
107,11976,133,,,,2,2,1.0,1.0,1.0,0.0,,0.0-135.0,,1.0,657.7300001,1.0,0.422306413,1.0,0.718375916,1.0,0.706340917,1.0,0.367787185,False,,5f3bd0e50bf2cb92bfc8a141,,1594153,133,,evan-feature22,full_pf_a,,0
108,11978,135,,,,2,2,1.0,1.0,1.0,0.0,,0.0-137.0,,1.0,452.3049999,0.0,0.4582233,0.0,0.643834117,1.0,0.75,1.0,0.39615823299999997,False,,5f3bd0e50bf2cb92bfc8a141,,1607529,135,,evan-feature22,full_pf_a,,0
109,11979,136,,,,2,2,1.0,0.0,1.0,0.0,,0.0-138.0,,1.0,339.84,1.0,0.43813437899999996,0.0,0.651283804,1.0,0.729674191,0.0,0.37711048,False,,5f3bd0e50bf2cb92bfc8a141,,1617632,136,,evan-feature22,full_pf_a,,0
110,11980,137,,,,2,2,1.0,1.0,1.0,0.0,,0.0-139.0,,1.0,2693.22,0.0,0.471199094,1.0,0.6470010979999999,1.0,0.715008097,1.0,0.410656191,False,,5f3bd0e50bf2cb92bfc8a141,,1630086,137,,evan-feature22,full_pf_a,,0
111,11981,138,,,,1,1,0.0,1.0,1.0,0.0,,0.0-140.0,,0.0,658.59,0.0,0.42486406,1.0,0.629771829,1.0,0.6550939960000001,1.0,0.459093873,False,,5f3bd0e50bf2cb92bfc8a141,,1640506,138,,evan-feature22,full_pf_a,,1
112,11982,139,,,,2,2,1.0,0.0,1.0,0.0,,0.0-141.0,,1.0,638.33,0.0,0.4803197,0.0,0.645842715,1.0,0.6421749920000001,0.0,0.443092151,False,,5f3bd0e50bf2cb92bfc8a141,,1650905,139,,evan-feature22,full_pf_a,,1
113,11983,140,,,,2,2,0.0,1.0,0.0,-1.0,,0.0-142.0,,-1.0,3249.61,0.0,0.521848997,1.0,0.735801074,0.0,0.6691348460000001,1.0,0.45259351600000003,False,,5f3bd0e50bf2cb92bfc8a141,,1663915,140,,evan-feature22,full_pf_a,,0
114,11984,141,,,,2,2,0.0,1.0,1.0,0.0,,0.0-143.0,,0.0,614.5649999,1.0,0.49565621299999996,1.0,0.742400847,0.0,0.661512553,1.0,0.483110831,False,,5f3bd0e50bf2cb92bfc8a141,,1674292,141,,evan-feature22,full_pf_a,,0
115,11985,142,,,,2,2,1.0,0.0,1.0,0.0,,0.0-144.0,,1.0,605.2249999,0.0,0.521564361,1.0,0.731078632,1.0,0.6774886809999999,0.0,0.483263956,False,,5f3bd0e50bf2cb92bfc8a141,,1684660,142,,evan-feature22,full_pf_a,,0
116,11986,143,,,,2,2,1.0,0.0,1.0,0.0,,0.0-145.0,,1.0,354.345,1.0,0.558893102,0.0,0.719810023,1.0,0.67461031,0.0,0.499349834,False,,5f3bd0e50bf2cb92bfc8a141,,1694777,143,,evan-feature22,full_pf_a,,0
117,11987,144,,,,2,2,1.0,1.0,1.0,0.0,,0.0-146.0,,1.0,415.07,0.0,0.611031046,1.0,0.75,1.0,0.688072995,1.0,0.5321422729999999,False,,5f3bd0e50bf2cb92bfc8a141,,1704954,144,,evan-feature22,full_pf_a,,0
118,11988,145,,,,2,2,1.0,0.0,0.0,-1.0,,0.0-147.0,,0.0,179.22,0.0,0.633223941,1.0,0.713567728,1.0,0.75,0.0,0.48185314700000004,False,,5f3bd0e50bf2cb92bfc8a141,,1714893,145,,evan-feature22,full_pf_a,,0
119,11989,146,,,,2,2,1.0,1.0,1.0,0.0,,0.0-148.0,,1.0,553.455,1.0,0.664001694,1.0,0.705509768,1.0,0.75,1.0,0.500211065,False,,5f3bd0e50bf2cb92bfc8a141,,1725207,146,,evan-feature22,full_pf_a,,0
120,11990,147,,,,2,2,1.0,0.0,1.0,0.0,,0.0-149.0,,1.0,589.32,1.0,0.664001694,1.0,0.705509768,1.0,0.75,0.0,0.500211065,False,,5f3bd0e50bf2cb92bfc8a141,,1735558,147,,evan-feature22,full_pf_a,,0
121,11991,148,,,,1,1,0.0,1.0,1.0,0.0,,0.0-150.0,,0.0,337.8750001,0.0,0.696508041,1.0,0.71066027,1.0,0.717028709,0.0,0.49792991,False,,5f3bd0e50bf2cb92bfc8a141,,1745657,148,,evan-feature22,full_pf_a,,1
122,11992,149,,,,1,1,0.0,1.0,0.0,-1.0,,0.0-151.0,,-1.0,380.065,0.0,0.699883272,1.0,0.75,1.0,0.713543895,0.0,0.496962643,False,,5f3bd0e50bf2cb92bfc8a141,,1755798,149,,evan-feature22,full_pf_a,,0
123,11993,150,,,,1,1,1.0,1.0,0.0,-1.0,,0.0-152.0,,-1.0,2295.615,1.0,0.741163419,1.0,0.75,1.0,0.64691024,1.0,0.513858197,False,,5f3bd0e50bf2cb92bfc8a141,,1767854,150,,evan-feature22,full_pf_a,,0
124,11994,151,,,,SLOW,SLOW,,,0.0,-1.0,,0.0-153.0,,-3.0,,0.0,0.75,1.0,0.70816558,0.0,0.594499079,0.0,0.48502124,False,,5f3bd0e50bf2cb92bfc8a141,,1773659,151,,evan-feature22,full_pf_a,,1
125,11995,152,,,,1,1,1.0,1.0,1.0,0.0,,0.0-154.0,,1.0,699.45,1.0,0.75,1.0,0.721848901,1.0,0.62197249,1.0,0.48263586399999997,False,,5f3bd0e50bf2cb92bfc8a141,,1784119,152,,evan-feature22,full_pf_a,,1
126,11996,153,,,,1,1,1.0,0.0,1.0,0.0,,0.0-155.0,,1.0,528.665,1.0,0.75,0.0,0.74813071,0.0,0.584357161,0.0,0.411477782,False,,5f3bd0e50bf2cb92bfc8a141,,1794407,153,,evan-feature22,full_pf_a,,0
127,11997,154,,,,1,1,1.0,0.0,1.0,0.0,,0.0-156.0,,1.0,377.815,1.0,0.75,0.0,0.75,0.0,0.52287236,0.0,0.488290656,False,,5f3bd0e50bf2cb92bfc8a141,,1804544,154,,evan-feature22,full_pf_a,,0
128,11998,155,,,,1,1,0.0,1.0,1.0,0.0,,0.0-157.0,,0.0,763.765,0.0,0.75,1.0,0.75,1.0,0.544321581,1.0,0.53143059,False,,5f3bd0e50bf2cb92bfc8a141,,1815072,155,,evan-feature22,full_pf_a,,0
129,11999,156,,,,1,1,1.0,0.0,1.0,0.0,,0.0-158.0,,1.0,1271.735,1.0,0.726754564,0.0,0.75,1.0,0.5129306370000001,1.0,0.530592445,False,,5f3bd0e50bf2cb92bfc8a141,,1826105,156,,evan-feature22,full_pf_a,,0
130,12000,157,,,,1,1,1.0,0.0,0.0,-1.0,,0.0-159.0,,0.0,2497.445,1.0,0.75,0.0,0.7392590729999999,0.0,0.479875835,1.0,0.547007051,False,,5f3bd0e50bf2cb92bfc8a141,,1838362,157,,evan-feature22,full_pf_a,,0
131,12001,158,,,,1,1,0.0,1.0,0.0,-1.0,,0.0-160.0,,-1.0,856.085,0.0,0.75,1.0,0.7393376979999999,0.0,0.546045419,0.0,0.541267353,False,,5f3bd0e50bf2cb92bfc8a141,,1848983,158,,evan-feature22,full_pf_a,,0
132,12002,159,,,,1,1,1.0,1.0,1.0,0.0,,0.0-161.0,,1.0,536.34,1.0,0.75,1.0,0.75,0.0,0.485725895,0.0,0.527625395,False,,5f3bd0e50bf2cb92bfc8a141,,1859277,159,,evan-feature22,full_pf_a,,0
133,12003,160,,,,1,1,1.0,1.0,0.0,-1.0,,0.0-162.0,,-1.0,287.7550001,1.0,0.75,1.0,0.725087974,0.0,0.488603595,0.0,0.504019206,False,,5f3bd0e50bf2cb92bfc8a141,,1869328,160,,evan-feature22,full_pf_a,,0
134,12004,161,,,,2,2,0.0,0.0,1.0,0.0,,0.0-163.0,,0.0,287.59,1.0,0.745504295,0.0,0.75,0.0,0.452379914,0.0,0.50131194,False,,5f3bd0e50bf2cb92bfc8a141,,1879372,161,,evan-feature22,full_pf_a,,1
135,12005,162,,,,2,2,1.0,0.0,0.0,-1.0,,0.0-164.0,,0.0,430.065,1.0,0.728513874,1.0,0.75,1.0,0.44125567200000004,0.0,0.531454591,False,,5f3bd0e50bf2cb92bfc8a141,,1889565,162,,evan-feature22,full_pf_a,,0
136,12006,163,,,,2,2,1.0,1.0,1.0,0.0,,0.0-165.0,,1.0,1961.33,1.0,0.73790804,1.0,0.75,1.0,0.413036656,1.0,0.524619035,False,,5f3bd0e50bf2cb92bfc8a141,,1901287,163,,evan-feature22,full_pf_a,,0
137,12007,164,,,,2,2,0.0,0.0,1.0,0.0,,0.0-166.0,,0.0,443.03,1.0,0.7080961309999999,1.0,0.708666865,0.0,0.431915581,0.0,0.481819489,False,,5f3bd0e50bf2cb92bfc8a141,,1911489,164,,evan-feature22,full_pf_a,,0
138,12008,165,,,,2,2,0.0,1.0,1.0,0.0,,0.0-167.0,,0.0,534.9099999,1.0,0.721378003,1.0,0.71605913,0.0,0.36642387,1.0,0.5036739929999999,False,,5f3bd0e50bf2cb92bfc8a141,,1921785,165,,evan-feature22,full_pf_a,,0
139,12009,166,,,,2,2,1.0,1.0,0.0,-1.0,,0.0-168.0,,-1.0,255.74500010000003,1.0,0.7340618959999999,0.0,0.699323252,1.0,0.35298046299999997,1.0,0.511241692,False,,5f3bd0e50bf2cb92bfc8a141,,1931800,166,,evan-feature22,full_pf_a,,0
140,12010,167,,,,2,2,0.0,0.0,0.0,-1.0,,0.0-169.0,,0.0,115.14,1.0,0.75,1.0,0.70412698,0.0,0.380734814,0.0,0.529580116,False,,5f3bd0e50bf2cb92bfc8a141,,1941674,167,,evan-feature22,full_pf_a,,0
141,12011,168,,,,2,2,1.0,1.0,0.0,-1.0,,0.0-170.0,,-1.0,446.4,1.0,0.7436654909999999,0.0,0.711182751,1.0,0.41125331,1.0,0.49554405,False,,5f3bd0e50bf2cb92bfc8a141,,1951884,168,,evan-feature22,full_pf_a,,0
142,12012,169,,,,2,2,0.0,1.0,1.0,0.0,,0.0-171.0,,0.0,391.495,1.0,0.731607915,1.0,0.651774583,0.0,0.35688023,1.0,0.45194491600000003,False,,5f3bd0e50bf2cb92bfc8a141,,1962035,169,,evan-feature22,full_pf_a,,0
143,12013,170,,,,1,1,1.0,1.0,0.0,-1.0,,0.0-172.0,,-1.0,949.15,1.0,0.75,1.0,0.75,0.0,0.283145374,1.0,0.528608005,False,,5f3bd0e50bf2cb92bfc8a141,,1972744,170,,evan-feature22,full_pf_a,,1
144,12014,171,,,,2,2,1.0,1.0,1.0,0.0,,0.0-173.0,,1.0,869.635,1.0,0.7491416890000001,0.0,0.7423785959999999,1.0,0.29135870399999997,1.0,0.498888318,False,,5f3bd0e50bf2cb92bfc8a141,,1983374,171,,evan-feature22,full_pf_a,,1
145,12015,172,,,,2,2,1.0,0.0,0.0,-1.0,,0.0-174.0,,0.0,777.09,0.0,0.708569387,1.0,0.717682277,1.0,0.294421699,0.0,0.493838163,False,,5f3bd0e50bf2cb92bfc8a141,,1993912,172,,evan-feature22,full_pf_a,,0
146,12016,173,,,,1,1,0.0,1.0,1.0,0.0,,0.0-175.0,,0.0,500.31,0.0,0.75,1.0,0.7383382159999999,0.0,0.356098707,1.0,0.442533405,False,,5f3bd0e50bf2cb92bfc8a141,,2004171,173,,evan-feature22,full_pf_a,,1
147,12017,174,,,,2,2,0.0,0.0,1.0,0.0,,0.0-176.0,,0.0,1209.36,0.0,0.744527075,0.0,0.75,0.0,0.334127506,0.0,0.393165805,False,,5f3bd0e50bf2cb92bfc8a141,,2015140,174,,evan-feature22,full_pf_a,,1
148,12018,175,,,,2,2,0.0,0.0,1.0,0.0,,0.0-177.0,,0.0,2612.065,1.0,0.75,1.0,0.75,0.0,0.33571021799999995,0.0,0.350393962,False,,5f3bd0e50bf2cb92bfc8a141,,2027511,175,,evan-feature22,full_pf_a,,0
149,12019,176,,,,2,2,1.0,0.0,0.0,-1.0,,0.0-178.0,,0.0,1391.86,1.0,0.75,1.0,0.75,1.0,0.313628297,0.0,0.36349657399999996,False,,5f3bd0e50bf2cb92bfc8a141,,2038663,176,,evan-feature22,full_pf_a,,0
150,12020,177,,,,2,2,0.0,0.0,1.0,0.0,,0.0-179.0,,0.0,2439.635,1.0,0.75,1.0,0.734284182,0.0,0.262667667,0.0,0.380199119,False,,5f3bd0e50bf2cb92bfc8a141,,2050864,177,,evan-feature22,full_pf_a,,0
151,12021,178,,,,2,2,0.0,0.0,1.0,0.0,,0.0-180.0,,0.0,2795.94,0.0,0.75,0.0,0.75,0.0,0.25,0.0,0.394494013,False,,5f3bd0e50bf2cb92bfc8a141,,2063421,178,,evan-feature22,full_pf_a,,0
152,12022,179,,,,2,2,0.0,0.0,1.0,0.0,,0.0-181.0,,0.0,1528.48,1.0,0.722298145,1.0,0.7357822340000001,0.0,0.25,0.0,0.319142121,False,,5f3bd0e50bf2cb92bfc8a141,,2074710,179,,evan-feature22,full_pf_a,,0
153,12023,180,,,,2,2,1.0,0.0,1.0,0.0,,0.0-182.0,,1.0,576.55,1.0,0.73149275,1.0,0.724276446,1.0,0.305856907,0.0,0.281315057,False,,5f3bd0e50bf2cb92bfc8a141,,2085044,180,,evan-feature22,full_pf_a,,0
154,12024,181,,,,2,2,0.0,1.0,1.0,0.0,,0.0-183.0,,0.0,636.79,1.0,0.7458732690000001,1.0,0.7336382459999999,0.0,0.272571964,1.0,0.266021999,False,,5f3bd0e50bf2cb92bfc8a141,,2095440,181,,evan-feature22,full_pf_a,,0
155,12025,182,,,,1,1,1.0,0.0,0.0,-1.0,,0.0-184.0,,0.0,517.105,1.0,0.705579037,0.0,0.720778292,1.0,0.320238144,0.0,0.30971744,False,,5f3bd0e50bf2cb92bfc8a141,,2105718,182,,evan-feature22,full_pf_a,,1
156,12026,183,,,,2,2,0.0,0.0,0.0,-1.0,,0.0-185.0,,0.0,222.375,1.0,0.700425648,1.0,0.7198784009999999,0.0,0.272590393,0.0,0.304182931,False,,5f3bd0e50bf2cb92bfc8a141,,2115702,183,,evan-feature22,full_pf_a,,1
157,12027,184,,,,2,2,0.0,0.0,0.0,-1.0,,0.0-186.0,,0.0,1697.515,0.0,0.735590785,1.0,0.722714973,0.0,0.25,0.0,0.323421091,False,,5f3bd0e50bf2cb92bfc8a141,,2127160,184,,evan-feature22,full_pf_a,,0
158,12028,185,,,,2,2,1.0,0.0,0.0,-1.0,,0.0-187.0,,0.0,367.5950001,0.0,0.724807662,1.0,0.63146213,1.0,0.36836492600000004,0.0,0.34592153299999995,False,,5f3bd0e50bf2cb92bfc8a141,,2137289,185,,evan-feature22,full_pf_a,,0
159,12029,186,,,,2,2,0.0,0.0,1.0,0.0,,0.0-188.0,,0.0,481.77,0.0,0.7352796909999999,1.0,0.555111392,0.0,0.36003922,0.0,0.31433779999999995,False,,5f3bd0e50bf2cb92bfc8a141,,2147530,186,,evan-feature22,full_pf_a,,0
160,12030,187,notice,,,,,,,,,,0.0-189.0,"{""Q0"":""No""}",,9062.0,,,,,,,,,False,,5f3bd0e50bf2cb92bfc8a141,,2156593,187,Q,survey-text,full_pf_a,,1
161,12031,188,track1,,[1],,,,,,,,0.0-190.0,"{""Q0"":""no""}",,2745.0,,,,,,,,,False,,5f3bd0e50bf2cb92bfc8a141,,2159343,188,Q,evan-quiz,full_pf_a,,1
162,12032,189,track2,,[1],,,,,,,,0.0-191.0,"{""Q0"":""no""}",,8679.0,,,,,,,,,False,,5f3bd0e50bf2cb92bfc8a141,,2168023,189,Q,evan-quiz,full_pf_a,,1
163,12033,190,strat,,,,,,,,,,0.0-192.0,"{""Q0"":""Chose the door that showed the best pattern""}",,18694.0,,,,,,,,,False,,5f3bd0e50bf2cb92bfc8a141,,2186719,190,Q,survey-text,full_pf_a,,1
