,index,Unnamed: 0,Q_name,button_pressed,choice_idxs,chosen_pos,chosen_state,chosen_state_f_1_outcome,chosen_state_f_2_outcome,f_1_reward,f_2_reward,incor_questions,internal_node_id,responses,reward_received,rt,s_1_f_1_outcome,s_1_f_1_prob,s_1_f_2_outcome,s_1_f_2_prob,s_2_f_1_outcome,s_2_f_1_prob,s_2_f_2_outcome,s_2_f_2_prob,safe_first,stimulus,subjectID,success,time_elapsed,trial_index,trial_num,trial_type,version,view_history,switching
0,6089,25,,,,1,1,1.0,1.0,-1.0,0.0,,0.0-27.0,,-1.0,578.0,1.0,0.6,1.0,0.6,1.0,0.4,0.0,0.4,False,,5ee61c6204aef93753868325,,530049,25,,evan-feature22,full_pf_b,,0
1,6090,26,,,,2,2,1.0,0.0,-1.0,0.0,,0.0-28.0,,-1.0,700.0,1.0,0.608053294,1.0,0.63424552,1.0,0.397152172,0.0,0.347069101,False,,5ee61c6204aef93753868325,,540598,26,,evan-feature22,full_pf_b,,1
2,6091,27,,,,1,1,0.0,1.0,-1.0,0.0,,0.0-29.0,,0.0,616.0,0.0,0.642237155,1.0,0.648566321,0.0,0.389407674,1.0,0.285525717,False,,5ee61c6204aef93753868325,,551087,27,,evan-feature22,full_pf_b,,1
3,6092,28,,,,1,1,1.0,1.0,-1.0,0.0,,0.0-30.0,,-1.0,375.0,1.0,0.661086576,1.0,0.630492543,0.0,0.399058924,1.0,0.25,False,,5ee61c6204aef93753868325,,561328,28,,evan-feature22,full_pf_b,,0
4,6093,29,,,,2,2,1.0,0.0,0.0,1.0,,0.0-31.0,,0.0,477.0,1.0,0.631324137,1.0,0.6269842929999999,1.0,0.38734784299999997,0.0,0.25,False,,5ee61c6204aef93753868325,,571637,29,,evan-feature22,full_pf_b,,1
5,6094,30,,,,1,1,0.0,0.0,0.0,1.0,,0.0-32.0,,0.0,742.0,0.0,0.6381991370000001,0.0,0.68987999,1.0,0.384107265,1.0,0.271332943,False,,5ee61c6204aef93753868325,,582229,30,,evan-feature22,full_pf_b,,1
6,6095,31,,,,1,1,1.0,0.0,-1.0,0.0,,0.0-33.0,,-1.0,783.0,1.0,0.66034901,0.0,0.742641349,0.0,0.360225629,0.0,0.25,False,,5ee61c6204aef93753868325,,592859,31,,evan-feature22,full_pf_b,,0
7,6096,32,,,,2,2,1.0,0.0,-1.0,0.0,,0.0-34.0,,-1.0,300.0,0.0,0.638612418,1.0,0.75,1.0,0.367273939,0.0,0.25,False,,5ee61c6204aef93753868325,,603009,32,,evan-feature22,full_pf_b,,1
8,6097,33,,,,1,1,1.0,1.0,0.0,1.0,,0.0-35.0,,1.0,628.0,1.0,0.624340629,1.0,0.75,0.0,0.425829545,0.0,0.25,False,,5ee61c6204aef93753868325,,613478,33,,evan-feature22,full_pf_b,,1
9,6098,34,,,,1,1,1.0,1.0,0.0,1.0,,0.0-36.0,,1.0,661.0,1.0,0.621999804,1.0,0.75,1.0,0.368609357,0.0,0.25,False,,5ee61c6204aef93753868325,,624028,34,,evan-feature22,full_pf_b,,0
10,6099,35,,,,2,2,0.0,0.0,-1.0,0.0,,0.0-37.0,,0.0,877.0,1.0,0.62666403,1.0,0.75,0.0,0.311151498,0.0,0.25,False,,5ee61c6204aef93753868325,,634778,35,,evan-feature22,full_pf_b,,1
11,6100,36,,,,1,1,1.0,0.0,0.0,1.0,,0.0-38.0,,0.0,1033.0,1.0,0.6819650009999999,0.0,0.75,1.0,0.310763048,0.0,0.25,False,,5ee61c6204aef93753868325,,645678,36,,evan-feature22,full_pf_b,,1
12,6101,37,,,,2,2,1.0,0.0,-1.0,0.0,,0.0-39.0,,-1.0,893.0,1.0,0.740626951,1.0,0.75,1.0,0.25,0.0,0.25,False,,5ee61c6204aef93753868325,,656458,37,,evan-feature22,full_pf_b,,1
13,6102,38,,,,2,2,0.0,0.0,-1.0,0.0,,0.0-40.0,,0.0,803.0,1.0,0.739599242,1.0,0.742034978,0.0,0.25397114600000004,0.0,0.25,False,,5ee61c6204aef93753868325,,667097,38,,evan-feature22,full_pf_b,,0
14,6103,39,,,,2,2,0.0,0.0,-1.0,0.0,,0.0-41.0,,0.0,978.0,1.0,0.732341315,1.0,0.72735643,0.0,0.25,0.0,0.25,False,,5ee61c6204aef93753868325,,677958,39,,evan-feature22,full_pf_b,,0
15,6104,40,,,,2,2,1.0,1.0,-1.0,0.0,,0.0-42.0,,-1.0,830.0,1.0,0.7062287770000001,0.0,0.75,1.0,0.29002151,1.0,0.288256649,False,,5ee61c6204aef93753868325,,688637,40,,evan-feature22,full_pf_b,,0
16,6105,41,,,,2,2,1.0,0.0,-1.0,0.0,,0.0-43.0,,-1.0,863.0,1.0,0.7086029209999999,0.0,0.75,1.0,0.274129113,0.0,0.262851608,False,,5ee61c6204aef93753868325,,699358,41,,evan-feature22,full_pf_b,,0
17,6106,42,,,,2,2,0.0,1.0,-1.0,0.0,,0.0-44.0,,0.0,735.0,1.0,0.669189651,1.0,0.727614338,0.0,0.298444036,1.0,0.296944518,False,,5ee61c6204aef93753868325,,709968,42,,evan-feature22,full_pf_b,,0
18,6107,43,,,,2,2,0.0,0.0,-1.0,0.0,,0.0-45.0,,0.0,775.0,1.0,0.6819912929999999,1.0,0.7179434290000001,0.0,0.265003961,0.0,0.28157921199999997,False,,5ee61c6204aef93753868325,,720597,43,,evan-feature22,full_pf_b,,0
19,6108,44,,,,1,1,1.0,1.0,0.0,1.0,,0.0-46.0,,1.0,592.0,1.0,0.665275002,1.0,0.723065271,0.0,0.260414971,1.0,0.30973870000000003,False,,5ee61c6204aef93753868325,,731078,44,,evan-feature22,full_pf_b,,1
20,6109,45,,,,2,2,0.0,1.0,-1.0,0.0,,0.0-47.0,,0.0,923.0,1.0,0.6660593260000001,0.0,0.728032907,0.0,0.30922817,1.0,0.338778608,False,,5ee61c6204aef93753868325,,741867,45,,evan-feature22,full_pf_b,,1
21,6110,46,,,,2,2,0.0,0.0,-1.0,0.0,,0.0-48.0,,0.0,861.0,1.0,0.702068785,1.0,0.6528750879999999,0.0,0.287329608,0.0,0.35789613200000003,False,,5ee61c6204aef93753868325,,752587,46,,evan-feature22,full_pf_b,,0
22,6111,47,,,,2,2,1.0,0.0,-1.0,0.0,,0.0-49.0,,-1.0,806.0,1.0,0.651939787,1.0,0.636725589,1.0,0.284834488,0.0,0.358563756,False,,5ee61c6204aef93753868325,,763238,47,,evan-feature22,full_pf_b,,0
23,6112,48,,,,1,1,0.0,1.0,0.0,1.0,,0.0-50.0,,1.0,674.0,0.0,0.67573929,1.0,0.612550049,0.0,0.37130387600000003,1.0,0.383542402,False,,5ee61c6204aef93753868325,,773768,48,,evan-feature22,full_pf_b,,1
24,6113,49,,,,1,1,1.0,0.0,0.0,1.0,,0.0-51.0,,0.0,591.0,1.0,0.620753801,0.0,0.60513644,1.0,0.385529434,0.0,0.340361743,False,,5ee61c6204aef93753868325,,784237,49,,evan-feature22,full_pf_b,,0
25,6114,50,,,,1,1,1.0,1.0,0.0,1.0,,0.0-52.0,,1.0,559.0,1.0,0.673564893,1.0,0.672437924,0.0,0.292955382,1.0,0.337633795,False,,5ee61c6204aef93753868325,,794617,50,,evan-feature22,full_pf_b,,0
26,6115,51,,,,2,2,1.0,1.0,-1.0,0.0,,0.0-53.0,,-1.0,663.0,1.0,0.6749427,1.0,0.724197502,1.0,0.32391132100000003,1.0,0.350995264,False,,5ee61c6204aef93753868325,,805128,51,,evan-feature22,full_pf_b,,1
27,6116,52,,,,2,2,1.0,1.0,-1.0,0.0,,0.0-54.0,,-1.0,795.0,0.0,0.6940159379999999,1.0,0.75,1.0,0.31710554399999996,1.0,0.413450341,False,,5ee61c6204aef93753868325,,815778,52,,evan-feature22,full_pf_b,,0
28,6117,53,,,,2,2,0.0,0.0,-1.0,0.0,,0.0-55.0,,0.0,681.0,1.0,0.6916018270000001,1.0,0.69001187,0.0,0.261817804,0.0,0.40038635,False,,5ee61c6204aef93753868325,,826329,53,,evan-feature22,full_pf_b,,0
29,6118,54,,,,2,2,1.0,0.0,-1.0,0.0,,0.0-56.0,,-1.0,851.0,1.0,0.641061544,1.0,0.71337992,1.0,0.277296461,0.0,0.47372791700000005,False,,5ee61c6204aef93753868325,,837038,54,,evan-feature22,full_pf_b,,0
30,6119,55,,,,2,2,0.0,0.0,-1.0,0.0,,0.0-57.0,,0.0,870.0,1.0,0.6082438520000001,0.0,0.708471106,0.0,0.28745137,0.0,0.564174476,False,,5ee61c6204aef93753868325,,847747,55,,evan-feature22,full_pf_b,,0
31,6120,56,,,,2,2,1.0,0.0,-1.0,0.0,,0.0-58.0,,-1.0,902.0,1.0,0.6051112120000001,1.0,0.7118147229999999,1.0,0.272390611,0.0,0.5595149939999999,False,,5ee61c6204aef93753868325,,858498,56,,evan-feature22,full_pf_b,,0
32,6121,57,,,,2,2,0.0,1.0,-1.0,0.0,,0.0-59.0,,0.0,988.0,0.0,0.582420852,1.0,0.635867583,0.0,0.31089574,1.0,0.5227206520000001,False,,5ee61c6204aef93753868325,,869378,57,,evan-feature22,full_pf_b,,0
33,6122,58,,,,1,1,1.0,0.0,0.0,1.0,,0.0-60.0,,0.0,739.0,1.0,0.623195575,0.0,0.655026044,1.0,0.25,0.0,0.560387538,False,,5ee61c6204aef93753868325,,879997,58,,evan-feature22,full_pf_b,,1
34,6123,59,,,,2,2,0.0,1.0,-1.0,0.0,,0.0-61.0,,0.0,610.0,0.0,0.601889598,0.0,0.678198724,0.0,0.25,1.0,0.559922936,False,,5ee61c6204aef93753868325,,890498,59,,evan-feature22,full_pf_b,,1
35,6124,60,,,,2,2,0.0,0.0,-1.0,0.0,,0.0-62.0,,0.0,879.0,0.0,0.601259914,1.0,0.704681482,0.0,0.33908969299999997,0.0,0.505003715,False,,5ee61c6204aef93753868325,,901248,60,,evan-feature22,full_pf_b,,0
36,6125,61,,,,2,2,1.0,0.0,-1.0,0.0,,0.0-63.0,,-1.0,738.0,0.0,0.59645454,1.0,0.710437172,1.0,0.327441879,0.0,0.391749613,False,,5ee61c6204aef93753868325,,911878,61,,evan-feature22,full_pf_b,,0
37,6126,62,,,,2,2,1.0,1.0,-1.0,0.0,,0.0-64.0,,-1.0,566.0,1.0,0.529473,1.0,0.636758527,1.0,0.301338063,1.0,0.365661481,False,,5ee61c6204aef93753868325,,922307,62,,evan-feature22,full_pf_b,,0
38,6127,63,,,,1,1,1.0,1.0,0.0,1.0,,0.0-65.0,,1.0,726.0,1.0,0.541657162,1.0,0.634541962,0.0,0.343535366,0.0,0.371763742,False,,5ee61c6204aef93753868325,,932868,63,,evan-feature22,full_pf_b,,1
39,6128,64,,,,2,2,1.0,0.0,-1.0,0.0,,0.0-66.0,,-1.0,720.0,1.0,0.5707533260000001,1.0,0.589121171,1.0,0.326428396,0.0,0.43961622899999997,False,,5ee61c6204aef93753868325,,943439,64,,evan-feature22,full_pf_b,,1
40,6129,65,,,,2,2,0.0,0.0,-1.0,0.0,,0.0-67.0,,0.0,1368.0,0.0,0.5707533260000001,1.0,0.589121171,0.0,0.326428396,0.0,0.43961622899999997,False,,5ee61c6204aef93753868325,,954627,65,,evan-feature22,full_pf_b,,0
41,6130,66,,,,2,2,1.0,0.0,-1.0,0.0,,0.0-68.0,,-1.0,562.0,0.0,0.506271295,1.0,0.641775594,1.0,0.37149690700000004,0.0,0.404330166,False,,5ee61c6204aef93753868325,,965048,66,,evan-feature22,full_pf_b,,0
42,6131,67,,,,1,1,1.0,1.0,0.0,1.0,,0.0-69.0,,1.0,611.0,1.0,0.455642565,1.0,0.623605825,0.0,0.358753011,0.0,0.346174041,False,,5ee61c6204aef93753868325,,975508,67,,evan-feature22,full_pf_b,,1
43,6132,68,,,,1,1,0.0,1.0,0.0,1.0,,0.0-70.0,,1.0,889.0,0.0,0.483677308,1.0,0.5904681070000001,0.0,0.402218411,1.0,0.35344697,False,,5ee61c6204aef93753868325,,986278,68,,evan-feature22,full_pf_b,,0
44,6133,69,,,,1,1,1.0,1.0,0.0,1.0,,0.0-71.0,,1.0,571.0,1.0,0.394210977,1.0,0.558925494,0.0,0.540052017,1.0,0.35182128700000004,False,,5ee61c6204aef93753868325,,996728,69,,evan-feature22,full_pf_b,,0
45,6134,70,,,,2,2,0.0,1.0,-1.0,0.0,,0.0-72.0,,0.0,569.0,0.0,0.382300414,0.0,0.577670603,0.0,0.607608448,1.0,0.378261578,False,,5ee61c6204aef93753868325,,1007127,70,,evan-feature22,full_pf_b,,1
46,6135,71,,,,2,2,1.0,1.0,-1.0,0.0,,0.0-73.0,,-1.0,747.0,1.0,0.357596762,1.0,0.5929076529999999,1.0,0.6579790010000001,1.0,0.401326777,False,,5ee61c6204aef93753868325,,1017737,71,,evan-feature22,full_pf_b,,0
47,6136,72,,,,2,2,0.0,1.0,-1.0,0.0,,0.0-74.0,,0.0,541.0,1.0,0.362033495,1.0,0.582308608,0.0,0.649195052,1.0,0.355158505,False,,5ee61c6204aef93753868325,,1028117,72,,evan-feature22,full_pf_b,,0
48,6137,73,,,,2,2,1.0,1.0,-1.0,0.0,,0.0-75.0,,-1.0,809.0,0.0,0.369620635,1.0,0.669100864,1.0,0.706059111,1.0,0.362516241,False,,5ee61c6204aef93753868325,,1038797,73,,evan-feature22,full_pf_b,,0
49,6138,74,,,,2,2,0.0,0.0,-1.0,0.0,,0.0-76.0,,0.0,781.0,1.0,0.41477751399999996,1.0,0.7284416779999999,0.0,0.7182656940000001,0.0,0.36228040899999997,False,,5ee61c6204aef93753868325,,1049457,74,,evan-feature22,full_pf_b,,0
50,6139,75,,,,1,1,0.0,1.0,0.0,1.0,,0.0-77.0,,1.0,897.0,0.0,0.37675460299999997,1.0,0.703250285,1.0,0.75,1.0,0.461979164,False,,5ee61c6204aef93753868325,,1060227,75,,evan-feature22,full_pf_b,,1
51,6140,76,,,,1,1,0.0,1.0,0.0,1.0,,0.0-78.0,,1.0,555.0,0.0,0.398716075,1.0,0.6723864890000001,1.0,0.674153818,0.0,0.519029516,False,,5ee61c6204aef93753868325,,1070667,76,,evan-feature22,full_pf_b,,0
52,6141,77,,,,2,2,1.0,1.0,-1.0,0.0,,0.0-79.0,,-1.0,664.0,0.0,0.34677856700000004,1.0,0.69057175,1.0,0.6822438540000001,1.0,0.477292237,False,,5ee61c6204aef93753868325,,1081188,77,,evan-feature22,full_pf_b,,1
53,6142,78,,,,1,1,0.0,1.0,0.0,1.0,,0.0-80.0,,1.0,668.0,0.0,0.28580469199999997,1.0,0.68408818,0.0,0.684207565,1.0,0.49780448299999996,False,,5ee61c6204aef93753868325,,1091737,78,,evan-feature22,full_pf_b,,1
54,6144,80,,,,1,1,0.0,0.0,-1.0,0.0,,0.0-82.0,,0.0,1660.0,0.0,0.25,0.0,0.7405808970000001,1.0,0.679614108,1.0,0.436436964,False,,5ee61c6204aef93753868325,,1105458,80,,evan-feature22,full_pf_b,,0
55,6145,81,,,,1,1,0.0,1.0,0.0,1.0,,0.0-83.0,,1.0,927.0,0.0,0.29890393,1.0,0.730505706,0.0,0.7328203320000001,0.0,0.439256938,False,,5ee61c6204aef93753868325,,1116256,81,,evan-feature22,full_pf_b,,0
56,6146,82,,,,2,2,1.0,0.0,-1.0,0.0,,0.0-84.0,,-1.0,761.0,0.0,0.326762398,1.0,0.7148059609999999,1.0,0.75,0.0,0.44389608799999997,False,,5ee61c6204aef93753868325,,1126868,82,,evan-feature22,full_pf_b,,1
57,6147,83,,,,1,1,1.0,0.0,-1.0,0.0,,0.0-85.0,,-1.0,736.0,1.0,0.295168515,0.0,0.739760854,0.0,0.719947008,0.0,0.35277284600000003,False,,5ee61c6204aef93753868325,,1137458,83,,evan-feature22,full_pf_b,,1
58,6148,84,,,,2,2,1.0,0.0,-1.0,0.0,,0.0-86.0,,-1.0,609.0,0.0,0.25,0.0,0.70781482,1.0,0.75,0.0,0.286095925,False,,5ee61c6204aef93753868325,,1147937,84,,evan-feature22,full_pf_b,,1
59,6149,85,,,,1,1,0.0,1.0,0.0,1.0,,0.0-87.0,,1.0,853.0,0.0,0.25638190899999996,1.0,0.704088163,1.0,0.75,1.0,0.26872601399999996,False,,5ee61c6204aef93753868325,,1158667,85,,evan-feature22,full_pf_b,,1
60,6150,86,,,,1,1,0.0,1.0,0.0,1.0,,0.0-88.0,,1.0,686.0,0.0,0.271581126,1.0,0.669760107,1.0,0.733896663,0.0,0.273244572,False,,5ee61c6204aef93753868325,,1169227,86,,evan-feature22,full_pf_b,,0
61,6151,87,,,,1,1,0.0,1.0,0.0,1.0,,0.0-89.0,,1.0,551.0,0.0,0.257144401,1.0,0.600575706,1.0,0.74488122,0.0,0.25,False,,5ee61c6204aef93753868325,,1179627,87,,evan-feature22,full_pf_b,,0
62,6152,88,,,,1,1,0.0,0.0,-1.0,0.0,,0.0-90.0,,0.0,542.0,0.0,0.25,0.0,0.616870026,0.0,0.723610234,0.0,0.25,False,,5ee61c6204aef93753868325,,1190007,88,,evan-feature22,full_pf_b,,0
63,6153,89,,,,1,1,0.0,0.0,0.0,1.0,,0.0-91.0,,0.0,576.0,0.0,0.25,0.0,0.583540187,1.0,0.7041042559999999,0.0,0.285961995,False,,5ee61c6204aef93753868325,,1200446,89,,evan-feature22,full_pf_b,,0
64,6154,90,,,,1,1,0.0,0.0,-1.0,0.0,,0.0-92.0,,0.0,720.0,0.0,0.27254536,0.0,0.53875765,1.0,0.693783448,0.0,0.284961652,False,,5ee61c6204aef93753868325,,1211027,90,,evan-feature22,full_pf_b,,0
65,6155,91,,,,1,1,1.0,0.0,0.0,1.0,,0.0-93.0,,0.0,779.0,1.0,0.25,0.0,0.548431252,1.0,0.734221895,0.0,0.279445214,False,,5ee61c6204aef93753868325,,1221677,91,,evan-feature22,full_pf_b,,0
66,6156,92,,,,1,1,0.0,1.0,-1.0,0.0,,0.0-94.0,,0.0,605.0,0.0,0.258640684,1.0,0.545878066,1.0,0.725245965,0.0,0.31487537,False,,5ee61c6204aef93753868325,,1232137,92,,evan-feature22,full_pf_b,,0
67,6157,93,,,,1,1,0.0,1.0,-1.0,0.0,,0.0-95.0,,0.0,675.0,0.0,0.251103711,1.0,0.5776290629999999,1.0,0.696320133,0.0,0.317831047,False,,5ee61c6204aef93753868325,,1242678,93,,evan-feature22,full_pf_b,,0
68,6158,94,,,,1,1,0.0,0.0,-1.0,0.0,,0.0-96.0,,0.0,498.0,0.0,0.276630292,0.0,0.617329858,1.0,0.73838088,1.0,0.261471582,False,,5ee61c6204aef93753868325,,1253017,94,,evan-feature22,full_pf_b,,0
69,6159,95,,,,1,1,1.0,0.0,0.0,1.0,,0.0-97.0,,0.0,608.0,1.0,0.297716424,0.0,0.618863717,1.0,0.7402358259999999,0.0,0.262600834,False,,5ee61c6204aef93753868325,,1263507,95,,evan-feature22,full_pf_b,,0
70,6160,96,,,,1,1,0.0,0.0,-1.0,0.0,,0.0-98.0,,0.0,487.0,0.0,0.290935512,0.0,0.695370945,1.0,0.706570507,0.0,0.280030553,False,,5ee61c6204aef93753868325,,1273868,96,,evan-feature22,full_pf_b,,0
71,6161,97,,,,1,1,0.0,1.0,-1.0,0.0,,0.0-99.0,,0.0,476.0,0.0,0.25,1.0,0.6465277079999999,1.0,0.67766682,0.0,0.25,False,,5ee61c6204aef93753868325,,1284228,97,,evan-feature22,full_pf_b,,0
72,6162,98,,,,1,1,0.0,1.0,-1.0,0.0,,0.0-100.0,,0.0,1096.0,0.0,0.26463816,1.0,0.636100213,0.0,0.646048507,0.0,0.265607101,False,,5ee61c6204aef93753868325,,1295178,98,,evan-feature22,full_pf_b,,0
73,6163,99,,,,1,1,0.0,0.0,-1.0,0.0,,0.0-101.0,,0.0,338.0,0.0,0.314340707,0.0,0.667795927,0.0,0.613630805,1.0,0.25,False,,5ee61c6204aef93753868325,,1305408,99,,evan-feature22,full_pf_b,,0
74,6164,100,,,,1,1,0.0,0.0,-1.0,0.0,,0.0-102.0,,0.0,623.0,0.0,0.28685784,0.0,0.6622549529999999,1.0,0.652154117,0.0,0.25,False,,5ee61c6204aef93753868325,,1315887,100,,evan-feature22,full_pf_b,,0
75,6165,101,,,,1,1,0.0,0.0,0.0,1.0,,0.0-103.0,,0.0,607.0,0.0,0.304106554,0.0,0.631289538,1.0,0.707041942,1.0,0.29314237,False,,5ee61c6204aef93753868325,,1326358,101,,evan-feature22,full_pf_b,,0
76,6166,102,,,,1,1,1.0,0.0,0.0,1.0,,0.0-104.0,,0.0,488.0,1.0,0.304806932,0.0,0.571167718,1.0,0.680472346,0.0,0.25,False,,5ee61c6204aef93753868325,,1336687,102,,evan-feature22,full_pf_b,,0
77,6167,103,,,,1,1,1.0,0.0,0.0,1.0,,0.0-105.0,,0.0,1187.0,1.0,0.37919861,0.0,0.5724849710000001,1.0,0.705638003,0.0,0.30179300600000003,False,,5ee61c6204aef93753868325,,1347737,103,,evan-feature22,full_pf_b,,0
78,6168,104,,,,1,1,0.0,1.0,0.0,1.0,,0.0-106.0,,1.0,732.0,0.0,0.464277969,1.0,0.554034373,0.0,0.7372627340000001,0.0,0.264699741,False,,5ee61c6204aef93753868325,,1358369,104,,evan-feature22,full_pf_b,,0
79,6169,105,,,,1,1,0.0,1.0,-1.0,0.0,,0.0-107.0,,0.0,568.0,0.0,0.465104323,1.0,0.530793115,1.0,0.75,0.0,0.31683071,False,,5ee61c6204aef93753868325,,1368787,105,,evan-feature22,full_pf_b,,0
80,6170,106,,,,1,1,1.0,0.0,0.0,1.0,,0.0-108.0,,0.0,420.0,1.0,0.465104323,0.0,0.530793115,1.0,0.75,1.0,0.31683071,False,,5ee61c6204aef93753868325,,1379087,106,,evan-feature22,full_pf_b,,0
81,6171,107,,,,1,1,0.0,1.0,0.0,1.0,,0.0-109.0,,1.0,951.0,0.0,0.46833986,1.0,0.570249239,1.0,0.7244472590000001,1.0,0.364114163,False,,5ee61c6204aef93753868325,,1389897,107,,evan-feature22,full_pf_b,,0
82,6172,108,,,,1,1,1.0,1.0,0.0,1.0,,0.0-110.0,,1.0,854.0,1.0,0.445444024,1.0,0.649673355,1.0,0.6845441290000001,0.0,0.300660449,False,,5ee61c6204aef93753868325,,1400596,108,,evan-feature22,full_pf_b,,0
83,6173,109,,,,1,1,0.0,1.0,0.0,1.0,,0.0-111.0,,1.0,451.0,0.0,0.39909721299999995,1.0,0.6715179509999999,0.0,0.742310028,1.0,0.35496088299999995,False,,5ee61c6204aef93753868325,,1410907,109,,evan-feature22,full_pf_b,,0
84,6174,110,,,,1,1,0.0,1.0,0.0,1.0,,0.0-112.0,,1.0,407.0,0.0,0.37956104799999996,1.0,0.694725302,1.0,0.7181651309999999,0.0,0.38726906299999997,False,,5ee61c6204aef93753868325,,1421197,110,,evan-feature22,full_pf_b,,0
85,6175,111,,,,1,1,0.0,1.0,0.0,1.0,,0.0-113.0,,1.0,485.0,0.0,0.404995034,1.0,0.724375412,1.0,0.6910946859999999,1.0,0.387187347,False,,5ee61c6204aef93753868325,,1431567,111,,evan-feature22,full_pf_b,,0
86,6176,112,,,,1,1,0.0,1.0,0.0,1.0,,0.0-114.0,,1.0,334.0,0.0,0.461740803,1.0,0.75,1.0,0.75,0.0,0.34872038200000005,False,,5ee61c6204aef93753868325,,1441777,112,,evan-feature22,full_pf_b,,0
87,6177,113,,,,1,1,0.0,1.0,-1.0,0.0,,0.0-115.0,,0.0,641.0,0.0,0.43821380600000004,1.0,0.738833273,1.0,0.728286963,0.0,0.399538128,False,,5ee61c6204aef93753868325,,1452287,113,,evan-feature22,full_pf_b,,0
88,6178,114,,,,1,1,0.0,1.0,0.0,1.0,,0.0-116.0,,1.0,351.0,0.0,0.41709882,1.0,0.736666736,1.0,0.75,0.0,0.389095584,False,,5ee61c6204aef93753868325,,1462496,114,,evan-feature22,full_pf_b,,0
89,6179,115,,,,1,1,1.0,1.0,0.0,1.0,,0.0-117.0,,1.0,411.0,1.0,0.39749009799999996,1.0,0.744320029,1.0,0.75,0.0,0.363848678,False,,5ee61c6204aef93753868325,,1472797,115,,evan-feature22,full_pf_b,,0
90,6180,116,,,,1,1,1.0,1.0,-1.0,0.0,,0.0-118.0,,-1.0,676.0,1.0,0.392653706,1.0,0.75,0.0,0.75,0.0,0.384386976,False,,5ee61c6204aef93753868325,,1483348,116,,evan-feature22,full_pf_b,,0
91,6181,117,,,,2,2,1.0,0.0,-1.0,0.0,,0.0-119.0,,-1.0,128.0,1.0,0.31190902600000003,1.0,0.75,1.0,0.732413819,0.0,0.413082932,False,,5ee61c6204aef93753868325,,1493357,117,,evan-feature22,full_pf_b,,1
92,6182,118,,,,1,1,0.0,1.0,0.0,1.0,,0.0-120.0,,1.0,418.0,0.0,0.366917648,1.0,0.740073855,1.0,0.75,0.0,0.352861979,False,,5ee61c6204aef93753868325,,1503626,118,,evan-feature22,full_pf_b,,1
93,6183,119,,,,1,1,0.0,1.0,0.0,1.0,,0.0-121.0,,1.0,386.0,0.0,0.3645172,1.0,0.721770713,0.0,0.75,1.0,0.404074511,False,,5ee61c6204aef93753868325,,1513857,119,,evan-feature22,full_pf_b,,0
94,6184,120,,,,1,1,0.0,1.0,0.0,1.0,,0.0-122.0,,1.0,491.0,0.0,0.35205600299999995,1.0,0.68983859,1.0,0.739735447,0.0,0.366895945,False,,5ee61c6204aef93753868325,,1524237,120,,evan-feature22,full_pf_b,,0
95,6185,121,,,,1,1,0.0,1.0,0.0,1.0,,0.0-123.0,,1.0,401.0,0.0,0.40998722600000004,1.0,0.720859127,1.0,0.673854955,0.0,0.368528541,False,,5ee61c6204aef93753868325,,1534487,121,,evan-feature22,full_pf_b,,0
96,6186,122,,,,1,1,0.0,1.0,-1.0,0.0,,0.0-124.0,,0.0,512.0,0.0,0.353625316,1.0,0.75,1.0,0.695605473,1.0,0.38303674200000004,False,,5ee61c6204aef93753868325,,1544887,122,,evan-feature22,full_pf_b,,0
97,6187,123,,,,1,1,0.0,1.0,0.0,1.0,,0.0-125.0,,1.0,517.0,0.0,0.359216989,1.0,0.75,1.0,0.6987915090000001,0.0,0.35169046200000004,False,,5ee61c6204aef93753868325,,1555247,123,,evan-feature22,full_pf_b,,0
98,6188,124,,,,1,1,1.0,1.0,-1.0,0.0,,0.0-126.0,,-1.0,335.0,1.0,0.35834496899999996,1.0,0.75,1.0,0.707067742,0.0,0.416763636,False,,5ee61c6204aef93753868325,,1565437,124,,evan-feature22,full_pf_b,,0
99,6189,125,,,,1,1,0.0,1.0,-1.0,0.0,,0.0-127.0,,0.0,356.0,0.0,0.38741613799999997,1.0,0.7177369570000001,1.0,0.734902455,0.0,0.49438664299999996,False,,5ee61c6204aef93753868325,,1575637,125,,evan-feature22,full_pf_b,,0
100,6190,126,,,,1,1,0.0,1.0,0.0,1.0,,0.0-128.0,,1.0,437.0,0.0,0.405255252,1.0,0.7300466640000001,1.0,0.7027748070000001,1.0,0.504359668,False,,5ee61c6204aef93753868325,,1585937,126,,evan-feature22,full_pf_b,,0
101,6191,127,,,,1,1,0.0,1.0,0.0,1.0,,0.0-129.0,,1.0,810.0,0.0,0.40697073,1.0,0.7260142190000001,1.0,0.724461982,1.0,0.522779179,False,,5ee61c6204aef93753868325,,1596616,127,,evan-feature22,full_pf_b,,0
102,6192,128,,,,1,1,1.0,1.0,0.0,1.0,,0.0-130.0,,1.0,728.0,1.0,0.43906215299999996,1.0,0.7252802340000001,0.0,0.719079934,1.0,0.5712990579999999,False,,5ee61c6204aef93753868325,,1607227,128,,evan-feature22,full_pf_b,,0
103,6193,129,,,,1,1,0.0,0.0,0.0,1.0,,0.0-131.0,,0.0,619.0,0.0,0.4076705,0.0,0.73280499,1.0,0.681313127,1.0,0.523891346,False,,5ee61c6204aef93753868325,,1617696,129,,evan-feature22,full_pf_b,,0
104,6194,130,,,,1,1,0.0,0.0,0.0,1.0,,0.0-132.0,,0.0,296.0,0.0,0.399102911,0.0,0.730498344,0.0,0.661080239,1.0,0.46742603,False,,5ee61c6204aef93753868325,,1627876,130,,evan-feature22,full_pf_b,,0
105,6195,131,,,,1,1,1.0,1.0,-1.0,0.0,,0.0-133.0,,-1.0,494.0,1.0,0.356477282,1.0,0.712296395,0.0,0.641812684,1.0,0.44868414,False,,5ee61c6204aef93753868325,,1638216,131,,evan-feature22,full_pf_b,,0
106,6196,132,,,,1,1,1.0,0.0,0.0,1.0,,0.0-134.0,,0.0,348.0,1.0,0.462760722,0.0,0.692349322,1.0,0.700947931,0.0,0.394680266,False,,5ee61c6204aef93753868325,,1648416,132,,evan-feature22,full_pf_b,,0
107,6197,133,,,,1,1,1.0,0.0,0.0,1.0,,0.0-135.0,,0.0,1603.0,1.0,0.422306413,0.0,0.718375916,1.0,0.706340917,1.0,0.367787185,False,,5ee61c6204aef93753868325,,1659855,133,,evan-feature22,full_pf_b,,0
108,6199,135,,,,1,1,0.0,0.0,0.0,1.0,,0.0-137.0,,0.0,879.0,0.0,0.4582233,0.0,0.643834117,1.0,0.75,0.0,0.39615823299999997,False,,5ee61c6204aef93753868325,,1673835,135,,evan-feature22,full_pf_b,,0
109,6200,136,,,,2,2,1.0,0.0,0.0,1.0,,0.0-138.0,,0.0,770.0,1.0,0.43813437899999996,0.0,0.651283804,1.0,0.729674191,0.0,0.37711048,False,,5ee61c6204aef93753868325,,1684486,136,,evan-feature22,full_pf_b,,1
110,6201,137,,,,2,2,0.0,0.0,0.0,1.0,,0.0-139.0,,0.0,683.0,1.0,0.471199094,1.0,0.6470010979999999,0.0,0.715008097,0.0,0.410656191,False,,5ee61c6204aef93753868325,,1694998,137,,evan-feature22,full_pf_b,,0
111,6202,138,,,,2,2,0.0,0.0,-1.0,0.0,,0.0-140.0,,0.0,980.0,1.0,0.42486406,0.0,0.629771829,0.0,0.6550939960000001,0.0,0.459093873,False,,5ee61c6204aef93753868325,,1705835,138,,evan-feature22,full_pf_b,,0
112,6203,139,,,,2,2,0.0,0.0,-1.0,0.0,,0.0-141.0,,0.0,781.0,1.0,0.4803197,1.0,0.645842715,0.0,0.6421749920000001,0.0,0.443092151,False,,5ee61c6204aef93753868325,,1716456,139,,evan-feature22,full_pf_b,,0
113,6204,140,,,,2,2,1.0,0.0,-1.0,0.0,,0.0-142.0,,-1.0,469.0,0.0,0.521848997,1.0,0.735801074,1.0,0.6691348460000001,0.0,0.45259351600000003,False,,5ee61c6204aef93753868325,,1726797,140,,evan-feature22,full_pf_b,,0
114,6205,141,,,,2,2,0.0,1.0,0.0,1.0,,0.0-143.0,,1.0,329.0,1.0,0.49565621299999996,1.0,0.742400847,0.0,0.661512553,1.0,0.483110831,False,,5ee61c6204aef93753868325,,1737016,141,,evan-feature22,full_pf_b,,0
115,6206,142,,,,2,2,0.0,1.0,-1.0,0.0,,0.0-144.0,,0.0,1077.0,0.0,0.521564361,1.0,0.731078632,0.0,0.6774886809999999,1.0,0.483263956,False,,5ee61c6204aef93753868325,,1747967,142,,evan-feature22,full_pf_b,,0
116,6207,143,,,,2,2,0.0,1.0,-1.0,0.0,,0.0-145.0,,0.0,624.0,0.0,0.558893102,1.0,0.719810023,0.0,0.67461031,1.0,0.499349834,False,,5ee61c6204aef93753868325,,1758477,143,,evan-feature22,full_pf_b,,0
117,6208,144,,,,1,1,1.0,1.0,0.0,1.0,,0.0-146.0,,1.0,877.0,1.0,0.611031046,1.0,0.75,1.0,0.688072995,1.0,0.5321422729999999,False,,5ee61c6204aef93753868325,,1769216,144,,evan-feature22,full_pf_b,,1
118,6209,145,,,,2,2,1.0,0.0,-1.0,0.0,,0.0-147.0,,-1.0,632.0,0.0,0.633223941,1.0,0.713567728,1.0,0.75,0.0,0.48185314700000004,False,,5ee61c6204aef93753868325,,1779717,145,,evan-feature22,full_pf_b,,1
119,6210,146,,,,2,2,0.0,1.0,-1.0,0.0,,0.0-148.0,,0.0,818.0,1.0,0.664001694,1.0,0.705509768,0.0,0.75,1.0,0.500211065,False,,5ee61c6204aef93753868325,,1790386,146,,evan-feature22,full_pf_b,,0
120,6211,147,,,,1,1,1.0,1.0,0.0,1.0,,0.0-149.0,,1.0,710.0,1.0,0.664001694,1.0,0.705509768,1.0,0.75,1.0,0.500211065,False,,5ee61c6204aef93753868325,,1800956,147,,evan-feature22,full_pf_b,,1
121,6212,148,,,,1,1,1.0,1.0,0.0,1.0,,0.0-150.0,,1.0,1321.0,1.0,0.696508041,1.0,0.71066027,1.0,0.717028709,0.0,0.49792991,False,,5ee61c6204aef93753868325,,1812146,148,,evan-feature22,full_pf_b,,0
122,6213,149,,,,2,2,1.0,0.0,-1.0,0.0,,0.0-151.0,,-1.0,1100.0,0.0,0.699883272,0.0,0.75,1.0,0.713543895,0.0,0.496962643,False,,5ee61c6204aef93753868325,,1823095,149,,evan-feature22,full_pf_b,,1
123,6214,150,,,,1,1,1.0,0.0,0.0,1.0,,0.0-152.0,,0.0,737.0,1.0,0.741163419,0.0,0.75,0.0,0.64691024,1.0,0.513858197,False,,5ee61c6204aef93753868325,,1833665,150,,evan-feature22,full_pf_b,,1
124,6215,151,,,,2,2,1.0,1.0,-1.0,0.0,,0.0-153.0,,-1.0,851.0,0.0,0.75,0.0,0.70816558,1.0,0.594499079,1.0,0.48502124,False,,5ee61c6204aef93753868325,,1844347,151,,evan-feature22,full_pf_b,,1
125,6216,152,,,,1,1,1.0,1.0,0.0,1.0,,0.0-154.0,,1.0,1429.0,1.0,0.75,1.0,0.721848901,1.0,0.62197249,1.0,0.48263586399999997,False,,5ee61c6204aef93753868325,,1855637,152,,evan-feature22,full_pf_b,,1
126,6217,153,,,,2,2,0.0,0.0,-1.0,0.0,,0.0-155.0,,0.0,941.0,1.0,0.75,1.0,0.74813071,0.0,0.584357161,0.0,0.411477782,False,,5ee61c6204aef93753868325,,1866436,153,,evan-feature22,full_pf_b,,1
127,6218,154,,,,1,1,1.0,0.0,0.0,1.0,,0.0-156.0,,0.0,772.0,1.0,0.75,0.0,0.75,1.0,0.52287236,1.0,0.488290656,False,,5ee61c6204aef93753868325,,1877076,154,,evan-feature22,full_pf_b,,1
128,6219,155,,,,1,1,0.0,1.0,0.0,1.0,,0.0-157.0,,1.0,663.0,0.0,0.75,1.0,0.75,0.0,0.544321581,0.0,0.53143059,False,,5ee61c6204aef93753868325,,1887616,155,,evan-feature22,full_pf_b,,0
129,6220,156,,,,1,1,1.0,1.0,0.0,1.0,,0.0-158.0,,1.0,578.0,1.0,0.726754564,1.0,0.75,0.0,0.5129306370000001,0.0,0.530592445,False,,5ee61c6204aef93753868325,,1898054,156,,evan-feature22,full_pf_b,,0
130,6221,157,,,,2,2,0.0,1.0,-1.0,0.0,,0.0-159.0,,0.0,757.0,0.0,0.75,0.0,0.7392590729999999,0.0,0.479875835,1.0,0.547007051,False,,5ee61c6204aef93753868325,,1908666,157,,evan-feature22,full_pf_b,,1
131,6222,158,,,,2,2,1.0,1.0,-1.0,0.0,,0.0-160.0,,-1.0,1713.0,1.0,0.75,1.0,0.7393376979999999,1.0,0.546045419,1.0,0.541267353,False,,5ee61c6204aef93753868325,,1920216,158,,evan-feature22,full_pf_b,,0
132,6223,159,,,,2,2,1.0,1.0,-1.0,0.0,,0.0-161.0,,-1.0,1035.0,0.0,0.75,1.0,0.75,1.0,0.485725895,1.0,0.527625395,False,,5ee61c6204aef93753868325,,1931125,159,,evan-feature22,full_pf_b,,0
133,6224,160,,,,1,1,1.0,0.0,0.0,1.0,,0.0-162.0,,0.0,999.0,1.0,0.75,0.0,0.725087974,0.0,0.488603595,1.0,0.504019206,False,,5ee61c6204aef93753868325,,1941996,160,,evan-feature22,full_pf_b,,1
134,6225,161,,,,1,1,0.0,1.0,0.0,1.0,,0.0-163.0,,1.0,1010.0,0.0,0.745504295,1.0,0.75,0.0,0.452379914,1.0,0.50131194,False,,5ee61c6204aef93753868325,,1952896,161,,evan-feature22,full_pf_b,,0
135,6226,162,,,,1,1,0.0,1.0,0.0,1.0,,0.0-164.0,,1.0,554.0,0.0,0.728513874,1.0,0.75,0.0,0.44125567200000004,1.0,0.531454591,False,,5ee61c6204aef93753868325,,1963316,162,,evan-feature22,full_pf_b,,0
136,6227,163,,,,2,2,0.0,0.0,-1.0,0.0,,0.0-165.0,,0.0,845.0,1.0,0.73790804,0.0,0.75,0.0,0.413036656,0.0,0.524619035,False,,5ee61c6204aef93753868325,,1973996,163,,evan-feature22,full_pf_b,,1
137,6228,164,,,,1,1,1.0,1.0,0.0,1.0,,0.0-166.0,,1.0,622.0,1.0,0.7080961309999999,1.0,0.708666865,0.0,0.431915581,1.0,0.481819489,False,,5ee61c6204aef93753868325,,1984475,164,,evan-feature22,full_pf_b,,1
138,6229,165,,,,1,1,1.0,0.0,0.0,1.0,,0.0-167.0,,0.0,552.0,1.0,0.721378003,0.0,0.71605913,0.0,0.36642387,0.0,0.5036739929999999,False,,5ee61c6204aef93753868325,,1994907,165,,evan-feature22,full_pf_b,,0
139,6230,166,,,,1,1,0.0,0.0,0.0,1.0,,0.0-168.0,,0.0,544.0,0.0,0.7340618959999999,0.0,0.699323252,0.0,0.35298046299999997,1.0,0.511241692,False,,5ee61c6204aef93753868325,,2005327,166,,evan-feature22,full_pf_b,,0
140,6231,167,,,,2,2,0.0,1.0,-1.0,0.0,,0.0-169.0,,0.0,790.0,1.0,0.75,0.0,0.70412698,0.0,0.380734814,1.0,0.529580116,False,,5ee61c6204aef93753868325,,2015996,167,,evan-feature22,full_pf_b,,1
141,6232,168,,,,1,1,1.0,1.0,0.0,1.0,,0.0-170.0,,1.0,859.0,1.0,0.7436654909999999,1.0,0.711182751,1.0,0.41125331,0.0,0.49554405,False,,5ee61c6204aef93753868325,,2026746,168,,evan-feature22,full_pf_b,,1
142,6233,169,,,,1,1,0.0,1.0,0.0,1.0,,0.0-171.0,,1.0,724.0,0.0,0.731607915,1.0,0.651774583,0.0,0.35688023,0.0,0.45194491600000003,False,,5ee61c6204aef93753868325,,2037316,169,,evan-feature22,full_pf_b,,0
143,6234,170,,,,2,2,0.0,1.0,-1.0,0.0,,0.0-172.0,,0.0,649.0,1.0,0.75,1.0,0.75,0.0,0.283145374,1.0,0.528608005,False,,5ee61c6204aef93753868325,,2047816,170,,evan-feature22,full_pf_b,,1
144,6235,171,,,,2,2,1.0,0.0,-1.0,0.0,,0.0-173.0,,-1.0,842.0,1.0,0.7491416890000001,0.0,0.7423785959999999,1.0,0.29135870399999997,0.0,0.498888318,False,,5ee61c6204aef93753868325,,2058517,171,,evan-feature22,full_pf_b,,0
145,6236,172,,,,2,2,1.0,1.0,-1.0,0.0,,0.0-174.0,,-1.0,815.0,1.0,0.708569387,1.0,0.717682277,1.0,0.294421699,1.0,0.493838163,False,,5ee61c6204aef93753868325,,2069196,172,,evan-feature22,full_pf_b,,0
146,6237,173,,,,1,1,1.0,0.0,0.0,1.0,,0.0-175.0,,0.0,865.0,1.0,0.75,0.0,0.7383382159999999,1.0,0.356098707,0.0,0.442533405,False,,5ee61c6204aef93753868325,,2079936,173,,evan-feature22,full_pf_b,,1
147,6238,174,,,,1,1,0.0,1.0,0.0,1.0,,0.0-176.0,,1.0,1159.0,0.0,0.744527075,1.0,0.75,0.0,0.334127506,1.0,0.393165805,False,,5ee61c6204aef93753868325,,2090966,174,,evan-feature22,full_pf_b,,0
148,6239,175,,,,1,1,0.0,1.0,0.0,1.0,,0.0-177.0,,1.0,630.0,0.0,0.75,1.0,0.75,0.0,0.33571021799999995,1.0,0.350393962,False,,5ee61c6204aef93753868325,,2101457,175,,evan-feature22,full_pf_b,,0
149,6240,176,,,,1,1,1.0,1.0,0.0,1.0,,0.0-178.0,,1.0,682.0,1.0,0.75,1.0,0.75,0.0,0.313628297,1.0,0.36349657399999996,False,,5ee61c6204aef93753868325,,2111986,176,,evan-feature22,full_pf_b,,0
150,6241,177,,,,2,2,0.0,0.0,-1.0,0.0,,0.0-179.0,,0.0,892.0,0.0,0.75,1.0,0.734284182,0.0,0.262667667,0.0,0.380199119,False,,5ee61c6204aef93753868325,,2122757,177,,evan-feature22,full_pf_b,,1
151,6242,178,,,,1,1,0.0,1.0,0.0,1.0,,0.0-180.0,,1.0,1079.0,0.0,0.75,1.0,0.75,0.0,0.25,0.0,0.394494013,False,,5ee61c6204aef93753868325,,2133696,178,,evan-feature22,full_pf_b,,1
152,6243,179,,,,2,2,0.0,1.0,-1.0,0.0,,0.0-181.0,,0.0,922.0,1.0,0.722298145,1.0,0.7357822340000001,0.0,0.25,1.0,0.319142121,False,,5ee61c6204aef93753868325,,2144486,179,,evan-feature22,full_pf_b,,1
153,6244,180,,,,2,2,0.0,1.0,-1.0,0.0,,0.0-182.0,,0.0,572.0,1.0,0.73149275,1.0,0.724276446,0.0,0.305856907,1.0,0.281315057,False,,5ee61c6204aef93753868325,,2154896,180,,evan-feature22,full_pf_b,,0
154,6245,181,,,,1,1,1.0,1.0,0.0,1.0,,0.0-183.0,,1.0,890.0,1.0,0.7458732690000001,1.0,0.7336382459999999,0.0,0.272571964,0.0,0.266021999,False,,5ee61c6204aef93753868325,,2165676,181,,evan-feature22,full_pf_b,,1
155,6246,182,,,,1,1,1.0,1.0,0.0,1.0,,0.0-184.0,,1.0,992.0,1.0,0.705579037,1.0,0.720778292,0.0,0.320238144,0.0,0.30971744,False,,5ee61c6204aef93753868325,,2176537,182,,evan-feature22,full_pf_b,,0
156,6247,183,,,,1,1,0.0,0.0,0.0,1.0,,0.0-185.0,,0.0,569.0,0.0,0.700425648,0.0,0.7198784009999999,0.0,0.272590393,1.0,0.304182931,False,,5ee61c6204aef93753868325,,2186956,183,,evan-feature22,full_pf_b,,0
157,6248,184,,,,1,1,0.0,1.0,0.0,1.0,,0.0-186.0,,1.0,750.0,0.0,0.735590785,1.0,0.722714973,0.0,0.25,1.0,0.323421091,False,,5ee61c6204aef93753868325,,2197546,184,,evan-feature22,full_pf_b,,0
158,6249,185,,,,1,1,1.0,0.0,0.0,1.0,,0.0-187.0,,0.0,687.0,1.0,0.724807662,0.0,0.63146213,0.0,0.36836492600000004,0.0,0.34592153299999995,False,,5ee61c6204aef93753868325,,2208115,185,,evan-feature22,full_pf_b,,0
159,6250,186,,,,1,1,0.0,0.0,0.0,1.0,,0.0-188.0,,0.0,1120.0,0.0,0.7352796909999999,0.0,0.555111392,1.0,0.36003922,0.0,0.31433779999999995,False,,5ee61c6204aef93753868325,,2219076,186,,evan-feature22,full_pf_b,,0
160,6251,187,notice,,,,,,,,,,0.0-189.0,"{""Q0"":""the rule changed for the second block compared to the first and third""}",,26918.0,,,,,,,,,False,,5ee61c6204aef93753868325,,2245999,187,Q,survey-text,full_pf_b,,1
161,6252,188,track1,,[0],,,,,,,,0.0-190.0,"{""Q0"":""yes""}",,5457.0,,,,,,,,,False,,5ee61c6204aef93753868325,,2251461,188,Q,evan-quiz,full_pf_b,,1
162,6253,189,track2,,[2],,,,,,,,0.0-191.0,"{""Q0"":""N/A""}",,8547.0,,,,,,,,,False,,5ee61c6204aef93753868325,,2260017,189,Q,evan-quiz,full_pf_b,,1
163,6254,190,strat,,,,,,,,,,0.0-192.0,"{""Q0"":""tried to figure out which doors resulted in negative or positive""}",,24096.0,,,,,,,,,False,,5ee61c6204aef93753868325,,2284117,190,Q,survey-text,full_pf_b,,1
