,index,Unnamed: 0,Q_name,button_pressed,choice_idxs,chosen_pos,chosen_state,chosen_state_f_1_outcome,chosen_state_f_2_outcome,f_1_reward,f_2_reward,incor_questions,internal_node_id,responses,reward_received,rt,s_1_f_1_outcome,s_1_f_1_prob,s_1_f_2_outcome,s_1_f_2_prob,s_2_f_1_outcome,s_2_f_1_prob,s_2_f_2_outcome,s_2_f_2_prob,safe_first,stimulus,subjectID,success,time_elapsed,trial_index,trial_num,trial_type,version,view_history,switching
0,28093,25,,,,2,2,1.0,0.0,1.0,0.0,,0.0-27.0,,1.0,1623.425,0.0,0.6,1.0,0.6,1.0,0.4,0.0,0.4,True,,5f33e5bdea0471231d3fa54b,,579227,25,,evan-feature22,full_rf_a,,0
1,28094,26,,,,2,2,0.0,0.0,1.0,0.0,,0.0-28.0,,0.0,966.4050001,1.0,0.608053294,0.0,0.63424552,0.0,0.397152172,0.0,0.347069101,True,,5f33e5bdea0471231d3fa54b,,590011,26,,evan-feature22,full_rf_a,,0
2,28095,27,,,,2,2,0.0,0.0,1.0,0.0,,0.0-29.0,,0.0,1720.74,1.0,0.642237155,1.0,0.648566321,0.0,0.389407674,0.0,0.285525717,True,,5f33e5bdea0471231d3fa54b,,601554,27,,evan-feature22,full_rf_a,,0
3,28096,28,,,,1,1,0.0,0.0,1.0,0.0,,0.0-30.0,,0.0,2438.17,0.0,0.661086576,0.0,0.630492543,0.0,0.399058924,1.0,0.25,True,,5f33e5bdea0471231d3fa54b,,613795,28,,evan-feature22,full_rf_a,,1
4,28097,29,,,,2,2,1.0,0.0,0.0,-1.0,,0.0-31.0,,0.0,3593.2,1.0,0.631324137,1.0,0.6269842929999999,1.0,0.38734784299999997,0.0,0.25,True,,5f33e5bdea0471231d3fa54b,,627222,29,,evan-feature22,full_rf_a,,1
5,28098,30,,,,2,2,0.0,0.0,0.0,-1.0,,0.0-32.0,,0.0,3055.885,0.0,0.6381991370000001,1.0,0.68987999,0.0,0.384107265,0.0,0.271332943,True,,5f33e5bdea0471231d3fa54b,,640101,30,,evan-feature22,full_rf_a,,0
6,28099,31,,,,1,1,0.0,0.0,1.0,0.0,,0.0-33.0,,0.0,1631.74,0.0,0.66034901,0.0,0.742641349,0.0,0.360225629,1.0,0.25,True,,5f33e5bdea0471231d3fa54b,,651551,31,,evan-feature22,full_rf_a,,1
7,28100,32,,,,2,2,1.0,0.0,1.0,0.0,,0.0-34.0,,1.0,1684.005,1.0,0.638612418,1.0,0.75,1.0,0.367273939,0.0,0.25,True,,5f33e5bdea0471231d3fa54b,,663040,32,,evan-feature22,full_rf_a,,1
8,28101,33,,,,1,1,1.0,0.0,0.0,-1.0,,0.0-35.0,,0.0,2867.51,1.0,0.624340629,0.0,0.75,0.0,0.425829545,0.0,0.25,True,,5f33e5bdea0471231d3fa54b,,675717,33,,evan-feature22,full_rf_a,,1
9,28102,34,,,,1,1,1.0,1.0,0.0,-1.0,,0.0-36.0,,-1.0,2205.36,1.0,0.621999804,1.0,0.75,0.0,0.368609357,0.0,0.25,True,,5f33e5bdea0471231d3fa54b,,687765,34,,evan-feature22,full_rf_a,,0
10,28103,35,,,,1,1,1.0,1.0,1.0,0.0,,0.0-37.0,,1.0,2141.3,1.0,0.62666403,1.0,0.75,0.0,0.311151498,1.0,0.25,True,,5f33e5bdea0471231d3fa54b,,699728,35,,evan-feature22,full_rf_a,,0
11,28104,36,,,,1,1,1.0,1.0,0.0,-1.0,,0.0-38.0,,-1.0,3429.83,1.0,0.6819650009999999,1.0,0.75,1.0,0.310763048,0.0,0.25,True,,5f33e5bdea0471231d3fa54b,,712951,36,,evan-feature22,full_rf_a,,0
12,28105,37,,,,1,1,1.0,1.0,1.0,0.0,,0.0-39.0,,1.0,1505.115,1.0,0.740626951,1.0,0.75,0.0,0.25,0.0,0.25,True,,5f33e5bdea0471231d3fa54b,,724279,37,,evan-feature22,full_rf_a,,0
13,28106,38,,,,2,2,1.0,0.0,1.0,0.0,,0.0-40.0,,1.0,1283.77,1.0,0.739599242,1.0,0.742034978,1.0,0.25397114600000004,0.0,0.25,True,,5f33e5bdea0471231d3fa54b,,735377,38,,evan-feature22,full_rf_a,,1
14,28107,39,,,,1,1,1.0,1.0,1.0,0.0,,0.0-41.0,,1.0,1621.715,1.0,0.732341315,1.0,0.72735643,0.0,0.25,0.0,0.25,True,,5f33e5bdea0471231d3fa54b,,746822,39,,evan-feature22,full_rf_a,,1
15,28108,40,,,,2,2,0.0,0.0,1.0,0.0,,0.0-42.0,,0.0,1287.735,1.0,0.7062287770000001,1.0,0.75,0.0,0.29002151,0.0,0.288256649,True,,5f33e5bdea0471231d3fa54b,,757932,40,,evan-feature22,full_rf_a,,1
16,28109,41,,,,1,1,1.0,1.0,1.0,0.0,,0.0-43.0,,1.0,2397.65,1.0,0.7086029209999999,1.0,0.75,0.0,0.274129113,0.0,0.262851608,True,,5f33e5bdea0471231d3fa54b,,770152,41,,evan-feature22,full_rf_a,,1
17,28110,42,,,,2,2,1.0,0.0,1.0,0.0,,0.0-44.0,,1.0,1065.835,1.0,0.669189651,1.0,0.727614338,1.0,0.298444036,0.0,0.296944518,True,,5f33e5bdea0471231d3fa54b,,781030,42,,evan-feature22,full_rf_a,,1
18,28111,43,,,,1,1,1.0,1.0,1.0,0.0,,0.0-45.0,,1.0,1008.59,1.0,0.6819912929999999,1.0,0.7179434290000001,0.0,0.265003961,1.0,0.28157921199999997,True,,5f33e5bdea0471231d3fa54b,,791831,43,,evan-feature22,full_rf_a,,1
19,28112,44,,,,1,1,1.0,1.0,0.0,-1.0,,0.0-46.0,,-1.0,2204.45,1.0,0.665275002,1.0,0.723065271,0.0,0.260414971,1.0,0.30973870000000003,True,,5f33e5bdea0471231d3fa54b,,803876,44,,evan-feature22,full_rf_a,,0
20,28113,45,,,,1,1,1.0,1.0,1.0,0.0,,0.0-47.0,,1.0,2384.825,1.0,0.6660593260000001,1.0,0.728032907,0.0,0.30922817,0.0,0.338778608,True,,5f33e5bdea0471231d3fa54b,,816092,45,,evan-feature22,full_rf_a,,0
21,28114,46,,,,2,2,0.0,0.0,1.0,0.0,,0.0-48.0,,0.0,1325.17,1.0,0.702068785,1.0,0.6528750879999999,0.0,0.287329608,0.0,0.35789613200000003,True,,5f33e5bdea0471231d3fa54b,,827226,46,,evan-feature22,full_rf_a,,1
22,28115,47,,,,2,2,1.0,1.0,1.0,0.0,,0.0-49.0,,1.0,2026.435,1.0,0.651939787,1.0,0.636725589,1.0,0.284834488,1.0,0.358563756,True,,5f33e5bdea0471231d3fa54b,,839099,47,,evan-feature22,full_rf_a,,0
23,28116,48,,,,1,1,1.0,1.0,0.0,-1.0,,0.0-50.0,,-1.0,2896.76,1.0,0.67573929,1.0,0.612550049,1.0,0.37130387600000003,1.0,0.383542402,True,,5f33e5bdea0471231d3fa54b,,851803,48,,evan-feature22,full_rf_a,,1
24,28117,49,,,,1,1,0.0,1.0,0.0,-1.0,,0.0-51.0,,-1.0,1820.39,0.0,0.620753801,1.0,0.60513644,0.0,0.385529434,0.0,0.340361743,True,,5f33e5bdea0471231d3fa54b,,863456,49,,evan-feature22,full_rf_a,,0
25,28118,50,,,,1,1,1.0,1.0,0.0,-1.0,,0.0-52.0,,-1.0,1045.285,1.0,0.673564893,1.0,0.672437924,1.0,0.292955382,0.0,0.337633795,True,,5f33e5bdea0471231d3fa54b,,874326,50,,evan-feature22,full_rf_a,,0
26,28119,51,,,,1,1,1.0,0.0,1.0,0.0,,0.0-53.0,,1.0,2304.62,1.0,0.6749427,0.0,0.724197502,1.0,0.32391132100000003,0.0,0.350995264,True,,5f33e5bdea0471231d3fa54b,,886437,51,,evan-feature22,full_rf_a,,0
27,28120,52,,,,2,2,0.0,0.0,1.0,0.0,,0.0-54.0,,0.0,2090.665,1.0,0.6940159379999999,1.0,0.75,0.0,0.31710554399999996,0.0,0.413450341,True,,5f33e5bdea0471231d3fa54b,,898359,52,,evan-feature22,full_rf_a,,1
28,28121,53,,,,2,2,0.0,0.0,1.0,0.0,,0.0-55.0,,0.0,1927.53,1.0,0.6916018270000001,1.0,0.69001187,0.0,0.261817804,0.0,0.40038635,True,,5f33e5bdea0471231d3fa54b,,910134,53,,evan-feature22,full_rf_a,,0
29,28122,54,,,,2,2,0.0,0.0,1.0,0.0,,0.0-56.0,,0.0,1342.265,1.0,0.641061544,1.0,0.71337992,0.0,0.277296461,0.0,0.47372791700000005,True,,5f33e5bdea0471231d3fa54b,,921304,54,,evan-feature22,full_rf_a,,0
30,28123,55,,,,2,2,0.0,1.0,1.0,0.0,,0.0-57.0,,0.0,1995.38,0.0,0.6082438520000001,1.0,0.708471106,0.0,0.28745137,1.0,0.564174476,True,,5f33e5bdea0471231d3fa54b,,933147,55,,evan-feature22,full_rf_a,,0
31,28124,56,,,,2,2,0.0,1.0,1.0,0.0,,0.0-58.0,,0.0,1223.415,0.0,0.6051112120000001,1.0,0.7118147229999999,0.0,0.272390611,1.0,0.5595149939999999,True,,5f33e5bdea0471231d3fa54b,,944196,56,,evan-feature22,full_rf_a,,0
32,28125,57,,,,2,2,0.0,0.0,1.0,0.0,,0.0-59.0,,0.0,1053.8,0.0,0.582420852,1.0,0.635867583,0.0,0.31089574,0.0,0.5227206520000001,True,,5f33e5bdea0471231d3fa54b,,955070,57,,evan-feature22,full_rf_a,,0
33,28126,58,,,,1,1,0.0,1.0,0.0,-1.0,,0.0-60.0,,-1.0,3103.935,0.0,0.623195575,1.0,0.655026044,1.0,0.25,0.0,0.560387538,True,,5f33e5bdea0471231d3fa54b,,967976,58,,evan-feature22,full_rf_a,,1
34,28127,59,,,,2,2,0.0,1.0,1.0,0.0,,0.0-61.0,,0.0,2517.185,1.0,0.601889598,1.0,0.678198724,0.0,0.25,1.0,0.559922936,True,,5f33e5bdea0471231d3fa54b,,980304,59,,evan-feature22,full_rf_a,,1
35,28128,60,,,,2,2,1.0,1.0,1.0,0.0,,0.0-62.0,,1.0,1706.61,1.0,0.601259914,1.0,0.704681482,1.0,0.33908969299999997,1.0,0.505003715,True,,5f33e5bdea0471231d3fa54b,,991828,60,,evan-feature22,full_rf_a,,0
36,28129,61,,,,1,1,1.0,0.0,1.0,0.0,,0.0-63.0,,1.0,754.245,1.0,0.59645454,0.0,0.710437172,1.0,0.327441879,1.0,0.391749613,True,,5f33e5bdea0471231d3fa54b,,1002416,61,,evan-feature22,full_rf_a,,1
37,28130,62,,,,2,2,0.0,1.0,1.0,0.0,,0.0-64.0,,0.0,3161.75,0.0,0.529473,1.0,0.636758527,0.0,0.301338063,1.0,0.365661481,True,,5f33e5bdea0471231d3fa54b,,1015396,62,,evan-feature22,full_rf_a,,1
38,28131,63,,,,1,1,0.0,0.0,0.0,-1.0,,0.0-65.0,,0.0,2743.5,0.0,0.541657162,0.0,0.634541962,1.0,0.343535366,0.0,0.371763742,True,,5f33e5bdea0471231d3fa54b,,1027953,63,,evan-feature22,full_rf_a,,1
39,28132,64,,,,1,1,1.0,0.0,1.0,0.0,,0.0-66.0,,1.0,2564.42,1.0,0.5707533260000001,0.0,0.589121171,0.0,0.326428396,1.0,0.43961622899999997,True,,5f33e5bdea0471231d3fa54b,,1040318,64,,evan-feature22,full_rf_a,,0
40,28133,65,,,,1,1,1.0,0.0,1.0,0.0,,0.0-67.0,,1.0,2317.765,1.0,0.5707533260000001,0.0,0.589121171,1.0,0.326428396,1.0,0.43961622899999997,True,,5f33e5bdea0471231d3fa54b,,1052467,65,,evan-feature22,full_rf_a,,0
41,28134,66,,,,1,1,1.0,1.0,1.0,0.0,,0.0-68.0,,1.0,2313.92,1.0,0.506271295,1.0,0.641775594,0.0,0.37149690700000004,1.0,0.404330166,True,,5f33e5bdea0471231d3fa54b,,1064592,66,,evan-feature22,full_rf_a,,0
42,28135,67,,,,2,2,0.0,0.0,0.0,-1.0,,0.0-69.0,,0.0,2337.715,1.0,0.455642565,0.0,0.623605825,0.0,0.358753011,0.0,0.346174041,True,,5f33e5bdea0471231d3fa54b,,1076742,67,,evan-feature22,full_rf_a,,1
43,28136,68,,,,2,2,1.0,1.0,0.0,-1.0,,0.0-70.0,,-1.0,1770.805,1.0,0.483677308,0.0,0.5904681070000001,1.0,0.402218411,1.0,0.35344697,True,,5f33e5bdea0471231d3fa54b,,1088301,68,,evan-feature22,full_rf_a,,0
44,28137,69,,,,1,1,0.0,1.0,0.0,-1.0,,0.0-71.0,,-1.0,1009.59,0.0,0.394210977,1.0,0.558925494,1.0,0.540052017,0.0,0.35182128700000004,True,,5f33e5bdea0471231d3fa54b,,1099114,69,,evan-feature22,full_rf_a,,1
45,28138,70,,,,1,1,1.0,0.0,1.0,0.0,,0.0-72.0,,1.0,1665.21,1.0,0.382300414,0.0,0.577670603,1.0,0.607608448,0.0,0.378261578,True,,5f33e5bdea0471231d3fa54b,,1110584,70,,evan-feature22,full_rf_a,,0
46,28139,71,,,,2,2,1.0,0.0,1.0,0.0,,0.0-73.0,,1.0,2600.355,0.0,0.357596762,1.0,0.5929076529999999,1.0,0.6579790010000001,0.0,0.401326777,True,,5f33e5bdea0471231d3fa54b,,1123012,71,,evan-feature22,full_rf_a,,1
47,28140,72,,,,2,2,1.0,0.0,1.0,0.0,,0.0-74.0,,1.0,1354.455,1.0,0.362033495,0.0,0.582308608,1.0,0.649195052,0.0,0.355158505,True,,5f33e5bdea0471231d3fa54b,,1134214,72,,evan-feature22,full_rf_a,,0
48,28141,73,,,,1,1,0.0,1.0,1.0,0.0,,0.0-75.0,,0.0,1291.81,0.0,0.369620635,1.0,0.669100864,1.0,0.706059111,0.0,0.362516241,True,,5f33e5bdea0471231d3fa54b,,1145306,73,,evan-feature22,full_rf_a,,1
49,28142,74,,,,1,1,1.0,1.0,1.0,0.0,,0.0-76.0,,1.0,2625.615,1.0,0.41477751399999996,1.0,0.7284416779999999,1.0,0.7182656940000001,0.0,0.36228040899999997,True,,5f33e5bdea0471231d3fa54b,,1157745,74,,evan-feature22,full_rf_a,,0
50,28143,75,,,,1,1,0.0,1.0,0.0,-1.0,,0.0-77.0,,-1.0,1591.41,0.0,0.37675460299999997,1.0,0.703250285,0.0,0.75,0.0,0.461979164,True,,5f33e5bdea0471231d3fa54b,,1169133,75,,evan-feature22,full_rf_a,,0
51,28144,76,,,,1,1,0.0,1.0,0.0,-1.0,,0.0-78.0,,-1.0,1450.4,0.0,0.398716075,1.0,0.6723864890000001,1.0,0.674153818,1.0,0.519029516,True,,5f33e5bdea0471231d3fa54b,,1180408,76,,evan-feature22,full_rf_a,,0
52,28145,77,,,,1,1,0.0,1.0,1.0,0.0,,0.0-79.0,,0.0,1076.85,0.0,0.34677856700000004,1.0,0.69057175,1.0,0.6822438540000001,0.0,0.477292237,True,,5f33e5bdea0471231d3fa54b,,1191279,77,,evan-feature22,full_rf_a,,0
53,28146,78,,,,1,1,0.0,1.0,0.0,-1.0,,0.0-80.0,,-1.0,931.7949999,0.0,0.28580469199999997,1.0,0.68408818,1.0,0.684207565,0.0,0.49780448299999996,True,,5f33e5bdea0471231d3fa54b,,1202011,78,,evan-feature22,full_rf_a,,0
54,28148,80,,,,1,1,0.0,1.0,1.0,0.0,,0.0-82.0,,0.0,1717.405,0.0,0.25,1.0,0.7405808970000001,0.0,0.679614108,0.0,0.436436964,True,,5f33e5bdea0471231d3fa54b,,1217701,80,,evan-feature22,full_rf_a,,0
55,28149,81,,,,1,1,0.0,1.0,0.0,-1.0,,0.0-83.0,,-1.0,1993.23,0.0,0.29890393,1.0,0.730505706,0.0,0.7328203320000001,0.0,0.439256938,True,,5f33e5bdea0471231d3fa54b,,1229515,81,,evan-feature22,full_rf_a,,0
56,28150,82,,,,2,2,1.0,0.0,1.0,0.0,,0.0-84.0,,1.0,3789.945,0.0,0.326762398,1.0,0.7148059609999999,1.0,0.75,0.0,0.44389608799999997,True,,5f33e5bdea0471231d3fa54b,,1243134,82,,evan-feature22,full_rf_a,,1
57,28151,83,,,,2,2,1.0,0.0,1.0,0.0,,0.0-85.0,,1.0,696.975,1.0,0.295168515,1.0,0.739760854,1.0,0.719947008,0.0,0.35277284600000003,True,,5f33e5bdea0471231d3fa54b,,1253650,83,,evan-feature22,full_rf_a,,0
58,28152,84,,,,1,1,0.0,1.0,1.0,0.0,,0.0-86.0,,0.0,1020.855,0.0,0.25,1.0,0.70781482,1.0,0.75,0.0,0.286095925,True,,5f33e5bdea0471231d3fa54b,,1264476,84,,evan-feature22,full_rf_a,,1
59,28153,85,,,,1,1,1.0,1.0,0.0,-1.0,,0.0-87.0,,-1.0,2759.89,1.0,0.25638190899999996,1.0,0.704088163,1.0,0.75,0.0,0.26872601399999996,True,,5f33e5bdea0471231d3fa54b,,1277054,85,,evan-feature22,full_rf_a,,0
60,28154,86,,,,1,1,1.0,1.0,0.0,-1.0,,0.0-88.0,,-1.0,1458.65,1.0,0.271581126,1.0,0.669760107,1.0,0.733896663,0.0,0.273244572,True,,5f33e5bdea0471231d3fa54b,,1288346,86,,evan-feature22,full_rf_a,,0
61,28155,87,,,,2,2,1.0,1.0,0.0,-1.0,,0.0-89.0,,-1.0,1872.17,0.0,0.257144401,1.0,0.600575706,1.0,0.74488122,1.0,0.25,True,,5f33e5bdea0471231d3fa54b,,1300051,87,,evan-feature22,full_rf_a,,1
62,28156,88,,,,2,2,1.0,0.0,1.0,0.0,,0.0-90.0,,1.0,1313.635,1.0,0.25,0.0,0.616870026,1.0,0.723610234,0.0,0.25,True,,5f33e5bdea0471231d3fa54b,,1311183,88,,evan-feature22,full_rf_a,,0
63,28157,89,,,,1,1,1.0,1.0,0.0,-1.0,,0.0-91.0,,-1.0,1998.105,1.0,0.25,1.0,0.583540187,1.0,0.7041042559999999,1.0,0.285961995,True,,5f33e5bdea0471231d3fa54b,,1323010,89,,evan-feature22,full_rf_a,,1
64,28158,90,,,,1,1,0.0,1.0,1.0,0.0,,0.0-92.0,,0.0,827.3200002,0.0,0.27254536,1.0,0.53875765,1.0,0.693783448,0.0,0.284961652,True,,5f33e5bdea0471231d3fa54b,,1333654,90,,evan-feature22,full_rf_a,,0
65,28159,91,,,,2,2,1.0,1.0,0.0,-1.0,,0.0-93.0,,-1.0,2468.65,1.0,0.25,1.0,0.548431252,1.0,0.734221895,1.0,0.279445214,True,,5f33e5bdea0471231d3fa54b,,1345946,91,,evan-feature22,full_rf_a,,1
66,28160,92,,,,2,2,1.0,1.0,1.0,0.0,,0.0-94.0,,1.0,2040.5,0.0,0.258640684,1.0,0.545878066,1.0,0.725245965,1.0,0.31487537,True,,5f33e5bdea0471231d3fa54b,,1357799,92,,evan-feature22,full_rf_a,,0
67,28161,93,,,,2,2,0.0,1.0,1.0,0.0,,0.0-95.0,,0.0,700.99,0.0,0.251103711,0.0,0.5776290629999999,0.0,0.696320133,1.0,0.317831047,True,,5f33e5bdea0471231d3fa54b,,1368297,93,,evan-feature22,full_rf_a,,0
68,28162,94,,,,1,1,1.0,0.0,1.0,0.0,,0.0-96.0,,1.0,824.5300001,1.0,0.276630292,0.0,0.617329858,1.0,0.73838088,0.0,0.261471582,True,,5f33e5bdea0471231d3fa54b,,1378919,94,,evan-feature22,full_rf_a,,1
69,28163,95,,,,1,1,0.0,1.0,0.0,-1.0,,0.0-97.0,,-1.0,3296.885,0.0,0.297716424,1.0,0.618863717,1.0,0.7402358259999999,0.0,0.262600834,True,,5f33e5bdea0471231d3fa54b,,1392027,95,,evan-feature22,full_rf_a,,0
70,28164,96,,,,2,2,1.0,0.0,1.0,0.0,,0.0-98.0,,1.0,644.54,1.0,0.290935512,0.0,0.695370945,1.0,0.706570507,0.0,0.280030553,True,,5f33e5bdea0471231d3fa54b,,1402504,96,,evan-feature22,full_rf_a,,1
71,28165,97,,,,2,2,0.0,0.0,1.0,0.0,,0.0-99.0,,0.0,573.94,0.0,0.25,0.0,0.6465277079999999,0.0,0.67766682,0.0,0.25,True,,5f33e5bdea0471231d3fa54b,,1412892,97,,evan-feature22,full_rf_a,,0
72,28166,98,,,,2,2,1.0,0.0,1.0,0.0,,0.0-100.0,,1.0,675.2599999,0.0,0.26463816,1.0,0.636100213,1.0,0.646048507,0.0,0.265607101,True,,5f33e5bdea0471231d3fa54b,,1423379,98,,evan-feature22,full_rf_a,,0
73,28167,99,,,,2,2,0.0,0.0,1.0,0.0,,0.0-101.0,,0.0,798.685,0.0,0.314340707,1.0,0.667795927,0.0,0.613630805,0.0,0.25,True,,5f33e5bdea0471231d3fa54b,,1434000,99,,evan-feature22,full_rf_a,,0
74,28168,100,,,,2,2,1.0,0.0,1.0,0.0,,0.0-102.0,,1.0,616.99,1.0,0.28685784,0.0,0.6622549529999999,1.0,0.652154117,0.0,0.25,True,,5f33e5bdea0471231d3fa54b,,1444432,100,,evan-feature22,full_rf_a,,0
75,28169,101,,,,2,2,0.0,0.0,0.0,-1.0,,0.0-103.0,,0.0,2106.58,1.0,0.304106554,1.0,0.631289538,0.0,0.707041942,0.0,0.29314237,True,,5f33e5bdea0471231d3fa54b,,1456357,101,,evan-feature22,full_rf_a,,0
76,28170,102,,,,2,2,1.0,0.0,0.0,-1.0,,0.0-104.0,,0.0,1629.285,1.0,0.304806932,1.0,0.571167718,1.0,0.680472346,0.0,0.25,True,,5f33e5bdea0471231d3fa54b,,1467793,102,,evan-feature22,full_rf_a,,0
77,28171,103,,,,2,2,1.0,0.0,0.0,-1.0,,0.0-105.0,,0.0,1922.67,0.0,0.37919861,1.0,0.5724849710000001,1.0,0.705638003,0.0,0.30179300600000003,True,,5f33e5bdea0471231d3fa54b,,1479522,103,,evan-feature22,full_rf_a,,0
78,28172,104,,,,2,2,1.0,0.0,0.0,-1.0,,0.0-106.0,,0.0,1966.5,1.0,0.464277969,1.0,0.554034373,1.0,0.7372627340000001,0.0,0.264699741,True,,5f33e5bdea0471231d3fa54b,,1491295,104,,evan-feature22,full_rf_a,,0
79,28173,105,,,,2,2,1.0,0.0,1.0,0.0,,0.0-107.0,,1.0,1184.06,0.0,0.465104323,1.0,0.530793115,1.0,0.75,0.0,0.31683071,True,,5f33e5bdea0471231d3fa54b,,1502282,105,,evan-feature22,full_rf_a,,0
80,28174,106,,,,2,2,1.0,0.0,0.0,-1.0,,0.0-108.0,,0.0,1400.045,1.0,0.465104323,0.0,0.530793115,1.0,0.75,0.0,0.31683071,True,,5f33e5bdea0471231d3fa54b,,1513486,106,,evan-feature22,full_rf_a,,0
81,28175,107,,,,2,2,0.0,0.0,0.0,-1.0,,0.0-109.0,,0.0,1274.01,1.0,0.46833986,1.0,0.570249239,0.0,0.7244472590000001,0.0,0.364114163,True,,5f33e5bdea0471231d3fa54b,,1524571,107,,evan-feature22,full_rf_a,,0
82,28176,108,,,,2,2,0.0,1.0,0.0,-1.0,,0.0-110.0,,-1.0,2494.16,0.0,0.445444024,0.0,0.649673355,0.0,0.6845441290000001,1.0,0.300660449,True,,5f33e5bdea0471231d3fa54b,,1536871,108,,evan-feature22,full_rf_a,,0
83,28177,109,,,,1,1,0.0,0.0,0.0,-1.0,,0.0-111.0,,0.0,1203.255,0.0,0.39909721299999995,0.0,0.6715179509999999,1.0,0.742310028,1.0,0.35496088299999995,True,,5f33e5bdea0471231d3fa54b,,1547892,109,,evan-feature22,full_rf_a,,1
84,28178,110,,,,1,1,0.0,0.0,0.0,-1.0,,0.0-112.0,,0.0,929.06,0.0,0.37956104799999996,0.0,0.694725302,1.0,0.7181651309999999,0.0,0.38726906299999997,True,,5f33e5bdea0471231d3fa54b,,1558633,110,,evan-feature22,full_rf_a,,0
85,28179,111,,,,1,1,0.0,1.0,0.0,-1.0,,0.0-113.0,,-1.0,1137.415,0.0,0.404995034,1.0,0.724375412,1.0,0.6910946859999999,0.0,0.387187347,True,,5f33e5bdea0471231d3fa54b,,1569590,111,,evan-feature22,full_rf_a,,0
86,28180,112,,,,2,2,0.0,0.0,0.0,-1.0,,0.0-114.0,,0.0,1018.76,0.0,0.461740803,1.0,0.75,0.0,0.75,0.0,0.34872038200000005,True,,5f33e5bdea0471231d3fa54b,,1580423,112,,evan-feature22,full_rf_a,,1
87,28181,113,,,,2,2,0.0,1.0,1.0,0.0,,0.0-115.0,,0.0,1356.85,1.0,0.43821380600000004,1.0,0.738833273,0.0,0.728286963,1.0,0.399538128,True,,5f33e5bdea0471231d3fa54b,,1591616,113,,evan-feature22,full_rf_a,,0
88,28182,114,,,,2,2,0.0,0.0,0.0,-1.0,,0.0-116.0,,0.0,2999.34,0.0,0.41709882,1.0,0.736666736,0.0,0.75,0.0,0.389095584,True,,5f33e5bdea0471231d3fa54b,,1604440,114,,evan-feature22,full_rf_a,,0
89,28183,115,,,,2,2,1.0,0.0,0.0,-1.0,,0.0-117.0,,0.0,1059.13,0.0,0.39749009799999996,1.0,0.744320029,1.0,0.75,0.0,0.363848678,True,,5f33e5bdea0471231d3fa54b,,1615312,115,,evan-feature22,full_rf_a,,0
90,28184,116,,,,2,2,1.0,0.0,1.0,0.0,,0.0-118.0,,1.0,1015.025,0.0,0.392653706,1.0,0.75,1.0,0.75,0.0,0.384386976,True,,5f33e5bdea0471231d3fa54b,,1626122,116,,evan-feature22,full_rf_a,,0
91,28185,117,,,,2,2,1.0,0.0,1.0,0.0,,0.0-119.0,,1.0,944.925,1.0,0.31190902600000003,1.0,0.75,1.0,0.732413819,0.0,0.413082932,True,,5f33e5bdea0471231d3fa54b,,1636885,117,,evan-feature22,full_rf_a,,0
92,28186,118,,,,2,2,1.0,0.0,0.0,-1.0,,0.0-120.0,,0.0,2559.985,1.0,0.366917648,1.0,0.740073855,1.0,0.75,0.0,0.352861979,True,,5f33e5bdea0471231d3fa54b,,1649272,118,,evan-feature22,full_rf_a,,0
93,28187,119,,,,2,2,1.0,1.0,0.0,-1.0,,0.0-121.0,,-1.0,1202.215,0.0,0.3645172,1.0,0.721770713,1.0,0.75,1.0,0.404074511,True,,5f33e5bdea0471231d3fa54b,,1660295,119,,evan-feature22,full_rf_a,,0
94,28188,120,,,,2,2,1.0,1.0,0.0,-1.0,,0.0-122.0,,-1.0,1750.035,1.0,0.35205600299999995,1.0,0.68983859,1.0,0.739735447,1.0,0.366895945,True,,5f33e5bdea0471231d3fa54b,,1671871,120,,evan-feature22,full_rf_a,,0
95,28189,121,,,,2,2,0.0,0.0,0.0,-1.0,,0.0-123.0,,0.0,1511.645,1.0,0.40998722600000004,0.0,0.720859127,0.0,0.673854955,0.0,0.368528541,True,,5f33e5bdea0471231d3fa54b,,1683203,121,,evan-feature22,full_rf_a,,0
96,28190,122,,,,2,2,1.0,1.0,1.0,0.0,,0.0-124.0,,1.0,1812.98,0.0,0.353625316,1.0,0.75,1.0,0.695605473,1.0,0.38303674200000004,True,,5f33e5bdea0471231d3fa54b,,1694818,122,,evan-feature22,full_rf_a,,0
97,28191,123,,,,2,2,1.0,0.0,0.0,-1.0,,0.0-125.0,,0.0,1282.795,0.0,0.359216989,1.0,0.75,1.0,0.6987915090000001,0.0,0.35169046200000004,True,,5f33e5bdea0471231d3fa54b,,1705924,123,,evan-feature22,full_rf_a,,0
98,28192,124,,,,2,2,0.0,0.0,1.0,0.0,,0.0-126.0,,0.0,1241.195,0.0,0.35834496899999996,1.0,0.75,0.0,0.707067742,0.0,0.416763636,True,,5f33e5bdea0471231d3fa54b,,1716954,124,,evan-feature22,full_rf_a,,0
99,28193,125,,,,2,2,0.0,1.0,1.0,0.0,,0.0-127.0,,0.0,544.125,0.0,0.38741613799999997,1.0,0.7177369570000001,0.0,0.734902455,1.0,0.49438664299999996,True,,5f33e5bdea0471231d3fa54b,,1727313,125,,evan-feature22,full_rf_a,,0
100,28194,126,,,,2,2,1.0,1.0,0.0,-1.0,,0.0-128.0,,-1.0,1665.135,1.0,0.405255252,0.0,0.7300466640000001,1.0,0.7027748070000001,1.0,0.504359668,True,,5f33e5bdea0471231d3fa54b,,1738787,126,,evan-feature22,full_rf_a,,0
101,28195,127,,,,2,2,1.0,1.0,0.0,-1.0,,0.0-129.0,,-1.0,956.825,1.0,0.40697073,1.0,0.7260142190000001,1.0,0.724461982,1.0,0.522779179,True,,5f33e5bdea0471231d3fa54b,,1749550,127,,evan-feature22,full_rf_a,,0
102,28196,128,,,,2,2,1.0,1.0,0.0,-1.0,,0.0-130.0,,-1.0,693.0450001,1.0,0.43906215299999996,1.0,0.7252802340000001,1.0,0.719079934,1.0,0.5712990579999999,True,,5f33e5bdea0471231d3fa54b,,1760071,128,,evan-feature22,full_rf_a,,0
103,28197,129,,,,2,2,0.0,1.0,0.0,-1.0,,0.0-131.0,,-1.0,910.015,1.0,0.4076705,1.0,0.73280499,0.0,0.681313127,1.0,0.523891346,True,,5f33e5bdea0471231d3fa54b,,1770790,129,,evan-feature22,full_rf_a,,0
104,28198,130,,,,1,1,0.0,1.0,0.0,-1.0,,0.0-132.0,,-1.0,828.83,0.0,0.399102911,1.0,0.730498344,0.0,0.661080239,0.0,0.46742603,True,,5f33e5bdea0471231d3fa54b,,1781447,130,,evan-feature22,full_rf_a,,1
105,28199,131,,,,2,2,1.0,1.0,1.0,0.0,,0.0-133.0,,1.0,660.4250001,1.0,0.356477282,1.0,0.712296395,1.0,0.641812684,1.0,0.44868414,True,,5f33e5bdea0471231d3fa54b,,1791928,131,,evan-feature22,full_rf_a,,1
106,28200,132,,,,2,2,0.0,1.0,0.0,-1.0,,0.0-134.0,,-1.0,988.255,1.0,0.462760722,1.0,0.692349322,0.0,0.700947931,1.0,0.394680266,True,,5f33e5bdea0471231d3fa54b,,1802740,132,,evan-feature22,full_rf_a,,0
107,28201,133,,,,2,2,1.0,1.0,0.0,-1.0,,0.0-135.0,,-1.0,972.3049998,0.0,0.422306413,1.0,0.718375916,1.0,0.706340917,1.0,0.367787185,True,,5f33e5bdea0471231d3fa54b,,1813548,133,,evan-feature22,full_rf_a,,0
108,28203,135,,,,2,2,0.0,1.0,0.0,-1.0,,0.0-137.0,,-1.0,2449.35,0.0,0.4582233,1.0,0.643834117,0.0,0.75,1.0,0.39615823299999997,True,,5f33e5bdea0471231d3fa54b,,1829384,135,,evan-feature22,full_rf_a,,0
109,28204,136,,,,2,2,1.0,0.0,0.0,-1.0,,0.0-138.0,,0.0,939.615,0.0,0.43813437899999996,1.0,0.651283804,1.0,0.729674191,0.0,0.37711048,True,,5f33e5bdea0471231d3fa54b,,1840156,136,,evan-feature22,full_rf_a,,0
110,28205,137,,,,2,2,0.0,0.0,0.0,-1.0,,0.0-139.0,,0.0,1558.38,0.0,0.471199094,1.0,0.6470010979999999,0.0,0.715008097,0.0,0.410656191,True,,5f33e5bdea0471231d3fa54b,,1851522,137,,evan-feature22,full_rf_a,,0
111,28206,138,,,,2,2,1.0,0.0,1.0,0.0,,0.0-140.0,,1.0,618.2299998999999,1.0,0.42486406,1.0,0.629771829,1.0,0.6550939960000001,0.0,0.459093873,True,,5f33e5bdea0471231d3fa54b,,1861947,138,,evan-feature22,full_rf_a,,0
112,28207,139,,,,2,2,0.0,1.0,1.0,0.0,,0.0-141.0,,0.0,849.865,0.0,0.4803197,1.0,0.645842715,0.0,0.6421749920000001,1.0,0.443092151,True,,5f33e5bdea0471231d3fa54b,,1872598,139,,evan-feature22,full_rf_a,,0
113,28208,140,,,,2,2,1.0,0.0,1.0,0.0,,0.0-142.0,,1.0,656.8500001,1.0,0.521848997,0.0,0.735801074,1.0,0.6691348460000001,0.0,0.45259351600000003,True,,5f33e5bdea0471231d3fa54b,,1883071,140,,evan-feature22,full_rf_a,,0
114,28209,141,,,,2,2,1.0,0.0,0.0,-1.0,,0.0-143.0,,0.0,1265.03,0.0,0.49565621299999996,1.0,0.742400847,1.0,0.661512553,0.0,0.483110831,True,,5f33e5bdea0471231d3fa54b,,1894157,141,,evan-feature22,full_rf_a,,0
115,28210,142,,,,2,2,1.0,1.0,1.0,0.0,,0.0-144.0,,1.0,953.73,1.0,0.521564361,1.0,0.731078632,1.0,0.6774886809999999,1.0,0.483263956,True,,5f33e5bdea0471231d3fa54b,,1904903,142,,evan-feature22,full_rf_a,,0
116,28211,143,,,,2,2,1.0,0.0,1.0,0.0,,0.0-145.0,,1.0,1067.18,1.0,0.558893102,1.0,0.719810023,1.0,0.67461031,0.0,0.499349834,True,,5f33e5bdea0471231d3fa54b,,1915788,143,,evan-feature22,full_rf_a,,0
117,28212,144,,,,2,2,0.0,1.0,0.0,-1.0,,0.0-146.0,,-1.0,818.365,1.0,0.611031046,1.0,0.75,0.0,0.688072995,1.0,0.5321422729999999,True,,5f33e5bdea0471231d3fa54b,,1926411,144,,evan-feature22,full_rf_a,,0
118,28213,145,,,,2,2,1.0,0.0,1.0,0.0,,0.0-147.0,,1.0,698.815,1.0,0.633223941,0.0,0.713567728,1.0,0.75,0.0,0.48185314700000004,True,,5f33e5bdea0471231d3fa54b,,1936914,145,,evan-feature22,full_rf_a,,0
119,28214,146,,,,2,2,1.0,0.0,1.0,0.0,,0.0-148.0,,1.0,1836.875,1.0,0.664001694,1.0,0.705509768,1.0,0.75,0.0,0.500211065,True,,5f33e5bdea0471231d3fa54b,,1948562,146,,evan-feature22,full_rf_a,,0
120,28215,147,,,,2,2,1.0,0.0,0.0,-1.0,,0.0-149.0,,0.0,1159.89,1.0,0.664001694,1.0,0.705509768,1.0,0.75,0.0,0.500211065,True,,5f33e5bdea0471231d3fa54b,,1959527,147,,evan-feature22,full_rf_a,,0
121,28216,148,,,,2,2,1.0,1.0,0.0,-1.0,,0.0-150.0,,-1.0,1268.225,0.0,0.696508041,1.0,0.71066027,1.0,0.717028709,1.0,0.49792991,True,,5f33e5bdea0471231d3fa54b,,1970597,148,,evan-feature22,full_rf_a,,0
122,28217,149,,,,2,2,1.0,0.0,1.0,0.0,,0.0-151.0,,1.0,780.0350001,1.0,0.699883272,1.0,0.75,1.0,0.713543895,0.0,0.496962643,True,,5f33e5bdea0471231d3fa54b,,1981220,149,,evan-feature22,full_rf_a,,0
123,28218,150,,,,2,2,1.0,1.0,0.0,-1.0,,0.0-152.0,,-1.0,2217.715,1.0,0.741163419,1.0,0.75,1.0,0.64691024,1.0,0.513858197,True,,5f33e5bdea0471231d3fa54b,,1993267,150,,evan-feature22,full_rf_a,,0
124,28219,151,,,,2,2,1.0,0.0,1.0,0.0,,0.0-153.0,,1.0,1355.115,1.0,0.75,1.0,0.70816558,1.0,0.594499079,0.0,0.48502124,True,,5f33e5bdea0471231d3fa54b,,2004434,151,,evan-feature22,full_rf_a,,0
125,28220,152,,,,2,2,1.0,1.0,0.0,-1.0,,0.0-154.0,,-1.0,1329.21,1.0,0.75,1.0,0.721848901,1.0,0.62197249,1.0,0.48263586399999997,True,,5f33e5bdea0471231d3fa54b,,2015583,152,,evan-feature22,full_rf_a,,0
126,28221,153,,,,2,2,1.0,0.0,1.0,0.0,,0.0-155.0,,1.0,1280.55,1.0,0.75,0.0,0.74813071,1.0,0.584357161,0.0,0.411477782,True,,5f33e5bdea0471231d3fa54b,,2026670,153,,evan-feature22,full_rf_a,,0
127,28222,154,,,,2,2,0.0,0.0,0.0,-1.0,,0.0-156.0,,0.0,1989.88,0.0,0.75,1.0,0.75,0.0,0.52287236,0.0,0.488290656,True,,5f33e5bdea0471231d3fa54b,,2038474,154,,evan-feature22,full_rf_a,,0
128,28223,155,,,,2,2,1.0,1.0,0.0,-1.0,,0.0-157.0,,-1.0,830.2,1.0,0.75,1.0,0.75,1.0,0.544321581,1.0,0.53143059,True,,5f33e5bdea0471231d3fa54b,,2049142,155,,evan-feature22,full_rf_a,,0
129,28224,156,,,,2,2,1.0,1.0,0.0,-1.0,,0.0-158.0,,-1.0,840.935,1.0,0.726754564,1.0,0.75,1.0,0.5129306370000001,1.0,0.530592445,True,,5f33e5bdea0471231d3fa54b,,2059789,156,,evan-feature22,full_rf_a,,0
130,28225,157,,,,2,2,0.0,1.0,1.0,0.0,,0.0-159.0,,0.0,1596.88,1.0,0.75,1.0,0.7392590729999999,0.0,0.479875835,1.0,0.547007051,True,,5f33e5bdea0471231d3fa54b,,2071218,157,,evan-feature22,full_rf_a,,0
131,28226,158,,,,2,2,0.0,1.0,1.0,0.0,,0.0-160.0,,0.0,979.76,0.0,0.75,1.0,0.7393376979999999,0.0,0.546045419,1.0,0.541267353,True,,5f33e5bdea0471231d3fa54b,,2082024,158,,evan-feature22,full_rf_a,,0
132,28227,159,,,,2,2,0.0,1.0,1.0,0.0,,0.0-161.0,,0.0,651.24,1.0,0.75,1.0,0.75,0.0,0.485725895,1.0,0.527625395,True,,5f33e5bdea0471231d3fa54b,,2092500,159,,evan-feature22,full_rf_a,,0
133,28228,160,,,,1,1,1.0,1.0,0.0,-1.0,,0.0-162.0,,-1.0,1254.205,1.0,0.75,1.0,0.725087974,0.0,0.488603595,1.0,0.504019206,True,,5f33e5bdea0471231d3fa54b,,2103568,160,,evan-feature22,full_rf_a,,1
134,28229,161,,,,1,1,1.0,1.0,0.0,-1.0,,0.0-163.0,,-1.0,1223.155,1.0,0.745504295,1.0,0.75,0.0,0.452379914,1.0,0.50131194,True,,5f33e5bdea0471231d3fa54b,,2114607,161,,evan-feature22,full_rf_a,,0
135,28230,162,,,,2,2,1.0,0.0,0.0,-1.0,,0.0-164.0,,0.0,893.1400001000001,1.0,0.728513874,1.0,0.75,1.0,0.44125567200000004,0.0,0.531454591,True,,5f33e5bdea0471231d3fa54b,,2125309,162,,evan-feature22,full_rf_a,,1
136,28231,163,,,,2,2,0.0,0.0,1.0,0.0,,0.0-165.0,,0.0,1098.255,1.0,0.73790804,1.0,0.75,0.0,0.413036656,0.0,0.524619035,True,,5f33e5bdea0471231d3fa54b,,2136213,163,,evan-feature22,full_rf_a,,0
137,28232,164,,,,1,1,0.0,1.0,0.0,-1.0,,0.0-166.0,,-1.0,809.0049999,0.0,0.7080961309999999,1.0,0.708666865,1.0,0.431915581,0.0,0.481819489,True,,5f33e5bdea0471231d3fa54b,,2146829,164,,evan-feature22,full_rf_a,,1
138,28233,165,,,,2,2,0.0,0.0,0.0,-1.0,,0.0-167.0,,0.0,1924.89,0.0,0.721378003,0.0,0.71605913,0.0,0.36642387,0.0,0.5036739929999999,True,,5f33e5bdea0471231d3fa54b,,2158562,165,,evan-feature22,full_rf_a,,1
139,28234,166,,,,2,2,0.0,0.0,0.0,-1.0,,0.0-168.0,,0.0,3713.905,1.0,0.7340618959999999,1.0,0.699323252,0.0,0.35298046299999997,0.0,0.511241692,True,,5f33e5bdea0471231d3fa54b,,2172089,166,,evan-feature22,full_rf_a,,0
140,28235,167,,,,2,2,1.0,0.0,1.0,0.0,,0.0-169.0,,1.0,1379.715,0.0,0.75,1.0,0.70412698,1.0,0.380734814,0.0,0.529580116,True,,5f33e5bdea0471231d3fa54b,,2183279,167,,evan-feature22,full_rf_a,,0
141,28236,168,,,,1,1,1.0,1.0,0.0,-1.0,,0.0-170.0,,-1.0,2440.355,1.0,0.7436654909999999,1.0,0.711182751,1.0,0.41125331,0.0,0.49554405,True,,5f33e5bdea0471231d3fa54b,,2195545,168,,evan-feature22,full_rf_a,,1
142,28237,169,,,,1,1,1.0,0.0,0.0,-1.0,,0.0-171.0,,0.0,1390.13,1.0,0.731607915,0.0,0.651774583,0.0,0.35688023,0.0,0.45194491600000003,True,,5f33e5bdea0471231d3fa54b,,2206758,169,,evan-feature22,full_rf_a,,0
143,28238,170,,,,1,1,1.0,1.0,1.0,0.0,,0.0-172.0,,1.0,537.545,1.0,0.75,1.0,0.75,1.0,0.283145374,1.0,0.528608005,True,,5f33e5bdea0471231d3fa54b,,2217121,170,,evan-feature22,full_rf_a,,0
144,28239,171,,,,2,2,0.0,1.0,1.0,0.0,,0.0-173.0,,0.0,1760.505,0.0,0.7491416890000001,1.0,0.7423785959999999,0.0,0.29135870399999997,1.0,0.498888318,True,,5f33e5bdea0471231d3fa54b,,2228681,171,,evan-feature22,full_rf_a,,1
145,28240,172,,,,2,2,0.0,0.0,1.0,0.0,,0.0-174.0,,0.0,3029.16,1.0,0.708569387,1.0,0.717682277,0.0,0.294421699,0.0,0.493838163,True,,5f33e5bdea0471231d3fa54b,,2241513,172,,evan-feature22,full_rf_a,,0
146,28241,173,,,,2,2,0.0,1.0,0.0,-1.0,,0.0-175.0,,-1.0,1353.25,1.0,0.75,0.0,0.7383382159999999,0.0,0.356098707,1.0,0.442533405,True,,5f33e5bdea0471231d3fa54b,,2252685,173,,evan-feature22,full_rf_a,,0
147,28242,174,,,,2,2,0.0,1.0,0.0,-1.0,,0.0-176.0,,-1.0,1211.725,0.0,0.744527075,0.0,0.75,0.0,0.334127506,1.0,0.393165805,True,,5f33e5bdea0471231d3fa54b,,2263703,174,,evan-feature22,full_rf_a,,0
148,28243,175,,,,2,2,0.0,0.0,0.0,-1.0,,0.0-177.0,,0.0,974.4750001,0.0,0.75,1.0,0.75,0.0,0.33571021799999995,0.0,0.350393962,True,,5f33e5bdea0471231d3fa54b,,2274473,175,,evan-feature22,full_rf_a,,0
149,28244,176,,,,2,2,0.0,0.0,0.0,-1.0,,0.0-178.0,,0.0,1140.58,1.0,0.75,1.0,0.75,0.0,0.313628297,0.0,0.36349657399999996,True,,5f33e5bdea0471231d3fa54b,,2285410,176,,evan-feature22,full_rf_a,,0
150,28245,177,,,,2,2,0.0,0.0,1.0,0.0,,0.0-179.0,,0.0,889.6549997999999,1.0,0.75,0.0,0.734284182,0.0,0.262667667,0.0,0.380199119,True,,5f33e5bdea0471231d3fa54b,,2296105,177,,evan-feature22,full_rf_a,,0
151,28246,178,,,,SLOW,SLOW,,,0.0,-1.0,,0.0-180.0,,-3.0,,0.0,0.75,1.0,0.75,0.0,0.25,0.0,0.394494013,True,,5f33e5bdea0471231d3fa54b,,2301939,178,,evan-feature22,full_rf_a,,1
152,28247,179,,,,2,2,0.0,0.0,1.0,0.0,,0.0-181.0,,0.0,899.8150001,1.0,0.722298145,1.0,0.7357822340000001,0.0,0.25,0.0,0.319142121,True,,5f33e5bdea0471231d3fa54b,,2312641,179,,evan-feature22,full_rf_a,,1
153,28248,180,,,,2,2,0.0,0.0,1.0,0.0,,0.0-182.0,,0.0,885.1700001,1.0,0.73149275,1.0,0.724276446,0.0,0.305856907,0.0,0.281315057,True,,5f33e5bdea0471231d3fa54b,,2323326,180,,evan-feature22,full_rf_a,,0
154,28249,181,,,,2,2,1.0,1.0,0.0,-1.0,,0.0-183.0,,-1.0,1372.695,1.0,0.7458732690000001,0.0,0.7336382459999999,1.0,0.272571964,1.0,0.266021999,True,,5f33e5bdea0471231d3fa54b,,2334505,181,,evan-feature22,full_rf_a,,0
155,28250,182,,,,2,2,0.0,1.0,0.0,-1.0,,0.0-184.0,,-1.0,1678.56,0.0,0.705579037,1.0,0.720778292,0.0,0.320238144,1.0,0.30971744,True,,5f33e5bdea0471231d3fa54b,,2346007,182,,evan-feature22,full_rf_a,,0
156,28251,183,,,,2,2,0.0,1.0,0.0,-1.0,,0.0-185.0,,-1.0,2262.945,0.0,0.700425648,1.0,0.7198784009999999,0.0,0.272590393,1.0,0.304182931,True,,5f33e5bdea0471231d3fa54b,,2358078,183,,evan-feature22,full_rf_a,,0
157,28252,184,,,,2,2,0.0,1.0,0.0,-1.0,,0.0-186.0,,-1.0,933.615,0.0,0.735590785,1.0,0.722714973,0.0,0.25,1.0,0.323421091,True,,5f33e5bdea0471231d3fa54b,,2368804,184,,evan-feature22,full_rf_a,,0
158,28253,185,,,,2,2,0.0,0.0,0.0,-1.0,,0.0-187.0,,0.0,1764.62,1.0,0.724807662,1.0,0.63146213,0.0,0.36836492600000004,0.0,0.34592153299999995,True,,5f33e5bdea0471231d3fa54b,,2380384,185,,evan-feature22,full_rf_a,,0
159,28254,186,,,,2,2,0.0,0.0,0.0,-1.0,,0.0-188.0,,0.0,1382.36,0.0,0.7352796909999999,0.0,0.555111392,0.0,0.36003922,0.0,0.31433779999999995,True,,5f33e5bdea0471231d3fa54b,,2391571,186,,evan-feature22,full_rf_a,,0
160,28255,187,notice,,,,,,,,,,0.0-189.0,"{""Q0"":""I felt like the second half was more predictable ""}",,64503.0,,,,,,,,,True,,5f33e5bdea0471231d3fa54b,,2456074,187,Q,survey-text,full_rf_a,,1
161,28256,188,track1,,[0],,,,,,,,0.0-190.0,"{""Q0"":""yes""}",,4507.0,,,,,,,,,True,,5f33e5bdea0471231d3fa54b,,2460585,188,Q,evan-quiz,full_rf_a,,1
162,28257,189,track2,,[2],,,,,,,,0.0-191.0,"{""Q0"":""N/A""}",,9014.0,,,,,,,,,True,,5f33e5bdea0471231d3fa54b,,2469602,189,Q,evan-quiz,full_rf_a,,1
163,28258,190,strat,,,,,,,,,,0.0-192.0,"{""Q0"":""I thought the black mineral was on the left more, and the yellow mineral was on the right more.""}",,41707.0,,,,,,,,,True,,5f33e5bdea0471231d3fa54b,,2511311,190,Q,survey-text,full_rf_a,,1
