,index,Unnamed: 0,Q_name,button_pressed,choice_idxs,chosen_pos,chosen_state,chosen_state_f_1_outcome,chosen_state_f_2_outcome,f_1_reward,f_2_reward,incor_questions,internal_node_id,responses,reward_received,rt,s_1_f_1_outcome,s_1_f_1_prob,s_1_f_2_outcome,s_1_f_2_prob,s_2_f_1_outcome,s_2_f_1_prob,s_2_f_2_outcome,s_2_f_2_prob,safe_first,stimulus,subjectID,success,time_elapsed,trial_index,trial_num,trial_type,version,view_history,switching
0,12059,25,,,,1,1,0.0,1.0,0.0,1.0,,0.0-27.0,,1.0,1721.0,0.0,0.6,1.0,0.6,0.0,0.4,0.0,0.4,True,,5c6d0da2d5221b000101da81,,588298,25,,evan-feature22,full_rf_b,,0
1,12060,26,,,,2,2,0.0,0.0,0.0,1.0,,0.0-28.0,,0.0,1352.0,1.0,0.608053294,1.0,0.63424552,0.0,0.397152172,0.0,0.347069101,True,,5c6d0da2d5221b000101da81,,599413,26,,evan-feature22,full_rf_b,,1
2,12061,27,,,,1,1,0.0,1.0,0.0,1.0,,0.0-29.0,,1.0,1116.0,0.0,0.642237155,1.0,0.648566321,0.0,0.389407674,0.0,0.285525717,True,,5c6d0da2d5221b000101da81,,610292,27,,evan-feature22,full_rf_b,,1
3,12062,28,,,,1,1,0.0,1.0,0.0,1.0,,0.0-30.0,,1.0,1173.0,0.0,0.661086576,1.0,0.630492543,0.0,0.399058924,1.0,0.25,True,,5c6d0da2d5221b000101da81,,621227,28,,evan-feature22,full_rf_b,,0
4,12063,29,,,,1,1,1.0,1.0,0.0,1.0,,0.0-31.0,,1.0,1264.0,1.0,0.631324137,1.0,0.6269842929999999,0.0,0.38734784299999997,0.0,0.25,True,,5c6d0da2d5221b000101da81,,632253,29,,evan-feature22,full_rf_b,,0
5,12064,30,,,,2,2,0.0,0.0,0.0,1.0,,0.0-32.0,,0.0,1196.0,1.0,0.6381991370000001,0.0,0.68987999,0.0,0.384107265,0.0,0.271332943,True,,5c6d0da2d5221b000101da81,,643210,30,,evan-feature22,full_rf_b,,1
6,12065,31,,,,1,1,1.0,1.0,0.0,1.0,,0.0-33.0,,1.0,825.0,1.0,0.66034901,1.0,0.742641349,1.0,0.360225629,0.0,0.25,True,,5c6d0da2d5221b000101da81,,653797,31,,evan-feature22,full_rf_b,,1
7,12066,32,,,,2,2,1.0,0.0,-1.0,0.0,,0.0-34.0,,-1.0,757.0,1.0,0.638612418,1.0,0.75,1.0,0.367273939,0.0,0.25,True,,5c6d0da2d5221b000101da81,,664316,32,,evan-feature22,full_rf_b,,1
8,12067,33,,,,1,1,0.0,0.0,0.0,1.0,,0.0-35.0,,0.0,1139.0,0.0,0.624340629,0.0,0.75,1.0,0.425829545,0.0,0.25,True,,5c6d0da2d5221b000101da81,,675217,33,,evan-feature22,full_rf_b,,1
9,12068,34,,,,1,1,1.0,1.0,0.0,1.0,,0.0-36.0,,1.0,497.0,1.0,0.621999804,1.0,0.75,0.0,0.368609357,0.0,0.25,True,,5c6d0da2d5221b000101da81,,685475,34,,evan-feature22,full_rf_b,,0
10,12069,35,,,,2,2,0.0,0.0,-1.0,0.0,,0.0-37.0,,0.0,1614.0,0.0,0.62666403,1.0,0.75,0.0,0.311151498,0.0,0.25,True,,5c6d0da2d5221b000101da81,,696850,35,,evan-feature22,full_rf_b,,1
11,12070,36,,,,1,1,1.0,0.0,-1.0,0.0,,0.0-38.0,,-1.0,1029.0,1.0,0.6819650009999999,0.0,0.75,1.0,0.310763048,0.0,0.25,True,,5c6d0da2d5221b000101da81,,707640,36,,evan-feature22,full_rf_b,,1
12,12071,37,,,,1,1,0.0,1.0,0.0,1.0,,0.0-39.0,,1.0,814.0,0.0,0.740626951,1.0,0.75,0.0,0.25,1.0,0.25,True,,5c6d0da2d5221b000101da81,,718214,37,,evan-feature22,full_rf_b,,0
13,12072,38,,,,1,1,1.0,1.0,0.0,1.0,,0.0-40.0,,1.0,668.0,1.0,0.739599242,1.0,0.742034978,1.0,0.25397114600000004,0.0,0.25,True,,5c6d0da2d5221b000101da81,,728644,38,,evan-feature22,full_rf_b,,0
14,12073,39,,,,1,1,0.0,1.0,0.0,1.0,,0.0-41.0,,1.0,936.0,0.0,0.732341315,1.0,0.72735643,0.0,0.25,0.0,0.25,True,,5c6d0da2d5221b000101da81,,739342,39,,evan-feature22,full_rf_b,,0
15,12074,40,,,,1,1,1.0,1.0,0.0,1.0,,0.0-42.0,,1.0,497.0,1.0,0.7062287770000001,1.0,0.75,1.0,0.29002151,0.0,0.288256649,True,,5c6d0da2d5221b000101da81,,749603,40,,evan-feature22,full_rf_b,,0
16,12075,41,,,,1,1,1.0,1.0,-1.0,0.0,,0.0-43.0,,-1.0,453.0,1.0,0.7086029209999999,1.0,0.75,0.0,0.274129113,0.0,0.262851608,True,,5c6d0da2d5221b000101da81,,759817,41,,evan-feature22,full_rf_b,,0
17,12076,42,,,,1,1,1.0,1.0,0.0,1.0,,0.0-44.0,,1.0,1534.0,1.0,0.669189651,1.0,0.727614338,1.0,0.298444036,1.0,0.296944518,True,,5c6d0da2d5221b000101da81,,771112,42,,evan-feature22,full_rf_b,,0
18,12077,43,,,,1,1,0.0,0.0,-1.0,0.0,,0.0-45.0,,0.0,443.0,0.0,0.6819912929999999,0.0,0.7179434290000001,1.0,0.265003961,0.0,0.28157921199999997,True,,5c6d0da2d5221b000101da81,,781317,43,,evan-feature22,full_rf_b,,0
19,12078,44,,,,1,1,1.0,1.0,-1.0,0.0,,0.0-46.0,,-1.0,351.0,1.0,0.665275002,1.0,0.723065271,0.0,0.260414971,1.0,0.30973870000000003,True,,5c6d0da2d5221b000101da81,,791431,44,,evan-feature22,full_rf_b,,0
20,12079,45,,,,1,1,1.0,1.0,0.0,1.0,,0.0-47.0,,1.0,1252.0,1.0,0.6660593260000001,1.0,0.728032907,0.0,0.30922817,0.0,0.338778608,True,,5c6d0da2d5221b000101da81,,802444,45,,evan-feature22,full_rf_b,,0
21,12080,46,,,,1,1,1.0,1.0,0.0,1.0,,0.0-48.0,,1.0,813.0,1.0,0.702068785,1.0,0.6528750879999999,0.0,0.287329608,0.0,0.35789613200000003,True,,5c6d0da2d5221b000101da81,,813020,46,,evan-feature22,full_rf_b,,0
22,12081,47,,,,1,1,0.0,1.0,0.0,1.0,,0.0-49.0,,1.0,1204.0,0.0,0.651939787,1.0,0.636725589,1.0,0.284834488,1.0,0.358563756,True,,5c6d0da2d5221b000101da81,,823989,47,,evan-feature22,full_rf_b,,0
23,12082,48,,,,1,1,0.0,1.0,0.0,1.0,,0.0-50.0,,1.0,510.0,0.0,0.67573929,1.0,0.612550049,0.0,0.37130387600000003,0.0,0.383542402,True,,5c6d0da2d5221b000101da81,,834260,48,,evan-feature22,full_rf_b,,0
24,12083,49,,,,1,1,1.0,1.0,0.0,1.0,,0.0-51.0,,1.0,790.0,1.0,0.620753801,1.0,0.60513644,0.0,0.385529434,0.0,0.340361743,True,,5c6d0da2d5221b000101da81,,844812,49,,evan-feature22,full_rf_b,,0
25,12084,50,,,,1,1,1.0,1.0,-1.0,0.0,,0.0-52.0,,-1.0,533.0,1.0,0.673564893,1.0,0.672437924,0.0,0.292955382,1.0,0.337633795,True,,5c6d0da2d5221b000101da81,,855106,50,,evan-feature22,full_rf_b,,0
26,12085,51,,,,1,1,1.0,1.0,0.0,1.0,,0.0-53.0,,1.0,1421.0,1.0,0.6749427,1.0,0.724197502,1.0,0.32391132100000003,0.0,0.350995264,True,,5c6d0da2d5221b000101da81,,866290,51,,evan-feature22,full_rf_b,,0
27,12086,52,,,,1,1,0.0,1.0,0.0,1.0,,0.0-54.0,,1.0,1218.0,0.0,0.6940159379999999,1.0,0.75,0.0,0.31710554399999996,1.0,0.413450341,True,,5c6d0da2d5221b000101da81,,877269,52,,evan-feature22,full_rf_b,,0
28,12087,53,,,,1,1,1.0,1.0,0.0,1.0,,0.0-55.0,,1.0,1162.0,1.0,0.6916018270000001,1.0,0.69001187,1.0,0.261817804,1.0,0.40038635,True,,5c6d0da2d5221b000101da81,,888193,53,,evan-feature22,full_rf_b,,0
29,12088,54,,,,1,1,1.0,0.0,0.0,1.0,,0.0-56.0,,0.0,644.0,1.0,0.641061544,0.0,0.71337992,0.0,0.277296461,1.0,0.47372791700000005,True,,5c6d0da2d5221b000101da81,,898598,54,,evan-feature22,full_rf_b,,0
30,12089,55,,,,2,2,0.0,1.0,0.0,1.0,,0.0-57.0,,1.0,983.0,0.0,0.6082438520000001,0.0,0.708471106,0.0,0.28745137,1.0,0.564174476,True,,5c6d0da2d5221b000101da81,,909344,55,,evan-feature22,full_rf_b,,1
31,12090,56,,,,1,1,0.0,0.0,-1.0,0.0,,0.0-58.0,,0.0,1477.0,0.0,0.6051112120000001,0.0,0.7118147229999999,1.0,0.272390611,1.0,0.5595149939999999,True,,5c6d0da2d5221b000101da81,,920583,56,,evan-feature22,full_rf_b,,1
32,12091,57,,,,1,1,1.0,1.0,-1.0,0.0,,0.0-59.0,,-1.0,1454.0,1.0,0.582420852,1.0,0.635867583,1.0,0.31089574,0.0,0.5227206520000001,True,,5c6d0da2d5221b000101da81,,931801,57,,evan-feature22,full_rf_b,,0
33,12092,58,,,,2,2,1.0,0.0,-1.0,0.0,,0.0-60.0,,-1.0,1487.0,0.0,0.623195575,1.0,0.655026044,1.0,0.25,0.0,0.560387538,True,,5c6d0da2d5221b000101da81,,943050,58,,evan-feature22,full_rf_b,,1
34,12093,59,,,,1,1,1.0,1.0,0.0,1.0,,0.0-61.0,,1.0,1364.0,1.0,0.601889598,1.0,0.678198724,0.0,0.25,1.0,0.559922936,True,,5c6d0da2d5221b000101da81,,954176,59,,evan-feature22,full_rf_b,,1
35,12094,60,,,,1,1,0.0,0.0,-1.0,0.0,,0.0-62.0,,0.0,610.0,0.0,0.601259914,0.0,0.704681482,0.0,0.33908969299999997,1.0,0.505003715,True,,5c6d0da2d5221b000101da81,,964548,60,,evan-feature22,full_rf_b,,0
36,12095,61,,,,2,2,1.0,0.0,-1.0,0.0,,0.0-63.0,,-1.0,1589.0,1.0,0.59645454,0.0,0.710437172,1.0,0.327441879,0.0,0.391749613,True,,5c6d0da2d5221b000101da81,,975899,61,,evan-feature22,full_rf_b,,1
37,12096,62,,,,1,1,0.0,0.0,0.0,1.0,,0.0-64.0,,0.0,1332.0,0.0,0.529473,0.0,0.636758527,0.0,0.301338063,0.0,0.365661481,True,,5c6d0da2d5221b000101da81,,986992,62,,evan-feature22,full_rf_b,,1
38,12097,63,,,,1,1,1.0,1.0,-1.0,0.0,,0.0-65.0,,-1.0,566.0,1.0,0.541657162,1.0,0.634541962,0.0,0.343535366,1.0,0.371763742,True,,5c6d0da2d5221b000101da81,,997320,63,,evan-feature22,full_rf_b,,0
39,12098,64,,,,2,2,1.0,0.0,-1.0,0.0,,0.0-66.0,,-1.0,644.0,1.0,0.5707533260000001,1.0,0.589121171,1.0,0.326428396,0.0,0.43961622899999997,True,,5c6d0da2d5221b000101da81,,1007725,64,,evan-feature22,full_rf_b,,1
40,12099,65,,,,2,2,0.0,1.0,0.0,1.0,,0.0-67.0,,1.0,983.0,0.0,0.5707533260000001,1.0,0.589121171,0.0,0.326428396,1.0,0.43961622899999997,True,,5c6d0da2d5221b000101da81,,1018468,65,,evan-feature22,full_rf_b,,0
41,12100,66,,,,2,2,1.0,0.0,0.0,1.0,,0.0-68.0,,0.0,915.0,1.0,0.506271295,1.0,0.641775594,1.0,0.37149690700000004,0.0,0.404330166,True,,5c6d0da2d5221b000101da81,,1029147,66,,evan-feature22,full_rf_b,,0
42,12101,67,,,,2,2,0.0,0.0,-1.0,0.0,,0.0-69.0,,0.0,1207.0,1.0,0.455642565,1.0,0.623605825,0.0,0.358753011,0.0,0.346174041,True,,5c6d0da2d5221b000101da81,,1040116,67,,evan-feature22,full_rf_b,,0
43,12102,68,,,,1,1,0.0,0.0,0.0,1.0,,0.0-70.0,,0.0,1544.0,0.0,0.483677308,0.0,0.5904681070000001,1.0,0.402218411,0.0,0.35344697,True,,5c6d0da2d5221b000101da81,,1051421,68,,evan-feature22,full_rf_b,,1
44,12103,69,,,,2,2,0.0,0.0,-1.0,0.0,,0.0-71.0,,0.0,1400.0,1.0,0.394210977,1.0,0.558925494,0.0,0.540052017,0.0,0.35182128700000004,True,,5c6d0da2d5221b000101da81,,1062582,69,,evan-feature22,full_rf_b,,1
45,12104,70,,,,1,1,0.0,1.0,0.0,1.0,,0.0-72.0,,1.0,983.0,0.0,0.382300414,1.0,0.577670603,0.0,0.607608448,0.0,0.378261578,True,,5c6d0da2d5221b000101da81,,1073327,70,,evan-feature22,full_rf_b,,1
46,12105,71,,,,2,2,1.0,0.0,-1.0,0.0,,0.0-73.0,,-1.0,1937.0,1.0,0.357596762,0.0,0.5929076529999999,1.0,0.6579790010000001,0.0,0.401326777,True,,5c6d0da2d5221b000101da81,,1085026,71,,evan-feature22,full_rf_b,,1
47,12106,72,,,,1,1,0.0,1.0,0.0,1.0,,0.0-74.0,,1.0,1533.0,0.0,0.362033495,1.0,0.582308608,1.0,0.649195052,0.0,0.355158505,True,,5c6d0da2d5221b000101da81,,1096322,72,,evan-feature22,full_rf_b,,1
48,12107,73,,,,1,1,1.0,1.0,0.0,1.0,,0.0-75.0,,1.0,959.0,1.0,0.369620635,1.0,0.669100864,1.0,0.706059111,1.0,0.362516241,True,,5c6d0da2d5221b000101da81,,1107044,73,,evan-feature22,full_rf_b,,0
49,12108,74,,,,1,1,0.0,1.0,0.0,1.0,,0.0-76.0,,1.0,1116.0,0.0,0.41477751399999996,1.0,0.7284416779999999,1.0,0.7182656940000001,1.0,0.36228040899999997,True,,5c6d0da2d5221b000101da81,,1117920,74,,evan-feature22,full_rf_b,,0
50,12109,75,,,,2,2,1.0,0.0,-1.0,0.0,,0.0-77.0,,-1.0,1557.0,0.0,0.37675460299999997,1.0,0.703250285,1.0,0.75,0.0,0.461979164,True,,5c6d0da2d5221b000101da81,,1129240,75,,evan-feature22,full_rf_b,,1
51,12110,76,,,,2,2,1.0,0.0,-1.0,0.0,,0.0-78.0,,-1.0,2095.0,0.0,0.398716075,1.0,0.6723864890000001,1.0,0.674153818,0.0,0.519029516,True,,5c6d0da2d5221b000101da81,,1141096,76,,evan-feature22,full_rf_b,,0
52,12111,77,,,,1,1,1.0,1.0,-1.0,0.0,,0.0-79.0,,-1.0,1118.0,1.0,0.34677856700000004,1.0,0.69057175,0.0,0.6822438540000001,0.0,0.477292237,True,,5c6d0da2d5221b000101da81,,1151975,77,,evan-feature22,full_rf_b,,1
53,12112,78,,,,1,1,0.0,0.0,0.0,1.0,,0.0-80.0,,0.0,859.0,0.0,0.28580469199999997,0.0,0.68408818,0.0,0.684207565,0.0,0.49780448299999996,True,,5c6d0da2d5221b000101da81,,1162597,78,,evan-feature22,full_rf_b,,0
54,12114,80,,,,1,1,0.0,1.0,0.0,1.0,,0.0-82.0,,1.0,2214.0,0.0,0.25,1.0,0.7405808970000001,0.0,0.679614108,1.0,0.436436964,True,,5c6d0da2d5221b000101da81,,1178470,80,,evan-feature22,full_rf_b,,0
55,12115,81,,,,1,1,1.0,1.0,0.0,1.0,,0.0-83.0,,1.0,1072.0,1.0,0.29890393,1.0,0.730505706,1.0,0.7328203320000001,0.0,0.439256938,True,,5c6d0da2d5221b000101da81,,1189303,81,,evan-feature22,full_rf_b,,0
56,12116,82,,,,2,2,1.0,0.0,-1.0,0.0,,0.0-84.0,,-1.0,1019.0,0.0,0.326762398,0.0,0.7148059609999999,1.0,0.75,0.0,0.44389608799999997,True,,5c6d0da2d5221b000101da81,,1200082,82,,evan-feature22,full_rf_b,,1
57,12117,83,,,,1,1,1.0,0.0,0.0,1.0,,0.0-85.0,,0.0,745.0,1.0,0.295168515,0.0,0.739760854,1.0,0.719947008,0.0,0.35277284600000003,True,,5c6d0da2d5221b000101da81,,1210588,83,,evan-feature22,full_rf_b,,1
58,12118,84,,,,1,1,0.0,1.0,0.0,1.0,,0.0-86.0,,1.0,600.0,0.0,0.25,1.0,0.70781482,1.0,0.75,0.0,0.286095925,True,,5c6d0da2d5221b000101da81,,1220951,84,,evan-feature22,full_rf_b,,0
59,12119,85,,,,1,1,0.0,1.0,0.0,1.0,,0.0-87.0,,1.0,1083.0,0.0,0.25638190899999996,1.0,0.704088163,1.0,0.75,1.0,0.26872601399999996,True,,5c6d0da2d5221b000101da81,,1231796,85,,evan-feature22,full_rf_b,,0
60,12120,86,,,,1,1,0.0,1.0,-1.0,0.0,,0.0-88.0,,0.0,1814.0,0.0,0.271581126,1.0,0.669760107,1.0,0.733896663,1.0,0.273244572,True,,5c6d0da2d5221b000101da81,,1243371,86,,evan-feature22,full_rf_b,,0
61,12121,87,,,,1,1,1.0,1.0,0.0,1.0,,0.0-89.0,,1.0,1421.0,1.0,0.257144401,1.0,0.600575706,1.0,0.74488122,0.0,0.25,True,,5c6d0da2d5221b000101da81,,1254554,87,,evan-feature22,full_rf_b,,0
62,12122,88,,,,1,1,0.0,0.0,0.0,1.0,,0.0-90.0,,0.0,893.0,0.0,0.25,0.0,0.616870026,1.0,0.723610234,1.0,0.25,True,,5c6d0da2d5221b000101da81,,1265209,88,,evan-feature22,full_rf_b,,0
63,12123,89,,,,1,1,1.0,1.0,-1.0,0.0,,0.0-91.0,,-1.0,1578.0,1.0,0.25,1.0,0.583540187,1.0,0.7041042559999999,1.0,0.285961995,True,,5c6d0da2d5221b000101da81,,1276549,89,,evan-feature22,full_rf_b,,0
64,12124,90,,,,2,2,1.0,0.0,-1.0,0.0,,0.0-92.0,,-1.0,1409.0,0.0,0.27254536,0.0,0.53875765,1.0,0.693783448,0.0,0.284961652,True,,5c6d0da2d5221b000101da81,,1287720,90,,evan-feature22,full_rf_b,,1
65,12125,91,,,,2,2,1.0,0.0,-1.0,0.0,,0.0-93.0,,-1.0,1298.0,0.0,0.25,0.0,0.548431252,1.0,0.734221895,0.0,0.279445214,True,,5c6d0da2d5221b000101da81,,1298779,91,,evan-feature22,full_rf_b,,0
66,12126,92,,,,1,1,0.0,0.0,0.0,1.0,,0.0-94.0,,0.0,1410.0,0.0,0.258640684,0.0,0.545878066,1.0,0.725245965,0.0,0.31487537,True,,5c6d0da2d5221b000101da81,,1309950,92,,evan-feature22,full_rf_b,,1
67,12127,93,,,,1,1,1.0,0.0,0.0,1.0,,0.0-95.0,,0.0,1231.0,1.0,0.251103711,0.0,0.5776290629999999,1.0,0.696320133,0.0,0.317831047,True,,5c6d0da2d5221b000101da81,,1320942,93,,evan-feature22,full_rf_b,,0
68,12128,94,,,,1,1,0.0,1.0,0.0,1.0,,0.0-96.0,,1.0,634.0,0.0,0.276630292,1.0,0.617329858,1.0,0.73838088,1.0,0.261471582,True,,5c6d0da2d5221b000101da81,,1331336,94,,evan-feature22,full_rf_b,,0
69,12129,95,,,,1,1,0.0,0.0,0.0,1.0,,0.0-97.0,,0.0,1265.0,0.0,0.297716424,0.0,0.618863717,0.0,0.7402358259999999,0.0,0.262600834,True,,5c6d0da2d5221b000101da81,,1342362,95,,evan-feature22,full_rf_b,,0
70,12130,96,,,,2,2,0.0,0.0,-1.0,0.0,,0.0-98.0,,0.0,1544.0,1.0,0.290935512,1.0,0.695370945,0.0,0.706570507,0.0,0.280030553,True,,5c6d0da2d5221b000101da81,,1353668,96,,evan-feature22,full_rf_b,,1
71,12131,97,,,,1,1,0.0,1.0,0.0,1.0,,0.0-99.0,,1.0,994.0,0.0,0.25,1.0,0.6465277079999999,0.0,0.67766682,1.0,0.25,True,,5c6d0da2d5221b000101da81,,1364427,97,,evan-feature22,full_rf_b,,1
72,12132,98,,,,2,2,1.0,0.0,-1.0,0.0,,0.0-100.0,,-1.0,1642.0,0.0,0.26463816,1.0,0.636100213,1.0,0.646048507,0.0,0.265607101,True,,5c6d0da2d5221b000101da81,,1375832,98,,evan-feature22,full_rf_b,,1
73,12133,99,,,,1,1,0.0,0.0,-1.0,0.0,,0.0-101.0,,0.0,1375.0,0.0,0.314340707,0.0,0.667795927,0.0,0.613630805,0.0,0.25,True,,5c6d0da2d5221b000101da81,,1386969,99,,evan-feature22,full_rf_b,,1
74,12134,100,,,,1,1,0.0,1.0,0.0,1.0,,0.0-102.0,,1.0,521.0,0.0,0.28685784,1.0,0.6622549529999999,1.0,0.652154117,0.0,0.25,True,,5c6d0da2d5221b000101da81,,1397251,100,,evan-feature22,full_rf_b,,0
75,12135,101,,,,1,1,1.0,1.0,0.0,1.0,,0.0-103.0,,1.0,1051.0,1.0,0.304106554,1.0,0.631289538,1.0,0.707041942,0.0,0.29314237,True,,5c6d0da2d5221b000101da81,,1408062,101,,evan-feature22,full_rf_b,,0
76,12136,102,,,,1,1,0.0,0.0,0.0,1.0,,0.0-104.0,,0.0,826.0,0.0,0.304806932,0.0,0.571167718,1.0,0.680472346,0.0,0.25,True,,5c6d0da2d5221b000101da81,,1418650,102,,evan-feature22,full_rf_b,,0
77,12137,103,,,,1,1,1.0,1.0,0.0,1.0,,0.0-105.0,,1.0,700.0,1.0,0.37919861,1.0,0.5724849710000001,1.0,0.705638003,0.0,0.30179300600000003,True,,5c6d0da2d5221b000101da81,,1429112,103,,evan-feature22,full_rf_b,,0
78,12138,104,,,,1,1,0.0,1.0,0.0,1.0,,0.0-106.0,,1.0,622.0,0.0,0.464277969,1.0,0.554034373,0.0,0.7372627340000001,0.0,0.264699741,True,,5c6d0da2d5221b000101da81,,1439496,104,,evan-feature22,full_rf_b,,0
79,12139,105,,,,1,1,1.0,0.0,0.0,1.0,,0.0-107.0,,0.0,970.0,1.0,0.465104323,0.0,0.530793115,0.0,0.75,0.0,0.31683071,True,,5c6d0da2d5221b000101da81,,1450229,105,,evan-feature22,full_rf_b,,0
80,12140,106,,,,1,1,0.0,0.0,-1.0,0.0,,0.0-108.0,,0.0,1982.0,0.0,0.465104323,0.0,0.530793115,1.0,0.75,0.0,0.31683071,True,,5c6d0da2d5221b000101da81,,1461974,106,,evan-feature22,full_rf_b,,0
81,12141,107,,,,1,1,0.0,1.0,-1.0,0.0,,0.0-109.0,,0.0,1331.0,0.0,0.46833986,1.0,0.570249239,1.0,0.7244472590000001,0.0,0.364114163,True,,5c6d0da2d5221b000101da81,,1473069,107,,evan-feature22,full_rf_b,,0
82,12142,108,,,,1,1,0.0,0.0,-1.0,0.0,,0.0-110.0,,0.0,1228.0,0.0,0.445444024,0.0,0.649673355,1.0,0.6845441290000001,0.0,0.300660449,True,,5c6d0da2d5221b000101da81,,1484058,108,,evan-feature22,full_rf_b,,0
83,12143,109,,,,1,1,0.0,0.0,-1.0,0.0,,0.0-111.0,,0.0,1309.0,0.0,0.39909721299999995,0.0,0.6715179509999999,1.0,0.742310028,1.0,0.35496088299999995,True,,5c6d0da2d5221b000101da81,,1495128,109,,evan-feature22,full_rf_b,,0
84,12144,110,,,,1,1,0.0,0.0,0.0,1.0,,0.0-112.0,,0.0,1095.0,0.0,0.37956104799999996,0.0,0.694725302,1.0,0.7181651309999999,0.0,0.38726906299999997,True,,5c6d0da2d5221b000101da81,,1505984,110,,evan-feature22,full_rf_b,,0
85,12145,111,,,,1,1,1.0,0.0,0.0,1.0,,0.0-113.0,,0.0,1028.0,1.0,0.404995034,0.0,0.724375412,1.0,0.6910946859999999,0.0,0.387187347,True,,5c6d0da2d5221b000101da81,,1516774,111,,evan-feature22,full_rf_b,,0
86,12146,112,,,,1,1,1.0,1.0,-1.0,0.0,,0.0-114.0,,-1.0,1308.0,1.0,0.461740803,1.0,0.75,0.0,0.75,0.0,0.34872038200000005,True,,5c6d0da2d5221b000101da81,,1527844,112,,evan-feature22,full_rf_b,,0
87,12147,113,,,,2,2,1.0,0.0,-1.0,0.0,,0.0-115.0,,-1.0,803.0,0.0,0.43821380600000004,1.0,0.738833273,1.0,0.728286963,0.0,0.399538128,True,,5c6d0da2d5221b000101da81,,1538408,113,,evan-feature22,full_rf_b,,1
88,12148,114,,,,1,1,0.0,1.0,0.0,1.0,,0.0-116.0,,1.0,1117.0,0.0,0.41709882,1.0,0.736666736,1.0,0.75,0.0,0.389095584,True,,5c6d0da2d5221b000101da81,,1549287,114,,evan-feature22,full_rf_b,,1
89,12149,115,,,,1,1,1.0,0.0,0.0,1.0,,0.0-117.0,,0.0,633.0,1.0,0.39749009799999996,0.0,0.744320029,1.0,0.75,1.0,0.363848678,True,,5c6d0da2d5221b000101da81,,1559681,115,,evan-feature22,full_rf_b,,0
90,12150,116,,,,2,2,1.0,1.0,-1.0,0.0,,0.0-118.0,,-1.0,994.0,0.0,0.392653706,0.0,0.75,1.0,0.75,1.0,0.384386976,True,,5c6d0da2d5221b000101da81,,1570437,116,,evan-feature22,full_rf_b,,1
91,12151,117,,,,1,1,1.0,1.0,0.0,1.0,,0.0-119.0,,1.0,689.0,1.0,0.31190902600000003,1.0,0.75,1.0,0.732413819,0.0,0.413082932,True,,5c6d0da2d5221b000101da81,,1580889,117,,evan-feature22,full_rf_b,,1
92,12152,118,,,,1,1,0.0,1.0,-1.0,0.0,,0.0-120.0,,0.0,690.0,0.0,0.366917648,1.0,0.740073855,1.0,0.75,1.0,0.352861979,True,,5c6d0da2d5221b000101da81,,1591339,118,,evan-feature22,full_rf_b,,0
93,12153,119,,,,1,1,0.0,1.0,-1.0,0.0,,0.0-121.0,,0.0,1376.0,0.0,0.3645172,1.0,0.721770713,1.0,0.75,0.0,0.404074511,True,,5c6d0da2d5221b000101da81,,1602478,119,,evan-feature22,full_rf_b,,0
94,12154,120,,,,1,1,0.0,1.0,-1.0,0.0,,0.0-122.0,,0.0,1342.0,0.0,0.35205600299999995,1.0,0.68983859,0.0,0.739735447,0.0,0.366895945,True,,5c6d0da2d5221b000101da81,,1613581,120,,evan-feature22,full_rf_b,,0
95,12155,121,,,,1,1,0.0,1.0,-1.0,0.0,,0.0-123.0,,0.0,938.0,0.0,0.40998722600000004,1.0,0.720859127,0.0,0.673854955,0.0,0.368528541,True,,5c6d0da2d5221b000101da81,,1624281,121,,evan-feature22,full_rf_b,,0
96,12156,122,,,,1,1,0.0,1.0,-1.0,0.0,,0.0-124.0,,0.0,1285.0,0.0,0.353625316,1.0,0.75,1.0,0.695605473,1.0,0.38303674200000004,True,,5c6d0da2d5221b000101da81,,1635328,122,,evan-feature22,full_rf_b,,0
97,12157,123,,,,1,1,1.0,1.0,-1.0,0.0,,0.0-125.0,,-1.0,1038.0,1.0,0.359216989,1.0,0.75,1.0,0.6987915090000001,0.0,0.35169046200000004,True,,5c6d0da2d5221b000101da81,,1646127,123,,evan-feature22,full_rf_b,,0
98,12158,124,,,,1,1,0.0,0.0,-1.0,0.0,,0.0-126.0,,0.0,1358.0,0.0,0.35834496899999996,0.0,0.75,1.0,0.707067742,1.0,0.416763636,True,,5c6d0da2d5221b000101da81,,1657246,124,,evan-feature22,full_rf_b,,0
99,12159,125,,,,1,1,0.0,0.0,0.0,1.0,,0.0-127.0,,0.0,620.0,0.0,0.38741613799999997,0.0,0.7177369570000001,1.0,0.734902455,1.0,0.49438664299999996,True,,5c6d0da2d5221b000101da81,,1667626,125,,evan-feature22,full_rf_b,,0
100,12160,126,,,,1,1,1.0,1.0,-1.0,0.0,,0.0-128.0,,-1.0,770.0,1.0,0.405255252,1.0,0.7300466640000001,0.0,0.7027748070000001,1.0,0.504359668,True,,5c6d0da2d5221b000101da81,,1678157,126,,evan-feature22,full_rf_b,,0
101,12161,127,,,,1,1,0.0,1.0,-1.0,0.0,,0.0-129.0,,0.0,848.0,0.0,0.40697073,1.0,0.7260142190000001,0.0,0.724461982,0.0,0.522779179,True,,5c6d0da2d5221b000101da81,,1688766,127,,evan-feature22,full_rf_b,,0
102,12162,128,,,,1,1,0.0,1.0,-1.0,0.0,,0.0-130.0,,0.0,858.0,0.0,0.43906215299999996,1.0,0.7252802340000001,1.0,0.719079934,0.0,0.5712990579999999,True,,5c6d0da2d5221b000101da81,,1699388,128,,evan-feature22,full_rf_b,,0
103,12163,129,,,,1,1,1.0,1.0,0.0,1.0,,0.0-131.0,,1.0,710.0,1.0,0.4076705,1.0,0.73280499,1.0,0.681313127,1.0,0.523891346,True,,5c6d0da2d5221b000101da81,,1709859,129,,evan-feature22,full_rf_b,,0
104,12164,130,,,,1,1,0.0,1.0,0.0,1.0,,0.0-132.0,,1.0,680.0,0.0,0.399102911,1.0,0.730498344,1.0,0.661080239,0.0,0.46742603,True,,5c6d0da2d5221b000101da81,,1720301,130,,evan-feature22,full_rf_b,,0
105,12165,131,,,,1,1,1.0,1.0,0.0,1.0,,0.0-133.0,,1.0,690.0,1.0,0.356477282,1.0,0.712296395,0.0,0.641812684,1.0,0.44868414,True,,5c6d0da2d5221b000101da81,,1730750,131,,evan-feature22,full_rf_b,,0
106,12166,132,,,,1,1,0.0,0.0,-1.0,0.0,,0.0-134.0,,0.0,747.0,0.0,0.462760722,0.0,0.692349322,1.0,0.700947931,1.0,0.394680266,True,,5c6d0da2d5221b000101da81,,1741259,132,,evan-feature22,full_rf_b,,0
107,12167,133,,,,1,1,1.0,1.0,-1.0,0.0,,0.0-135.0,,-1.0,914.0,1.0,0.422306413,1.0,0.718375916,1.0,0.706340917,0.0,0.367787185,True,,5c6d0da2d5221b000101da81,,1751935,133,,evan-feature22,full_rf_b,,0
108,12169,135,,,,1,1,0.0,0.0,-1.0,0.0,,0.0-137.0,,0.0,2575.0,0.0,0.4582233,0.0,0.643834117,0.0,0.75,1.0,0.39615823299999997,True,,5c6d0da2d5221b000101da81,,1782560,135,,evan-feature22,full_rf_b,,0
109,12170,136,,,,1,1,1.0,1.0,-1.0,0.0,,0.0-138.0,,-1.0,13.0,1.0,0.43813437899999996,1.0,0.651283804,1.0,0.729674191,0.0,0.37711048,True,,5c6d0da2d5221b000101da81,,1792335,136,,evan-feature22,full_rf_b,,0
110,12171,137,,,,1,1,0.0,1.0,-1.0,0.0,,0.0-139.0,,0.0,1296.0,0.0,0.471199094,1.0,0.6470010979999999,1.0,0.715008097,0.0,0.410656191,True,,5c6d0da2d5221b000101da81,,1803395,137,,evan-feature22,full_rf_b,,0
111,12172,138,,,,1,1,1.0,1.0,-1.0,0.0,,0.0-140.0,,-1.0,812.0,1.0,0.42486406,1.0,0.629771829,1.0,0.6550939960000001,1.0,0.459093873,True,,5c6d0da2d5221b000101da81,,1813970,138,,evan-feature22,full_rf_b,,0
112,12173,139,,,,1,1,1.0,0.0,-1.0,0.0,,0.0-141.0,,-1.0,1093.0,1.0,0.4803197,0.0,0.645842715,1.0,0.6421749920000001,1.0,0.443092151,True,,5c6d0da2d5221b000101da81,,1824823,139,,evan-feature22,full_rf_b,,0
113,12174,140,,,,1,1,1.0,1.0,0.0,1.0,,0.0-142.0,,1.0,1345.0,1.0,0.521848997,1.0,0.735801074,1.0,0.6691348460000001,1.0,0.45259351600000003,True,,5c6d0da2d5221b000101da81,,1835930,140,,evan-feature22,full_rf_b,,0
114,12175,141,,,,2,2,0.0,0.0,-1.0,0.0,,0.0-143.0,,0.0,1229.0,0.0,0.49565621299999996,1.0,0.742400847,0.0,0.661512553,0.0,0.483110831,True,,5c6d0da2d5221b000101da81,,1846921,141,,evan-feature22,full_rf_b,,1
115,12176,142,,,,2,2,1.0,0.0,-1.0,0.0,,0.0-144.0,,-1.0,1342.0,1.0,0.521564361,1.0,0.731078632,1.0,0.6774886809999999,0.0,0.483263956,True,,5c6d0da2d5221b000101da81,,1858025,142,,evan-feature22,full_rf_b,,0
116,12177,143,,,,2,2,0.0,0.0,-1.0,0.0,,0.0-145.0,,0.0,1399.0,0.0,0.558893102,0.0,0.719810023,0.0,0.67461031,0.0,0.499349834,True,,5c6d0da2d5221b000101da81,,1869185,143,,evan-feature22,full_rf_b,,0
117,12178,144,,,,2,2,1.0,0.0,-1.0,0.0,,0.0-146.0,,-1.0,1162.0,1.0,0.611031046,1.0,0.75,1.0,0.688072995,0.0,0.5321422729999999,True,,5c6d0da2d5221b000101da81,,1880109,144,,evan-feature22,full_rf_b,,0
118,12179,145,,,,1,1,0.0,1.0,0.0,1.0,,0.0-147.0,,1.0,1611.0,0.0,0.633223941,1.0,0.713567728,1.0,0.75,1.0,0.48185314700000004,True,,5c6d0da2d5221b000101da81,,1891483,145,,evan-feature22,full_rf_b,,1
119,12180,146,,,,2,2,0.0,1.0,-1.0,0.0,,0.0-148.0,,0.0,1567.0,1.0,0.664001694,0.0,0.705509768,0.0,0.75,1.0,0.500211065,True,,5c6d0da2d5221b000101da81,,1902812,146,,evan-feature22,full_rf_b,,1
120,12181,147,,,,1,1,1.0,1.0,-1.0,0.0,,0.0-149.0,,-1.0,1432.0,1.0,0.664001694,1.0,0.705509768,1.0,0.75,1.0,0.500211065,True,,5c6d0da2d5221b000101da81,,1914006,147,,evan-feature22,full_rf_b,,1
121,12182,148,,,,2,2,0.0,0.0,-1.0,0.0,,0.0-150.0,,0.0,1532.0,0.0,0.696508041,1.0,0.71066027,0.0,0.717028709,0.0,0.49792991,True,,5c6d0da2d5221b000101da81,,1925300,148,,evan-feature22,full_rf_b,,1
122,12183,149,,,,1,1,1.0,1.0,0.0,1.0,,0.0-151.0,,1.0,431.0,1.0,0.699883272,1.0,0.75,1.0,0.713543895,1.0,0.496962643,True,,5c6d0da2d5221b000101da81,,1935493,149,,evan-feature22,full_rf_b,,1
123,12184,150,,,,1,1,0.0,1.0,0.0,1.0,,0.0-152.0,,1.0,982.0,0.0,0.741163419,1.0,0.75,1.0,0.64691024,0.0,0.513858197,True,,5c6d0da2d5221b000101da81,,1946235,150,,evan-feature22,full_rf_b,,0
124,12185,151,,,,1,1,0.0,1.0,0.0,1.0,,0.0-153.0,,1.0,973.0,0.0,0.75,1.0,0.70816558,1.0,0.594499079,0.0,0.48502124,True,,5c6d0da2d5221b000101da81,,1956970,151,,evan-feature22,full_rf_b,,0
125,12186,152,,,,2,2,0.0,0.0,-1.0,0.0,,0.0-154.0,,0.0,1332.0,0.0,0.75,0.0,0.721848901,0.0,0.62197249,0.0,0.48263586399999997,True,,5c6d0da2d5221b000101da81,,1968062,152,,evan-feature22,full_rf_b,,1
126,12187,153,,,,1,1,1.0,1.0,-1.0,0.0,,0.0-155.0,,-1.0,848.0,1.0,0.75,1.0,0.74813071,0.0,0.584357161,0.0,0.411477782,True,,5c6d0da2d5221b000101da81,,1978672,153,,evan-feature22,full_rf_b,,1
127,12188,154,,,,1,1,0.0,0.0,-1.0,0.0,,0.0-156.0,,0.0,848.0,0.0,0.75,0.0,0.75,0.0,0.52287236,1.0,0.488290656,True,,5c6d0da2d5221b000101da81,,1989281,154,,evan-feature22,full_rf_b,,0
128,12189,155,,,,2,2,0.0,0.0,-1.0,0.0,,0.0-157.0,,0.0,1218.0,1.0,0.75,1.0,0.75,0.0,0.544321581,0.0,0.53143059,True,,5c6d0da2d5221b000101da81,,2000261,155,,evan-feature22,full_rf_b,,1
129,12190,156,,,,2,2,0.0,1.0,-1.0,0.0,,0.0-158.0,,0.0,577.0,1.0,0.726754564,1.0,0.75,0.0,0.5129306370000001,1.0,0.530592445,True,,5c6d0da2d5221b000101da81,,2010601,156,,evan-feature22,full_rf_b,,0
130,12191,157,,,,2,2,0.0,1.0,0.0,1.0,,0.0-159.0,,1.0,2263.0,0.0,0.75,1.0,0.7392590729999999,0.0,0.479875835,1.0,0.547007051,True,,5c6d0da2d5221b000101da81,,2022624,157,,evan-feature22,full_rf_b,,0
131,12192,158,,,,2,2,0.0,0.0,0.0,1.0,,0.0-160.0,,0.0,1444.0,1.0,0.75,0.0,0.7393376979999999,0.0,0.546045419,0.0,0.541267353,True,,5c6d0da2d5221b000101da81,,2033832,158,,evan-feature22,full_rf_b,,0
132,12193,159,,,,2,2,0.0,0.0,-1.0,0.0,,0.0-161.0,,0.0,1544.0,1.0,0.75,0.0,0.75,0.0,0.485725895,0.0,0.527625395,True,,5c6d0da2d5221b000101da81,,2045138,159,,evan-feature22,full_rf_b,,0
133,12194,160,,,,1,1,0.0,0.0,0.0,1.0,,0.0-162.0,,0.0,1566.0,0.0,0.75,0.0,0.725087974,0.0,0.488603595,1.0,0.504019206,True,,5c6d0da2d5221b000101da81,,2056465,160,,evan-feature22,full_rf_b,,1
134,12195,161,,,,2,2,0.0,1.0,-1.0,0.0,,0.0-163.0,,0.0,1083.0,1.0,0.745504295,0.0,0.75,0.0,0.452379914,1.0,0.50131194,True,,5c6d0da2d5221b000101da81,,2067310,161,,evan-feature22,full_rf_b,,1
135,12196,162,,,,2,2,0.0,1.0,0.0,1.0,,0.0-164.0,,1.0,883.0,1.0,0.728513874,1.0,0.75,0.0,0.44125567200000004,1.0,0.531454591,True,,5c6d0da2d5221b000101da81,,2077956,162,,evan-feature22,full_rf_b,,0
136,12197,163,,,,2,2,0.0,0.0,-1.0,0.0,,0.0-165.0,,0.0,3151.0,1.0,0.73790804,1.0,0.75,0.0,0.413036656,0.0,0.524619035,True,,5c6d0da2d5221b000101da81,,2090869,163,,evan-feature22,full_rf_b,,0
137,12198,164,,,,2,2,1.0,0.0,-1.0,0.0,,0.0-166.0,,-1.0,633.0,1.0,0.7080961309999999,1.0,0.708666865,1.0,0.431915581,0.0,0.481819489,True,,5c6d0da2d5221b000101da81,,2101265,164,,evan-feature22,full_rf_b,,0
138,12199,165,,,,2,2,0.0,0.0,-1.0,0.0,,0.0-167.0,,0.0,1083.0,1.0,0.721378003,1.0,0.71605913,0.0,0.36642387,0.0,0.5036739929999999,True,,5c6d0da2d5221b000101da81,,2112109,165,,evan-feature22,full_rf_b,,0
139,12200,166,,,,2,2,0.0,0.0,0.0,1.0,,0.0-168.0,,0.0,1017.0,1.0,0.7340618959999999,1.0,0.699323252,0.0,0.35298046299999997,0.0,0.511241692,True,,5c6d0da2d5221b000101da81,,2122886,166,,evan-feature22,full_rf_b,,0
140,12201,167,,,,2,2,0.0,0.0,0.0,1.0,,0.0-169.0,,0.0,949.0,0.0,0.75,1.0,0.70412698,0.0,0.380734814,0.0,0.529580116,True,,5c6d0da2d5221b000101da81,,2133596,167,,evan-feature22,full_rf_b,,0
141,12202,168,,,,1,1,1.0,1.0,0.0,1.0,,0.0-170.0,,1.0,713.0,1.0,0.7436654909999999,1.0,0.711182751,1.0,0.41125331,1.0,0.49554405,True,,5c6d0da2d5221b000101da81,,2144071,168,,evan-feature22,full_rf_b,,1
142,12203,169,,,,1,1,1.0,1.0,-1.0,0.0,,0.0-171.0,,-1.0,1455.0,1.0,0.731607915,1.0,0.651774583,0.0,0.35688023,0.0,0.45194491600000003,True,,5c6d0da2d5221b000101da81,,2155288,169,,evan-feature22,full_rf_b,,0
143,12204,170,,,,1,1,1.0,1.0,0.0,1.0,,0.0-172.0,,1.0,880.0,1.0,0.75,1.0,0.75,0.0,0.283145374,0.0,0.528608005,True,,5c6d0da2d5221b000101da81,,2165931,170,,evan-feature22,full_rf_b,,0
144,12205,171,,,,1,1,0.0,1.0,-1.0,0.0,,0.0-173.0,,0.0,520.0,0.0,0.7491416890000001,1.0,0.7423785959999999,0.0,0.29135870399999997,1.0,0.498888318,True,,5c6d0da2d5221b000101da81,,2176213,171,,evan-feature22,full_rf_b,,0
145,12206,172,,,,1,1,0.0,0.0,0.0,1.0,,0.0-174.0,,0.0,870.0,0.0,0.708569387,0.0,0.717682277,0.0,0.294421699,1.0,0.493838163,True,,5c6d0da2d5221b000101da81,,2186843,172,,evan-feature22,full_rf_b,,0
146,12207,173,,,,1,1,1.0,1.0,-1.0,0.0,,0.0-175.0,,-1.0,668.0,1.0,0.75,1.0,0.7383382159999999,1.0,0.356098707,1.0,0.442533405,True,,5c6d0da2d5221b000101da81,,2197273,173,,evan-feature22,full_rf_b,,0
147,12208,174,,,,1,1,1.0,1.0,-1.0,0.0,,0.0-176.0,,-1.0,1095.0,1.0,0.744527075,1.0,0.75,1.0,0.334127506,0.0,0.393165805,True,,5c6d0da2d5221b000101da81,,2208130,174,,evan-feature22,full_rf_b,,0
148,12209,175,,,,1,1,0.0,1.0,-1.0,0.0,,0.0-177.0,,0.0,1600.0,0.0,0.75,1.0,0.75,0.0,0.33571021799999995,0.0,0.350393962,True,,5c6d0da2d5221b000101da81,,2219492,175,,evan-feature22,full_rf_b,,0
149,12210,176,,,,1,1,1.0,0.0,0.0,1.0,,0.0-178.0,,0.0,645.0,1.0,0.75,0.0,0.75,0.0,0.313628297,0.0,0.36349657399999996,True,,5c6d0da2d5221b000101da81,,2229899,176,,evan-feature22,full_rf_b,,0
150,12211,177,,,,1,1,1.0,1.0,-1.0,0.0,,0.0-179.0,,-1.0,1409.0,1.0,0.75,1.0,0.734284182,0.0,0.262667667,1.0,0.380199119,True,,5c6d0da2d5221b000101da81,,2241068,177,,evan-feature22,full_rf_b,,0
151,12212,178,,,,2,2,0.0,1.0,-1.0,0.0,,0.0-180.0,,0.0,1016.0,1.0,0.75,1.0,0.75,0.0,0.25,1.0,0.394494013,True,,5c6d0da2d5221b000101da81,,2251848,178,,evan-feature22,full_rf_b,,1
152,12213,179,,,,2,2,0.0,0.0,-1.0,0.0,,0.0-181.0,,0.0,1712.0,1.0,0.722298145,1.0,0.7357822340000001,0.0,0.25,0.0,0.319142121,True,,5c6d0da2d5221b000101da81,,2263323,179,,evan-feature22,full_rf_b,,0
153,12214,180,,,,2,2,0.0,0.0,-1.0,0.0,,0.0-182.0,,0.0,1466.0,1.0,0.73149275,1.0,0.724276446,0.0,0.305856907,0.0,0.281315057,True,,5c6d0da2d5221b000101da81,,2274550,180,,evan-feature22,full_rf_b,,0
154,12215,181,,,,2,2,0.0,0.0,-1.0,0.0,,0.0-183.0,,0.0,589.0,1.0,0.7458732690000001,1.0,0.7336382459999999,0.0,0.272571964,0.0,0.266021999,True,,5c6d0da2d5221b000101da81,,2284900,181,,evan-feature22,full_rf_b,,0
155,12216,182,,,,2,2,1.0,0.0,0.0,1.0,,0.0-184.0,,0.0,612.0,0.0,0.705579037,0.0,0.720778292,1.0,0.320238144,0.0,0.30971744,True,,5c6d0da2d5221b000101da81,,2295273,182,,evan-feature22,full_rf_b,,0
156,12217,183,,,,2,2,0.0,1.0,0.0,1.0,,0.0-185.0,,1.0,757.0,1.0,0.700425648,1.0,0.7198784009999999,0.0,0.272590393,1.0,0.304182931,True,,5c6d0da2d5221b000101da81,,2305792,183,,evan-feature22,full_rf_b,,0
157,12218,184,,,,2,2,0.0,0.0,0.0,1.0,,0.0-186.0,,0.0,825.0,0.0,0.735590785,0.0,0.722714973,0.0,0.25,0.0,0.323421091,True,,5c6d0da2d5221b000101da81,,2316378,184,,evan-feature22,full_rf_b,,0
158,12219,185,,,,2,2,0.0,0.0,0.0,1.0,,0.0-187.0,,0.0,960.0,1.0,0.724807662,0.0,0.63146213,0.0,0.36836492600000004,0.0,0.34592153299999995,True,,5c6d0da2d5221b000101da81,,2327100,185,,evan-feature22,full_rf_b,,0
159,12220,186,,,,2,2,1.0,0.0,-1.0,0.0,,0.0-188.0,,-1.0,915.0,0.0,0.7352796909999999,1.0,0.555111392,1.0,0.36003922,0.0,0.31433779999999995,True,,5c6d0da2d5221b000101da81,,2337777,186,,evan-feature22,full_rf_b,,0
160,12221,187,notice,,,,,,,,,,0.0-189.0,"{""Q0"":""no""}",,22471.0,,,,,,,,,True,,5c6d0da2d5221b000101da81,,2360248,187,Q,survey-text,full_rf_b,,1
161,12222,188,track1,,[1],,,,,,,,0.0-190.0,"{""Q0"":""no""}",,5524.0,,,,,,,,,True,,5c6d0da2d5221b000101da81,,2365773,188,Q,evan-quiz,full_rf_b,,1
162,12223,189,track2,,[0],,,,,,,,0.0-191.0,"{""Q0"":""yes""}",,5961.0,,,,,,,,,True,,5c6d0da2d5221b000101da81,,2371735,189,Q,evan-quiz,full_rf_b,,1
163,12224,190,strat,,,,,,,,,,0.0-192.0,"{""Q0"":""I judged what was behind each door and opened them accordingly, not always with success!""}",,45325.0,,,,,,,,,True,,5c6d0da2d5221b000101da81,,2417061,190,Q,survey-text,full_rf_b,,1
