,index,Unnamed: 0,Q_name,button_pressed,choice_idxs,chosen_pos,chosen_state,chosen_state_f_1_outcome,chosen_state_f_2_outcome,f_1_reward,f_2_reward,incor_questions,internal_node_id,responses,reward_received,rt,s_1_f_1_outcome,s_1_f_1_prob,s_1_f_2_outcome,s_1_f_2_prob,s_2_f_1_outcome,s_2_f_1_prob,s_2_f_2_outcome,s_2_f_2_prob,safe_first,stimulus,subjectID,success,time_elapsed,trial_index,trial_num,trial_type,version,view_history,switching
0,24240,25,,,,2,2,0.0,0.0,1.0,0.0,,0.0-27.0,,0.0,1427.5,0.0,0.6,1.0,0.6,0.0,0.4,0.0,0.4,True,,5dc161a2ce6a9d0cf9814d5b,,469030,25,,evan-feature22,full_rf_a,,0
1,24241,26,,,,2,2,1.0,0.0,1.0,0.0,,0.0-28.0,,1.0,2.8400000010000004,1.0,0.608053294,1.0,0.63424552,1.0,0.397152172,0.0,0.347069101,True,,5dc161a2ce6a9d0cf9814d5b,,478789,26,,evan-feature22,full_rf_a,,0
2,24242,27,,,,2,2,1.0,1.0,1.0,0.0,,0.0-29.0,,1.0,566.3,0.0,0.642237155,1.0,0.648566321,1.0,0.389407674,1.0,0.285525717,True,,5dc161a2ce6a9d0cf9814d5b,,489115,27,,evan-feature22,full_rf_a,,0
3,24243,28,,,,2,2,1.0,1.0,1.0,0.0,,0.0-30.0,,1.0,456.105,1.0,0.661086576,1.0,0.630492543,1.0,0.399058924,1.0,0.25,True,,5dc161a2ce6a9d0cf9814d5b,,499332,28,,evan-feature22,full_rf_a,,0
4,24244,29,,,,2,2,1.0,0.0,0.0,-1.0,,0.0-31.0,,0.0,344.655,1.0,0.631324137,1.0,0.6269842929999999,1.0,0.38734784299999997,0.0,0.25,True,,5dc161a2ce6a9d0cf9814d5b,,509437,29,,evan-feature22,full_rf_a,,0
5,24245,30,,,,2,2,1.0,1.0,0.0,-1.0,,0.0-32.0,,-1.0,435.68,0.0,0.6381991370000001,1.0,0.68987999,1.0,0.384107265,1.0,0.271332943,True,,5dc161a2ce6a9d0cf9814d5b,,519631,30,,evan-feature22,full_rf_a,,0
6,24246,31,,,,2,2,0.0,1.0,1.0,0.0,,0.0-33.0,,0.0,681.6,0.0,0.66034901,1.0,0.742641349,0.0,0.360225629,1.0,0.25,True,,5dc161a2ce6a9d0cf9814d5b,,530069,31,,evan-feature22,full_rf_a,,0
7,24247,32,,,,2,2,0.0,0.0,1.0,0.0,,0.0-34.0,,0.0,311.18,1.0,0.638612418,1.0,0.75,0.0,0.367273939,0.0,0.25,True,,5dc161a2ce6a9d0cf9814d5b,,540140,32,,evan-feature22,full_rf_a,,0
8,24248,33,,,,2,2,1.0,0.0,0.0,-1.0,,0.0-35.0,,0.0,935.815,0.0,0.624340629,1.0,0.75,1.0,0.425829545,0.0,0.25,True,,5dc161a2ce6a9d0cf9814d5b,,550833,33,,evan-feature22,full_rf_a,,0
9,24249,34,,,,2,2,0.0,0.0,0.0,-1.0,,0.0-36.0,,0.0,422.54,1.0,0.621999804,1.0,0.75,0.0,0.368609357,0.0,0.25,True,,5dc161a2ce6a9d0cf9814d5b,,561017,34,,evan-feature22,full_rf_a,,0
10,24250,35,,,,2,2,1.0,0.0,1.0,0.0,,0.0-37.0,,1.0,1540.415,1.0,0.62666403,1.0,0.75,1.0,0.311151498,0.0,0.25,True,,5dc161a2ce6a9d0cf9814d5b,,572317,35,,evan-feature22,full_rf_a,,0
11,24251,36,,,,2,2,0.0,1.0,0.0,-1.0,,0.0-38.0,,-1.0,703.115,0.0,0.6819650009999999,1.0,0.75,0.0,0.310763048,1.0,0.25,True,,5dc161a2ce6a9d0cf9814d5b,,582780,36,,evan-feature22,full_rf_a,,0
12,24252,37,,,,2,2,0.0,0.0,1.0,0.0,,0.0-39.0,,0.0,524.66,0.0,0.740626951,1.0,0.75,0.0,0.25,0.0,0.25,True,,5dc161a2ce6a9d0cf9814d5b,,593063,37,,evan-feature22,full_rf_a,,0
13,24253,38,,,,2,2,0.0,1.0,1.0,0.0,,0.0-40.0,,0.0,553.175,1.0,0.739599242,1.0,0.742034978,0.0,0.25397114600000004,1.0,0.25,True,,5dc161a2ce6a9d0cf9814d5b,,603376,38,,evan-feature22,full_rf_a,,0
14,24254,39,,,,2,2,0.0,0.0,1.0,0.0,,0.0-41.0,,0.0,371.86,0.0,0.732341315,0.0,0.72735643,0.0,0.25,0.0,0.25,True,,5dc161a2ce6a9d0cf9814d5b,,613508,39,,evan-feature22,full_rf_a,,0
15,24255,40,,,,2,2,0.0,0.0,1.0,0.0,,0.0-42.0,,0.0,1223.695,0.0,0.7062287770000001,0.0,0.75,0.0,0.29002151,0.0,0.288256649,True,,5dc161a2ce6a9d0cf9814d5b,,624493,40,,evan-feature22,full_rf_a,,0
16,24256,41,,,,2,2,0.0,0.0,1.0,0.0,,0.0-43.0,,0.0,372.295,1.0,0.7086029209999999,0.0,0.75,0.0,0.274129113,0.0,0.262851608,True,,5dc161a2ce6a9d0cf9814d5b,,634625,41,,evan-feature22,full_rf_a,,0
17,24257,42,,,,1,1,1.0,0.0,1.0,0.0,,0.0-44.0,,1.0,692.7,1.0,0.669189651,0.0,0.727614338,0.0,0.298444036,0.0,0.296944518,True,,5dc161a2ce6a9d0cf9814d5b,,645075,42,,evan-feature22,full_rf_a,,1
18,24258,43,,,,1,1,1.0,0.0,1.0,0.0,,0.0-45.0,,1.0,710.23,1.0,0.6819912929999999,0.0,0.7179434290000001,1.0,0.265003961,0.0,0.28157921199999997,True,,5dc161a2ce6a9d0cf9814d5b,,655543,43,,evan-feature22,full_rf_a,,0
19,24259,44,,,,1,1,0.0,1.0,0.0,-1.0,,0.0-46.0,,-1.0,3434.115,0.0,0.665275002,1.0,0.723065271,1.0,0.260414971,1.0,0.30973870000000003,True,,5dc161a2ce6a9d0cf9814d5b,,668735,44,,evan-feature22,full_rf_a,,0
20,24260,45,,,,2,2,0.0,0.0,1.0,0.0,,0.0-47.0,,0.0,688.435,1.0,0.6660593260000001,1.0,0.728032907,0.0,0.30922817,0.0,0.338778608,True,,5dc161a2ce6a9d0cf9814d5b,,679184,45,,evan-feature22,full_rf_a,,1
21,24261,46,,,,1,1,1.0,1.0,1.0,0.0,,0.0-48.0,,1.0,799.265,1.0,0.702068785,1.0,0.6528750879999999,1.0,0.287329608,0.0,0.35789613200000003,True,,5dc161a2ce6a9d0cf9814d5b,,689743,46,,evan-feature22,full_rf_a,,1
22,24262,47,,,,1,1,0.0,0.0,1.0,0.0,,0.0-49.0,,0.0,766.0,0.0,0.651939787,0.0,0.636725589,0.0,0.284834488,0.0,0.358563756,True,,5dc161a2ce6a9d0cf9814d5b,,700268,47,,evan-feature22,full_rf_a,,0
23,24263,48,,,,1,1,0.0,1.0,0.0,-1.0,,0.0-50.0,,-1.0,399.64,0.0,0.67573929,1.0,0.612550049,1.0,0.37130387600000003,0.0,0.383542402,True,,5dc161a2ce6a9d0cf9814d5b,,710427,48,,evan-feature22,full_rf_a,,0
24,24264,49,,,,2,2,0.0,1.0,0.0,-1.0,,0.0-51.0,,-1.0,1241.405,0.0,0.620753801,0.0,0.60513644,0.0,0.385529434,1.0,0.340361743,True,,5dc161a2ce6a9d0cf9814d5b,,721426,49,,evan-feature22,full_rf_a,,1
25,24265,50,,,,1,1,0.0,1.0,0.0,-1.0,,0.0-52.0,,-1.0,1223.04,0.0,0.673564893,1.0,0.672437924,1.0,0.292955382,0.0,0.337633795,True,,5dc161a2ce6a9d0cf9814d5b,,732407,50,,evan-feature22,full_rf_a,,1
26,24266,51,,,,2,2,1.0,0.0,1.0,0.0,,0.0-53.0,,1.0,680.735,1.0,0.6749427,1.0,0.724197502,1.0,0.32391132100000003,0.0,0.350995264,True,,5dc161a2ce6a9d0cf9814d5b,,742847,51,,evan-feature22,full_rf_a,,1
27,24267,52,,,,2,2,0.0,0.0,1.0,0.0,,0.0-54.0,,0.0,549.89,1.0,0.6940159379999999,0.0,0.75,0.0,0.31710554399999996,0.0,0.413450341,True,,5dc161a2ce6a9d0cf9814d5b,,753154,52,,evan-feature22,full_rf_a,,0
28,24268,53,,,,1,1,1.0,1.0,1.0,0.0,,0.0-55.0,,1.0,682.225,1.0,0.6916018270000001,1.0,0.69001187,1.0,0.261817804,1.0,0.40038635,True,,5dc161a2ce6a9d0cf9814d5b,,763594,53,,evan-feature22,full_rf_a,,1
29,24269,54,,,,1,1,1.0,1.0,1.0,0.0,,0.0-56.0,,1.0,849.34,1.0,0.641061544,1.0,0.71337992,0.0,0.277296461,0.0,0.47372791700000005,True,,5dc161a2ce6a9d0cf9814d5b,,774203,54,,evan-feature22,full_rf_a,,0
30,24270,55,,,,1,1,1.0,0.0,1.0,0.0,,0.0-57.0,,1.0,789.85,1.0,0.6082438520000001,0.0,0.708471106,0.0,0.28745137,0.0,0.564174476,True,,5dc161a2ce6a9d0cf9814d5b,,784753,55,,evan-feature22,full_rf_a,,0
31,24271,56,,,,1,1,1.0,1.0,1.0,0.0,,0.0-58.0,,1.0,775.545,1.0,0.6051112120000001,1.0,0.7118147229999999,0.0,0.272390611,0.0,0.5595149939999999,True,,5dc161a2ce6a9d0cf9814d5b,,795288,56,,evan-feature22,full_rf_a,,0
32,24272,57,,,,1,1,0.0,1.0,1.0,0.0,,0.0-59.0,,0.0,761.065,0.0,0.582420852,1.0,0.635867583,1.0,0.31089574,0.0,0.5227206520000001,True,,5dc161a2ce6a9d0cf9814d5b,,805808,57,,evan-feature22,full_rf_a,,0
33,24273,58,,,,1,1,1.0,1.0,0.0,-1.0,,0.0-60.0,,-1.0,1760.73,1.0,0.623195575,1.0,0.655026044,0.0,0.25,1.0,0.560387538,True,,5dc161a2ce6a9d0cf9814d5b,,817329,58,,evan-feature22,full_rf_a,,0
34,24274,59,,,,2,2,0.0,1.0,1.0,0.0,,0.0-61.0,,0.0,762.92,1.0,0.601889598,1.0,0.678198724,0.0,0.25,1.0,0.559922936,True,,5dc161a2ce6a9d0cf9814d5b,,827854,59,,evan-feature22,full_rf_a,,1
35,24275,60,,,,1,1,1.0,1.0,1.0,0.0,,0.0-62.0,,1.0,559.385,1.0,0.601259914,1.0,0.704681482,0.0,0.33908969299999997,0.0,0.505003715,True,,5dc161a2ce6a9d0cf9814d5b,,838169,60,,evan-feature22,full_rf_a,,1
36,24276,61,,,,1,1,1.0,1.0,1.0,0.0,,0.0-63.0,,1.0,522.91,1.0,0.59645454,1.0,0.710437172,0.0,0.327441879,1.0,0.391749613,True,,5dc161a2ce6a9d0cf9814d5b,,848451,61,,evan-feature22,full_rf_a,,0
37,24277,62,,,,1,1,0.0,1.0,1.0,0.0,,0.0-64.0,,0.0,537.66,0.0,0.529473,1.0,0.636758527,0.0,0.301338063,1.0,0.365661481,True,,5dc161a2ce6a9d0cf9814d5b,,858748,62,,evan-feature22,full_rf_a,,0
38,24278,63,,,,1,1,0.0,1.0,0.0,-1.0,,0.0-65.0,,-1.0,1143.94,0.0,0.541657162,1.0,0.634541962,0.0,0.343535366,0.0,0.371763742,True,,5dc161a2ce6a9d0cf9814d5b,,869652,63,,evan-feature22,full_rf_a,,0
39,24279,64,,,,1,1,0.0,0.0,1.0,0.0,,0.0-66.0,,0.0,720.65,0.0,0.5707533260000001,0.0,0.589121171,0.0,0.326428396,0.0,0.43961622899999997,True,,5dc161a2ce6a9d0cf9814d5b,,880130,64,,evan-feature22,full_rf_a,,0
40,24280,65,,,,1,1,0.0,1.0,1.0,0.0,,0.0-67.0,,0.0,746.735,0.0,0.5707533260000001,1.0,0.589121171,1.0,0.326428396,1.0,0.43961622899999997,True,,5dc161a2ce6a9d0cf9814d5b,,890633,65,,evan-feature22,full_rf_a,,0
41,24281,66,,,,1,1,0.0,1.0,1.0,0.0,,0.0-68.0,,0.0,707.7,0.0,0.506271295,1.0,0.641775594,0.0,0.37149690700000004,1.0,0.404330166,True,,5dc161a2ce6a9d0cf9814d5b,,901100,66,,evan-feature22,full_rf_a,,0
42,24282,67,,,,2,2,0.0,1.0,0.0,-1.0,,0.0-69.0,,-1.0,1903.45,1.0,0.455642565,0.0,0.623605825,0.0,0.358753011,1.0,0.346174041,True,,5dc161a2ce6a9d0cf9814d5b,,912763,67,,evan-feature22,full_rf_a,,1
43,24283,68,,,,1,1,1.0,1.0,0.0,-1.0,,0.0-70.0,,-1.0,832.535,1.0,0.483677308,1.0,0.5904681070000001,0.0,0.402218411,1.0,0.35344697,True,,5dc161a2ce6a9d0cf9814d5b,,923356,68,,evan-feature22,full_rf_a,,1
44,24284,69,,,,2,2,1.0,0.0,0.0,-1.0,,0.0-71.0,,0.0,1593.365,1.0,0.394210977,0.0,0.558925494,1.0,0.540052017,0.0,0.35182128700000004,True,,5dc161a2ce6a9d0cf9814d5b,,934706,69,,evan-feature22,full_rf_a,,1
45,24285,70,,,,1,1,0.0,1.0,1.0,0.0,,0.0-72.0,,0.0,910.575,0.0,0.382300414,1.0,0.577670603,1.0,0.607608448,1.0,0.378261578,True,,5dc161a2ce6a9d0cf9814d5b,,945375,70,,evan-feature22,full_rf_a,,1
46,24286,71,,,,2,2,1.0,0.0,1.0,0.0,,0.0-73.0,,1.0,701.13,0.0,0.357596762,0.0,0.5929076529999999,1.0,0.6579790010000001,0.0,0.401326777,True,,5dc161a2ce6a9d0cf9814d5b,,955836,71,,evan-feature22,full_rf_a,,1
47,24287,72,,,,2,2,1.0,0.0,1.0,0.0,,0.0-74.0,,1.0,720.63,0.0,0.362033495,0.0,0.582308608,1.0,0.649195052,0.0,0.355158505,True,,5dc161a2ce6a9d0cf9814d5b,,966315,72,,evan-feature22,full_rf_a,,0
48,24288,73,,,,2,2,0.0,1.0,1.0,0.0,,0.0-75.0,,0.0,652.955,1.0,0.369620635,1.0,0.669100864,0.0,0.706059111,1.0,0.362516241,True,,5dc161a2ce6a9d0cf9814d5b,,976729,73,,evan-feature22,full_rf_a,,0
49,24289,74,,,,2,2,1.0,1.0,1.0,0.0,,0.0-76.0,,1.0,576.46,0.0,0.41477751399999996,1.0,0.7284416779999999,1.0,0.7182656940000001,1.0,0.36228040899999997,True,,5dc161a2ce6a9d0cf9814d5b,,987066,74,,evan-feature22,full_rf_a,,0
50,24290,75,,,,1,1,1.0,0.0,0.0,-1.0,,0.0-77.0,,0.0,1707.54,1.0,0.37675460299999997,0.0,0.703250285,1.0,0.75,1.0,0.461979164,True,,5dc161a2ce6a9d0cf9814d5b,,998532,75,,evan-feature22,full_rf_a,,1
51,24291,76,,,,1,1,1.0,1.0,0.0,-1.0,,0.0-78.0,,-1.0,1284.165,1.0,0.398716075,1.0,0.6723864890000001,0.0,0.674153818,1.0,0.519029516,True,,5dc161a2ce6a9d0cf9814d5b,,1009577,76,,evan-feature22,full_rf_a,,0
52,24292,77,,,,2,2,0.0,0.0,1.0,0.0,,0.0-79.0,,0.0,858.975,0.0,0.34677856700000004,0.0,0.69057175,0.0,0.6822438540000001,0.0,0.477292237,True,,5dc161a2ce6a9d0cf9814d5b,,1020195,77,,evan-feature22,full_rf_a,,1
53,24293,78,,,,1,1,1.0,1.0,0.0,-1.0,,0.0-80.0,,-1.0,894.275,1.0,0.28580469199999997,1.0,0.68408818,1.0,0.684207565,0.0,0.49780448299999996,True,,5dc161a2ce6a9d0cf9814d5b,,1030848,78,,evan-feature22,full_rf_a,,1
54,24295,80,,,,2,2,0.0,1.0,1.0,0.0,,0.0-82.0,,0.0,743.06,0.0,0.25,0.0,0.7405808970000001,0.0,0.679614108,1.0,0.436436964,True,,5dc161a2ce6a9d0cf9814d5b,,1099904,80,,evan-feature22,full_rf_a,,1
55,24296,81,,,,1,1,1.0,1.0,0.0,-1.0,,0.0-83.0,,-1.0,1141.145,1.0,0.29890393,1.0,0.730505706,0.0,0.7328203320000001,0.0,0.439256938,True,,5dc161a2ce6a9d0cf9814d5b,,1110804,81,,evan-feature22,full_rf_a,,1
56,24297,82,,,,2,2,1.0,1.0,1.0,0.0,,0.0-84.0,,1.0,1121.16,0.0,0.326762398,1.0,0.7148059609999999,1.0,0.75,1.0,0.44389608799999997,True,,5dc161a2ce6a9d0cf9814d5b,,1121685,82,,evan-feature22,full_rf_a,,1
57,24298,83,,,,2,2,1.0,1.0,1.0,0.0,,0.0-85.0,,1.0,916.7,0.0,0.295168515,0.0,0.739760854,1.0,0.719947008,1.0,0.35277284600000003,True,,5dc161a2ce6a9d0cf9814d5b,,1132361,83,,evan-feature22,full_rf_a,,0
58,24299,84,,,,2,2,1.0,1.0,1.0,0.0,,0.0-86.0,,1.0,503.895,1.0,0.25,1.0,0.70781482,1.0,0.75,1.0,0.286095925,True,,5dc161a2ce6a9d0cf9814d5b,,1142625,84,,evan-feature22,full_rf_a,,0
59,24300,85,,,,1,1,0.0,1.0,0.0,-1.0,,0.0-87.0,,-1.0,879.235,0.0,0.25638190899999996,1.0,0.704088163,1.0,0.75,1.0,0.26872601399999996,True,,5dc161a2ce6a9d0cf9814d5b,,1153265,85,,evan-feature22,full_rf_a,,1
60,24301,86,,,,2,2,1.0,0.0,0.0,-1.0,,0.0-88.0,,0.0,1327.835,0.0,0.271581126,1.0,0.669760107,1.0,0.733896663,0.0,0.273244572,True,,5dc161a2ce6a9d0cf9814d5b,,1164350,86,,evan-feature22,full_rf_a,,1
61,24302,87,,,,1,1,0.0,0.0,0.0,-1.0,,0.0-89.0,,0.0,1446.35,0.0,0.257144401,0.0,0.600575706,1.0,0.74488122,1.0,0.25,True,,5dc161a2ce6a9d0cf9814d5b,,1175554,87,,evan-feature22,full_rf_a,,1
62,24303,88,,,,2,2,1.0,1.0,1.0,0.0,,0.0-90.0,,1.0,963.345,1.0,0.25,1.0,0.616870026,1.0,0.723610234,1.0,0.25,True,,5dc161a2ce6a9d0cf9814d5b,,1186274,88,,evan-feature22,full_rf_a,,1
63,24304,89,,,,1,1,0.0,0.0,0.0,-1.0,,0.0-91.0,,0.0,1630.62,0.0,0.25,0.0,0.583540187,1.0,0.7041042559999999,0.0,0.285961995,True,,5dc161a2ce6a9d0cf9814d5b,,1197661,89,,evan-feature22,full_rf_a,,1
64,24305,90,,,,2,2,1.0,0.0,1.0,0.0,,0.0-92.0,,1.0,1059.53,0.0,0.27254536,1.0,0.53875765,1.0,0.693783448,0.0,0.284961652,True,,5dc161a2ce6a9d0cf9814d5b,,1208479,90,,evan-feature22,full_rf_a,,1
65,24306,91,,,,2,2,0.0,1.0,0.0,-1.0,,0.0-93.0,,-1.0,1845.915,0.0,0.25,0.0,0.548431252,0.0,0.734221895,1.0,0.279445214,True,,5dc161a2ce6a9d0cf9814d5b,,1220085,91,,evan-feature22,full_rf_a,,0
66,24307,92,,,,2,2,1.0,0.0,1.0,0.0,,0.0-94.0,,1.0,1282.975,0.0,0.258640684,1.0,0.545878066,1.0,0.725245965,0.0,0.31487537,True,,5dc161a2ce6a9d0cf9814d5b,,1231127,92,,evan-feature22,full_rf_a,,0
67,24308,93,,,,2,2,0.0,0.0,1.0,0.0,,0.0-95.0,,0.0,800.205,0.0,0.251103711,1.0,0.5776290629999999,0.0,0.696320133,0.0,0.317831047,True,,5dc161a2ce6a9d0cf9814d5b,,1241688,93,,evan-feature22,full_rf_a,,0
68,24309,94,,,,2,2,1.0,0.0,1.0,0.0,,0.0-96.0,,1.0,831.73,0.0,0.276630292,0.0,0.617329858,1.0,0.73838088,0.0,0.261471582,True,,5dc161a2ce6a9d0cf9814d5b,,1252280,94,,evan-feature22,full_rf_a,,0
69,24310,95,,,,1,1,0.0,1.0,0.0,-1.0,,0.0-97.0,,-1.0,1667.72,0.0,0.297716424,1.0,0.618863717,1.0,0.7402358259999999,0.0,0.262600834,True,,5dc161a2ce6a9d0cf9814d5b,,1263709,95,,evan-feature22,full_rf_a,,1
70,24311,96,,,,2,2,1.0,0.0,1.0,0.0,,0.0-98.0,,1.0,1016.705,1.0,0.290935512,0.0,0.695370945,1.0,0.706570507,0.0,0.280030553,True,,5dc161a2ce6a9d0cf9814d5b,,1274486,96,,evan-feature22,full_rf_a,,1
71,24312,97,,,,2,2,0.0,0.0,1.0,0.0,,0.0-99.0,,0.0,1050.945,0.0,0.25,0.0,0.6465277079999999,0.0,0.67766682,0.0,0.25,True,,5dc161a2ce6a9d0cf9814d5b,,1285294,97,,evan-feature22,full_rf_a,,0
72,24313,98,,,,2,2,0.0,0.0,1.0,0.0,,0.0-100.0,,0.0,975.62,1.0,0.26463816,0.0,0.636100213,0.0,0.646048507,0.0,0.265607101,True,,5dc161a2ce6a9d0cf9814d5b,,1296027,98,,evan-feature22,full_rf_a,,0
73,24314,99,,,,1,1,0.0,1.0,1.0,0.0,,0.0-101.0,,0.0,883.055,0.0,0.314340707,1.0,0.667795927,1.0,0.613630805,1.0,0.25,True,,5dc161a2ce6a9d0cf9814d5b,,1306666,99,,evan-feature22,full_rf_a,,1
74,24315,100,,,,2,2,0.0,1.0,1.0,0.0,,0.0-102.0,,0.0,911.525,0.0,0.28685784,0.0,0.6622549529999999,0.0,0.652154117,1.0,0.25,True,,5dc161a2ce6a9d0cf9814d5b,,1317334,100,,evan-feature22,full_rf_a,,1
75,24316,101,,,,1,1,1.0,0.0,0.0,-1.0,,0.0-103.0,,0.0,1526.885,1.0,0.304106554,0.0,0.631289538,1.0,0.707041942,0.0,0.29314237,True,,5dc161a2ce6a9d0cf9814d5b,,1328619,101,,evan-feature22,full_rf_a,,1
76,24317,102,,,,1,1,1.0,1.0,0.0,-1.0,,0.0-104.0,,-1.0,992.89,1.0,0.304806932,1.0,0.571167718,1.0,0.680472346,1.0,0.25,True,,5dc161a2ce6a9d0cf9814d5b,,1339373,102,,evan-feature22,full_rf_a,,0
77,24318,103,,,,1,1,0.0,1.0,0.0,-1.0,,0.0-105.0,,-1.0,1135.895,0.0,0.37919861,1.0,0.5724849710000001,1.0,0.705638003,1.0,0.30179300600000003,True,,5dc161a2ce6a9d0cf9814d5b,,1350269,103,,evan-feature22,full_rf_a,,0
78,24319,104,,,,1,1,0.0,1.0,0.0,-1.0,,0.0-106.0,,-1.0,1328.59,0.0,0.464277969,1.0,0.554034373,1.0,0.7372627340000001,0.0,0.264699741,True,,5dc161a2ce6a9d0cf9814d5b,,1361358,104,,evan-feature22,full_rf_a,,0
79,24320,105,,,,2,2,1.0,1.0,1.0,0.0,,0.0-107.0,,1.0,778.625,0.0,0.465104323,0.0,0.530793115,1.0,0.75,1.0,0.31683071,True,,5dc161a2ce6a9d0cf9814d5b,,1371898,105,,evan-feature22,full_rf_a,,1
80,24321,106,,,,2,2,0.0,0.0,0.0,-1.0,,0.0-108.0,,0.0,1874.015,0.0,0.465104323,1.0,0.530793115,0.0,0.75,0.0,0.31683071,True,,5dc161a2ce6a9d0cf9814d5b,,1383531,106,,evan-feature22,full_rf_a,,0
81,24322,107,,,,2,2,1.0,1.0,0.0,-1.0,,0.0-109.0,,-1.0,889.73,0.0,0.46833986,1.0,0.570249239,1.0,0.7244472590000001,1.0,0.364114163,True,,5dc161a2ce6a9d0cf9814d5b,,1394180,107,,evan-feature22,full_rf_a,,0
82,24323,108,,,,1,1,0.0,0.0,0.0,-1.0,,0.0-110.0,,0.0,1348.16,0.0,0.445444024,0.0,0.649673355,1.0,0.6845441290000001,0.0,0.300660449,True,,5dc161a2ce6a9d0cf9814d5b,,1405288,108,,evan-feature22,full_rf_a,,1
83,24324,109,,,,1,1,0.0,1.0,0.0,-1.0,,0.0-111.0,,-1.0,797.455,0.0,0.39909721299999995,1.0,0.6715179509999999,0.0,0.742310028,0.0,0.35496088299999995,True,,5dc161a2ce6a9d0cf9814d5b,,1415845,109,,evan-feature22,full_rf_a,,0
84,24325,110,,,,2,2,1.0,0.0,0.0,-1.0,,0.0-112.0,,0.0,740.8,0.0,0.37956104799999996,0.0,0.694725302,1.0,0.7181651309999999,0.0,0.38726906299999997,True,,5dc161a2ce6a9d0cf9814d5b,,1426343,110,,evan-feature22,full_rf_a,,1
85,24326,111,,,,1,1,1.0,1.0,0.0,-1.0,,0.0-113.0,,-1.0,980.685,1.0,0.404995034,1.0,0.724375412,0.0,0.6910946859999999,1.0,0.387187347,True,,5dc161a2ce6a9d0cf9814d5b,,1437085,111,,evan-feature22,full_rf_a,,1
86,24327,112,,,,2,2,1.0,0.0,0.0,-1.0,,0.0-114.0,,0.0,1452.625,1.0,0.461740803,0.0,0.75,1.0,0.75,0.0,0.34872038200000005,True,,5dc161a2ce6a9d0cf9814d5b,,1448295,112,,evan-feature22,full_rf_a,,1
87,24328,113,,,,2,2,0.0,0.0,1.0,0.0,,0.0-115.0,,0.0,502.255,0.0,0.43821380600000004,1.0,0.738833273,0.0,0.728286963,0.0,0.399538128,True,,5dc161a2ce6a9d0cf9814d5b,,1458553,113,,evan-feature22,full_rf_a,,0
88,24329,114,,,,2,2,1.0,0.0,0.0,-1.0,,0.0-116.0,,0.0,1244.505,0.0,0.41709882,1.0,0.736666736,1.0,0.75,0.0,0.389095584,True,,5dc161a2ce6a9d0cf9814d5b,,1469557,114,,evan-feature22,full_rf_a,,0
89,24330,115,,,,SLOW,SLOW,,,0.0,-1.0,,0.0-117.0,,-3.0,,0.0,0.39749009799999996,1.0,0.744320029,1.0,0.75,0.0,0.363848678,True,,5dc161a2ce6a9d0cf9814d5b,,1475362,115,,evan-feature22,full_rf_a,,1
90,24331,116,,,,2,2,1.0,0.0,1.0,0.0,,0.0-118.0,,1.0,419.49,0.0,0.392653706,0.0,0.75,1.0,0.75,0.0,0.384386976,True,,5dc161a2ce6a9d0cf9814d5b,,1485542,116,,evan-feature22,full_rf_a,,1
91,24332,117,,,,2,2,0.0,1.0,1.0,0.0,,0.0-119.0,,0.0,454.865,0.0,0.31190902600000003,1.0,0.75,0.0,0.732413819,1.0,0.413082932,True,,5dc161a2ce6a9d0cf9814d5b,,1495757,117,,evan-feature22,full_rf_a,,0
92,24333,118,,,,1,1,0.0,1.0,0.0,-1.0,,0.0-120.0,,-1.0,876.88,0.0,0.366917648,1.0,0.740073855,1.0,0.75,0.0,0.352861979,True,,5dc161a2ce6a9d0cf9814d5b,,1506392,118,,evan-feature22,full_rf_a,,1
93,24334,119,,,,2,2,1.0,1.0,0.0,-1.0,,0.0-121.0,,-1.0,952.415,0.0,0.3645172,1.0,0.721770713,1.0,0.75,1.0,0.404074511,True,,5dc161a2ce6a9d0cf9814d5b,,1517103,119,,evan-feature22,full_rf_a,,1
94,24335,120,,,,2,2,1.0,0.0,0.0,-1.0,,0.0-122.0,,0.0,754.985,1.0,0.35205600299999995,1.0,0.68983859,1.0,0.739735447,0.0,0.366895945,True,,5dc161a2ce6a9d0cf9814d5b,,1527614,120,,evan-feature22,full_rf_a,,0
95,24336,121,,,,2,2,1.0,0.0,0.0,-1.0,,0.0-123.0,,0.0,583.0,1.0,0.40998722600000004,0.0,0.720859127,1.0,0.673854955,0.0,0.368528541,True,,5dc161a2ce6a9d0cf9814d5b,,1537958,121,,evan-feature22,full_rf_a,,0
96,24337,122,,,,2,2,1.0,1.0,1.0,0.0,,0.0-124.0,,1.0,830.01,1.0,0.353625316,1.0,0.75,1.0,0.695605473,1.0,0.38303674200000004,True,,5dc161a2ce6a9d0cf9814d5b,,1548548,122,,evan-feature22,full_rf_a,,0
97,24338,123,,,,1,1,1.0,1.0,0.0,-1.0,,0.0-125.0,,-1.0,713.89,1.0,0.359216989,1.0,0.75,1.0,0.6987915090000001,1.0,0.35169046200000004,True,,5dc161a2ce6a9d0cf9814d5b,,1559020,123,,evan-feature22,full_rf_a,,1
98,24339,124,,,,2,2,1.0,1.0,1.0,0.0,,0.0-126.0,,1.0,616.07,0.0,0.35834496899999996,1.0,0.75,1.0,0.707067742,1.0,0.416763636,True,,5dc161a2ce6a9d0cf9814d5b,,1569395,124,,evan-feature22,full_rf_a,,1
99,24340,125,,,,2,2,0.0,0.0,1.0,0.0,,0.0-127.0,,0.0,649.92,1.0,0.38741613799999997,1.0,0.7177369570000001,0.0,0.734902455,0.0,0.49438664299999996,True,,5dc161a2ce6a9d0cf9814d5b,,1579803,125,,evan-feature22,full_rf_a,,0
100,24341,126,,,,2,2,0.0,1.0,0.0,-1.0,,0.0-128.0,,-1.0,1116.5,1.0,0.405255252,1.0,0.7300466640000001,0.0,0.7027748070000001,1.0,0.504359668,True,,5dc161a2ce6a9d0cf9814d5b,,1590677,126,,evan-feature22,full_rf_a,,0
101,24342,127,,,,1,1,1.0,0.0,0.0,-1.0,,0.0-129.0,,0.0,902.635,1.0,0.40697073,0.0,0.7260142190000001,1.0,0.724461982,1.0,0.522779179,True,,5dc161a2ce6a9d0cf9814d5b,,1601339,127,,evan-feature22,full_rf_a,,1
102,24343,128,,,,1,1,1.0,1.0,0.0,-1.0,,0.0-130.0,,-1.0,600.525,1.0,0.43906215299999996,1.0,0.7252802340000001,1.0,0.719079934,0.0,0.5712990579999999,True,,5dc161a2ce6a9d0cf9814d5b,,1611700,128,,evan-feature22,full_rf_a,,0
103,24344,129,,,,2,2,1.0,0.0,0.0,-1.0,,0.0-131.0,,0.0,900.58,1.0,0.4076705,1.0,0.73280499,1.0,0.681313127,0.0,0.523891346,True,,5dc161a2ce6a9d0cf9814d5b,,1622359,129,,evan-feature22,full_rf_a,,1
104,24345,130,,,,2,2,1.0,0.0,0.0,-1.0,,0.0-132.0,,0.0,1046.76,0.0,0.399102911,1.0,0.730498344,1.0,0.661080239,0.0,0.46742603,True,,5dc161a2ce6a9d0cf9814d5b,,1633167,130,,evan-feature22,full_rf_a,,0
105,24346,131,,,,2,2,0.0,0.0,1.0,0.0,,0.0-133.0,,0.0,1082.915,0.0,0.356477282,1.0,0.712296395,0.0,0.641812684,0.0,0.44868414,True,,5dc161a2ce6a9d0cf9814d5b,,1644012,131,,evan-feature22,full_rf_a,,0
106,24347,132,,,,2,2,1.0,1.0,0.0,-1.0,,0.0-134.0,,-1.0,1364.81,1.0,0.462760722,0.0,0.692349322,1.0,0.700947931,1.0,0.394680266,True,,5dc161a2ce6a9d0cf9814d5b,,1655136,132,,evan-feature22,full_rf_a,,0
107,24348,133,,,,1,1,0.0,1.0,0.0,-1.0,,0.0-135.0,,-1.0,1484.7,0.0,0.422306413,1.0,0.718375916,1.0,0.706340917,0.0,0.367787185,True,,5dc161a2ce6a9d0cf9814d5b,,1666380,133,,evan-feature22,full_rf_a,,1
108,24350,135,,,,2,2,1.0,0.0,0.0,-1.0,,0.0-137.0,,0.0,629.57,0.0,0.4582233,0.0,0.643834117,1.0,0.75,0.0,0.39615823299999997,True,,5dc161a2ce6a9d0cf9814d5b,,1839947,135,,evan-feature22,full_rf_a,,1
109,24351,136,,,,2,2,1.0,0.0,0.0,-1.0,,0.0-138.0,,0.0,1114.625,1.0,0.43813437899999996,1.0,0.651283804,1.0,0.729674191,0.0,0.37711048,True,,5dc161a2ce6a9d0cf9814d5b,,1850818,136,,evan-feature22,full_rf_a,,0
110,24352,137,,,,2,2,0.0,0.0,0.0,-1.0,,0.0-139.0,,0.0,699.195,1.0,0.471199094,0.0,0.6470010979999999,0.0,0.715008097,0.0,0.410656191,True,,5dc161a2ce6a9d0cf9814d5b,,1861276,137,,evan-feature22,full_rf_a,,0
111,24353,138,,,,2,2,1.0,0.0,1.0,0.0,,0.0-140.0,,1.0,1084.67,0.0,0.42486406,1.0,0.629771829,1.0,0.6550939960000001,0.0,0.459093873,True,,5dc161a2ce6a9d0cf9814d5b,,1872121,138,,evan-feature22,full_rf_a,,0
112,24354,139,,,,2,2,1.0,0.0,1.0,0.0,,0.0-141.0,,1.0,644.58,0.0,0.4803197,0.0,0.645842715,1.0,0.6421749920000001,0.0,0.443092151,True,,5dc161a2ce6a9d0cf9814d5b,,1882523,139,,evan-feature22,full_rf_a,,0
113,24355,140,,,,2,2,0.0,1.0,1.0,0.0,,0.0-142.0,,0.0,778.535,0.0,0.521848997,1.0,0.735801074,0.0,0.6691348460000001,1.0,0.45259351600000003,True,,5dc161a2ce6a9d0cf9814d5b,,1893060,140,,evan-feature22,full_rf_a,,0
114,24356,141,,,,2,2,1.0,1.0,0.0,-1.0,,0.0-143.0,,-1.0,1123.205,0.0,0.49565621299999996,1.0,0.742400847,1.0,0.661512553,1.0,0.483110831,True,,5dc161a2ce6a9d0cf9814d5b,,1903944,141,,evan-feature22,full_rf_a,,0
115,24357,142,,,,2,2,1.0,0.0,1.0,0.0,,0.0-144.0,,1.0,721.37,1.0,0.521564361,1.0,0.731078632,1.0,0.6774886809999999,0.0,0.483263956,True,,5dc161a2ce6a9d0cf9814d5b,,1914421,142,,evan-feature22,full_rf_a,,0
116,24358,143,,,,2,2,1.0,0.0,1.0,0.0,,0.0-145.0,,1.0,1624.475,1.0,0.558893102,1.0,0.719810023,1.0,0.67461031,0.0,0.499349834,True,,5dc161a2ce6a9d0cf9814d5b,,1925805,143,,evan-feature22,full_rf_a,,0
117,24359,144,,,,2,2,0.0,1.0,0.0,-1.0,,0.0-146.0,,-1.0,1048.645,1.0,0.611031046,1.0,0.75,0.0,0.688072995,1.0,0.5321422729999999,True,,5dc161a2ce6a9d0cf9814d5b,,1936614,144,,evan-feature22,full_rf_a,,0
118,24360,145,,,,2,2,1.0,0.0,1.0,0.0,,0.0-147.0,,1.0,639.67,1.0,0.633223941,1.0,0.713567728,1.0,0.75,0.0,0.48185314700000004,True,,5dc161a2ce6a9d0cf9814d5b,,1947010,145,,evan-feature22,full_rf_a,,0
119,24361,146,,,,2,2,1.0,1.0,1.0,0.0,,0.0-148.0,,1.0,665.97,1.0,0.664001694,1.0,0.705509768,1.0,0.75,1.0,0.500211065,True,,5dc161a2ce6a9d0cf9814d5b,,1957435,146,,evan-feature22,full_rf_a,,0
120,24362,147,,,,2,2,0.0,0.0,0.0,-1.0,,0.0-149.0,,0.0,974.7,1.0,0.664001694,1.0,0.705509768,0.0,0.75,0.0,0.500211065,True,,5dc161a2ce6a9d0cf9814d5b,,1968168,147,,evan-feature22,full_rf_a,,0
121,24363,148,,,,2,2,1.0,1.0,0.0,-1.0,,0.0-150.0,,-1.0,616.65,1.0,0.696508041,1.0,0.71066027,1.0,0.717028709,1.0,0.49792991,True,,5dc161a2ce6a9d0cf9814d5b,,1978544,148,,evan-feature22,full_rf_a,,0
122,24364,149,,,,2,2,0.0,1.0,1.0,0.0,,0.0-151.0,,0.0,780.95,1.0,0.699883272,1.0,0.75,0.0,0.713543895,1.0,0.496962643,True,,5dc161a2ce6a9d0cf9814d5b,,1989083,149,,evan-feature22,full_rf_a,,0
123,24365,150,,,,1,1,1.0,1.0,0.0,-1.0,,0.0-152.0,,-1.0,882.845,1.0,0.741163419,1.0,0.75,1.0,0.64691024,0.0,0.513858197,True,,5dc161a2ce6a9d0cf9814d5b,,1999725,150,,evan-feature22,full_rf_a,,1
124,24366,151,,,,2,2,1.0,1.0,1.0,0.0,,0.0-153.0,,1.0,536.72,1.0,0.75,1.0,0.70816558,1.0,0.594499079,1.0,0.48502124,True,,5dc161a2ce6a9d0cf9814d5b,,2010017,151,,evan-feature22,full_rf_a,,1
125,24367,152,,,,2,2,0.0,0.0,0.0,-1.0,,0.0-154.0,,0.0,1015.255,0.0,0.75,1.0,0.721848901,0.0,0.62197249,0.0,0.48263586399999997,True,,5dc161a2ce6a9d0cf9814d5b,,2020792,152,,evan-feature22,full_rf_a,,0
126,24368,153,,,,2,2,0.0,1.0,1.0,0.0,,0.0-155.0,,0.0,712.56,1.0,0.75,0.0,0.74813071,0.0,0.584357161,1.0,0.411477782,True,,5dc161a2ce6a9d0cf9814d5b,,2031264,153,,evan-feature22,full_rf_a,,0
127,24369,154,,,,1,1,1.0,1.0,0.0,-1.0,,0.0-156.0,,-1.0,1484.665,1.0,0.75,1.0,0.75,1.0,0.52287236,1.0,0.488290656,True,,5dc161a2ce6a9d0cf9814d5b,,2042509,154,,evan-feature22,full_rf_a,,1
128,24370,155,,,,1,1,1.0,1.0,0.0,-1.0,,0.0-157.0,,-1.0,851.445,1.0,0.75,1.0,0.75,1.0,0.544321581,0.0,0.53143059,True,,5dc161a2ce6a9d0cf9814d5b,,2053121,155,,evan-feature22,full_rf_a,,0
129,24371,156,,,,2,2,0.0,1.0,0.0,-1.0,,0.0-158.0,,-1.0,483.02,1.0,0.726754564,1.0,0.75,0.0,0.5129306370000001,1.0,0.530592445,True,,5dc161a2ce6a9d0cf9814d5b,,2063363,156,,evan-feature22,full_rf_a,,1
130,24372,157,,,,2,2,1.0,1.0,1.0,0.0,,0.0-159.0,,1.0,1186.465,1.0,0.75,0.0,0.7392590729999999,1.0,0.479875835,1.0,0.547007051,True,,5dc161a2ce6a9d0cf9814d5b,,2074308,157,,evan-feature22,full_rf_a,,0
131,24373,158,,,,1,1,0.0,0.0,1.0,0.0,,0.0-160.0,,0.0,507.345,0.0,0.75,0.0,0.7393376979999999,0.0,0.546045419,1.0,0.541267353,True,,5dc161a2ce6a9d0cf9814d5b,,2084578,158,,evan-feature22,full_rf_a,,1
132,24374,159,,,,1,1,1.0,1.0,1.0,0.0,,0.0-161.0,,1.0,625.78,1.0,0.75,1.0,0.75,1.0,0.485725895,0.0,0.527625395,True,,5dc161a2ce6a9d0cf9814d5b,,2094964,159,,evan-feature22,full_rf_a,,0
133,24375,160,,,,1,1,0.0,1.0,0.0,-1.0,,0.0-162.0,,-1.0,756.68,0.0,0.75,1.0,0.725087974,0.0,0.488603595,0.0,0.504019206,True,,5dc161a2ce6a9d0cf9814d5b,,2105479,160,,evan-feature22,full_rf_a,,0
134,24376,161,,,,1,1,1.0,0.0,0.0,-1.0,,0.0-163.0,,0.0,1141.19,1.0,0.745504295,0.0,0.75,0.0,0.452379914,0.0,0.50131194,True,,5dc161a2ce6a9d0cf9814d5b,,2116379,161,,evan-feature22,full_rf_a,,0
135,24377,162,,,,1,1,0.0,1.0,0.0,-1.0,,0.0-164.0,,-1.0,722.475,0.0,0.728513874,1.0,0.75,0.0,0.44125567200000004,1.0,0.531454591,True,,5dc161a2ce6a9d0cf9814d5b,,2126860,162,,evan-feature22,full_rf_a,,0
136,24378,163,,,,2,2,1.0,0.0,1.0,0.0,,0.0-165.0,,1.0,796.51,1.0,0.73790804,1.0,0.75,1.0,0.413036656,0.0,0.524619035,True,,5dc161a2ce6a9d0cf9814d5b,,2137416,163,,evan-feature22,full_rf_a,,1
137,24379,164,,,,2,2,1.0,0.0,0.0,-1.0,,0.0-166.0,,0.0,1396.855,1.0,0.7080961309999999,0.0,0.708666865,1.0,0.431915581,0.0,0.481819489,True,,5dc161a2ce6a9d0cf9814d5b,,2148570,164,,evan-feature22,full_rf_a,,0
138,24380,165,,,,2,2,0.0,0.0,0.0,-1.0,,0.0-167.0,,0.0,1095.125,1.0,0.721378003,0.0,0.71605913,0.0,0.36642387,0.0,0.5036739929999999,True,,5dc161a2ce6a9d0cf9814d5b,,2159423,165,,evan-feature22,full_rf_a,,0
139,24381,166,,,,1,1,1.0,0.0,0.0,-1.0,,0.0-168.0,,0.0,1493.73,1.0,0.7340618959999999,0.0,0.699323252,0.0,0.35298046299999997,0.0,0.511241692,True,,5dc161a2ce6a9d0cf9814d5b,,2170676,166,,evan-feature22,full_rf_a,,1
140,24382,167,,,,1,1,1.0,0.0,1.0,0.0,,0.0-169.0,,1.0,1117.285,1.0,0.75,0.0,0.70412698,1.0,0.380734814,1.0,0.529580116,True,,5dc161a2ce6a9d0cf9814d5b,,2181553,167,,evan-feature22,full_rf_a,,0
141,24383,168,,,,1,1,0.0,1.0,0.0,-1.0,,0.0-170.0,,-1.0,564.565,0.0,0.7436654909999999,1.0,0.711182751,1.0,0.41125331,0.0,0.49554405,True,,5dc161a2ce6a9d0cf9814d5b,,2191874,168,,evan-feature22,full_rf_a,,0
142,24384,169,,,,2,2,1.0,0.0,0.0,-1.0,,0.0-171.0,,0.0,542.785,0.0,0.731607915,1.0,0.651774583,1.0,0.35688023,0.0,0.45194491600000003,True,,5dc161a2ce6a9d0cf9814d5b,,2202173,169,,evan-feature22,full_rf_a,,1
143,24385,170,,,,2,2,0.0,0.0,1.0,0.0,,0.0-172.0,,0.0,787.66,1.0,0.75,1.0,0.75,0.0,0.283145374,0.0,0.528608005,True,,5dc161a2ce6a9d0cf9814d5b,,2212720,170,,evan-feature22,full_rf_a,,0
144,24386,171,,,,2,2,0.0,1.0,1.0,0.0,,0.0-173.0,,0.0,577.625,1.0,0.7491416890000001,1.0,0.7423785959999999,0.0,0.29135870399999997,1.0,0.498888318,True,,5dc161a2ce6a9d0cf9814d5b,,2223057,171,,evan-feature22,full_rf_a,,0
145,24387,172,,,,1,1,1.0,1.0,1.0,0.0,,0.0-174.0,,1.0,568.755,1.0,0.708569387,1.0,0.717682277,1.0,0.294421699,0.0,0.493838163,True,,5dc161a2ce6a9d0cf9814d5b,,2233387,172,,evan-feature22,full_rf_a,,1
146,24388,173,,,,2,2,0.0,0.0,0.0,-1.0,,0.0-175.0,,0.0,1170.67,1.0,0.75,0.0,0.7383382159999999,0.0,0.356098707,0.0,0.442533405,True,,5dc161a2ce6a9d0cf9814d5b,,2244320,173,,evan-feature22,full_rf_a,,1
147,24389,174,,,,1,1,0.0,1.0,0.0,-1.0,,0.0-176.0,,-1.0,720.63,0.0,0.744527075,1.0,0.75,1.0,0.334127506,0.0,0.393165805,True,,5dc161a2ce6a9d0cf9814d5b,,2254800,174,,evan-feature22,full_rf_a,,1
148,24390,175,,,,2,2,1.0,0.0,0.0,-1.0,,0.0-177.0,,0.0,589.425,1.0,0.75,0.0,0.75,1.0,0.33571021799999995,0.0,0.350393962,True,,5dc161a2ce6a9d0cf9814d5b,,2265148,175,,evan-feature22,full_rf_a,,1
149,24391,176,,,,2,2,0.0,0.0,0.0,-1.0,,0.0-178.0,,0.0,593.63,1.0,0.75,1.0,0.75,0.0,0.313628297,0.0,0.36349657399999996,True,,5dc161a2ce6a9d0cf9814d5b,,2275500,176,,evan-feature22,full_rf_a,,0
150,24392,177,,,,2,2,0.0,0.0,1.0,0.0,,0.0-179.0,,0.0,925.435,1.0,0.75,1.0,0.734284182,0.0,0.262667667,0.0,0.380199119,True,,5dc161a2ce6a9d0cf9814d5b,,2286184,177,,evan-feature22,full_rf_a,,0
151,24393,178,,,,2,2,0.0,0.0,0.0,-1.0,,0.0-180.0,,0.0,699.485,1.0,0.75,1.0,0.75,0.0,0.25,0.0,0.394494013,True,,5dc161a2ce6a9d0cf9814d5b,,2296642,178,,evan-feature22,full_rf_a,,0
152,24394,179,,,,1,1,0.0,1.0,1.0,0.0,,0.0-181.0,,0.0,615.695,0.0,0.722298145,1.0,0.7357822340000001,0.0,0.25,0.0,0.319142121,True,,5dc161a2ce6a9d0cf9814d5b,,2307015,179,,evan-feature22,full_rf_a,,1
153,24395,180,,,,1,1,1.0,1.0,1.0,0.0,,0.0-182.0,,1.0,693.775,1.0,0.73149275,1.0,0.724276446,0.0,0.305856907,0.0,0.281315057,True,,5dc161a2ce6a9d0cf9814d5b,,2317468,180,,evan-feature22,full_rf_a,,0
154,24396,181,,,,1,1,1.0,1.0,0.0,-1.0,,0.0-183.0,,-1.0,1253.66,1.0,0.7458732690000001,1.0,0.7336382459999999,0.0,0.272571964,0.0,0.266021999,True,,5dc161a2ce6a9d0cf9814d5b,,2328480,181,,evan-feature22,full_rf_a,,0
155,24397,182,,,,1,1,1.0,1.0,0.0,-1.0,,0.0-184.0,,-1.0,652.74,1.0,0.705579037,1.0,0.720778292,0.0,0.320238144,0.0,0.30971744,True,,5dc161a2ce6a9d0cf9814d5b,,2338892,182,,evan-feature22,full_rf_a,,0
156,24398,183,,,,1,1,0.0,1.0,0.0,-1.0,,0.0-185.0,,-1.0,869.735,0.0,0.700425648,1.0,0.7198784009999999,0.0,0.272590393,1.0,0.304182931,True,,5dc161a2ce6a9d0cf9814d5b,,2349521,183,,evan-feature22,full_rf_a,,0
157,24399,184,,,,2,2,1.0,0.0,0.0,-1.0,,0.0-186.0,,0.0,431.005,0.0,0.735590785,1.0,0.722714973,1.0,0.25,0.0,0.323421091,True,,5dc161a2ce6a9d0cf9814d5b,,2359711,184,,evan-feature22,full_rf_a,,1
158,24400,185,,,,2,2,0.0,1.0,0.0,-1.0,,0.0-187.0,,-1.0,484.895,1.0,0.724807662,1.0,0.63146213,0.0,0.36836492600000004,1.0,0.34592153299999995,True,,5dc161a2ce6a9d0cf9814d5b,,2369957,185,,evan-feature22,full_rf_a,,0
159,24401,186,,,,2,2,0.0,0.0,0.0,-1.0,,0.0-188.0,,0.0,688.165,1.0,0.7352796909999999,1.0,0.555111392,0.0,0.36003922,0.0,0.31433779999999995,True,,5dc161a2ce6a9d0cf9814d5b,,2380403,186,,evan-feature22,full_rf_a,,0
160,24402,187,notice,,,,,,,,,,0.0-189.0,"{""Q0"":""no""}",,14250.0,,,,,,,,,True,,5dc161a2ce6a9d0cf9814d5b,,2394654,187,Q,survey-text,full_rf_a,,1
161,24403,188,track1,,[0],,,,,,,,0.0-190.0,"{""Q0"":""yes""}",,4278.0,,,,,,,,,True,,5dc161a2ce6a9d0cf9814d5b,,2398934,188,Q,evan-quiz,full_rf_a,,1
162,24404,189,track2,,[2],,,,,,,,0.0-191.0,"{""Q0"":""N/A""}",,6071.0,,,,,,,,,True,,5dc161a2ce6a9d0cf9814d5b,,2405008,189,Q,evan-quiz,full_rf_a,,1
163,24405,190,strat,,,,,,,,,,0.0-192.0,"{""Q0"":""tried to keep track of the avrage apperances of both dots""}",,24846.0,,,,,,,,,True,,5dc161a2ce6a9d0cf9814d5b,,2429858,190,Q,survey-text,full_rf_a,,1
