,index,Unnamed: 0,Q_name,button_pressed,choice_idxs,chosen_pos,chosen_state,chosen_state_f_1_outcome,chosen_state_f_2_outcome,f_1_reward,f_2_reward,incor_questions,internal_node_id,responses,reward_received,rt,s_1_f_1_outcome,s_1_f_1_prob,s_1_f_2_outcome,s_1_f_2_prob,s_2_f_1_outcome,s_2_f_1_prob,s_2_f_2_outcome,s_2_f_2_prob,safe_first,stimulus,subjectID,success,time_elapsed,trial_index,trial_num,trial_type,version,view_history,switching
0,43718,25,,,,1,1,1.0,0.0,-1.0,0.0,,0.0-27.0,,-1.0,1419.3,1.0,0.6,0.0,0.6,1.0,0.4,1.0,0.4,False,,5f22d73c2c28c101e9541d32,,592612,25,,evan-feature22,full_pf_b,,0
1,43719,26,,,,2,2,1.0,0.0,-1.0,0.0,,0.0-28.0,,-1.0,1052.7,1.0,0.608053294,1.0,0.63424552,1.0,0.397152172,0.0,0.347069101,False,,5f22d73c2c28c101e9541d32,,603594,26,,evan-feature22,full_pf_b,,1
2,43720,27,,,,1,1,0.0,0.0,-1.0,0.0,,0.0-29.0,,0.0,2016.9,0.0,0.642237155,0.0,0.648566321,0.0,0.389407674,0.0,0.285525717,False,,5f22d73c2c28c101e9541d32,,615456,27,,evan-feature22,full_pf_b,,1
3,43721,28,,,,1,1,1.0,0.0,-1.0,0.0,,0.0-30.0,,-1.0,821.1,1.0,0.661086576,0.0,0.630492543,0.0,0.399058924,0.0,0.25,False,,5f22d73c2c28c101e9541d32,,626143,28,,evan-feature22,full_pf_b,,0
4,43722,29,,,,2,2,0.0,1.0,0.0,1.0,,0.0-31.0,,1.0,2063.4,0.0,0.631324137,0.0,0.6269842929999999,0.0,0.38734784299999997,1.0,0.25,False,,5f22d73c2c28c101e9541d32,,638113,29,,evan-feature22,full_pf_b,,1
5,43723,30,,,,2,2,0.0,0.0,0.0,1.0,,0.0-32.0,,0.0,762.1,1.0,0.6381991370000001,1.0,0.68987999,0.0,0.384107265,0.0,0.271332943,False,,5f22d73c2c28c101e9541d32,,648783,30,,evan-feature22,full_pf_b,,0
6,43724,31,,,,2,2,0.0,0.0,-1.0,0.0,,0.0-33.0,,0.0,1340.2,1.0,0.66034901,1.0,0.742641349,0.0,0.360225629,0.0,0.25,False,,5f22d73c2c28c101e9541d32,,660033,31,,evan-feature22,full_pf_b,,0
7,43725,32,,,,2,2,1.0,1.0,-1.0,0.0,,0.0-34.0,,-1.0,901.2,1.0,0.638612418,1.0,0.75,1.0,0.367273939,1.0,0.25,False,,5f22d73c2c28c101e9541d32,,670800,32,,evan-feature22,full_pf_b,,0
8,43726,33,,,,1,1,1.0,1.0,0.0,1.0,,0.0-35.0,,1.0,3002.3,1.0,0.624340629,1.0,0.75,1.0,0.425829545,0.0,0.25,False,,5f22d73c2c28c101e9541d32,,683665,33,,evan-feature22,full_pf_b,,1
9,43727,34,,,,1,1,0.0,1.0,0.0,1.0,,0.0-36.0,,1.0,1758.5,0.0,0.621999804,1.0,0.75,1.0,0.368609357,0.0,0.25,False,,5f22d73c2c28c101e9541d32,,695291,34,,evan-feature22,full_pf_b,,0
10,43728,35,,,,2,2,0.0,1.0,-1.0,0.0,,0.0-37.0,,0.0,1180.9,1.0,0.62666403,1.0,0.75,0.0,0.311151498,1.0,0.25,False,,5f22d73c2c28c101e9541d32,,706356,35,,evan-feature22,full_pf_b,,1
11,43729,36,,,,2,2,1.0,0.0,0.0,1.0,,0.0-38.0,,0.0,2493.9,1.0,0.6819650009999999,1.0,0.75,1.0,0.310763048,0.0,0.25,False,,5f22d73c2c28c101e9541d32,,718762,36,,evan-feature22,full_pf_b,,0
12,43730,37,,,,1,1,1.0,1.0,-1.0,0.0,,0.0-39.0,,-1.0,1705.0,1.0,0.740626951,1.0,0.75,0.0,0.25,0.0,0.25,False,,5f22d73c2c28c101e9541d32,,730387,37,,evan-feature22,full_pf_b,,1
13,43731,38,,,,2,2,0.0,0.0,-1.0,0.0,,0.0-40.0,,0.0,1072.4,1.0,0.739599242,1.0,0.742034978,0.0,0.25397114600000004,0.0,0.25,False,,5f22d73c2c28c101e9541d32,,741371,38,,evan-feature22,full_pf_b,,1
14,43732,39,,,,2,2,0.0,0.0,-1.0,0.0,,0.0-41.0,,0.0,952.5,1.0,0.732341315,1.0,0.72735643,0.0,0.25,0.0,0.25,False,,5f22d73c2c28c101e9541d32,,752216,39,,evan-feature22,full_pf_b,,0
15,43733,40,,,,2,2,1.0,0.0,-1.0,0.0,,0.0-42.0,,-1.0,908.9,0.0,0.7062287770000001,1.0,0.75,1.0,0.29002151,0.0,0.288256649,False,,5f22d73c2c28c101e9541d32,,763061,40,,evan-feature22,full_pf_b,,0
16,43734,41,,,,1,1,1.0,1.0,-1.0,0.0,,0.0-43.0,,-1.0,1718.2,1.0,0.7086029209999999,1.0,0.75,0.0,0.274129113,1.0,0.262851608,False,,5f22d73c2c28c101e9541d32,,774658,41,,evan-feature22,full_pf_b,,1
17,43735,42,,,,2,2,0.0,0.0,-1.0,0.0,,0.0-44.0,,0.0,1859.0,1.0,0.669189651,1.0,0.727614338,0.0,0.298444036,0.0,0.296944518,False,,5f22d73c2c28c101e9541d32,,786397,42,,evan-feature22,full_pf_b,,1
18,43736,43,,,,2,2,0.0,0.0,-1.0,0.0,,0.0-45.0,,0.0,991.6,1.0,0.6819912929999999,1.0,0.7179434290000001,0.0,0.265003961,0.0,0.28157921199999997,False,,5f22d73c2c28c101e9541d32,,797272,43,,evan-feature22,full_pf_b,,0
19,43737,44,,,,1,1,1.0,1.0,0.0,1.0,,0.0-46.0,,1.0,1616.7,1.0,0.665275002,1.0,0.723065271,1.0,0.260414971,0.0,0.30973870000000003,False,,5f22d73c2c28c101e9541d32,,808776,44,,evan-feature22,full_pf_b,,1
20,43738,45,,,,2,2,0.0,0.0,-1.0,0.0,,0.0-47.0,,0.0,961.9,1.0,0.6660593260000001,1.0,0.728032907,0.0,0.30922817,0.0,0.338778608,False,,5f22d73c2c28c101e9541d32,,819620,45,,evan-feature22,full_pf_b,,1
21,43739,46,,,,2,2,0.0,1.0,-1.0,0.0,,0.0-48.0,,0.0,1020.4,0.0,0.702068785,1.0,0.6528750879999999,0.0,0.287329608,1.0,0.35789613200000003,False,,5f22d73c2c28c101e9541d32,,830618,46,,evan-feature22,full_pf_b,,0
22,43740,47,,,,2,2,0.0,0.0,-1.0,0.0,,0.0-49.0,,0.0,737.0,1.0,0.651939787,1.0,0.636725589,0.0,0.284834488,0.0,0.358563756,False,,5f22d73c2c28c101e9541d32,,841273,47,,evan-feature22,full_pf_b,,0
23,43741,48,,,,1,1,1.0,0.0,0.0,1.0,,0.0-50.0,,0.0,1169.9,1.0,0.67573929,0.0,0.612550049,0.0,0.37130387600000003,0.0,0.383542402,False,,5f22d73c2c28c101e9541d32,,852334,48,,evan-feature22,full_pf_b,,1
24,43742,49,,,,1,1,1.0,0.0,0.0,1.0,,0.0-51.0,,0.0,1074.0,1.0,0.620753801,0.0,0.60513644,0.0,0.385529434,0.0,0.340361743,False,,5f22d73c2c28c101e9541d32,,863255,49,,evan-feature22,full_pf_b,,0
25,43743,50,,,,1,1,1.0,0.0,0.0,1.0,,0.0-52.0,,0.0,791.2,1.0,0.673564893,0.0,0.672437924,1.0,0.292955382,1.0,0.337633795,False,,5f22d73c2c28c101e9541d32,,873986,50,,evan-feature22,full_pf_b,,0
26,43744,51,,,,2,2,1.0,0.0,-1.0,0.0,,0.0-53.0,,-1.0,977.8,0.0,0.6749427,1.0,0.724197502,1.0,0.32391132100000003,0.0,0.350995264,False,,5f22d73c2c28c101e9541d32,,884847,51,,evan-feature22,full_pf_b,,1
27,43745,52,,,,2,2,1.0,0.0,-1.0,0.0,,0.0-54.0,,-1.0,1050.4,1.0,0.6940159379999999,1.0,0.75,1.0,0.31710554399999996,0.0,0.413450341,False,,5f22d73c2c28c101e9541d32,,895770,52,,evan-feature22,full_pf_b,,0
28,43746,53,,,,2,2,1.0,1.0,-1.0,0.0,,0.0-55.0,,-1.0,2366.4,0.0,0.6916018270000001,1.0,0.69001187,1.0,0.261817804,1.0,0.40038635,False,,5f22d73c2c28c101e9541d32,,908008,53,,evan-feature22,full_pf_b,,0
29,43747,54,,,,1,1,0.0,1.0,-1.0,0.0,,0.0-56.0,,0.0,940.1,0.0,0.641061544,1.0,0.71337992,0.0,0.277296461,1.0,0.47372791700000005,False,,5f22d73c2c28c101e9541d32,,918838,54,,evan-feature22,full_pf_b,,1
30,43748,55,,,,2,2,0.0,1.0,-1.0,0.0,,0.0-57.0,,0.0,921.3,1.0,0.6082438520000001,0.0,0.708471106,0.0,0.28745137,1.0,0.564174476,False,,5f22d73c2c28c101e9541d32,,929636,55,,evan-feature22,full_pf_b,,1
31,43749,56,,,,2,2,1.0,0.0,-1.0,0.0,,0.0-58.0,,-1.0,1189.6,1.0,0.6051112120000001,1.0,0.7118147229999999,1.0,0.272390611,0.0,0.5595149939999999,False,,5f22d73c2c28c101e9541d32,,940761,56,,evan-feature22,full_pf_b,,0
32,43750,57,,,,2,2,0.0,1.0,-1.0,0.0,,0.0-59.0,,0.0,902.8,1.0,0.582420852,1.0,0.635867583,0.0,0.31089574,1.0,0.5227206520000001,False,,5f22d73c2c28c101e9541d32,,951557,57,,evan-feature22,full_pf_b,,0
33,43751,58,,,,1,1,1.0,0.0,0.0,1.0,,0.0-60.0,,0.0,962.2,1.0,0.623195575,0.0,0.655026044,0.0,0.25,1.0,0.560387538,False,,5f22d73c2c28c101e9541d32,,962478,58,,evan-feature22,full_pf_b,,1
34,43752,59,,,,2,2,0.0,1.0,-1.0,0.0,,0.0-61.0,,0.0,1608.2,1.0,0.601889598,0.0,0.678198724,0.0,0.25,1.0,0.559922936,False,,5f22d73c2c28c101e9541d32,,973935,59,,evan-feature22,full_pf_b,,1
35,43753,60,,,,2,2,0.0,1.0,-1.0,0.0,,0.0-62.0,,0.0,1005.6,1.0,0.601259914,0.0,0.704681482,0.0,0.33908969299999997,1.0,0.505003715,False,,5f22d73c2c28c101e9541d32,,984876,60,,evan-feature22,full_pf_b,,0
36,43754,61,,,,2,2,0.0,1.0,-1.0,0.0,,0.0-63.0,,0.0,1342.8,0.0,0.59645454,1.0,0.710437172,0.0,0.327441879,1.0,0.391749613,False,,5f22d73c2c28c101e9541d32,,996117,61,,evan-feature22,full_pf_b,,0
37,43755,62,,,,2,2,1.0,0.0,-1.0,0.0,,0.0-64.0,,-1.0,912.0,1.0,0.529473,1.0,0.636758527,1.0,0.301338063,0.0,0.365661481,False,,5f22d73c2c28c101e9541d32,,1006898,62,,evan-feature22,full_pf_b,,0
38,43756,63,,,,1,1,1.0,0.0,0.0,1.0,,0.0-65.0,,0.0,1403.8,1.0,0.541657162,0.0,0.634541962,1.0,0.343535366,0.0,0.371763742,False,,5f22d73c2c28c101e9541d32,,1018183,63,,evan-feature22,full_pf_b,,1
39,43757,64,,,,2,2,0.0,0.0,-1.0,0.0,,0.0-66.0,,0.0,1087.4,0.0,0.5707533260000001,1.0,0.589121171,0.0,0.326428396,0.0,0.43961622899999997,False,,5f22d73c2c28c101e9541d32,,1029137,64,,evan-feature22,full_pf_b,,1
40,43758,65,,,,2,2,1.0,0.0,-1.0,0.0,,0.0-67.0,,-1.0,775.5,0.0,0.5707533260000001,0.0,0.589121171,1.0,0.326428396,0.0,0.43961622899999997,False,,5f22d73c2c28c101e9541d32,,1039837,65,,evan-feature22,full_pf_b,,0
41,43759,66,,,,1,1,0.0,1.0,-1.0,0.0,,0.0-68.0,,0.0,912.3,0.0,0.506271295,1.0,0.641775594,0.0,0.37149690700000004,1.0,0.404330166,False,,5f22d73c2c28c101e9541d32,,1050663,66,,evan-feature22,full_pf_b,,1
42,43760,67,,,,1,1,1.0,1.0,0.0,1.0,,0.0-69.0,,1.0,919.3,1.0,0.455642565,1.0,0.623605825,0.0,0.358753011,0.0,0.346174041,False,,5f22d73c2c28c101e9541d32,,1061459,67,,evan-feature22,full_pf_b,,0
43,43761,68,,,,1,1,0.0,0.0,0.0,1.0,,0.0-70.0,,0.0,579.2,0.0,0.483677308,0.0,0.5904681070000001,1.0,0.402218411,1.0,0.35344697,False,,5f22d73c2c28c101e9541d32,,1071942,68,,evan-feature22,full_pf_b,,0
44,43762,69,,,,2,2,0.0,0.0,0.0,1.0,,0.0-71.0,,0.0,607.1,1.0,0.394210977,0.0,0.558925494,0.0,0.540052017,0.0,0.35182128700000004,False,,5f22d73c2c28c101e9541d32,,1082512,69,,evan-feature22,full_pf_b,,1
45,43763,70,,,,2,2,1.0,0.0,-1.0,0.0,,0.0-72.0,,-1.0,1097.4,1.0,0.382300414,1.0,0.577670603,1.0,0.607608448,0.0,0.378261578,False,,5f22d73c2c28c101e9541d32,,1093513,70,,evan-feature22,full_pf_b,,0
46,43764,71,,,,1,1,0.0,1.0,-1.0,0.0,,0.0-73.0,,0.0,1220.6,0.0,0.357596762,1.0,0.5929076529999999,1.0,0.6579790010000001,0.0,0.401326777,False,,5f22d73c2c28c101e9541d32,,1104637,71,,evan-feature22,full_pf_b,,1
47,43765,72,,,,2,2,0.0,0.0,-1.0,0.0,,0.0-74.0,,0.0,869.8,1.0,0.362033495,0.0,0.582308608,0.0,0.649195052,0.0,0.355158505,False,,5f22d73c2c28c101e9541d32,,1115387,72,,evan-feature22,full_pf_b,,1
48,43766,73,,,,2,2,1.0,1.0,-1.0,0.0,,0.0-75.0,,-1.0,722.2,1.0,0.369620635,1.0,0.669100864,1.0,0.706059111,1.0,0.362516241,False,,5f22d73c2c28c101e9541d32,,1125983,73,,evan-feature22,full_pf_b,,0
49,43767,74,,,,1,1,1.0,1.0,-1.0,0.0,,0.0-76.0,,-1.0,1264.6,1.0,0.41477751399999996,1.0,0.7284416779999999,1.0,0.7182656940000001,0.0,0.36228040899999997,False,,5f22d73c2c28c101e9541d32,,1137141,74,,evan-feature22,full_pf_b,,1
50,43768,75,,,,2,2,1.0,1.0,0.0,1.0,,0.0-77.0,,1.0,754.7,0.0,0.37675460299999997,0.0,0.703250285,1.0,0.75,1.0,0.461979164,False,,5f22d73c2c28c101e9541d32,,1147800,75,,evan-feature22,full_pf_b,,1
51,43769,76,,,,1,1,1.0,1.0,0.0,1.0,,0.0-78.0,,1.0,983.6,1.0,0.398716075,1.0,0.6723864890000001,0.0,0.674153818,1.0,0.519029516,False,,5f22d73c2c28c101e9541d32,,1158678,76,,evan-feature22,full_pf_b,,1
52,43770,77,,,,2,2,1.0,0.0,-1.0,0.0,,0.0-79.0,,-1.0,1073.6,0.0,0.34677856700000004,0.0,0.69057175,1.0,0.6822438540000001,0.0,0.477292237,False,,5f22d73c2c28c101e9541d32,,1169662,77,,evan-feature22,full_pf_b,,1
53,43771,78,,,,1,1,0.0,1.0,0.0,1.0,,0.0-80.0,,1.0,670.4,0.0,0.28580469199999997,1.0,0.68408818,1.0,0.684207565,0.0,0.49780448299999996,False,,5f22d73c2c28c101e9541d32,,1180251,78,,evan-feature22,full_pf_b,,1
54,43773,80,,,,2,2,1.0,0.0,-1.0,0.0,,0.0-82.0,,-1.0,1459.7,1.0,0.25,1.0,0.7405808970000001,1.0,0.679614108,0.0,0.436436964,False,,5f22d73c2c28c101e9541d32,,1194257,80,,evan-feature22,full_pf_b,,1
55,43774,81,,,,1,1,1.0,1.0,0.0,1.0,,0.0-83.0,,1.0,958.7,1.0,0.29890393,1.0,0.730505706,1.0,0.7328203320000001,0.0,0.439256938,False,,5f22d73c2c28c101e9541d32,,1205175,81,,evan-feature22,full_pf_b,,1
56,43775,82,,,,2,2,1.0,1.0,-1.0,0.0,,0.0-84.0,,-1.0,780.0,0.0,0.326762398,1.0,0.7148059609999999,1.0,0.75,1.0,0.44389608799999997,False,,5f22d73c2c28c101e9541d32,,1215828,82,,evan-feature22,full_pf_b,,1
57,43776,83,,,,1,1,1.0,1.0,-1.0,0.0,,0.0-85.0,,-1.0,1100.6,1.0,0.295168515,1.0,0.739760854,0.0,0.719947008,0.0,0.35277284600000003,False,,5f22d73c2c28c101e9541d32,,1226823,83,,evan-feature22,full_pf_b,,1
58,43777,84,,,,2,2,1.0,1.0,-1.0,0.0,,0.0-86.0,,-1.0,839.8,0.0,0.25,1.0,0.70781482,1.0,0.75,1.0,0.286095925,False,,5f22d73c2c28c101e9541d32,,1237601,84,,evan-feature22,full_pf_b,,1
59,43778,85,,,,1,1,0.0,1.0,0.0,1.0,,0.0-87.0,,1.0,687.4,0.0,0.25638190899999996,1.0,0.704088163,0.0,0.75,0.0,0.26872601399999996,False,,5f22d73c2c28c101e9541d32,,1248208,85,,evan-feature22,full_pf_b,,1
60,43779,86,,,,2,2,1.0,1.0,0.0,1.0,,0.0-88.0,,1.0,1104.8,0.0,0.271581126,1.0,0.669760107,1.0,0.733896663,1.0,0.273244572,False,,5f22d73c2c28c101e9541d32,,1259188,86,,evan-feature22,full_pf_b,,1
61,43780,87,,,,1,1,0.0,0.0,0.0,1.0,,0.0-89.0,,0.0,2021.5,0.0,0.257144401,0.0,0.600575706,1.0,0.74488122,0.0,0.25,False,,5f22d73c2c28c101e9541d32,,1271154,87,,evan-feature22,full_pf_b,,1
62,43781,88,,,,1,1,0.0,1.0,-1.0,0.0,,0.0-90.0,,0.0,1245.0,0.0,0.25,1.0,0.616870026,1.0,0.723610234,0.0,0.25,False,,5f22d73c2c28c101e9541d32,,1282325,88,,evan-feature22,full_pf_b,,0
63,43782,89,,,,2,2,0.0,0.0,0.0,1.0,,0.0-91.0,,0.0,1998.7,0.0,0.25,1.0,0.583540187,0.0,0.7041042559999999,0.0,0.285961995,False,,5f22d73c2c28c101e9541d32,,1294210,89,,evan-feature22,full_pf_b,,1
64,43783,90,,,,1,1,0.0,1.0,-1.0,0.0,,0.0-92.0,,0.0,1272.7,0.0,0.27254536,1.0,0.53875765,1.0,0.693783448,1.0,0.284961652,False,,5f22d73c2c28c101e9541d32,,1305428,90,,evan-feature22,full_pf_b,,1
65,43784,91,,,,2,2,1.0,1.0,0.0,1.0,,0.0-93.0,,1.0,807.4,0.0,0.25,1.0,0.548431252,1.0,0.734221895,1.0,0.279445214,False,,5f22d73c2c28c101e9541d32,,1316192,91,,evan-feature22,full_pf_b,,1
66,43785,92,,,,2,2,0.0,1.0,-1.0,0.0,,0.0-94.0,,0.0,1585.6,1.0,0.258640684,0.0,0.545878066,0.0,0.725245965,1.0,0.31487537,False,,5f22d73c2c28c101e9541d32,,1327689,92,,evan-feature22,full_pf_b,,0
67,43786,93,,,,1,1,0.0,1.0,-1.0,0.0,,0.0-95.0,,0.0,1253.5,0.0,0.251103711,1.0,0.5776290629999999,0.0,0.696320133,0.0,0.317831047,False,,5f22d73c2c28c101e9541d32,,1338825,93,,evan-feature22,full_pf_b,,1
68,43787,94,,,,2,2,1.0,1.0,-1.0,0.0,,0.0-96.0,,-1.0,1428.1,0.0,0.276630292,0.0,0.617329858,1.0,0.73838088,1.0,0.261471582,False,,5f22d73c2c28c101e9541d32,,1350153,94,,evan-feature22,full_pf_b,,1
69,43788,95,,,,1,1,0.0,0.0,0.0,1.0,,0.0-97.0,,0.0,1272.2,0.0,0.297716424,0.0,0.618863717,0.0,0.7402358259999999,0.0,0.262600834,False,,5f22d73c2c28c101e9541d32,,1361304,95,,evan-feature22,full_pf_b,,1
70,43789,96,,,,1,1,0.0,1.0,-1.0,0.0,,0.0-98.0,,0.0,1284.6,0.0,0.290935512,1.0,0.695370945,0.0,0.706570507,1.0,0.280030553,False,,5f22d73c2c28c101e9541d32,,1372490,96,,evan-feature22,full_pf_b,,0
71,43790,97,,,,2,2,1.0,0.0,-1.0,0.0,,0.0-99.0,,-1.0,1289.2,0.0,0.25,1.0,0.6465277079999999,1.0,0.67766682,0.0,0.25,False,,5f22d73c2c28c101e9541d32,,1383718,97,,evan-feature22,full_pf_b,,1
72,43791,98,,,,1,1,1.0,1.0,-1.0,0.0,,0.0-100.0,,-1.0,812.8,1.0,0.26463816,1.0,0.636100213,1.0,0.646048507,0.0,0.265607101,False,,5f22d73c2c28c101e9541d32,,1394417,98,,evan-feature22,full_pf_b,,1
73,43792,99,,,,2,2,1.0,0.0,-1.0,0.0,,0.0-101.0,,-1.0,880.6,0.0,0.314340707,0.0,0.667795927,1.0,0.613630805,0.0,0.25,False,,5f22d73c2c28c101e9541d32,,1405182,99,,evan-feature22,full_pf_b,,1
74,43793,100,,,,1,1,0.0,1.0,-1.0,0.0,,0.0-102.0,,0.0,1000.6,0.0,0.28685784,1.0,0.6622549529999999,0.0,0.652154117,0.0,0.25,False,,5f22d73c2c28c101e9541d32,,1416072,100,,evan-feature22,full_pf_b,,1
75,43794,101,,,,2,2,1.0,1.0,0.0,1.0,,0.0-103.0,,1.0,824.0,0.0,0.304106554,1.0,0.631289538,1.0,0.707041942,1.0,0.29314237,False,,5f22d73c2c28c101e9541d32,,1426773,101,,evan-feature22,full_pf_b,,1
76,43795,102,,,,1,1,0.0,0.0,0.0,1.0,,0.0-104.0,,0.0,1336.4,0.0,0.304806932,0.0,0.571167718,0.0,0.680472346,0.0,0.25,False,,5f22d73c2c28c101e9541d32,,1437974,102,,evan-feature22,full_pf_b,,1
77,43796,103,,,,2,2,1.0,0.0,0.0,1.0,,0.0-105.0,,0.0,858.2,0.0,0.37919861,1.0,0.5724849710000001,1.0,0.705638003,0.0,0.30179300600000003,False,,5f22d73c2c28c101e9541d32,,1448708,103,,evan-feature22,full_pf_b,,1
78,43797,104,,,,1,1,1.0,0.0,0.0,1.0,,0.0-106.0,,0.0,991.2,1.0,0.464277969,0.0,0.554034373,0.0,0.7372627340000001,0.0,0.264699741,False,,5f22d73c2c28c101e9541d32,,1459569,104,,evan-feature22,full_pf_b,,1
79,43798,105,,,,2,2,0.0,0.0,-1.0,0.0,,0.0-107.0,,0.0,1085.3,0.0,0.465104323,1.0,0.530793115,0.0,0.75,0.0,0.31683071,False,,5f22d73c2c28c101e9541d32,,1470506,105,,evan-feature22,full_pf_b,,1
80,43799,106,,,,1,1,1.0,1.0,0.0,1.0,,0.0-108.0,,1.0,1218.7,1.0,0.465104323,1.0,0.530793115,1.0,0.75,0.0,0.31683071,False,,5f22d73c2c28c101e9541d32,,1481631,106,,evan-feature22,full_pf_b,,1
81,43800,107,,,,2,2,0.0,1.0,0.0,1.0,,0.0-109.0,,1.0,802.5,1.0,0.46833986,1.0,0.570249239,0.0,0.7244472590000001,1.0,0.364114163,False,,5f22d73c2c28c101e9541d32,,1492337,107,,evan-feature22,full_pf_b,,1
82,43801,108,,,,2,2,1.0,1.0,0.0,1.0,,0.0-110.0,,1.0,1052.6,0.0,0.445444024,1.0,0.649673355,1.0,0.6845441290000001,1.0,0.300660449,False,,5f22d73c2c28c101e9541d32,,1503306,108,,evan-feature22,full_pf_b,,0
83,43802,109,,,,2,2,1.0,0.0,0.0,1.0,,0.0-111.0,,0.0,1067.8,0.0,0.39909721299999995,0.0,0.6715179509999999,1.0,0.742310028,0.0,0.35496088299999995,False,,5f22d73c2c28c101e9541d32,,1514274,109,,evan-feature22,full_pf_b,,0
84,43803,110,,,,1,1,1.0,1.0,0.0,1.0,,0.0-112.0,,1.0,1077.6,1.0,0.37956104799999996,1.0,0.694725302,1.0,0.7181651309999999,1.0,0.38726906299999997,False,,5f22d73c2c28c101e9541d32,,1525288,110,,evan-feature22,full_pf_b,,1
85,43804,111,,,,2,2,1.0,1.0,0.0,1.0,,0.0-113.0,,1.0,681.2,0.0,0.404995034,1.0,0.724375412,1.0,0.6910946859999999,1.0,0.387187347,False,,5f22d73c2c28c101e9541d32,,1535914,111,,evan-feature22,full_pf_b,,1
86,43805,112,,,,1,1,0.0,1.0,0.0,1.0,,0.0-114.0,,1.0,879.7,0.0,0.461740803,1.0,0.75,0.0,0.75,0.0,0.34872038200000005,False,,5f22d73c2c28c101e9541d32,,1546664,112,,evan-feature22,full_pf_b,,1
87,43806,113,,,,2,2,1.0,1.0,-1.0,0.0,,0.0-115.0,,-1.0,1407.0,1.0,0.43821380600000004,1.0,0.738833273,1.0,0.728286963,1.0,0.399538128,False,,5f22d73c2c28c101e9541d32,,1557964,113,,evan-feature22,full_pf_b,,1
88,43807,114,,,,1,1,0.0,1.0,0.0,1.0,,0.0-116.0,,1.0,1081.3,0.0,0.41709882,1.0,0.736666736,0.0,0.75,0.0,0.389095584,False,,5f22d73c2c28c101e9541d32,,1568920,114,,evan-feature22,full_pf_b,,1
89,43808,115,,,,2,2,1.0,0.0,0.0,1.0,,0.0-117.0,,0.0,1142.7,0.0,0.39749009799999996,1.0,0.744320029,1.0,0.75,0.0,0.363848678,False,,5f22d73c2c28c101e9541d32,,1579951,115,,evan-feature22,full_pf_b,,1
90,43809,116,,,,1,1,0.0,0.0,-1.0,0.0,,0.0-118.0,,0.0,1002.5,0.0,0.392653706,0.0,0.75,1.0,0.75,0.0,0.384386976,False,,5f22d73c2c28c101e9541d32,,1590812,116,,evan-feature22,full_pf_b,,1
91,43810,117,,,,2,2,1.0,0.0,-1.0,0.0,,0.0-119.0,,-1.0,2699.1,0.0,0.31190902600000003,1.0,0.75,1.0,0.732413819,0.0,0.413082932,False,,5f22d73c2c28c101e9541d32,,1603400,117,,evan-feature22,full_pf_b,,1
92,43811,118,,,,SLOW,SLOW,,,0.0,1.0,,0.0-120.0,,-3.0,,0.0,0.366917648,0.0,0.740073855,1.0,0.75,0.0,0.352861979,False,,5f22d73c2c28c101e9541d32,,1609275,118,,evan-feature22,full_pf_b,,1
93,43812,119,,,,2,2,1.0,1.0,0.0,1.0,,0.0-121.0,,1.0,857.2,0.0,0.3645172,1.0,0.721770713,1.0,0.75,1.0,0.404074511,False,,5f22d73c2c28c101e9541d32,,1620039,119,,evan-feature22,full_pf_b,,1
94,43813,120,,,,2,2,0.0,0.0,0.0,1.0,,0.0-122.0,,0.0,663.5,0.0,0.35205600299999995,1.0,0.68983859,0.0,0.739735447,0.0,0.366895945,False,,5f22d73c2c28c101e9541d32,,1630579,120,,evan-feature22,full_pf_b,,0
95,43814,121,,,,1,1,0.0,1.0,0.0,1.0,,0.0-123.0,,1.0,1167.5,0.0,0.40998722600000004,1.0,0.720859127,1.0,0.673854955,0.0,0.368528541,False,,5f22d73c2c28c101e9541d32,,1641651,121,,evan-feature22,full_pf_b,,1
96,43815,122,,,,2,2,0.0,1.0,-1.0,0.0,,0.0-124.0,,0.0,2000.1,0.0,0.353625316,0.0,0.75,0.0,0.695605473,1.0,0.38303674200000004,False,,5f22d73c2c28c101e9541d32,,1653574,122,,evan-feature22,full_pf_b,,1
97,43816,123,,,,1,1,0.0,1.0,0.0,1.0,,0.0-125.0,,1.0,1246.3,0.0,0.359216989,1.0,0.75,1.0,0.6987915090000001,1.0,0.35169046200000004,False,,5f22d73c2c28c101e9541d32,,1664701,123,,evan-feature22,full_pf_b,,1
98,43817,124,,,,2,2,1.0,1.0,-1.0,0.0,,0.0-126.0,,-1.0,900.3,1.0,0.35834496899999996,1.0,0.75,1.0,0.707067742,1.0,0.416763636,False,,5f22d73c2c28c101e9541d32,,1675467,124,,evan-feature22,full_pf_b,,1
99,43818,125,,,,1,1,0.0,0.0,-1.0,0.0,,0.0-127.0,,0.0,737.6,0.0,0.38741613799999997,0.0,0.7177369570000001,1.0,0.734902455,1.0,0.49438664299999996,False,,5f22d73c2c28c101e9541d32,,1686076,125,,evan-feature22,full_pf_b,,1
100,43819,126,,,,2,2,0.0,1.0,0.0,1.0,,0.0-128.0,,1.0,976.5,1.0,0.405255252,1.0,0.7300466640000001,0.0,0.7027748070000001,1.0,0.504359668,False,,5f22d73c2c28c101e9541d32,,1696935,126,,evan-feature22,full_pf_b,,1
101,43820,127,,,,2,2,1.0,1.0,0.0,1.0,,0.0-129.0,,1.0,1287.8,0.0,0.40697073,0.0,0.7260142190000001,1.0,0.724461982,1.0,0.522779179,False,,5f22d73c2c28c101e9541d32,,1708116,127,,evan-feature22,full_pf_b,,0
102,43821,128,,,,SLOW,SLOW,,,0.0,1.0,,0.0-130.0,,-3.0,,1.0,0.43906215299999996,1.0,0.7252802340000001,1.0,0.719079934,0.0,0.5712990579999999,False,,5f22d73c2c28c101e9541d32,,1714007,128,,evan-feature22,full_pf_b,,1
103,43822,129,,,,2,2,1.0,1.0,0.0,1.0,,0.0-131.0,,1.0,723.6,0.0,0.4076705,0.0,0.73280499,1.0,0.681313127,1.0,0.523891346,False,,5f22d73c2c28c101e9541d32,,1724615,129,,evan-feature22,full_pf_b,,1
104,43823,130,,,,1,1,0.0,1.0,0.0,1.0,,0.0-132.0,,1.0,1306.4,0.0,0.399102911,1.0,0.730498344,1.0,0.661080239,1.0,0.46742603,False,,5f22d73c2c28c101e9541d32,,1735864,130,,evan-feature22,full_pf_b,,1
105,43824,131,,,,1,1,0.0,0.0,-1.0,0.0,,0.0-133.0,,0.0,1435.6,0.0,0.356477282,0.0,0.712296395,1.0,0.641812684,1.0,0.44868414,False,,5f22d73c2c28c101e9541d32,,1747222,131,,evan-feature22,full_pf_b,,0
106,43825,132,,,,2,2,1.0,0.0,0.0,1.0,,0.0-134.0,,0.0,1172.4,1.0,0.462760722,1.0,0.692349322,1.0,0.700947931,0.0,0.394680266,False,,5f22d73c2c28c101e9541d32,,1758316,132,,evan-feature22,full_pf_b,,1
107,43826,133,,,,1,1,0.0,1.0,0.0,1.0,,0.0-135.0,,1.0,1263.1,0.0,0.422306413,1.0,0.718375916,1.0,0.706340917,0.0,0.367787185,False,,5f22d73c2c28c101e9541d32,,1769445,133,,evan-feature22,full_pf_b,,1
108,43828,135,,,,2,2,1.0,1.0,0.0,1.0,,0.0-137.0,,1.0,878.2,0.0,0.4582233,1.0,0.643834117,1.0,0.75,1.0,0.39615823299999997,False,,5f22d73c2c28c101e9541d32,,1782785,135,,evan-feature22,full_pf_b,,1
109,43829,136,,,,1,1,0.0,0.0,0.0,1.0,,0.0-138.0,,0.0,1040.5,0.0,0.43813437899999996,0.0,0.651283804,1.0,0.729674191,0.0,0.37711048,False,,5f22d73c2c28c101e9541d32,,1793702,136,,evan-feature22,full_pf_b,,1
110,43830,137,,,,2,2,1.0,0.0,0.0,1.0,,0.0-139.0,,0.0,1370.3,0.0,0.471199094,1.0,0.6470010979999999,1.0,0.715008097,0.0,0.410656191,False,,5f22d73c2c28c101e9541d32,,1804939,137,,evan-feature22,full_pf_b,,1
111,43831,138,,,,1,1,1.0,1.0,-1.0,0.0,,0.0-140.0,,-1.0,832.7,1.0,0.42486406,1.0,0.629771829,1.0,0.6550939960000001,0.0,0.459093873,False,,5f22d73c2c28c101e9541d32,,1815689,138,,evan-feature22,full_pf_b,,1
112,43832,139,,,,2,2,1.0,1.0,-1.0,0.0,,0.0-141.0,,-1.0,873.6,0.0,0.4803197,1.0,0.645842715,1.0,0.6421749920000001,1.0,0.443092151,False,,5f22d73c2c28c101e9541d32,,1826439,139,,evan-feature22,full_pf_b,,1
113,43833,140,,,,2,2,0.0,0.0,-1.0,0.0,,0.0-142.0,,0.0,1092.9,1.0,0.521848997,1.0,0.735801074,0.0,0.6691348460000001,0.0,0.45259351600000003,False,,5f22d73c2c28c101e9541d32,,1837466,140,,evan-feature22,full_pf_b,,0
114,43834,141,,,,1,1,1.0,1.0,0.0,1.0,,0.0-143.0,,1.0,778.5,1.0,0.49565621299999996,1.0,0.742400847,0.0,0.661512553,1.0,0.483110831,False,,5f22d73c2c28c101e9541d32,,1848169,141,,evan-feature22,full_pf_b,,1
115,43835,142,,,,2,2,0.0,0.0,-1.0,0.0,,0.0-144.0,,0.0,1120.6,1.0,0.521564361,1.0,0.731078632,0.0,0.6774886809999999,0.0,0.483263956,False,,5f22d73c2c28c101e9541d32,,1859207,142,,evan-feature22,full_pf_b,,1
116,43836,143,,,,1,1,1.0,1.0,-1.0,0.0,,0.0-145.0,,-1.0,776.1,1.0,0.558893102,1.0,0.719810023,0.0,0.67461031,0.0,0.499349834,False,,5f22d73c2c28c101e9541d32,,1869836,143,,evan-feature22,full_pf_b,,1
117,43837,144,,,,2,2,1.0,1.0,0.0,1.0,,0.0-146.0,,1.0,942.5,0.0,0.611031046,1.0,0.75,1.0,0.688072995,1.0,0.5321422729999999,False,,5f22d73c2c28c101e9541d32,,1880658,144,,evan-feature22,full_pf_b,,1
118,43838,145,,,,1,1,1.0,1.0,-1.0,0.0,,0.0-147.0,,-1.0,1263.7,1.0,0.633223941,1.0,0.713567728,1.0,0.75,0.0,0.48185314700000004,False,,5f22d73c2c28c101e9541d32,,1891810,145,,evan-feature22,full_pf_b,,1
119,43839,146,,,,2,2,0.0,1.0,-1.0,0.0,,0.0-148.0,,0.0,3125.5,1.0,0.664001694,1.0,0.705509768,0.0,0.75,1.0,0.500211065,False,,5f22d73c2c28c101e9541d32,,1904789,146,,evan-feature22,full_pf_b,,1
120,43840,147,,,,1,1,1.0,1.0,0.0,1.0,,0.0-149.0,,1.0,507.8,1.0,0.664001694,1.0,0.705509768,1.0,0.75,1.0,0.500211065,False,,5f22d73c2c28c101e9541d32,,1915181,147,,evan-feature22,full_pf_b,,1
121,43841,148,,,,2,2,1.0,1.0,0.0,1.0,,0.0-150.0,,1.0,649.0,1.0,0.696508041,1.0,0.71066027,1.0,0.717028709,1.0,0.49792991,False,,5f22d73c2c28c101e9541d32,,1925736,148,,evan-feature22,full_pf_b,,1
122,43842,149,,,,1,1,0.0,1.0,-1.0,0.0,,0.0-151.0,,0.0,915.7,0.0,0.699883272,1.0,0.75,1.0,0.713543895,1.0,0.496962643,False,,5f22d73c2c28c101e9541d32,,1936547,149,,evan-feature22,full_pf_b,,1
123,43843,150,,,,2,2,1.0,0.0,0.0,1.0,,0.0-152.0,,0.0,671.0,1.0,0.741163419,1.0,0.75,1.0,0.64691024,0.0,0.513858197,False,,5f22d73c2c28c101e9541d32,,1947141,150,,evan-feature22,full_pf_b,,1
124,43844,151,,,,1,1,1.0,1.0,-1.0,0.0,,0.0-153.0,,-1.0,864.7,1.0,0.75,1.0,0.70816558,0.0,0.594499079,1.0,0.48502124,False,,5f22d73c2c28c101e9541d32,,1957952,151,,evan-feature22,full_pf_b,,1
125,43845,152,,,,2,2,1.0,1.0,0.0,1.0,,0.0-154.0,,1.0,645.1,1.0,0.75,0.0,0.721848901,1.0,0.62197249,1.0,0.48263586399999997,False,,5f22d73c2c28c101e9541d32,,1968516,152,,evan-feature22,full_pf_b,,1
126,43846,153,,,,1,1,1.0,0.0,-1.0,0.0,,0.0-155.0,,-1.0,1008.2,1.0,0.75,0.0,0.74813071,1.0,0.584357161,1.0,0.411477782,False,,5f22d73c2c28c101e9541d32,,1979408,153,,evan-feature22,full_pf_b,,1
127,43847,154,,,,2,2,0.0,1.0,0.0,1.0,,0.0-156.0,,1.0,487.7,1.0,0.75,1.0,0.75,0.0,0.52287236,1.0,0.488290656,False,,5f22d73c2c28c101e9541d32,,1989784,154,,evan-feature22,full_pf_b,,1
128,43848,155,,,,2,2,1.0,0.0,0.0,1.0,,0.0-157.0,,0.0,560.2,0.0,0.75,0.0,0.75,1.0,0.544321581,0.0,0.53143059,False,,5f22d73c2c28c101e9541d32,,2000209,155,,evan-feature22,full_pf_b,,0
129,43849,156,,,,1,1,0.0,0.0,0.0,1.0,,0.0-158.0,,0.0,2815.5,0.0,0.726754564,0.0,0.75,0.0,0.5129306370000001,1.0,0.530592445,False,,5f22d73c2c28c101e9541d32,,2012882,156,,evan-feature22,full_pf_b,,1
130,43850,157,,,,2,2,1.0,1.0,-1.0,0.0,,0.0-159.0,,-1.0,676.0,1.0,0.75,1.0,0.7392590729999999,1.0,0.479875835,1.0,0.547007051,False,,5f22d73c2c28c101e9541d32,,2023447,157,,evan-feature22,full_pf_b,,1
131,43851,158,,,,1,1,1.0,0.0,-1.0,0.0,,0.0-160.0,,-1.0,555.2,1.0,0.75,0.0,0.7393376979999999,0.0,0.546045419,1.0,0.541267353,False,,5f22d73c2c28c101e9541d32,,2033903,158,,evan-feature22,full_pf_b,,1
132,43852,159,,,,2,2,0.0,0.0,-1.0,0.0,,0.0-161.0,,0.0,655.2,0.0,0.75,0.0,0.75,0.0,0.485725895,0.0,0.527625395,False,,5f22d73c2c28c101e9541d32,,2044469,159,,evan-feature22,full_pf_b,,1
133,43853,160,,,,1,1,0.0,0.0,0.0,1.0,,0.0-162.0,,0.0,949.7,0.0,0.75,0.0,0.725087974,1.0,0.488603595,1.0,0.504019206,False,,5f22d73c2c28c101e9541d32,,2055332,160,,evan-feature22,full_pf_b,,1
134,43854,161,,,,2,2,1.0,1.0,0.0,1.0,,0.0-163.0,,1.0,732.7,1.0,0.745504295,1.0,0.75,1.0,0.452379914,1.0,0.50131194,False,,5f22d73c2c28c101e9541d32,,2065978,161,,evan-feature22,full_pf_b,,1
135,43855,162,,,,1,1,1.0,1.0,0.0,1.0,,0.0-164.0,,1.0,951.5,1.0,0.728513874,1.0,0.75,1.0,0.44125567200000004,1.0,0.531454591,False,,5f22d73c2c28c101e9541d32,,2076852,162,,evan-feature22,full_pf_b,,1
136,43856,163,,,,2,2,1.0,0.0,-1.0,0.0,,0.0-165.0,,-1.0,682.8,1.0,0.73790804,1.0,0.75,1.0,0.413036656,0.0,0.524619035,False,,5f22d73c2c28c101e9541d32,,2087400,163,,evan-feature22,full_pf_b,,1
137,43857,164,,,,1,1,1.0,1.0,0.0,1.0,,0.0-166.0,,1.0,1585.9,1.0,0.7080961309999999,1.0,0.708666865,0.0,0.431915581,1.0,0.481819489,False,,5f22d73c2c28c101e9541d32,,2098863,164,,evan-feature22,full_pf_b,,1
138,43858,165,,,,2,2,0.0,0.0,0.0,1.0,,0.0-167.0,,0.0,1544.8,0.0,0.721378003,1.0,0.71605913,0.0,0.36642387,0.0,0.5036739929999999,False,,5f22d73c2c28c101e9541d32,,2110266,165,,evan-feature22,full_pf_b,,1
139,43859,166,,,,2,2,1.0,0.0,0.0,1.0,,0.0-168.0,,0.0,1905.4,0.0,0.7340618959999999,1.0,0.699323252,1.0,0.35298046299999997,0.0,0.511241692,False,,5f22d73c2c28c101e9541d32,,2122047,166,,evan-feature22,full_pf_b,,0
140,43860,167,,,,1,1,1.0,0.0,-1.0,0.0,,0.0-169.0,,-1.0,627.1,1.0,0.75,0.0,0.70412698,1.0,0.380734814,1.0,0.529580116,False,,5f22d73c2c28c101e9541d32,,2132519,167,,evan-feature22,full_pf_b,,1
141,43861,168,,,,2,2,0.0,1.0,0.0,1.0,,0.0-170.0,,1.0,610.7,1.0,0.7436654909999999,1.0,0.711182751,0.0,0.41125331,1.0,0.49554405,False,,5f22d73c2c28c101e9541d32,,2143073,168,,evan-feature22,full_pf_b,,1
142,43862,169,,,,2,2,1.0,0.0,0.0,1.0,,0.0-171.0,,0.0,624.3,0.0,0.731607915,0.0,0.651774583,1.0,0.35688023,0.0,0.45194491600000003,False,,5f22d73c2c28c101e9541d32,,2153558,169,,evan-feature22,full_pf_b,,0
143,43863,170,,,,1,1,0.0,0.0,-1.0,0.0,,0.0-172.0,,0.0,773.3,0.0,0.75,0.0,0.75,0.0,0.283145374,0.0,0.528608005,False,,5f22d73c2c28c101e9541d32,,2164215,170,,evan-feature22,full_pf_b,,1
144,43864,171,,,,2,2,0.0,1.0,-1.0,0.0,,0.0-173.0,,0.0,753.1,1.0,0.7491416890000001,1.0,0.7423785959999999,0.0,0.29135870399999997,1.0,0.498888318,False,,5f22d73c2c28c101e9541d32,,2174879,171,,evan-feature22,full_pf_b,,1
145,43865,172,,,,1,1,1.0,1.0,-1.0,0.0,,0.0-174.0,,-1.0,538.4,1.0,0.708569387,1.0,0.717682277,0.0,0.294421699,0.0,0.493838163,False,,5f22d73c2c28c101e9541d32,,2185307,172,,evan-feature22,full_pf_b,,1
146,43866,173,,,,2,2,1.0,0.0,0.0,1.0,,0.0-175.0,,0.0,443.5,1.0,0.75,1.0,0.7383382159999999,1.0,0.356098707,0.0,0.442533405,False,,5f22d73c2c28c101e9541d32,,2195645,173,,evan-feature22,full_pf_b,,1
147,43867,174,,,,2,2,0.0,0.0,0.0,1.0,,0.0-176.0,,0.0,885.4,1.0,0.744527075,1.0,0.75,0.0,0.334127506,0.0,0.393165805,False,,5f22d73c2c28c101e9541d32,,2206442,174,,evan-feature22,full_pf_b,,0
148,43868,175,,,,2,2,1.0,0.0,0.0,1.0,,0.0-177.0,,0.0,728.9,1.0,0.75,1.0,0.75,1.0,0.33571021799999995,0.0,0.350393962,False,,5f22d73c2c28c101e9541d32,,2217066,175,,evan-feature22,full_pf_b,,0
149,43869,176,,,,2,2,0.0,1.0,0.0,1.0,,0.0-178.0,,1.0,655.7,1.0,0.75,0.0,0.75,0.0,0.313628297,1.0,0.36349657399999996,False,,5f22d73c2c28c101e9541d32,,2227618,176,,evan-feature22,full_pf_b,,0
150,43870,177,,,,1,1,1.0,1.0,-1.0,0.0,,0.0-179.0,,-1.0,904.8,1.0,0.75,1.0,0.734284182,0.0,0.262667667,1.0,0.380199119,False,,5f22d73c2c28c101e9541d32,,2238413,177,,evan-feature22,full_pf_b,,1
151,43871,178,,,,2,2,0.0,0.0,0.0,1.0,,0.0-180.0,,0.0,619.3,1.0,0.75,1.0,0.75,0.0,0.25,0.0,0.394494013,False,,5f22d73c2c28c101e9541d32,,2248899,178,,evan-feature22,full_pf_b,,1
152,43872,179,,,,1,1,1.0,0.0,-1.0,0.0,,0.0-181.0,,-1.0,1093.6,1.0,0.722298145,0.0,0.7357822340000001,0.0,0.25,0.0,0.319142121,False,,5f22d73c2c28c101e9541d32,,2259942,179,,evan-feature22,full_pf_b,,1
153,43873,180,,,,2,2,1.0,0.0,-1.0,0.0,,0.0-182.0,,-1.0,845.2,1.0,0.73149275,1.0,0.724276446,1.0,0.305856907,0.0,0.281315057,False,,5f22d73c2c28c101e9541d32,,2270705,180,,evan-feature22,full_pf_b,,1
154,43874,181,,,,2,2,0.0,1.0,0.0,1.0,,0.0-183.0,,1.0,931.4,1.0,0.7458732690000001,1.0,0.7336382459999999,0.0,0.272571964,1.0,0.266021999,False,,5f22d73c2c28c101e9541d32,,2281514,181,,evan-feature22,full_pf_b,,0
155,43875,182,,,,2,2,0.0,0.0,0.0,1.0,,0.0-184.0,,0.0,680.9,1.0,0.705579037,1.0,0.720778292,0.0,0.320238144,0.0,0.30971744,False,,5f22d73c2c28c101e9541d32,,2292057,182,,evan-feature22,full_pf_b,,0
156,43876,183,,,,2,2,0.0,0.0,0.0,1.0,,0.0-185.0,,0.0,1065.6,1.0,0.700425648,1.0,0.7198784009999999,0.0,0.272590393,0.0,0.304182931,False,,5f22d73c2c28c101e9541d32,,2302991,183,,evan-feature22,full_pf_b,,0
157,43877,184,,,,1,1,0.0,1.0,0.0,1.0,,0.0-186.0,,1.0,910.7,0.0,0.735590785,1.0,0.722714973,0.0,0.25,0.0,0.323421091,False,,5f22d73c2c28c101e9541d32,,2313770,184,,evan-feature22,full_pf_b,,1
158,43878,185,,,,2,2,0.0,1.0,0.0,1.0,,0.0-187.0,,1.0,674.4,1.0,0.724807662,1.0,0.63146213,0.0,0.36836492600000004,1.0,0.34592153299999995,False,,5f22d73c2c28c101e9541d32,,2324301,185,,evan-feature22,full_pf_b,,1
159,43879,186,,,,2,2,1.0,0.0,0.0,1.0,,0.0-188.0,,0.0,643.8,1.0,0.7352796909999999,1.0,0.555111392,1.0,0.36003922,0.0,0.31433779999999995,False,,5f22d73c2c28c101e9541d32,,2334787,186,,evan-feature22,full_pf_b,,0
160,43880,187,notice,,,,,,,,,,0.0-189.0,"{""Q0"":""no""}",,10509.0,,,,,,,,,False,,5f22d73c2c28c101e9541d32,,2345309,187,Q,survey-text,full_pf_b,,1
161,43881,188,track1,,[0],,,,,,,,0.0-190.0,"{""Q0"":""yes""}",,4019.0,,,,,,,,,False,,5f22d73c2c28c101e9541d32,,2349364,188,Q,evan-quiz,full_pf_b,,1
162,43882,189,track2,,[1],,,,,,,,0.0-191.0,"{""Q0"":""no""}",,9012.0,,,,,,,,,False,,5f22d73c2c28c101e9541d32,,2358390,189,Q,evan-quiz,full_pf_b,,1
163,43883,190,strat,,,,,,,,,,0.0-192.0,"{""Q0"":""the aliens tended to paarear on one side for a bit . then the other side. some were just guesses""}",,37045.0,,,,,,,,,False,,5f22d73c2c28c101e9541d32,,2395449,190,Q,survey-text,full_pf_b,,1
