,index,Unnamed: 0,Q_name,button_pressed,choice_idxs,chosen_pos,chosen_state,chosen_state_f_1_outcome,chosen_state_f_2_outcome,f_1_reward,f_2_reward,incor_questions,internal_node_id,responses,reward_received,rt,s_1_f_1_outcome,s_1_f_1_prob,s_1_f_2_outcome,s_1_f_2_prob,s_2_f_1_outcome,s_2_f_1_prob,s_2_f_2_outcome,s_2_f_2_prob,safe_first,stimulus,subjectID,success,time_elapsed,trial_index,trial_num,trial_type,version,view_history,switching
0,12828,30,,,,1,1,0.0,0.0,1.0,0.0,,0.0-27.0,,0.0,1561.2,0.0,0.6,0.0,0.6,1.0,0.4,1.0,0.4,True,,5d2e5d1c649703001a9c920d,,969547,30,,evan-feature22,full_rf_a,,0
1,12829,31,,,,2,2,0.0,1.0,1.0,0.0,,0.0-28.0,,0.0,894.6,1.0,0.608053294,0.0,0.63424552,0.0,0.397152172,1.0,0.347069101,True,,5d2e5d1c649703001a9c920d,,980346,31,,evan-feature22,full_rf_a,,1
2,12830,32,,,,2,2,0.0,0.0,1.0,0.0,,0.0-29.0,,0.0,951.2,0.0,0.642237155,1.0,0.648566321,0.0,0.389407674,0.0,0.285525717,True,,5d2e5d1c649703001a9c920d,,991139,32,,evan-feature22,full_rf_a,,0
3,12831,33,,,,1,1,0.0,1.0,1.0,0.0,,0.0-30.0,,0.0,821.2,0.0,0.661086576,1.0,0.630492543,1.0,0.399058924,1.0,0.25,True,,5d2e5d1c649703001a9c920d,,1001773,33,,evan-feature22,full_rf_a,,1
4,12832,34,,,,2,2,0.0,0.0,0.0,-1.0,,0.0-31.0,,0.0,1005.7,0.0,0.631324137,1.0,0.6269842929999999,0.0,0.38734784299999997,0.0,0.25,True,,5d2e5d1c649703001a9c920d,,1012629,34,,evan-feature22,full_rf_a,,1
5,12833,35,,,,2,2,1.0,0.0,0.0,-1.0,,0.0-32.0,,0.0,1024.8,1.0,0.6381991370000001,1.0,0.68987999,1.0,0.384107265,0.0,0.271332943,True,,5d2e5d1c649703001a9c920d,,1023527,35,,evan-feature22,full_rf_a,,0
6,12834,36,,,,2,2,0.0,0.0,1.0,0.0,,0.0-33.0,,0.0,1359.3,1.0,0.66034901,1.0,0.742641349,0.0,0.360225629,0.0,0.25,True,,5d2e5d1c649703001a9c920d,,1034682,36,,evan-feature22,full_rf_a,,0
7,12835,37,,,,1,1,1.0,1.0,1.0,0.0,,0.0-34.0,,1.0,683.5,1.0,0.638612418,1.0,0.75,1.0,0.367273939,1.0,0.25,True,,5d2e5d1c649703001a9c920d,,1045246,37,,evan-feature22,full_rf_a,,1
8,12836,38,,,,1,1,0.0,1.0,0.0,-1.0,,0.0-35.0,,-1.0,680.7,0.0,0.624340629,1.0,0.75,1.0,0.425829545,0.0,0.25,True,,5d2e5d1c649703001a9c920d,,1055789,38,,evan-feature22,full_rf_a,,0
9,12837,39,,,,2,2,1.0,0.0,0.0,-1.0,,0.0-36.0,,0.0,897.7,0.0,0.621999804,1.0,0.75,1.0,0.368609357,0.0,0.25,True,,5d2e5d1c649703001a9c920d,,1066528,39,,evan-feature22,full_rf_a,,1
10,12838,40,,,,2,2,1.0,1.0,1.0,0.0,,0.0-37.0,,1.0,789.0,1.0,0.62666403,0.0,0.75,1.0,0.311151498,1.0,0.25,True,,5d2e5d1c649703001a9c920d,,1077236,40,,evan-feature22,full_rf_a,,0
11,12839,41,,,,1,1,1.0,0.0,0.0,-1.0,,0.0-38.0,,0.0,997.2,1.0,0.6819650009999999,0.0,0.75,0.0,0.310763048,0.0,0.25,True,,5d2e5d1c649703001a9c920d,,1088092,41,,evan-feature22,full_rf_a,,1
12,12840,42,,,,2,2,0.0,0.0,1.0,0.0,,0.0-39.0,,0.0,1608.4,1.0,0.740626951,1.0,0.75,0.0,0.25,0.0,0.25,True,,5d2e5d1c649703001a9c920d,,1099551,42,,evan-feature22,full_rf_a,,1
13,12841,43,,,,1,1,1.0,1.0,1.0,0.0,,0.0-40.0,,1.0,1351.2,1.0,0.739599242,1.0,0.742034978,1.0,0.25397114600000004,0.0,0.25,True,,5d2e5d1c649703001a9c920d,,1110707,43,,evan-feature22,full_rf_a,,1
14,12842,44,,,,1,1,1.0,0.0,1.0,0.0,,0.0-41.0,,1.0,1304.8,1.0,0.732341315,0.0,0.72735643,0.0,0.25,1.0,0.25,True,,5d2e5d1c649703001a9c920d,,1121873,44,,evan-feature22,full_rf_a,,0
15,12843,45,,,,1,1,1.0,0.0,1.0,0.0,,0.0-42.0,,1.0,1080.2,1.0,0.7062287770000001,0.0,0.75,0.0,0.29002151,0.0,0.288256649,True,,5d2e5d1c649703001a9c920d,,1132811,45,,evan-feature22,full_rf_a,,0
16,12844,46,,,,1,1,0.0,0.0,1.0,0.0,,0.0-43.0,,0.0,808.7,0.0,0.7086029209999999,0.0,0.75,0.0,0.274129113,0.0,0.262851608,True,,5d2e5d1c649703001a9c920d,,1143472,46,,evan-feature22,full_rf_a,,0
17,12845,47,,,,1,1,1.0,1.0,1.0,0.0,,0.0-44.0,,1.0,666.8,1.0,0.669189651,1.0,0.727614338,0.0,0.298444036,0.0,0.296944518,True,,5d2e5d1c649703001a9c920d,,1154007,47,,evan-feature22,full_rf_a,,0
18,12846,48,,,,1,1,1.0,0.0,1.0,0.0,,0.0-45.0,,1.0,813.8,1.0,0.6819912929999999,0.0,0.7179434290000001,1.0,0.265003961,0.0,0.28157921199999997,True,,5d2e5d1c649703001a9c920d,,1164672,48,,evan-feature22,full_rf_a,,0
19,12847,49,,,,2,2,0.0,0.0,0.0,-1.0,,0.0-46.0,,0.0,3813.8,1.0,0.665275002,1.0,0.723065271,0.0,0.260414971,0.0,0.30973870000000003,True,,5d2e5d1c649703001a9c920d,,1178372,49,,evan-feature22,full_rf_a,,1
20,12848,50,,,,1,1,1.0,1.0,1.0,0.0,,0.0-47.0,,1.0,1772.7,1.0,0.6660593260000001,1.0,0.728032907,0.0,0.30922817,0.0,0.338778608,True,,5d2e5d1c649703001a9c920d,,1189983,50,,evan-feature22,full_rf_a,,1
21,12849,51,,,,1,1,1.0,1.0,1.0,0.0,,0.0-48.0,,1.0,1065.2,1.0,0.702068785,1.0,0.6528750879999999,0.0,0.287329608,1.0,0.35789613200000003,True,,5d2e5d1c649703001a9c920d,,1200908,51,,evan-feature22,full_rf_a,,0
22,12850,52,,,,1,1,1.0,1.0,1.0,0.0,,0.0-49.0,,1.0,1206.0,1.0,0.651939787,1.0,0.636725589,0.0,0.284834488,0.0,0.358563756,True,,5d2e5d1c649703001a9c920d,,1211978,52,,evan-feature22,full_rf_a,,0
23,12851,53,,,,2,2,0.0,1.0,0.0,-1.0,,0.0-50.0,,-1.0,1544.6,0.0,0.67573929,1.0,0.612550049,0.0,0.37130387600000003,1.0,0.383542402,True,,5d2e5d1c649703001a9c920d,,1223388,53,,evan-feature22,full_rf_a,,1
24,12852,54,,,,1,1,1.0,1.0,0.0,-1.0,,0.0-51.0,,-1.0,545.5,1.0,0.620753801,1.0,0.60513644,0.0,0.385529434,1.0,0.340361743,True,,5d2e5d1c649703001a9c920d,,1233774,54,,evan-feature22,full_rf_a,,1
25,12853,55,,,,1,1,0.0,1.0,0.0,-1.0,,0.0-52.0,,-1.0,2986.4,0.0,0.673564893,1.0,0.672437924,0.0,0.292955382,1.0,0.337633795,True,,5d2e5d1c649703001a9c920d,,1246602,55,,evan-feature22,full_rf_a,,0
26,12854,56,,,,1,1,0.0,0.0,1.0,0.0,,0.0-53.0,,0.0,1344.9,0.0,0.6749427,0.0,0.724197502,0.0,0.32391132100000003,0.0,0.350995264,True,,5d2e5d1c649703001a9c920d,,1257810,56,,evan-feature22,full_rf_a,,0
27,12855,57,,,,1,1,0.0,1.0,1.0,0.0,,0.0-54.0,,0.0,830.4,0.0,0.6940159379999999,1.0,0.75,0.0,0.31710554399999996,1.0,0.413450341,True,,5d2e5d1c649703001a9c920d,,1268494,57,,evan-feature22,full_rf_a,,0
28,12856,58,,,,1,1,1.0,0.0,1.0,0.0,,0.0-55.0,,1.0,965.6,1.0,0.6916018270000001,0.0,0.69001187,0.0,0.261817804,0.0,0.40038635,True,,5d2e5d1c649703001a9c920d,,1279311,58,,evan-feature22,full_rf_a,,0
29,12857,59,,,,1,1,1.0,1.0,1.0,0.0,,0.0-56.0,,1.0,947.5,1.0,0.641061544,1.0,0.71337992,0.0,0.277296461,1.0,0.47372791700000005,True,,5d2e5d1c649703001a9c920d,,1290153,59,,evan-feature22,full_rf_a,,0
30,12858,60,,,,1,1,1.0,0.0,1.0,0.0,,0.0-57.0,,1.0,1274.1,1.0,0.6082438520000001,0.0,0.708471106,1.0,0.28745137,1.0,0.564174476,True,,5d2e5d1c649703001a9c920d,,1301296,60,,evan-feature22,full_rf_a,,0
31,12859,61,,,,1,1,1.0,1.0,1.0,0.0,,0.0-58.0,,1.0,1133.8,1.0,0.6051112120000001,1.0,0.7118147229999999,1.0,0.272390611,1.0,0.5595149939999999,True,,5d2e5d1c649703001a9c920d,,1312277,61,,evan-feature22,full_rf_a,,0
32,12860,62,,,,1,1,0.0,0.0,1.0,0.0,,0.0-59.0,,0.0,1224.9,0.0,0.582420852,0.0,0.635867583,0.0,0.31089574,1.0,0.5227206520000001,True,,5d2e5d1c649703001a9c920d,,1323337,62,,evan-feature22,full_rf_a,,0
33,12861,63,,,,2,2,0.0,1.0,0.0,-1.0,,0.0-60.0,,-1.0,1340.1,1.0,0.623195575,1.0,0.655026044,0.0,0.25,1.0,0.560387538,True,,5d2e5d1c649703001a9c920d,,1334579,63,,evan-feature22,full_rf_a,,1
34,12862,64,,,,1,1,0.0,1.0,1.0,0.0,,0.0-61.0,,0.0,1198.8,0.0,0.601889598,1.0,0.678198724,0.0,0.25,0.0,0.559922936,True,,5d2e5d1c649703001a9c920d,,1345648,64,,evan-feature22,full_rf_a,,1
35,12863,65,,,,1,1,0.0,1.0,1.0,0.0,,0.0-62.0,,0.0,1181.2,0.0,0.601259914,1.0,0.704681482,1.0,0.33908969299999997,0.0,0.505003715,True,,5d2e5d1c649703001a9c920d,,1356680,65,,evan-feature22,full_rf_a,,0
36,12864,66,,,,2,2,1.0,1.0,1.0,0.0,,0.0-63.0,,1.0,770.0,1.0,0.59645454,1.0,0.710437172,1.0,0.327441879,1.0,0.391749613,True,,5d2e5d1c649703001a9c920d,,1367292,66,,evan-feature22,full_rf_a,,1
37,12865,67,,,,2,2,0.0,1.0,1.0,0.0,,0.0-64.0,,0.0,818.4,1.0,0.529473,0.0,0.636758527,0.0,0.301338063,1.0,0.365661481,True,,5d2e5d1c649703001a9c920d,,1378013,67,,evan-feature22,full_rf_a,,0
38,12866,68,,,,SLOW,SLOW,,,0.0,-1.0,,0.0-65.0,,-3.0,,0.0,0.541657162,1.0,0.634541962,1.0,0.343535366,0.0,0.371763742,True,,5d2e5d1c649703001a9c920d,,1383861,68,,evan-feature22,full_rf_a,,1
39,12867,69,,,,1,1,1.0,1.0,1.0,0.0,,0.0-66.0,,1.0,1109.5,1.0,0.5707533260000001,1.0,0.589121171,1.0,0.326428396,1.0,0.43961622899999997,True,,5d2e5d1c649703001a9c920d,,1394817,69,,evan-feature22,full_rf_a,,1
40,12868,70,,,,1,1,0.0,1.0,1.0,0.0,,0.0-67.0,,0.0,968.7,0.0,0.5707533260000001,1.0,0.589121171,0.0,0.326428396,1.0,0.43961622899999997,True,,5d2e5d1c649703001a9c920d,,1405641,70,,evan-feature22,full_rf_a,,0
41,12869,71,,,,1,1,1.0,1.0,1.0,0.0,,0.0-68.0,,1.0,711.8,1.0,0.506271295,1.0,0.641775594,0.0,0.37149690700000004,0.0,0.404330166,True,,5d2e5d1c649703001a9c920d,,1416182,71,,evan-feature22,full_rf_a,,0
42,12870,72,,,,1,1,0.0,1.0,0.0,-1.0,,0.0-69.0,,-1.0,513.0,0.0,0.455642565,1.0,0.623605825,0.0,0.358753011,0.0,0.346174041,True,,5d2e5d1c649703001a9c920d,,1426583,72,,evan-feature22,full_rf_a,,0
43,12871,73,,,,2,2,0.0,0.0,0.0,-1.0,,0.0-70.0,,0.0,1272.3,1.0,0.483677308,0.0,0.5904681070000001,0.0,0.402218411,0.0,0.35344697,True,,5d2e5d1c649703001a9c920d,,1437703,73,,evan-feature22,full_rf_a,,1
44,12872,74,,,,2,2,1.0,0.0,0.0,-1.0,,0.0-71.0,,0.0,1253.1,0.0,0.394210977,1.0,0.558925494,1.0,0.540052017,0.0,0.35182128700000004,True,,5d2e5d1c649703001a9c920d,,1448791,74,,evan-feature22,full_rf_a,,0
45,12873,75,,,,1,1,0.0,1.0,1.0,0.0,,0.0-72.0,,0.0,1138.6,0.0,0.382300414,1.0,0.577670603,1.0,0.607608448,0.0,0.378261578,True,,5d2e5d1c649703001a9c920d,,1459764,75,,evan-feature22,full_rf_a,,1
46,12874,76,,,,1,1,0.0,1.0,1.0,0.0,,0.0-73.0,,0.0,699.9,0.0,0.357596762,1.0,0.5929076529999999,1.0,0.6579790010000001,0.0,0.401326777,True,,5d2e5d1c649703001a9c920d,,1470284,76,,evan-feature22,full_rf_a,,0
47,12875,77,,,,2,2,1.0,1.0,1.0,0.0,,0.0-74.0,,1.0,1353.4,1.0,0.362033495,1.0,0.582308608,1.0,0.649195052,1.0,0.355158505,True,,5d2e5d1c649703001a9c920d,,1481514,77,,evan-feature22,full_rf_a,,1
48,12876,78,,,,2,2,1.0,0.0,1.0,0.0,,0.0-75.0,,1.0,937.7,0.0,0.369620635,1.0,0.669100864,1.0,0.706059111,0.0,0.362516241,True,,5d2e5d1c649703001a9c920d,,1492312,78,,evan-feature22,full_rf_a,,0
49,12877,79,,,,2,2,0.0,0.0,1.0,0.0,,0.0-76.0,,0.0,995.2,0.0,0.41477751399999996,0.0,0.7284416779999999,0.0,0.7182656940000001,0.0,0.36228040899999997,True,,5d2e5d1c649703001a9c920d,,1503183,79,,evan-feature22,full_rf_a,,0
50,12878,80,,,,1,1,0.0,1.0,0.0,-1.0,,0.0-77.0,,-1.0,1709.5,0.0,0.37675460299999997,1.0,0.703250285,1.0,0.75,0.0,0.461979164,True,,5d2e5d1c649703001a9c920d,,1514793,80,,evan-feature22,full_rf_a,,1
51,12879,81,,,,2,2,1.0,1.0,0.0,-1.0,,0.0-78.0,,-1.0,1220.6,0.0,0.398716075,1.0,0.6723864890000001,1.0,0.674153818,1.0,0.519029516,True,,5d2e5d1c649703001a9c920d,,1525848,81,,evan-feature22,full_rf_a,,1
52,12880,82,,,,2,2,1.0,0.0,1.0,0.0,,0.0-79.0,,1.0,1509.2,0.0,0.34677856700000004,1.0,0.69057175,1.0,0.6822438540000001,0.0,0.477292237,True,,5d2e5d1c649703001a9c920d,,1537154,82,,evan-feature22,full_rf_a,,0
53,12881,83,,,,2,2,0.0,0.0,0.0,-1.0,,0.0-80.0,,0.0,664.4,1.0,0.28580469199999997,1.0,0.68408818,0.0,0.684207565,0.0,0.49780448299999996,True,,5d2e5d1c649703001a9c920d,,1547654,83,,evan-feature22,full_rf_a,,0
54,12883,85,,,,1,1,1.0,1.0,1.0,0.0,,0.0-82.0,,1.0,2098.1,1.0,0.25,1.0,0.7405808970000001,0.0,0.679614108,0.0,0.436436964,True,,5d2e5d1c649703001a9c920d,,1562815,85,,evan-feature22,full_rf_a,,1
55,12884,86,,,,2,2,1.0,0.0,0.0,-1.0,,0.0-83.0,,0.0,1984.7,0.0,0.29890393,0.0,0.730505706,1.0,0.7328203320000001,0.0,0.439256938,True,,5d2e5d1c649703001a9c920d,,1574686,86,,evan-feature22,full_rf_a,,1
56,12885,87,,,,2,2,0.0,1.0,1.0,0.0,,0.0-84.0,,0.0,1447.5,0.0,0.326762398,1.0,0.7148059609999999,0.0,0.75,1.0,0.44389608799999997,True,,5d2e5d1c649703001a9c920d,,1585996,87,,evan-feature22,full_rf_a,,0
57,12886,88,,,,1,1,0.0,1.0,1.0,0.0,,0.0-85.0,,0.0,736.0,0.0,0.295168515,1.0,0.739760854,1.0,0.719947008,0.0,0.35277284600000003,True,,5d2e5d1c649703001a9c920d,,1596582,88,,evan-feature22,full_rf_a,,1
58,12887,89,,,,2,2,1.0,0.0,1.0,0.0,,0.0-86.0,,1.0,882.5,0.0,0.25,0.0,0.70781482,1.0,0.75,0.0,0.286095925,True,,5d2e5d1c649703001a9c920d,,1607318,89,,evan-feature22,full_rf_a,,1
59,12888,90,,,,2,2,1.0,0.0,0.0,-1.0,,0.0-87.0,,0.0,1595.2,0.0,0.25638190899999996,1.0,0.704088163,1.0,0.75,0.0,0.26872601399999996,True,,5d2e5d1c649703001a9c920d,,1618788,90,,evan-feature22,full_rf_a,,0
60,12889,91,,,,2,2,0.0,0.0,0.0,-1.0,,0.0-88.0,,0.0,1723.2,0.0,0.271581126,1.0,0.669760107,0.0,0.733896663,0.0,0.273244572,True,,5d2e5d1c649703001a9c920d,,1630342,91,,evan-feature22,full_rf_a,,0
61,12890,92,,,,2,2,0.0,0.0,0.0,-1.0,,0.0-89.0,,0.0,1128.6,0.0,0.257144401,1.0,0.600575706,0.0,0.74488122,0.0,0.25,True,,5d2e5d1c649703001a9c920d,,1641329,92,,evan-feature22,full_rf_a,,0
62,12891,93,,,,2,2,0.0,0.0,1.0,0.0,,0.0-90.0,,0.0,1518.2,1.0,0.25,0.0,0.616870026,0.0,0.723610234,0.0,0.25,True,,5d2e5d1c649703001a9c920d,,1652675,93,,evan-feature22,full_rf_a,,0
63,12892,94,,,,2,2,0.0,1.0,0.0,-1.0,,0.0-91.0,,-1.0,862.0,0.0,0.25,1.0,0.583540187,0.0,0.7041042559999999,1.0,0.285961995,True,,5d2e5d1c649703001a9c920d,,1663399,94,,evan-feature22,full_rf_a,,0
64,12893,95,,,,1,1,0.0,0.0,1.0,0.0,,0.0-92.0,,0.0,1050.4,0.0,0.27254536,0.0,0.53875765,0.0,0.693783448,0.0,0.284961652,True,,5d2e5d1c649703001a9c920d,,1674299,95,,evan-feature22,full_rf_a,,1
65,12894,96,,,,1,1,0.0,1.0,0.0,-1.0,,0.0-93.0,,-1.0,1742.2,0.0,0.25,1.0,0.548431252,0.0,0.734221895,0.0,0.279445214,True,,5d2e5d1c649703001a9c920d,,1685864,96,,evan-feature22,full_rf_a,,0
66,12895,97,,,,2,2,1.0,0.0,1.0,0.0,,0.0-94.0,,1.0,1475.5,1.0,0.258640684,1.0,0.545878066,1.0,0.725245965,0.0,0.31487537,True,,5d2e5d1c649703001a9c920d,,1697170,97,,evan-feature22,full_rf_a,,1
67,12896,98,,,,2,2,1.0,1.0,1.0,0.0,,0.0-95.0,,1.0,1158.2,0.0,0.251103711,1.0,0.5776290629999999,1.0,0.696320133,1.0,0.317831047,True,,5d2e5d1c649703001a9c920d,,1708180,98,,evan-feature22,full_rf_a,,0
68,12897,99,,,,2,2,0.0,0.0,1.0,0.0,,0.0-96.0,,0.0,803.7,1.0,0.276630292,1.0,0.617329858,0.0,0.73838088,0.0,0.261471582,True,,5d2e5d1c649703001a9c920d,,1718853,99,,evan-feature22,full_rf_a,,0
69,12898,100,,,,2,2,0.0,1.0,0.0,-1.0,,0.0-97.0,,-1.0,940.2,0.0,0.297716424,1.0,0.618863717,0.0,0.7402358259999999,1.0,0.262600834,True,,5d2e5d1c649703001a9c920d,,1729666,100,,evan-feature22,full_rf_a,,0
70,12899,101,,,,2,2,0.0,0.0,1.0,0.0,,0.0-98.0,,0.0,795.0,0.0,0.290935512,1.0,0.695370945,0.0,0.706570507,0.0,0.280030553,True,,5d2e5d1c649703001a9c920d,,1740294,101,,evan-feature22,full_rf_a,,0
71,12900,102,,,,2,2,0.0,1.0,1.0,0.0,,0.0-99.0,,0.0,1222.2,0.0,0.25,1.0,0.6465277079999999,0.0,0.67766682,1.0,0.25,True,,5d2e5d1c649703001a9c920d,,1751352,102,,evan-feature22,full_rf_a,,0
72,12901,103,,,,2,2,1.0,0.0,1.0,0.0,,0.0-100.0,,1.0,1461.6,0.0,0.26463816,1.0,0.636100213,1.0,0.646048507,0.0,0.265607101,True,,5d2e5d1c649703001a9c920d,,1762647,103,,evan-feature22,full_rf_a,,0
73,12902,104,,,,2,2,1.0,1.0,1.0,0.0,,0.0-101.0,,1.0,1000.8,0.0,0.314340707,0.0,0.667795927,1.0,0.613630805,1.0,0.25,True,,5d2e5d1c649703001a9c920d,,1773527,104,,evan-feature22,full_rf_a,,0
74,12903,105,,,,2,2,1.0,0.0,1.0,0.0,,0.0-102.0,,1.0,606.0,0.0,0.28685784,1.0,0.6622549529999999,1.0,0.652154117,0.0,0.25,True,,5d2e5d1c649703001a9c920d,,1784001,105,,evan-feature22,full_rf_a,,0
75,12904,106,,,,2,2,1.0,0.0,0.0,-1.0,,0.0-103.0,,0.0,911.5,0.0,0.304106554,1.0,0.631289538,1.0,0.707041942,0.0,0.29314237,True,,5d2e5d1c649703001a9c920d,,1794821,106,,evan-feature22,full_rf_a,,0
76,12905,107,,,,2,2,1.0,0.0,0.0,-1.0,,0.0-104.0,,0.0,984.0,1.0,0.304806932,1.0,0.571167718,1.0,0.680472346,0.0,0.25,True,,5d2e5d1c649703001a9c920d,,1805676,107,,evan-feature22,full_rf_a,,0
77,12906,108,,,,2,2,0.0,0.0,0.0,-1.0,,0.0-105.0,,0.0,876.2,1.0,0.37919861,1.0,0.5724849710000001,0.0,0.705638003,0.0,0.30179300600000003,True,,5d2e5d1c649703001a9c920d,,1816399,108,,evan-feature22,full_rf_a,,0
78,12907,109,,,,2,2,0.0,0.0,0.0,-1.0,,0.0-106.0,,0.0,1080.6,0.0,0.464277969,1.0,0.554034373,0.0,0.7372627340000001,0.0,0.264699741,True,,5d2e5d1c649703001a9c920d,,1827317,109,,evan-feature22,full_rf_a,,0
79,12908,110,,,,1,1,0.0,0.0,1.0,0.0,,0.0-107.0,,0.0,779.1,0.0,0.465104323,0.0,0.530793115,0.0,0.75,0.0,0.31683071,True,,5d2e5d1c649703001a9c920d,,1837958,110,,evan-feature22,full_rf_a,,1
80,12909,111,,,,2,2,1.0,0.0,0.0,-1.0,,0.0-108.0,,0.0,1279.1,1.0,0.465104323,0.0,0.530793115,1.0,0.75,0.0,0.31683071,True,,5d2e5d1c649703001a9c920d,,1849135,111,,evan-feature22,full_rf_a,,1
81,12910,112,,,,1,1,1.0,1.0,0.0,-1.0,,0.0-109.0,,-1.0,1564.8,1.0,0.46833986,1.0,0.570249239,1.0,0.7244472590000001,0.0,0.364114163,True,,5d2e5d1c649703001a9c920d,,1860516,112,,evan-feature22,full_rf_a,,1
82,12911,113,,,,2,2,0.0,0.0,0.0,-1.0,,0.0-110.0,,0.0,758.8,0.0,0.445444024,1.0,0.649673355,0.0,0.6845441290000001,0.0,0.300660449,True,,5d2e5d1c649703001a9c920d,,1871140,113,,evan-feature22,full_rf_a,,1
83,12912,114,,,,2,2,1.0,1.0,0.0,-1.0,,0.0-111.0,,-1.0,773.3,0.0,0.39909721299999995,1.0,0.6715179509999999,1.0,0.742310028,1.0,0.35496088299999995,True,,5d2e5d1c649703001a9c920d,,1881742,114,,evan-feature22,full_rf_a,,0
84,12913,115,,,,2,2,1.0,0.0,0.0,-1.0,,0.0-112.0,,0.0,710.0,0.0,0.37956104799999996,1.0,0.694725302,1.0,0.7181651309999999,0.0,0.38726906299999997,True,,5d2e5d1c649703001a9c920d,,1892280,115,,evan-feature22,full_rf_a,,0
85,12914,116,,,,2,2,1.0,1.0,0.0,-1.0,,0.0-113.0,,-1.0,659.1,0.0,0.404995034,1.0,0.724375412,1.0,0.6910946859999999,1.0,0.387187347,True,,5d2e5d1c649703001a9c920d,,1902791,116,,evan-feature22,full_rf_a,,0
86,12915,117,,,,2,2,1.0,0.0,0.0,-1.0,,0.0-114.0,,0.0,521.4,0.0,0.461740803,0.0,0.75,1.0,0.75,0.0,0.34872038200000005,True,,5d2e5d1c649703001a9c920d,,1913159,117,,evan-feature22,full_rf_a,,0
87,12916,118,,,,2,2,1.0,0.0,1.0,0.0,,0.0-115.0,,1.0,1048.2,0.0,0.43821380600000004,1.0,0.738833273,1.0,0.728286963,0.0,0.399538128,True,,5d2e5d1c649703001a9c920d,,1924067,118,,evan-feature22,full_rf_a,,0
88,12917,119,,,,2,2,1.0,1.0,0.0,-1.0,,0.0-116.0,,-1.0,676.5,1.0,0.41709882,1.0,0.736666736,1.0,0.75,1.0,0.389095584,True,,5d2e5d1c649703001a9c920d,,1934579,119,,evan-feature22,full_rf_a,,0
89,12918,120,,,,1,1,0.0,0.0,0.0,-1.0,,0.0-117.0,,0.0,832.7,0.0,0.39749009799999996,0.0,0.744320029,0.0,0.75,0.0,0.363848678,True,,5d2e5d1c649703001a9c920d,,1945259,120,,evan-feature22,full_rf_a,,1
90,12919,121,,,,2,2,0.0,0.0,1.0,0.0,,0.0-118.0,,0.0,760.0,0.0,0.392653706,1.0,0.75,0.0,0.75,0.0,0.384386976,True,,5d2e5d1c649703001a9c920d,,1955885,121,,evan-feature22,full_rf_a,,1
91,12920,122,,,,2,2,0.0,0.0,1.0,0.0,,0.0-119.0,,0.0,1075.4,1.0,0.31190902600000003,1.0,0.75,0.0,0.732413819,0.0,0.413082932,True,,5d2e5d1c649703001a9c920d,,1966770,122,,evan-feature22,full_rf_a,,0
92,12921,123,,,,2,2,0.0,0.0,0.0,-1.0,,0.0-120.0,,0.0,1194.1,1.0,0.366917648,0.0,0.740073855,0.0,0.75,0.0,0.352861979,True,,5d2e5d1c649703001a9c920d,,1977814,123,,evan-feature22,full_rf_a,,0
93,12922,124,,,,2,2,1.0,0.0,0.0,-1.0,,0.0-121.0,,0.0,974.7,0.0,0.3645172,1.0,0.721770713,1.0,0.75,0.0,0.404074511,True,,5d2e5d1c649703001a9c920d,,1988667,124,,evan-feature22,full_rf_a,,0
94,12923,125,,,,2,2,1.0,0.0,0.0,-1.0,,0.0-122.0,,0.0,1313.8,1.0,0.35205600299999995,1.0,0.68983859,1.0,0.739735447,0.0,0.366895945,True,,5d2e5d1c649703001a9c920d,,1999799,125,,evan-feature22,full_rf_a,,0
95,12924,126,,,,2,2,1.0,1.0,0.0,-1.0,,0.0-123.0,,-1.0,936.0,1.0,0.40998722600000004,1.0,0.720859127,1.0,0.673854955,1.0,0.368528541,True,,5d2e5d1c649703001a9c920d,,2010611,126,,evan-feature22,full_rf_a,,0
96,12925,127,,,,1,1,0.0,0.0,1.0,0.0,,0.0-124.0,,0.0,987.0,0.0,0.353625316,0.0,0.75,1.0,0.695605473,0.0,0.38303674200000004,True,,5d2e5d1c649703001a9c920d,,2021463,127,,evan-feature22,full_rf_a,,1
97,12926,128,,,,2,2,1.0,1.0,0.0,-1.0,,0.0-125.0,,-1.0,1078.5,1.0,0.359216989,0.0,0.75,1.0,0.6987915090000001,1.0,0.35169046200000004,True,,5d2e5d1c649703001a9c920d,,2032403,128,,evan-feature22,full_rf_a,,1
98,12927,129,,,,1,1,1.0,0.0,1.0,0.0,,0.0-126.0,,1.0,847.1,1.0,0.35834496899999996,0.0,0.75,1.0,0.707067742,0.0,0.416763636,True,,5d2e5d1c649703001a9c920d,,2043131,129,,evan-feature22,full_rf_a,,1
99,12928,130,,,,1,1,1.0,0.0,1.0,0.0,,0.0-127.0,,1.0,732.2,1.0,0.38741613799999997,0.0,0.7177369570000001,0.0,0.734902455,1.0,0.49438664299999996,True,,5d2e5d1c649703001a9c920d,,2053717,130,,evan-feature22,full_rf_a,,0
100,12929,131,,,,2,2,0.0,1.0,0.0,-1.0,,0.0-128.0,,-1.0,869.2,0.0,0.405255252,1.0,0.7300466640000001,0.0,0.7027748070000001,1.0,0.504359668,True,,5d2e5d1c649703001a9c920d,,2064433,131,,evan-feature22,full_rf_a,,1
101,12930,132,,,,1,1,0.0,1.0,0.0,-1.0,,0.0-129.0,,-1.0,873.3,0.0,0.40697073,1.0,0.7260142190000001,1.0,0.724461982,0.0,0.522779179,True,,5d2e5d1c649703001a9c920d,,2075179,132,,evan-feature22,full_rf_a,,1
102,12931,133,,,,2,2,1.0,1.0,0.0,-1.0,,0.0-130.0,,-1.0,1213.4,0.0,0.43906215299999996,1.0,0.7252802340000001,1.0,0.719079934,1.0,0.5712990579999999,True,,5d2e5d1c649703001a9c920d,,2086219,133,,evan-feature22,full_rf_a,,1
103,12932,134,,,,1,1,1.0,1.0,0.0,-1.0,,0.0-131.0,,-1.0,622.7,1.0,0.4076705,1.0,0.73280499,1.0,0.681313127,1.0,0.523891346,True,,5d2e5d1c649703001a9c920d,,2096642,134,,evan-feature22,full_rf_a,,1
104,12933,135,,,,1,1,0.0,1.0,0.0,-1.0,,0.0-132.0,,-1.0,628.0,0.0,0.399102911,1.0,0.730498344,1.0,0.661080239,0.0,0.46742603,True,,5d2e5d1c649703001a9c920d,,2107159,135,,evan-feature22,full_rf_a,,0
105,12934,136,,,,1,1,0.0,1.0,1.0,0.0,,0.0-133.0,,0.0,1048.6,0.0,0.356477282,1.0,0.712296395,1.0,0.641812684,0.0,0.44868414,True,,5d2e5d1c649703001a9c920d,,2118035,136,,evan-feature22,full_rf_a,,0
106,12935,137,,,,2,2,1.0,1.0,0.0,-1.0,,0.0-134.0,,-1.0,733.9,0.0,0.462760722,1.0,0.692349322,1.0,0.700947931,1.0,0.394680266,True,,5d2e5d1c649703001a9c920d,,2128591,137,,evan-feature22,full_rf_a,,1
107,12936,138,,,,2,2,1.0,0.0,0.0,-1.0,,0.0-135.0,,0.0,722.6,0.0,0.422306413,1.0,0.718375916,1.0,0.706340917,0.0,0.367787185,True,,5d2e5d1c649703001a9c920d,,2139168,138,,evan-feature22,full_rf_a,,0
108,12938,140,,,,2,2,1.0,1.0,0.0,-1.0,,0.0-137.0,,-1.0,1370.0,0.0,0.4582233,1.0,0.643834117,1.0,0.75,1.0,0.39615823299999997,True,,5d2e5d1c649703001a9c920d,,2154084,140,,evan-feature22,full_rf_a,,0
109,12939,141,,,,2,2,1.0,1.0,0.0,-1.0,,0.0-138.0,,-1.0,524.7,1.0,0.43813437899999996,1.0,0.651283804,1.0,0.729674191,1.0,0.37711048,True,,5d2e5d1c649703001a9c920d,,2164469,141,,evan-feature22,full_rf_a,,0
110,12940,142,,,,1,1,1.0,1.0,0.0,-1.0,,0.0-139.0,,-1.0,577.5,1.0,0.471199094,1.0,0.6470010979999999,0.0,0.715008097,0.0,0.410656191,True,,5d2e5d1c649703001a9c920d,,2174883,142,,evan-feature22,full_rf_a,,1
111,12941,143,,,,1,1,0.0,1.0,1.0,0.0,,0.0-140.0,,0.0,648.5,0.0,0.42486406,1.0,0.629771829,0.0,0.6550939960000001,0.0,0.459093873,True,,5d2e5d1c649703001a9c920d,,2185386,143,,evan-feature22,full_rf_a,,0
112,12942,144,,,,1,1,0.0,0.0,1.0,0.0,,0.0-141.0,,0.0,512.4,0.0,0.4803197,0.0,0.645842715,1.0,0.6421749920000001,1.0,0.443092151,True,,5d2e5d1c649703001a9c920d,,2195761,144,,evan-feature22,full_rf_a,,0
113,12943,145,,,,2,2,0.0,1.0,1.0,0.0,,0.0-142.0,,0.0,550.2,0.0,0.521848997,1.0,0.735801074,0.0,0.6691348460000001,1.0,0.45259351600000003,True,,5d2e5d1c649703001a9c920d,,2206162,145,,evan-feature22,full_rf_a,,1
114,12944,146,,,,1,1,1.0,0.0,0.0,-1.0,,0.0-143.0,,0.0,1180.0,1.0,0.49565621299999996,0.0,0.742400847,1.0,0.661512553,0.0,0.483110831,True,,5d2e5d1c649703001a9c920d,,2217196,146,,evan-feature22,full_rf_a,,1
115,12945,147,,,,1,1,0.0,1.0,1.0,0.0,,0.0-144.0,,0.0,644.7,0.0,0.521564361,1.0,0.731078632,1.0,0.6774886809999999,0.0,0.483263956,True,,5d2e5d1c649703001a9c920d,,2227708,147,,evan-feature22,full_rf_a,,0
116,12946,148,,,,2,2,1.0,1.0,1.0,0.0,,0.0-145.0,,1.0,611.7,1.0,0.558893102,1.0,0.719810023,1.0,0.67461031,1.0,0.499349834,True,,5d2e5d1c649703001a9c920d,,2238148,148,,evan-feature22,full_rf_a,,1
117,12947,149,,,,2,2,1.0,0.0,0.0,-1.0,,0.0-146.0,,0.0,708.8,1.0,0.611031046,0.0,0.75,1.0,0.688072995,0.0,0.5321422729999999,True,,5d2e5d1c649703001a9c920d,,2248682,149,,evan-feature22,full_rf_a,,0
118,12948,150,,,,2,2,1.0,0.0,1.0,0.0,,0.0-147.0,,1.0,463.3,1.0,0.633223941,1.0,0.713567728,1.0,0.75,0.0,0.48185314700000004,True,,5d2e5d1c649703001a9c920d,,2259001,150,,evan-feature22,full_rf_a,,0
119,12949,151,,,,2,2,1.0,0.0,1.0,0.0,,0.0-148.0,,1.0,440.3,1.0,0.664001694,1.0,0.705509768,1.0,0.75,0.0,0.500211065,True,,5d2e5d1c649703001a9c920d,,2269316,151,,evan-feature22,full_rf_a,,0
120,12950,152,,,,2,2,0.0,1.0,0.0,-1.0,,0.0-149.0,,-1.0,566.4,1.0,0.664001694,0.0,0.705509768,0.0,0.75,1.0,0.500211065,True,,5d2e5d1c649703001a9c920d,,2279759,152,,evan-feature22,full_rf_a,,0
121,12951,153,,,,1,1,1.0,0.0,0.0,-1.0,,0.0-150.0,,0.0,974.0,1.0,0.696508041,0.0,0.71066027,0.0,0.717028709,0.0,0.49792991,True,,5d2e5d1c649703001a9c920d,,2290584,153,,evan-feature22,full_rf_a,,1
122,12952,154,,,,2,2,1.0,0.0,1.0,0.0,,0.0-151.0,,1.0,590.5,1.0,0.699883272,1.0,0.75,1.0,0.713543895,0.0,0.496962643,True,,5d2e5d1c649703001a9c920d,,2301044,154,,evan-feature22,full_rf_a,,1
123,12953,155,,,,1,1,1.0,1.0,0.0,-1.0,,0.0-152.0,,-1.0,1139.1,1.0,0.741163419,1.0,0.75,1.0,0.64691024,1.0,0.513858197,True,,5d2e5d1c649703001a9c920d,,2312045,155,,evan-feature22,full_rf_a,,1
124,12954,156,,,,2,2,1.0,0.0,1.0,0.0,,0.0-153.0,,1.0,566.8,1.0,0.75,0.0,0.70816558,1.0,0.594499079,0.0,0.48502124,True,,5d2e5d1c649703001a9c920d,,2322431,156,,evan-feature22,full_rf_a,,1
125,12955,157,,,,1,1,1.0,1.0,0.0,-1.0,,0.0-154.0,,-1.0,876.6,1.0,0.75,1.0,0.721848901,1.0,0.62197249,0.0,0.48263586399999997,True,,5d2e5d1c649703001a9c920d,,2333169,157,,evan-feature22,full_rf_a,,1
126,12956,158,,,,2,2,1.0,0.0,1.0,0.0,,0.0-155.0,,1.0,716.5,1.0,0.75,1.0,0.74813071,1.0,0.584357161,0.0,0.411477782,True,,5d2e5d1c649703001a9c920d,,2343739,158,,evan-feature22,full_rf_a,,1
127,12957,159,,,,2,2,0.0,1.0,0.0,-1.0,,0.0-156.0,,-1.0,631.8,0.0,0.75,0.0,0.75,0.0,0.52287236,1.0,0.488290656,True,,5d2e5d1c649703001a9c920d,,2354211,159,,evan-feature22,full_rf_a,,0
128,12958,160,,,,2,2,1.0,1.0,0.0,-1.0,,0.0-157.0,,-1.0,353.6,1.0,0.75,1.0,0.75,1.0,0.544321581,1.0,0.53143059,True,,5d2e5d1c649703001a9c920d,,2364401,160,,evan-feature22,full_rf_a,,0
129,12959,161,,,,2,2,1.0,0.0,0.0,-1.0,,0.0-158.0,,0.0,568.7,0.0,0.726754564,0.0,0.75,1.0,0.5129306370000001,0.0,0.530592445,True,,5d2e5d1c649703001a9c920d,,2374798,161,,evan-feature22,full_rf_a,,0
130,12960,162,,,,2,2,0.0,1.0,1.0,0.0,,0.0-159.0,,0.0,498.5,1.0,0.75,0.0,0.7392590729999999,0.0,0.479875835,1.0,0.547007051,True,,5d2e5d1c649703001a9c920d,,2385189,162,,evan-feature22,full_rf_a,,0
131,12961,163,,,,1,1,1.0,0.0,1.0,0.0,,0.0-160.0,,1.0,868.1,1.0,0.75,0.0,0.7393376979999999,0.0,0.546045419,0.0,0.541267353,True,,5d2e5d1c649703001a9c920d,,2395895,163,,evan-feature22,full_rf_a,,1
132,12962,164,,,,1,1,1.0,0.0,1.0,0.0,,0.0-161.0,,1.0,606.4,1.0,0.75,0.0,0.75,1.0,0.485725895,1.0,0.527625395,True,,5d2e5d1c649703001a9c920d,,2406317,164,,evan-feature22,full_rf_a,,0
133,12963,165,,,,2,2,1.0,1.0,0.0,-1.0,,0.0-162.0,,-1.0,1209.3,1.0,0.75,1.0,0.725087974,1.0,0.488603595,1.0,0.504019206,True,,5d2e5d1c649703001a9c920d,,2417409,165,,evan-feature22,full_rf_a,,1
134,12964,166,,,,1,1,1.0,1.0,0.0,-1.0,,0.0-163.0,,-1.0,487.0,1.0,0.745504295,1.0,0.75,0.0,0.452379914,0.0,0.50131194,True,,5d2e5d1c649703001a9c920d,,2427741,166,,evan-feature22,full_rf_a,,1
135,12965,167,,,,2,2,0.0,0.0,0.0,-1.0,,0.0-164.0,,0.0,862.8,0.0,0.728513874,0.0,0.75,0.0,0.44125567200000004,0.0,0.531454591,True,,5d2e5d1c649703001a9c920d,,2438438,167,,evan-feature22,full_rf_a,,1
136,12966,168,,,,1,1,1.0,1.0,1.0,0.0,,0.0-165.0,,1.0,504.0,1.0,0.73790804,1.0,0.75,1.0,0.413036656,0.0,0.524619035,True,,5d2e5d1c649703001a9c920d,,2448782,168,,evan-feature22,full_rf_a,,1
137,12967,169,,,,2,2,0.0,1.0,0.0,-1.0,,0.0-166.0,,-1.0,1027.2,1.0,0.7080961309999999,0.0,0.708666865,0.0,0.431915581,1.0,0.481819489,True,,5d2e5d1c649703001a9c920d,,2459645,169,,evan-feature22,full_rf_a,,1
138,12968,170,,,,1,1,1.0,1.0,0.0,-1.0,,0.0-167.0,,-1.0,992.2,1.0,0.721378003,1.0,0.71605913,1.0,0.36642387,1.0,0.5036739929999999,True,,5d2e5d1c649703001a9c920d,,2470538,170,,evan-feature22,full_rf_a,,1
139,12969,171,,,,1,1,1.0,1.0,0.0,-1.0,,0.0-168.0,,-1.0,456.6,1.0,0.7340618959999999,1.0,0.699323252,0.0,0.35298046299999997,0.0,0.511241692,True,,5d2e5d1c649703001a9c920d,,2480856,171,,evan-feature22,full_rf_a,,0
140,12970,172,,,,1,1,1.0,1.0,1.0,0.0,,0.0-169.0,,1.0,675.2,1.0,0.75,1.0,0.70412698,1.0,0.380734814,0.0,0.529580116,True,,5d2e5d1c649703001a9c920d,,2491400,172,,evan-feature22,full_rf_a,,0
141,12971,173,,,,2,2,0.0,1.0,0.0,-1.0,,0.0-170.0,,-1.0,812.1,0.0,0.7436654909999999,0.0,0.711182751,0.0,0.41125331,1.0,0.49554405,True,,5d2e5d1c649703001a9c920d,,2502048,173,,evan-feature22,full_rf_a,,1
142,12972,174,,,,2,2,0.0,0.0,0.0,-1.0,,0.0-171.0,,0.0,896.4,1.0,0.731607915,0.0,0.651774583,0.0,0.35688023,0.0,0.45194491600000003,True,,5d2e5d1c649703001a9c920d,,2512790,174,,evan-feature22,full_rf_a,,0
143,12973,175,,,,1,1,1.0,1.0,1.0,0.0,,0.0-172.0,,1.0,829.2,1.0,0.75,1.0,0.75,0.0,0.283145374,0.0,0.528608005,True,,5d2e5d1c649703001a9c920d,,2523475,175,,evan-feature22,full_rf_a,,1
144,12974,176,,,,1,1,1.0,1.0,1.0,0.0,,0.0-173.0,,1.0,952.1,1.0,0.7491416890000001,1.0,0.7423785959999999,0.0,0.29135870399999997,1.0,0.498888318,True,,5d2e5d1c649703001a9c920d,,2534280,176,,evan-feature22,full_rf_a,,0
145,12975,177,,,,1,1,0.0,1.0,1.0,0.0,,0.0-174.0,,0.0,741.5,0.0,0.708569387,1.0,0.717682277,0.0,0.294421699,1.0,0.493838163,True,,5d2e5d1c649703001a9c920d,,2544854,177,,evan-feature22,full_rf_a,,0
146,12976,178,,,,2,2,0.0,0.0,0.0,-1.0,,0.0-175.0,,0.0,1079.8,0.0,0.75,1.0,0.7383382159999999,0.0,0.356098707,0.0,0.442533405,True,,5d2e5d1c649703001a9c920d,,2555746,178,,evan-feature22,full_rf_a,,1
147,12977,179,,,,2,2,0.0,0.0,0.0,-1.0,,0.0-176.0,,0.0,780.8,1.0,0.744527075,0.0,0.75,0.0,0.334127506,0.0,0.393165805,True,,5d2e5d1c649703001a9c920d,,2566375,179,,evan-feature22,full_rf_a,,0
148,12978,180,,,,2,2,0.0,1.0,0.0,-1.0,,0.0-177.0,,-1.0,661.1,1.0,0.75,0.0,0.75,0.0,0.33571021799999995,1.0,0.350393962,True,,5d2e5d1c649703001a9c920d,,2576893,180,,evan-feature22,full_rf_a,,0
149,12979,181,,,,2,2,0.0,0.0,0.0,-1.0,,0.0-178.0,,0.0,1506.3,0.0,0.75,1.0,0.75,0.0,0.313628297,0.0,0.36349657399999996,True,,5d2e5d1c649703001a9c920d,,2588261,181,,evan-feature22,full_rf_a,,0
150,12980,182,,,,1,1,0.0,0.0,1.0,0.0,,0.0-179.0,,0.0,557.1,0.0,0.75,0.0,0.734284182,0.0,0.262667667,1.0,0.380199119,True,,5d2e5d1c649703001a9c920d,,2598655,182,,evan-feature22,full_rf_a,,1
151,12981,183,,,,2,2,0.0,0.0,0.0,-1.0,,0.0-180.0,,0.0,841.4,0.0,0.75,1.0,0.75,0.0,0.25,0.0,0.394494013,True,,5d2e5d1c649703001a9c920d,,2609329,183,,evan-feature22,full_rf_a,,1
152,12982,184,,,,1,1,1.0,1.0,1.0,0.0,,0.0-181.0,,1.0,544.5,1.0,0.722298145,1.0,0.7357822340000001,0.0,0.25,0.0,0.319142121,True,,5d2e5d1c649703001a9c920d,,2619701,184,,evan-feature22,full_rf_a,,1
153,12983,185,,,,1,1,1.0,1.0,1.0,0.0,,0.0-182.0,,1.0,701.9,1.0,0.73149275,1.0,0.724276446,1.0,0.305856907,0.0,0.281315057,True,,5d2e5d1c649703001a9c920d,,2630256,185,,evan-feature22,full_rf_a,,0
154,12984,186,,,,2,2,0.0,0.0,0.0,-1.0,,0.0-183.0,,0.0,703.8,1.0,0.7458732690000001,0.0,0.7336382459999999,0.0,0.272571964,0.0,0.266021999,True,,5d2e5d1c649703001a9c920d,,2640781,186,,evan-feature22,full_rf_a,,1
155,12985,187,,,,2,2,1.0,0.0,0.0,-1.0,,0.0-184.0,,0.0,686.7,1.0,0.705579037,1.0,0.720778292,1.0,0.320238144,0.0,0.30971744,True,,5d2e5d1c649703001a9c920d,,2651304,187,,evan-feature22,full_rf_a,,0
156,12986,188,,,,2,2,0.0,0.0,0.0,-1.0,,0.0-185.0,,0.0,894.6,1.0,0.700425648,1.0,0.7198784009999999,0.0,0.272590393,0.0,0.304182931,True,,5d2e5d1c649703001a9c920d,,2662043,188,,evan-feature22,full_rf_a,,0
157,12987,189,,,,2,2,0.0,1.0,0.0,-1.0,,0.0-186.0,,-1.0,1109.1,1.0,0.735590785,1.0,0.722714973,0.0,0.25,1.0,0.323421091,True,,5d2e5d1c649703001a9c920d,,2673053,189,,evan-feature22,full_rf_a,,0
158,12988,190,,,,2,2,0.0,1.0,0.0,-1.0,,0.0-187.0,,-1.0,755.7,1.0,0.724807662,0.0,0.63146213,0.0,0.36836492600000004,1.0,0.34592153299999995,True,,5d2e5d1c649703001a9c920d,,2683685,190,,evan-feature22,full_rf_a,,0
159,12989,191,,,,2,2,0.0,1.0,0.0,-1.0,,0.0-188.0,,-1.0,466.6,1.0,0.7352796909999999,0.0,0.555111392,0.0,0.36003922,1.0,0.31433779999999995,True,,5d2e5d1c649703001a9c920d,,2693992,191,,evan-feature22,full_rf_a,,0
160,12990,192,notice,,,,,,,,,,0.0-189.0,"{""Q0"":""Not really""}",,37214.0,,,,,,,,,True,,5d2e5d1c649703001a9c920d,,2731212,192,Q,survey-text,full_rf_a,,1
161,12991,193,track1,,[1],,,,,,,,0.0-190.0,"{""Q0"":""no""}",,14486.0,,,,,,,,,True,,5d2e5d1c649703001a9c920d,,2745708,193,Q,evan-quiz,full_rf_a,,1
162,12992,194,track2,,[0],,,,,,,,0.0-191.0,"{""Q0"":""yes""}",,19690.0,,,,,,,,,True,,5d2e5d1c649703001a9c920d,,2765404,194,Q,evan-quiz,full_rf_a,,1
163,12993,195,strat,,,,,,,,,,0.0-192.0,"{""Q0"":""After about halfway through I picked 'g' if it was possible to get a postivie amount and 'j' to try and avoid the negative amount""}",,78681.0,,,,,,,,,True,,5d2e5d1c649703001a9c920d,,2844091,195,Q,survey-text,full_rf_a,,1
