,index,Unnamed: 0,Q_name,button_pressed,choice_idxs,chosen_pos,chosen_state,chosen_state_f_1_outcome,chosen_state_f_2_outcome,f_1_reward,f_2_reward,incor_questions,internal_node_id,responses,reward_received,rt,s_1_f_1_outcome,s_1_f_1_prob,s_1_f_2_outcome,s_1_f_2_prob,s_2_f_1_outcome,s_2_f_1_prob,s_2_f_2_outcome,s_2_f_2_prob,safe_first,stimulus,subjectID,success,time_elapsed,trial_index,trial_num,trial_type,version,view_history,switching
0,31282,30,,,,1,1,1.0,0.0,0.0,1.0,,0.0-27.0,,0.0,1739.6,1.0,0.6,0.0,0.6,0.0,0.4,1.0,0.4,True,,598db6bdcceb0f0001b39763,,550635,30,,evan-feature22,full_rf_b,,0
1,31283,31,,,,2,2,0.0,1.0,0.0,1.0,,0.0-28.0,,1.0,327.3,1.0,0.608053294,1.0,0.63424552,0.0,0.397152172,1.0,0.347069101,True,,598db6bdcceb0f0001b39763,,560726,31,,evan-feature22,full_rf_b,,1
2,31284,32,,,,2,2,0.0,0.0,0.0,1.0,,0.0-29.0,,0.0,876.2,1.0,0.642237155,1.0,0.648566321,0.0,0.389407674,0.0,0.285525717,True,,598db6bdcceb0f0001b39763,,571366,32,,evan-feature22,full_rf_b,,0
3,31285,33,,,,2,2,1.0,1.0,0.0,1.0,,0.0-30.0,,1.0,412.2,0.0,0.661086576,1.0,0.630492543,1.0,0.399058924,1.0,0.25,True,,598db6bdcceb0f0001b39763,,581541,33,,evan-feature22,full_rf_b,,0
4,31286,34,,,,1,1,1.0,0.0,0.0,1.0,,0.0-31.0,,0.0,675.2,1.0,0.631324137,0.0,0.6269842929999999,0.0,0.38734784299999997,0.0,0.25,True,,598db6bdcceb0f0001b39763,,591981,34,,evan-feature22,full_rf_b,,1
5,31287,35,,,,2,2,0.0,0.0,0.0,1.0,,0.0-32.0,,0.0,556.5,1.0,0.6381991370000001,0.0,0.68987999,0.0,0.384107265,0.0,0.271332943,True,,598db6bdcceb0f0001b39763,,602302,35,,evan-feature22,full_rf_b,,1
6,31288,36,,,,2,2,1.0,0.0,0.0,1.0,,0.0-33.0,,0.0,342.4,1.0,0.66034901,0.0,0.742641349,1.0,0.360225629,0.0,0.25,True,,598db6bdcceb0f0001b39763,,612408,36,,evan-feature22,full_rf_b,,0
7,31289,37,,,,1,1,0.0,1.0,-1.0,0.0,,0.0-34.0,,0.0,301.7,0.0,0.638612418,1.0,0.75,1.0,0.367273939,1.0,0.25,True,,598db6bdcceb0f0001b39763,,622474,37,,evan-feature22,full_rf_b,,1
8,31290,38,,,,1,1,1.0,1.0,0.0,1.0,,0.0-35.0,,1.0,602.5,1.0,0.624340629,1.0,0.75,0.0,0.425829545,0.0,0.25,True,,598db6bdcceb0f0001b39763,,632841,38,,evan-feature22,full_rf_b,,0
9,31291,39,,,,1,1,1.0,1.0,0.0,1.0,,0.0-36.0,,1.0,574.2,1.0,0.621999804,1.0,0.75,1.0,0.368609357,0.0,0.25,True,,598db6bdcceb0f0001b39763,,643178,39,,evan-feature22,full_rf_b,,0
10,31292,40,,,,1,1,1.0,1.0,-1.0,0.0,,0.0-37.0,,-1.0,329.3,1.0,0.62666403,1.0,0.75,0.0,0.311151498,1.0,0.25,True,,598db6bdcceb0f0001b39763,,653272,40,,evan-feature22,full_rf_b,,0
11,31293,41,,,,2,2,1.0,0.0,-1.0,0.0,,0.0-38.0,,-1.0,313.1,0.0,0.6819650009999999,0.0,0.75,1.0,0.310763048,0.0,0.25,True,,598db6bdcceb0f0001b39763,,663349,41,,evan-feature22,full_rf_b,,1
12,31294,42,,,,2,2,1.0,0.0,0.0,1.0,,0.0-39.0,,0.0,323.3,0.0,0.740626951,1.0,0.75,1.0,0.25,0.0,0.25,True,,598db6bdcceb0f0001b39763,,673436,42,,evan-feature22,full_rf_b,,0
13,31295,43,,,,2,2,0.0,0.0,0.0,1.0,,0.0-40.0,,0.0,1598.1,1.0,0.739599242,0.0,0.742034978,0.0,0.25397114600000004,0.0,0.25,True,,598db6bdcceb0f0001b39763,,684797,43,,evan-feature22,full_rf_b,,0
14,31296,44,,,,1,1,1.0,0.0,0.0,1.0,,0.0-41.0,,0.0,1277.8,1.0,0.732341315,0.0,0.72735643,0.0,0.25,0.0,0.25,True,,598db6bdcceb0f0001b39763,,695837,44,,evan-feature22,full_rf_b,,1
15,31297,45,,,,2,2,0.0,0.0,0.0,1.0,,0.0-42.0,,0.0,480.1,1.0,0.7062287770000001,1.0,0.75,0.0,0.29002151,0.0,0.288256649,True,,598db6bdcceb0f0001b39763,,706081,45,,evan-feature22,full_rf_b,,1
16,31298,46,,,,2,2,0.0,0.0,-1.0,0.0,,0.0-43.0,,0.0,475.9,0.0,0.7086029209999999,1.0,0.75,0.0,0.274129113,0.0,0.262851608,True,,598db6bdcceb0f0001b39763,,716321,46,,evan-feature22,full_rf_b,,0
17,31299,47,,,,1,1,1.0,1.0,0.0,1.0,,0.0-44.0,,1.0,691.5,1.0,0.669189651,1.0,0.727614338,0.0,0.298444036,0.0,0.296944518,True,,598db6bdcceb0f0001b39763,,726778,47,,evan-feature22,full_rf_b,,1
18,31300,48,,,,1,1,0.0,1.0,-1.0,0.0,,0.0-45.0,,0.0,824.8,0.0,0.6819912929999999,1.0,0.7179434290000001,0.0,0.265003961,1.0,0.28157921199999997,True,,598db6bdcceb0f0001b39763,,737365,48,,evan-feature22,full_rf_b,,0
19,31301,49,,,,1,1,1.0,1.0,-1.0,0.0,,0.0-46.0,,-1.0,478.0,1.0,0.665275002,1.0,0.723065271,0.0,0.260414971,1.0,0.30973870000000003,True,,598db6bdcceb0f0001b39763,,747608,49,,evan-feature22,full_rf_b,,0
20,31302,50,,,,1,1,1.0,1.0,0.0,1.0,,0.0-47.0,,1.0,479.5,1.0,0.6660593260000001,1.0,0.728032907,0.0,0.30922817,0.0,0.338778608,True,,598db6bdcceb0f0001b39763,,757852,50,,evan-feature22,full_rf_b,,0
21,31303,51,,,,1,1,1.0,0.0,0.0,1.0,,0.0-48.0,,0.0,768.4,1.0,0.702068785,0.0,0.6528750879999999,0.0,0.287329608,0.0,0.35789613200000003,True,,598db6bdcceb0f0001b39763,,768385,51,,evan-feature22,full_rf_b,,0
22,31304,52,,,,2,2,0.0,1.0,0.0,1.0,,0.0-49.0,,1.0,567.7,1.0,0.651939787,1.0,0.636725589,0.0,0.284834488,1.0,0.358563756,True,,598db6bdcceb0f0001b39763,,778716,52,,evan-feature22,full_rf_b,,1
23,31305,53,,,,2,2,1.0,1.0,0.0,1.0,,0.0-50.0,,1.0,124.8,1.0,0.67573929,0.0,0.612550049,1.0,0.37130387600000003,1.0,0.383542402,True,,598db6bdcceb0f0001b39763,,788605,53,,evan-feature22,full_rf_b,,0
24,31306,54,,,,2,2,0.0,1.0,0.0,1.0,,0.0-51.0,,1.0,654.1,1.0,0.620753801,0.0,0.60513644,0.0,0.385529434,1.0,0.340361743,True,,598db6bdcceb0f0001b39763,,799023,54,,evan-feature22,full_rf_b,,0
25,31307,55,,,,2,2,1.0,0.0,-1.0,0.0,,0.0-52.0,,-1.0,998.4,1.0,0.673564893,1.0,0.672437924,1.0,0.292955382,0.0,0.337633795,True,,598db6bdcceb0f0001b39763,,809786,55,,evan-feature22,full_rf_b,,0
26,31308,56,,,,2,2,0.0,0.0,0.0,1.0,,0.0-53.0,,0.0,395.0,1.0,0.6749427,1.0,0.724197502,0.0,0.32391132100000003,0.0,0.350995264,True,,598db6bdcceb0f0001b39763,,819942,56,,evan-feature22,full_rf_b,,0
27,31309,57,,,,1,1,0.0,1.0,0.0,1.0,,0.0-54.0,,1.0,891.0,0.0,0.6940159379999999,1.0,0.75,0.0,0.31710554399999996,0.0,0.413450341,True,,598db6bdcceb0f0001b39763,,830597,57,,evan-feature22,full_rf_b,,1
28,31310,58,,,,1,1,1.0,1.0,0.0,1.0,,0.0-55.0,,1.0,498.4,1.0,0.6916018270000001,1.0,0.69001187,0.0,0.261817804,0.0,0.40038635,True,,598db6bdcceb0f0001b39763,,840858,58,,evan-feature22,full_rf_b,,0
29,31311,59,,,,1,1,1.0,1.0,0.0,1.0,,0.0-56.0,,1.0,370.0,1.0,0.641061544,1.0,0.71337992,0.0,0.277296461,1.0,0.47372791700000005,True,,598db6bdcceb0f0001b39763,,850993,59,,evan-feature22,full_rf_b,,0
30,31312,60,,,,1,1,0.0,0.0,0.0,1.0,,0.0-57.0,,0.0,102.6,0.0,0.6082438520000001,0.0,0.708471106,0.0,0.28745137,0.0,0.564174476,True,,598db6bdcceb0f0001b39763,,860859,60,,evan-feature22,full_rf_b,,0
31,31313,61,,,,1,1,1.0,1.0,-1.0,0.0,,0.0-58.0,,-1.0,784.3,1.0,0.6051112120000001,1.0,0.7118147229999999,0.0,0.272390611,0.0,0.5595149939999999,True,,598db6bdcceb0f0001b39763,,871405,61,,evan-feature22,full_rf_b,,0
32,31314,62,,,,2,2,0.0,1.0,-1.0,0.0,,0.0-59.0,,0.0,457.2,1.0,0.582420852,1.0,0.635867583,0.0,0.31089574,1.0,0.5227206520000001,True,,598db6bdcceb0f0001b39763,,881627,62,,evan-feature22,full_rf_b,,1
33,31315,63,,,,2,2,0.0,1.0,-1.0,0.0,,0.0-60.0,,0.0,1020.6,0.0,0.623195575,1.0,0.655026044,0.0,0.25,1.0,0.560387538,True,,598db6bdcceb0f0001b39763,,892410,63,,evan-feature22,full_rf_b,,0
34,31316,64,,,,2,2,0.0,1.0,0.0,1.0,,0.0-61.0,,1.0,562.7,0.0,0.601889598,1.0,0.678198724,0.0,0.25,1.0,0.559922936,True,,598db6bdcceb0f0001b39763,,902737,64,,evan-feature22,full_rf_b,,0
35,31317,65,,,,2,2,1.0,1.0,-1.0,0.0,,0.0-62.0,,-1.0,943.9,1.0,0.601259914,1.0,0.704681482,1.0,0.33908969299999997,1.0,0.505003715,True,,598db6bdcceb0f0001b39763,,913445,65,,evan-feature22,full_rf_b,,0
36,31318,66,,,,2,2,1.0,0.0,-1.0,0.0,,0.0-63.0,,-1.0,802.6,0.0,0.59645454,1.0,0.710437172,1.0,0.327441879,0.0,0.391749613,True,,598db6bdcceb0f0001b39763,,924011,66,,evan-feature22,full_rf_b,,0
37,31319,67,,,,1,1,1.0,1.0,0.0,1.0,,0.0-64.0,,1.0,477.0,1.0,0.529473,1.0,0.636758527,0.0,0.301338063,1.0,0.365661481,True,,598db6bdcceb0f0001b39763,,934253,67,,evan-feature22,full_rf_b,,1
38,31320,68,,,,1,1,1.0,1.0,-1.0,0.0,,0.0-65.0,,-1.0,901.7,1.0,0.541657162,1.0,0.634541962,1.0,0.343535366,0.0,0.371763742,True,,598db6bdcceb0f0001b39763,,944917,68,,evan-feature22,full_rf_b,,0
39,31321,69,,,,1,1,1.0,1.0,-1.0,0.0,,0.0-66.0,,-1.0,617.3,1.0,0.5707533260000001,1.0,0.589121171,0.0,0.326428396,0.0,0.43961622899999997,True,,598db6bdcceb0f0001b39763,,955300,69,,evan-feature22,full_rf_b,,0
40,31322,70,,,,1,1,1.0,1.0,0.0,1.0,,0.0-67.0,,1.0,1285.6,1.0,0.5707533260000001,1.0,0.589121171,0.0,0.326428396,0.0,0.43961622899999997,True,,598db6bdcceb0f0001b39763,,966351,70,,evan-feature22,full_rf_b,,0
41,31323,71,,,,1,1,0.0,1.0,0.0,1.0,,0.0-68.0,,1.0,578.2,0.0,0.506271295,1.0,0.641775594,1.0,0.37149690700000004,0.0,0.404330166,True,,598db6bdcceb0f0001b39763,,976693,71,,evan-feature22,full_rf_b,,0
42,31324,72,,,,1,1,0.0,1.0,-1.0,0.0,,0.0-69.0,,0.0,919.2,0.0,0.455642565,1.0,0.623605825,1.0,0.358753011,0.0,0.346174041,True,,598db6bdcceb0f0001b39763,,987376,72,,evan-feature22,full_rf_b,,0
43,31325,73,,,,2,2,0.0,0.0,0.0,1.0,,0.0-70.0,,0.0,690.1,0.0,0.483677308,0.0,0.5904681070000001,0.0,0.402218411,0.0,0.35344697,True,,598db6bdcceb0f0001b39763,,997831,73,,evan-feature22,full_rf_b,,1
44,31326,74,,,,2,2,0.0,0.0,-1.0,0.0,,0.0-71.0,,0.0,557.6,1.0,0.394210977,0.0,0.558925494,0.0,0.540052017,0.0,0.35182128700000004,True,,598db6bdcceb0f0001b39763,,1008149,74,,evan-feature22,full_rf_b,,0
45,31327,75,,,,2,2,0.0,1.0,0.0,1.0,,0.0-72.0,,1.0,796.8,0.0,0.382300414,1.0,0.577670603,0.0,0.607608448,1.0,0.378261578,True,,598db6bdcceb0f0001b39763,,1018710,75,,evan-feature22,full_rf_b,,0
46,31328,76,,,,2,2,1.0,1.0,-1.0,0.0,,0.0-73.0,,-1.0,428.7,0.0,0.357596762,0.0,0.5929076529999999,1.0,0.6579790010000001,1.0,0.401326777,True,,598db6bdcceb0f0001b39763,,1028903,76,,evan-feature22,full_rf_b,,0
47,31329,77,,,,2,2,1.0,0.0,0.0,1.0,,0.0-74.0,,0.0,1201.6,1.0,0.362033495,0.0,0.582308608,1.0,0.649195052,0.0,0.355158505,True,,598db6bdcceb0f0001b39763,,1039870,77,,evan-feature22,full_rf_b,,0
48,31330,78,,,,2,2,1.0,1.0,0.0,1.0,,0.0-75.0,,1.0,652.6,1.0,0.369620635,0.0,0.669100864,1.0,0.706059111,1.0,0.362516241,True,,598db6bdcceb0f0001b39763,,1050287,78,,evan-feature22,full_rf_b,,0
49,31331,79,,,,1,1,0.0,0.0,0.0,1.0,,0.0-76.0,,0.0,641.0,0.0,0.41477751399999996,0.0,0.7284416779999999,1.0,0.7182656940000001,1.0,0.36228040899999997,True,,598db6bdcceb0f0001b39763,,1060691,79,,evan-feature22,full_rf_b,,1
50,31332,80,,,,1,1,0.0,0.0,-1.0,0.0,,0.0-77.0,,0.0,670.3,0.0,0.37675460299999997,0.0,0.703250285,0.0,0.75,0.0,0.461979164,True,,598db6bdcceb0f0001b39763,,1071125,80,,evan-feature22,full_rf_b,,0
51,31333,81,,,,1,1,0.0,0.0,-1.0,0.0,,0.0-78.0,,0.0,611.2,0.0,0.398716075,0.0,0.6723864890000001,0.0,0.674153818,0.0,0.519029516,True,,598db6bdcceb0f0001b39763,,1081502,81,,evan-feature22,full_rf_b,,0
52,31334,82,,,,1,1,0.0,1.0,-1.0,0.0,,0.0-79.0,,0.0,1312.5,0.0,0.34677856700000004,1.0,0.69057175,1.0,0.6822438540000001,0.0,0.477292237,True,,598db6bdcceb0f0001b39763,,1092578,82,,evan-feature22,full_rf_b,,0
53,31335,83,,,,1,1,0.0,1.0,0.0,1.0,,0.0-80.0,,1.0,772.1,0.0,0.28580469199999997,1.0,0.68408818,1.0,0.684207565,1.0,0.49780448299999996,True,,598db6bdcceb0f0001b39763,,1103115,83,,evan-feature22,full_rf_b,,0
54,31337,85,,,,2,2,1.0,0.0,0.0,1.0,,0.0-82.0,,0.0,1219.3,0.0,0.25,1.0,0.7405808970000001,1.0,0.679614108,0.0,0.436436964,True,,598db6bdcceb0f0001b39763,,1116726,85,,evan-feature22,full_rf_b,,1
55,31338,86,,,,2,2,0.0,0.0,0.0,1.0,,0.0-83.0,,0.0,691.7,0.0,0.29890393,1.0,0.730505706,0.0,0.7328203320000001,0.0,0.439256938,True,,598db6bdcceb0f0001b39763,,1127182,86,,evan-feature22,full_rf_b,,0
56,31339,87,,,,2,2,1.0,0.0,-1.0,0.0,,0.0-84.0,,-1.0,743.8,0.0,0.326762398,1.0,0.7148059609999999,1.0,0.75,0.0,0.44389608799999997,True,,598db6bdcceb0f0001b39763,,1137689,87,,evan-feature22,full_rf_b,,0
57,31340,88,,,,2,2,1.0,0.0,0.0,1.0,,0.0-85.0,,0.0,2540.7,0.0,0.295168515,1.0,0.739760854,1.0,0.719947008,0.0,0.35277284600000003,True,,598db6bdcceb0f0001b39763,,1149996,88,,evan-feature22,full_rf_b,,0
58,31341,89,,,,2,2,0.0,0.0,0.0,1.0,,0.0-86.0,,0.0,455.2,0.0,0.25,0.0,0.70781482,0.0,0.75,0.0,0.286095925,True,,598db6bdcceb0f0001b39763,,1160213,89,,evan-feature22,full_rf_b,,0
59,31342,90,,,,2,2,0.0,1.0,0.0,1.0,,0.0-87.0,,1.0,861.5,0.0,0.25638190899999996,1.0,0.704088163,0.0,0.75,1.0,0.26872601399999996,True,,598db6bdcceb0f0001b39763,,1170837,90,,evan-feature22,full_rf_b,,0
60,31343,91,,,,2,2,1.0,0.0,-1.0,0.0,,0.0-88.0,,-1.0,1074.6,1.0,0.271581126,1.0,0.669760107,1.0,0.733896663,0.0,0.273244572,True,,598db6bdcceb0f0001b39763,,1181675,91,,evan-feature22,full_rf_b,,0
61,31344,92,,,,1,1,0.0,0.0,0.0,1.0,,0.0-89.0,,0.0,753.2,0.0,0.257144401,0.0,0.600575706,1.0,0.74488122,0.0,0.25,True,,598db6bdcceb0f0001b39763,,1192194,92,,evan-feature22,full_rf_b,,1
62,31345,93,,,,1,1,0.0,0.0,0.0,1.0,,0.0-90.0,,0.0,999.7,0.0,0.25,0.0,0.616870026,1.0,0.723610234,1.0,0.25,True,,598db6bdcceb0f0001b39763,,1202957,93,,evan-feature22,full_rf_b,,0
63,31346,94,,,,1,1,1.0,1.0,-1.0,0.0,,0.0-91.0,,-1.0,1058.0,1.0,0.25,1.0,0.583540187,0.0,0.7041042559999999,0.0,0.285961995,True,,598db6bdcceb0f0001b39763,,1213777,94,,evan-feature22,full_rf_b,,0
64,31347,95,,,,1,1,0.0,0.0,-1.0,0.0,,0.0-92.0,,0.0,673.9,0.0,0.27254536,0.0,0.53875765,1.0,0.693783448,0.0,0.284961652,True,,598db6bdcceb0f0001b39763,,1224215,95,,evan-feature22,full_rf_b,,0
65,31348,96,,,,1,1,0.0,1.0,-1.0,0.0,,0.0-93.0,,0.0,552.8,0.0,0.25,1.0,0.548431252,1.0,0.734221895,0.0,0.279445214,True,,598db6bdcceb0f0001b39763,,1234531,96,,evan-feature22,full_rf_b,,0
66,31349,97,,,,1,1,1.0,1.0,0.0,1.0,,0.0-94.0,,1.0,625.9,1.0,0.258640684,1.0,0.545878066,1.0,0.725245965,1.0,0.31487537,True,,598db6bdcceb0f0001b39763,,1244923,97,,evan-feature22,full_rf_b,,0
67,31350,98,,,,2,2,1.0,0.0,0.0,1.0,,0.0-95.0,,0.0,897.5,0.0,0.251103711,1.0,0.5776290629999999,1.0,0.696320133,0.0,0.317831047,True,,598db6bdcceb0f0001b39763,,1255583,98,,evan-feature22,full_rf_b,,1
68,31351,99,,,,2,2,0.0,0.0,0.0,1.0,,0.0-96.0,,0.0,476.1,0.0,0.276630292,0.0,0.617329858,0.0,0.73838088,0.0,0.261471582,True,,598db6bdcceb0f0001b39763,,1265821,99,,evan-feature22,full_rf_b,,0
69,31352,100,,,,2,2,1.0,1.0,0.0,1.0,,0.0-97.0,,1.0,1024.3,0.0,0.297716424,1.0,0.618863717,1.0,0.7402358259999999,1.0,0.262600834,True,,598db6bdcceb0f0001b39763,,1276609,100,,evan-feature22,full_rf_b,,0
70,31353,101,,,,2,2,1.0,1.0,-1.0,0.0,,0.0-98.0,,-1.0,755.9,0.0,0.290935512,0.0,0.695370945,1.0,0.706570507,1.0,0.280030553,True,,598db6bdcceb0f0001b39763,,1287128,101,,evan-feature22,full_rf_b,,0
71,31354,102,,,,2,2,1.0,0.0,0.0,1.0,,0.0-99.0,,0.0,890.2,0.0,0.25,1.0,0.6465277079999999,1.0,0.67766682,0.0,0.25,True,,598db6bdcceb0f0001b39763,,1297781,102,,evan-feature22,full_rf_b,,0
72,31355,103,,,,2,2,1.0,0.0,-1.0,0.0,,0.0-100.0,,-1.0,1321.6,0.0,0.26463816,0.0,0.636100213,1.0,0.646048507,0.0,0.265607101,True,,598db6bdcceb0f0001b39763,,1308865,103,,evan-feature22,full_rf_b,,0
73,31356,104,,,,2,2,0.0,0.0,-1.0,0.0,,0.0-101.0,,0.0,552.6,1.0,0.314340707,1.0,0.667795927,0.0,0.613630805,0.0,0.25,True,,598db6bdcceb0f0001b39763,,1319181,104,,evan-feature22,full_rf_b,,0
74,31357,105,,,,1,1,0.0,0.0,0.0,1.0,,0.0-102.0,,0.0,599.0,0.0,0.28685784,0.0,0.6622549529999999,1.0,0.652154117,1.0,0.25,True,,598db6bdcceb0f0001b39763,,1329543,105,,evan-feature22,full_rf_b,,1
75,31358,106,,,,1,1,0.0,1.0,0.0,1.0,,0.0-103.0,,1.0,703.6,0.0,0.304106554,1.0,0.631289538,1.0,0.707041942,0.0,0.29314237,True,,598db6bdcceb0f0001b39763,,1340010,106,,evan-feature22,full_rf_b,,0
76,31359,107,,,,1,1,1.0,0.0,0.0,1.0,,0.0-104.0,,0.0,782.8,1.0,0.304806932,0.0,0.571167718,1.0,0.680472346,0.0,0.25,True,,598db6bdcceb0f0001b39763,,1350558,107,,evan-feature22,full_rf_b,,0
77,31360,108,,,,1,1,1.0,1.0,0.0,1.0,,0.0-105.0,,1.0,841.9,1.0,0.37919861,1.0,0.5724849710000001,0.0,0.705638003,0.0,0.30179300600000003,True,,598db6bdcceb0f0001b39763,,1361164,108,,evan-feature22,full_rf_b,,0
78,31361,109,,,,1,1,1.0,1.0,0.0,1.0,,0.0-106.0,,1.0,979.4,1.0,0.464277969,1.0,0.554034373,1.0,0.7372627340000001,1.0,0.264699741,True,,598db6bdcceb0f0001b39763,,1371907,109,,evan-feature22,full_rf_b,,0
79,31362,110,,,,2,2,1.0,0.0,0.0,1.0,,0.0-107.0,,0.0,845.6,1.0,0.465104323,1.0,0.530793115,1.0,0.75,0.0,0.31683071,True,,598db6bdcceb0f0001b39763,,1382517,110,,evan-feature22,full_rf_b,,1
80,31363,111,,,,2,2,1.0,1.0,-1.0,0.0,,0.0-108.0,,-1.0,807.0,1.0,0.465104323,0.0,0.530793115,1.0,0.75,1.0,0.31683071,True,,598db6bdcceb0f0001b39763,,1393087,111,,evan-feature22,full_rf_b,,0
81,31364,112,,,,2,2,1.0,1.0,-1.0,0.0,,0.0-109.0,,-1.0,548.8,1.0,0.46833986,1.0,0.570249239,1.0,0.7244472590000001,1.0,0.364114163,True,,598db6bdcceb0f0001b39763,,1403400,112,,evan-feature22,full_rf_b,,0
82,31365,113,,,,2,2,0.0,0.0,-1.0,0.0,,0.0-110.0,,0.0,651.3,1.0,0.445444024,0.0,0.649673355,0.0,0.6845441290000001,0.0,0.300660449,True,,598db6bdcceb0f0001b39763,,1413814,113,,evan-feature22,full_rf_b,,0
83,31366,114,,,,2,2,1.0,0.0,-1.0,0.0,,0.0-111.0,,-1.0,662.8,1.0,0.39909721299999995,0.0,0.6715179509999999,1.0,0.742310028,0.0,0.35496088299999995,True,,598db6bdcceb0f0001b39763,,1424241,114,,evan-feature22,full_rf_b,,0
84,31367,115,,,,2,2,1.0,0.0,0.0,1.0,,0.0-112.0,,0.0,823.6,0.0,0.37956104799999996,0.0,0.694725302,1.0,0.7181651309999999,0.0,0.38726906299999997,True,,598db6bdcceb0f0001b39763,,1434830,115,,evan-feature22,full_rf_b,,0
85,31368,116,,,,2,2,1.0,0.0,0.0,1.0,,0.0-113.0,,0.0,1146.3,0.0,0.404995034,1.0,0.724375412,1.0,0.6910946859999999,0.0,0.387187347,True,,598db6bdcceb0f0001b39763,,1445737,116,,evan-feature22,full_rf_b,,0
86,31369,117,,,,2,2,1.0,0.0,-1.0,0.0,,0.0-114.0,,-1.0,592.9,0.0,0.461740803,1.0,0.75,1.0,0.75,0.0,0.34872038200000005,True,,598db6bdcceb0f0001b39763,,1456094,117,,evan-feature22,full_rf_b,,0
87,31370,118,,,,1,1,0.0,1.0,-1.0,0.0,,0.0-115.0,,0.0,753.9,0.0,0.43821380600000004,1.0,0.738833273,1.0,0.728286963,0.0,0.399538128,True,,598db6bdcceb0f0001b39763,,1466611,118,,evan-feature22,full_rf_b,,1
88,31371,119,,,,1,1,0.0,1.0,0.0,1.0,,0.0-116.0,,1.0,937.8,0.0,0.41709882,1.0,0.736666736,1.0,0.75,1.0,0.389095584,True,,598db6bdcceb0f0001b39763,,1477312,119,,evan-feature22,full_rf_b,,0
89,31372,120,,,,1,1,0.0,1.0,0.0,1.0,,0.0-117.0,,1.0,1104.5,0.0,0.39749009799999996,1.0,0.744320029,1.0,0.75,0.0,0.363848678,True,,598db6bdcceb0f0001b39763,,1488179,120,,evan-feature22,full_rf_b,,0
90,31373,121,,,,1,1,1.0,1.0,-1.0,0.0,,0.0-118.0,,-1.0,569.7,1.0,0.392653706,1.0,0.75,1.0,0.75,1.0,0.384386976,True,,598db6bdcceb0f0001b39763,,1498514,121,,evan-feature22,full_rf_b,,0
91,31374,122,,,,1,1,1.0,1.0,0.0,1.0,,0.0-119.0,,1.0,719.3,1.0,0.31190902600000003,1.0,0.75,0.0,0.732413819,1.0,0.413082932,True,,598db6bdcceb0f0001b39763,,1508999,122,,evan-feature22,full_rf_b,,0
92,31375,123,,,,1,1,1.0,1.0,-1.0,0.0,,0.0-120.0,,-1.0,1103.3,1.0,0.366917648,1.0,0.740073855,0.0,0.75,1.0,0.352861979,True,,598db6bdcceb0f0001b39763,,1519867,123,,evan-feature22,full_rf_b,,0
93,31376,124,,,,1,1,0.0,1.0,-1.0,0.0,,0.0-121.0,,0.0,861.3,0.0,0.3645172,1.0,0.721770713,1.0,0.75,1.0,0.404074511,True,,598db6bdcceb0f0001b39763,,1530492,124,,evan-feature22,full_rf_b,,0
94,31377,125,,,,1,1,0.0,0.0,-1.0,0.0,,0.0-122.0,,0.0,809.6,0.0,0.35205600299999995,0.0,0.68983859,1.0,0.739735447,0.0,0.366895945,True,,598db6bdcceb0f0001b39763,,1541067,125,,evan-feature22,full_rf_b,,0
95,31378,126,,,,1,1,1.0,0.0,-1.0,0.0,,0.0-123.0,,-1.0,1320.1,1.0,0.40998722600000004,0.0,0.720859127,0.0,0.673854955,1.0,0.368528541,True,,598db6bdcceb0f0001b39763,,1552150,126,,evan-feature22,full_rf_b,,0
96,31379,127,,,,1,1,0.0,1.0,-1.0,0.0,,0.0-124.0,,0.0,1115.9,0.0,0.353625316,1.0,0.75,0.0,0.695605473,1.0,0.38303674200000004,True,,598db6bdcceb0f0001b39763,,1563030,127,,evan-feature22,full_rf_b,,0
97,31380,128,,,,2,2,1.0,0.0,-1.0,0.0,,0.0-125.0,,-1.0,956.7,0.0,0.359216989,1.0,0.75,1.0,0.6987915090000001,0.0,0.35169046200000004,True,,598db6bdcceb0f0001b39763,,1573751,128,,evan-feature22,full_rf_b,,1
98,31381,129,,,,2,2,1.0,1.0,-1.0,0.0,,0.0-126.0,,-1.0,828.3,0.0,0.35834496899999996,1.0,0.75,1.0,0.707067742,1.0,0.416763636,True,,598db6bdcceb0f0001b39763,,1584343,129,,evan-feature22,full_rf_b,,0
99,31382,130,,,,2,2,0.0,0.0,0.0,1.0,,0.0-127.0,,0.0,1095.0,1.0,0.38741613799999997,1.0,0.7177369570000001,0.0,0.734902455,0.0,0.49438664299999996,True,,598db6bdcceb0f0001b39763,,1595203,130,,evan-feature22,full_rf_b,,0
100,31383,131,,,,2,2,1.0,0.0,-1.0,0.0,,0.0-128.0,,-1.0,1485.7,0.0,0.405255252,1.0,0.7300466640000001,1.0,0.7027748070000001,0.0,0.504359668,True,,598db6bdcceb0f0001b39763,,1606454,131,,evan-feature22,full_rf_b,,0
101,31384,132,,,,2,2,1.0,0.0,-1.0,0.0,,0.0-129.0,,-1.0,777.7,0.0,0.40697073,1.0,0.7260142190000001,1.0,0.724461982,0.0,0.522779179,True,,598db6bdcceb0f0001b39763,,1616996,132,,evan-feature22,full_rf_b,,0
102,31385,133,,,,2,2,1.0,0.0,-1.0,0.0,,0.0-130.0,,-1.0,1240.7,0.0,0.43906215299999996,1.0,0.7252802340000001,1.0,0.719079934,0.0,0.5712990579999999,True,,598db6bdcceb0f0001b39763,,1628000,133,,evan-feature22,full_rf_b,,0
103,31386,134,,,,2,2,1.0,0.0,0.0,1.0,,0.0-131.0,,0.0,444.8,1.0,0.4076705,1.0,0.73280499,1.0,0.681313127,0.0,0.523891346,True,,598db6bdcceb0f0001b39763,,1638208,134,,evan-feature22,full_rf_b,,0
104,31387,135,,,,2,2,0.0,1.0,0.0,1.0,,0.0-132.0,,1.0,938.0,0.0,0.399102911,1.0,0.730498344,0.0,0.661080239,1.0,0.46742603,True,,598db6bdcceb0f0001b39763,,1648911,135,,evan-feature22,full_rf_b,,0
105,31388,136,,,,2,2,1.0,0.0,0.0,1.0,,0.0-133.0,,0.0,1158.0,0.0,0.356477282,1.0,0.712296395,1.0,0.641812684,0.0,0.44868414,True,,598db6bdcceb0f0001b39763,,1659831,136,,evan-feature22,full_rf_b,,0
106,31389,137,,,,2,2,1.0,0.0,-1.0,0.0,,0.0-134.0,,-1.0,821.3,1.0,0.462760722,0.0,0.692349322,1.0,0.700947931,0.0,0.394680266,True,,598db6bdcceb0f0001b39763,,1670416,137,,evan-feature22,full_rf_b,,0
107,31390,138,,,,1,1,0.0,1.0,-1.0,0.0,,0.0-135.0,,0.0,904.9,0.0,0.422306413,1.0,0.718375916,1.0,0.706340917,1.0,0.367787185,True,,598db6bdcceb0f0001b39763,,1681085,138,,evan-feature22,full_rf_b,,1
108,31392,140,,,,1,1,1.0,0.0,-1.0,0.0,,0.0-137.0,,-1.0,3125.8,1.0,0.4582233,0.0,0.643834117,1.0,0.75,1.0,0.39615823299999997,True,,598db6bdcceb0f0001b39763,,1697055,140,,evan-feature22,full_rf_b,,0
109,31393,141,,,,1,1,1.0,1.0,-1.0,0.0,,0.0-138.0,,-1.0,394.3,1.0,0.43813437899999996,1.0,0.651283804,1.0,0.729674191,0.0,0.37711048,True,,598db6bdcceb0f0001b39763,,1707215,141,,evan-feature22,full_rf_b,,0
110,31394,142,,,,1,1,0.0,1.0,-1.0,0.0,,0.0-139.0,,0.0,467.0,0.0,0.471199094,1.0,0.6470010979999999,1.0,0.715008097,0.0,0.410656191,True,,598db6bdcceb0f0001b39763,,1717448,142,,evan-feature22,full_rf_b,,0
111,31395,143,,,,2,2,1.0,0.0,-1.0,0.0,,0.0-140.0,,-1.0,431.2,0.0,0.42486406,1.0,0.629771829,1.0,0.6550939960000001,0.0,0.459093873,True,,598db6bdcceb0f0001b39763,,1727644,143,,evan-feature22,full_rf_b,,1
112,31396,144,,,,2,2,1.0,1.0,-1.0,0.0,,0.0-141.0,,-1.0,505.2,0.0,0.4803197,0.0,0.645842715,1.0,0.6421749920000001,1.0,0.443092151,True,,598db6bdcceb0f0001b39763,,1737911,144,,evan-feature22,full_rf_b,,0
113,31397,145,,,,2,2,1.0,1.0,0.0,1.0,,0.0-142.0,,1.0,464.3,1.0,0.521848997,1.0,0.735801074,1.0,0.6691348460000001,1.0,0.45259351600000003,True,,598db6bdcceb0f0001b39763,,1748139,145,,evan-feature22,full_rf_b,,0
114,31398,146,,,,1,1,0.0,0.0,-1.0,0.0,,0.0-143.0,,0.0,616.0,0.0,0.49565621299999996,0.0,0.742400847,1.0,0.661512553,1.0,0.483110831,True,,598db6bdcceb0f0001b39763,,1758518,146,,evan-feature22,full_rf_b,,1
115,31399,147,,,,1,1,0.0,1.0,-1.0,0.0,,0.0-144.0,,0.0,348.6,0.0,0.521564361,1.0,0.731078632,0.0,0.6774886809999999,0.0,0.483263956,True,,598db6bdcceb0f0001b39763,,1768631,147,,evan-feature22,full_rf_b,,0
116,31400,148,,,,2,2,1.0,1.0,-1.0,0.0,,0.0-145.0,,-1.0,395.9,1.0,0.558893102,1.0,0.719810023,1.0,0.67461031,1.0,0.499349834,True,,598db6bdcceb0f0001b39763,,1778790,148,,evan-feature22,full_rf_b,,1
117,31401,149,,,,1,1,0.0,1.0,-1.0,0.0,,0.0-146.0,,0.0,687.1,0.0,0.611031046,1.0,0.75,1.0,0.688072995,1.0,0.5321422729999999,True,,598db6bdcceb0f0001b39763,,1789241,149,,evan-feature22,full_rf_b,,1
118,31402,150,,,,1,1,1.0,1.0,0.0,1.0,,0.0-147.0,,1.0,1132.6,1.0,0.633223941,1.0,0.713567728,1.0,0.75,1.0,0.48185314700000004,True,,598db6bdcceb0f0001b39763,,1800137,150,,evan-feature22,full_rf_b,,0
119,31403,151,,,,1,1,1.0,1.0,-1.0,0.0,,0.0-148.0,,-1.0,882.6,1.0,0.664001694,1.0,0.705509768,1.0,0.75,1.0,0.500211065,True,,598db6bdcceb0f0001b39763,,1810784,151,,evan-feature22,full_rf_b,,0
120,31404,152,,,,2,2,1.0,0.0,-1.0,0.0,,0.0-149.0,,-1.0,519.9,0.0,0.664001694,0.0,0.705509768,1.0,0.75,0.0,0.500211065,True,,598db6bdcceb0f0001b39763,,1821067,152,,evan-feature22,full_rf_b,,1
121,31405,153,,,,2,2,1.0,1.0,-1.0,0.0,,0.0-150.0,,-1.0,1119.4,1.0,0.696508041,1.0,0.71066027,1.0,0.717028709,1.0,0.49792991,True,,598db6bdcceb0f0001b39763,,1831952,153,,evan-feature22,full_rf_b,,0
122,31406,154,,,,2,2,1.0,1.0,0.0,1.0,,0.0-151.0,,1.0,1027.5,0.0,0.699883272,1.0,0.75,1.0,0.713543895,1.0,0.496962643,True,,598db6bdcceb0f0001b39763,,1842745,154,,evan-feature22,full_rf_b,,0
123,31407,155,,,,2,2,1.0,1.0,0.0,1.0,,0.0-152.0,,1.0,2024.9,0.0,0.741163419,1.0,0.75,1.0,0.64691024,1.0,0.513858197,True,,598db6bdcceb0f0001b39763,,1854534,155,,evan-feature22,full_rf_b,,0
124,31408,156,,,,2,2,1.0,0.0,0.0,1.0,,0.0-153.0,,0.0,851.5,1.0,0.75,1.0,0.70816558,1.0,0.594499079,0.0,0.48502124,True,,598db6bdcceb0f0001b39763,,1865148,156,,evan-feature22,full_rf_b,,0
125,31409,157,,,,2,2,0.0,0.0,-1.0,0.0,,0.0-154.0,,0.0,2033.8,1.0,0.75,1.0,0.721848901,0.0,0.62197249,0.0,0.48263586399999997,True,,598db6bdcceb0f0001b39763,,1876946,157,,evan-feature22,full_rf_b,,0
126,31410,158,,,,2,2,1.0,0.0,-1.0,0.0,,0.0-155.0,,-1.0,2210.9,0.0,0.75,1.0,0.74813071,1.0,0.584357161,0.0,0.411477782,True,,598db6bdcceb0f0001b39763,,1888922,158,,evan-feature22,full_rf_b,,0
127,31411,159,,,,1,1,1.0,1.0,-1.0,0.0,,0.0-156.0,,-1.0,497.4,1.0,0.75,1.0,0.75,0.0,0.52287236,1.0,0.488290656,True,,598db6bdcceb0f0001b39763,,1899183,159,,evan-feature22,full_rf_b,,1
128,31412,160,,,,1,1,1.0,1.0,-1.0,0.0,,0.0-157.0,,-1.0,1182.5,1.0,0.75,1.0,0.75,1.0,0.544321581,0.0,0.53143059,True,,598db6bdcceb0f0001b39763,,1910130,160,,evan-feature22,full_rf_b,,0
129,31413,161,,,,1,1,0.0,1.0,-1.0,0.0,,0.0-158.0,,0.0,978.5,0.0,0.726754564,1.0,0.75,0.0,0.5129306370000001,1.0,0.530592445,True,,598db6bdcceb0f0001b39763,,1920874,161,,evan-feature22,full_rf_b,,0
130,31414,162,,,,1,1,1.0,0.0,0.0,1.0,,0.0-159.0,,0.0,955.2,1.0,0.75,0.0,0.7392590729999999,1.0,0.479875835,1.0,0.547007051,True,,598db6bdcceb0f0001b39763,,1931592,162,,evan-feature22,full_rf_b,,0
131,31415,163,,,,1,1,1.0,1.0,0.0,1.0,,0.0-160.0,,1.0,834.2,1.0,0.75,1.0,0.7393376979999999,1.0,0.546045419,1.0,0.541267353,True,,598db6bdcceb0f0001b39763,,1942193,163,,evan-feature22,full_rf_b,,0
132,31416,164,,,,2,2,1.0,1.0,-1.0,0.0,,0.0-161.0,,-1.0,880.7,1.0,0.75,1.0,0.75,1.0,0.485725895,1.0,0.527625395,True,,598db6bdcceb0f0001b39763,,1952838,164,,evan-feature22,full_rf_b,,1
133,31417,165,,,,2,2,1.0,0.0,0.0,1.0,,0.0-162.0,,0.0,720.2,1.0,0.75,1.0,0.725087974,1.0,0.488603595,0.0,0.504019206,True,,598db6bdcceb0f0001b39763,,1963323,165,,evan-feature22,full_rf_b,,0
134,31418,166,,,,1,1,0.0,1.0,-1.0,0.0,,0.0-163.0,,0.0,616.9,0.0,0.745504295,1.0,0.75,0.0,0.452379914,0.0,0.50131194,True,,598db6bdcceb0f0001b39763,,1973704,166,,evan-feature22,full_rf_b,,1
135,31419,167,,,,1,1,1.0,0.0,0.0,1.0,,0.0-164.0,,0.0,1369.6,1.0,0.728513874,0.0,0.75,1.0,0.44125567200000004,0.0,0.531454591,True,,598db6bdcceb0f0001b39763,,1984838,167,,evan-feature22,full_rf_b,,0
136,31420,168,,,,1,1,1.0,1.0,-1.0,0.0,,0.0-165.0,,-1.0,844.5,1.0,0.73790804,1.0,0.75,1.0,0.413036656,0.0,0.524619035,True,,598db6bdcceb0f0001b39763,,1995446,168,,evan-feature22,full_rf_b,,0
137,31421,169,,,,1,1,0.0,0.0,-1.0,0.0,,0.0-166.0,,0.0,405.0,0.0,0.7080961309999999,0.0,0.708666865,1.0,0.431915581,0.0,0.481819489,True,,598db6bdcceb0f0001b39763,,2005614,169,,evan-feature22,full_rf_b,,0
138,31422,170,,,,1,1,0.0,1.0,-1.0,0.0,,0.0-167.0,,0.0,904.6,0.0,0.721378003,1.0,0.71605913,0.0,0.36642387,1.0,0.5036739929999999,True,,598db6bdcceb0f0001b39763,,2016283,170,,evan-feature22,full_rf_b,,0
139,31423,171,,,,2,2,1.0,1.0,0.0,1.0,,0.0-168.0,,1.0,821.4,0.0,0.7340618959999999,0.0,0.699323252,1.0,0.35298046299999997,1.0,0.511241692,True,,598db6bdcceb0f0001b39763,,2026868,171,,evan-feature22,full_rf_b,,1
140,31424,172,,,,2,2,1.0,1.0,0.0,1.0,,0.0-169.0,,1.0,641.8,1.0,0.75,0.0,0.70412698,1.0,0.380734814,1.0,0.529580116,True,,598db6bdcceb0f0001b39763,,2037277,172,,evan-feature22,full_rf_b,,0
141,31425,173,,,,2,2,0.0,0.0,0.0,1.0,,0.0-170.0,,0.0,508.7,1.0,0.7436654909999999,1.0,0.711182751,0.0,0.41125331,0.0,0.49554405,True,,598db6bdcceb0f0001b39763,,2047549,173,,evan-feature22,full_rf_b,,0
142,31426,174,,,,2,2,0.0,1.0,-1.0,0.0,,0.0-171.0,,0.0,573.8,1.0,0.731607915,1.0,0.651774583,0.0,0.35688023,1.0,0.45194491600000003,True,,598db6bdcceb0f0001b39763,,2057887,174,,evan-feature22,full_rf_b,,0
143,31427,175,,,,2,2,0.0,1.0,0.0,1.0,,0.0-172.0,,1.0,490.5,1.0,0.75,1.0,0.75,0.0,0.283145374,1.0,0.528608005,True,,598db6bdcceb0f0001b39763,,2068142,175,,evan-feature22,full_rf_b,,0
144,31428,176,,,,2,2,0.0,0.0,-1.0,0.0,,0.0-173.0,,0.0,1512.8,0.0,0.7491416890000001,1.0,0.7423785959999999,0.0,0.29135870399999997,0.0,0.498888318,True,,598db6bdcceb0f0001b39763,,2079417,176,,evan-feature22,full_rf_b,,0
145,31429,177,,,,2,2,0.0,0.0,0.0,1.0,,0.0-174.0,,0.0,1087.1,0.0,0.708569387,1.0,0.717682277,0.0,0.294421699,0.0,0.493838163,True,,598db6bdcceb0f0001b39763,,2090266,177,,evan-feature22,full_rf_b,,0
146,31430,178,,,,2,2,0.0,1.0,-1.0,0.0,,0.0-175.0,,0.0,536.8,1.0,0.75,1.0,0.7383382159999999,0.0,0.356098707,1.0,0.442533405,True,,598db6bdcceb0f0001b39763,,2100566,178,,evan-feature22,full_rf_b,,0
147,31431,179,,,,1,1,0.0,1.0,-1.0,0.0,,0.0-176.0,,0.0,724.4,0.0,0.744527075,1.0,0.75,0.0,0.334127506,1.0,0.393165805,True,,598db6bdcceb0f0001b39763,,2111053,179,,evan-feature22,full_rf_b,,1
148,31432,180,,,,1,1,0.0,1.0,-1.0,0.0,,0.0-177.0,,0.0,837.5,0.0,0.75,1.0,0.75,1.0,0.33571021799999995,0.0,0.350393962,True,,598db6bdcceb0f0001b39763,,2121653,180,,evan-feature22,full_rf_b,,0
149,31433,181,,,,2,2,0.0,1.0,0.0,1.0,,0.0-178.0,,1.0,1725.5,1.0,0.75,1.0,0.75,0.0,0.313628297,1.0,0.36349657399999996,True,,598db6bdcceb0f0001b39763,,2133140,181,,evan-feature22,full_rf_b,,1
150,31434,182,,,,1,1,1.0,1.0,-1.0,0.0,,0.0-179.0,,-1.0,824.3,1.0,0.75,1.0,0.734284182,0.0,0.262667667,0.0,0.380199119,True,,598db6bdcceb0f0001b39763,,2143729,182,,evan-feature22,full_rf_b,,1
151,31435,183,,,,1,1,1.0,1.0,-1.0,0.0,,0.0-180.0,,-1.0,1066.5,1.0,0.75,1.0,0.75,0.0,0.25,1.0,0.394494013,True,,598db6bdcceb0f0001b39763,,2154561,183,,evan-feature22,full_rf_b,,0
152,31436,184,,,,2,2,0.0,0.0,-1.0,0.0,,0.0-181.0,,0.0,1070.3,1.0,0.722298145,1.0,0.7357822340000001,0.0,0.25,0.0,0.319142121,True,,598db6bdcceb0f0001b39763,,2165396,184,,evan-feature22,full_rf_b,,1
153,31437,185,,,,2,2,1.0,0.0,-1.0,0.0,,0.0-182.0,,-1.0,994.7,1.0,0.73149275,0.0,0.724276446,1.0,0.305856907,0.0,0.281315057,True,,598db6bdcceb0f0001b39763,,2176155,185,,evan-feature22,full_rf_b,,0
154,31438,186,,,,1,1,1.0,1.0,-1.0,0.0,,0.0-183.0,,-1.0,673.3,1.0,0.7458732690000001,1.0,0.7336382459999999,0.0,0.272571964,0.0,0.266021999,True,,598db6bdcceb0f0001b39763,,2186592,186,,evan-feature22,full_rf_b,,1
155,31439,187,,,,1,1,0.0,1.0,0.0,1.0,,0.0-184.0,,1.0,433.0,0.0,0.705579037,1.0,0.720778292,0.0,0.320238144,1.0,0.30971744,True,,598db6bdcceb0f0001b39763,,2196788,187,,evan-feature22,full_rf_b,,0
156,31440,188,,,,1,1,1.0,1.0,0.0,1.0,,0.0-185.0,,1.0,1207.1,1.0,0.700425648,1.0,0.7198784009999999,0.0,0.272590393,0.0,0.304182931,True,,598db6bdcceb0f0001b39763,,2207760,188,,evan-feature22,full_rf_b,,0
157,31441,189,,,,2,2,0.0,0.0,0.0,1.0,,0.0-186.0,,0.0,774.5,1.0,0.735590785,0.0,0.722714973,0.0,0.25,0.0,0.323421091,True,,598db6bdcceb0f0001b39763,,2218299,189,,evan-feature22,full_rf_b,,1
158,31442,190,,,,1,1,1.0,0.0,0.0,1.0,,0.0-187.0,,0.0,819.1,1.0,0.724807662,0.0,0.63146213,0.0,0.36836492600000004,0.0,0.34592153299999995,True,,598db6bdcceb0f0001b39763,,2228882,190,,evan-feature22,full_rf_b,,1
159,31443,191,,,,1,1,0.0,0.0,-1.0,0.0,,0.0-188.0,,0.0,748.6,0.0,0.7352796909999999,0.0,0.555111392,0.0,0.36003922,1.0,0.31433779999999995,True,,598db6bdcceb0f0001b39763,,2239394,191,,evan-feature22,full_rf_b,,0
160,31444,192,notice,,,,,,,,,,0.0-189.0,"{""Q0"":""no""}",,6613.0,,,,,,,,,True,,598db6bdcceb0f0001b39763,,2246010,192,Q,survey-text,full_rf_b,,1
161,31445,193,track1,,[1],,,,,,,,0.0-190.0,"{""Q0"":""no""}",,3768.0,,,,,,,,,True,,598db6bdcceb0f0001b39763,,2249782,193,Q,evan-quiz,full_rf_b,,1
162,31446,194,track2,,[0],,,,,,,,0.0-191.0,"{""Q0"":""yes""}",,7402.0,,,,,,,,,True,,598db6bdcceb0f0001b39763,,2257188,194,Q,evan-quiz,full_rf_b,,1
163,31447,195,strat,,,,,,,,,,0.0-192.0,"{""Q0"":""just random""}",,10361.0,,,,,,,,,True,,598db6bdcceb0f0001b39763,,2267555,195,Q,survey-text,full_rf_b,,1
