,index,Unnamed: 0,Q_name,button_pressed,choice_idxs,chosen_pos,chosen_state,chosen_state_f_1_outcome,chosen_state_f_2_outcome,f_1_reward,f_2_reward,incor_questions,internal_node_id,responses,reward_received,rt,s_1_f_1_outcome,s_1_f_1_prob,s_1_f_2_outcome,s_1_f_2_prob,s_2_f_1_outcome,s_2_f_1_prob,s_2_f_2_outcome,s_2_f_2_prob,safe_first,stimulus,subjectID,success,time_elapsed,trial_index,trial_num,trial_type,version,view_history,switching
0,33440,35,,,,1,1,0.0,1.0,-1.0,0.0,,0.0-27.0,,0.0,1578.6,0.0,0.6,1.0,0.6,0.0,0.4,0.0,0.4,False,,5ea1637e050d8e0008afdff7,,561130,35,,evan-feature22,full_pf_b,,0
1,33441,36,,,,1,1,0.0,0.0,-1.0,0.0,,0.0-28.0,,0.0,726.76,0.0,0.608053294,0.0,0.63424552,0.0,0.397152172,0.0,0.347069101,False,,5ea1637e050d8e0008afdff7,,571618,36,,evan-feature22,full_pf_b,,0
2,33442,37,,,,2,2,1.0,1.0,-1.0,0.0,,0.0-29.0,,-1.0,522.16,1.0,0.642237155,1.0,0.648566321,1.0,0.389407674,1.0,0.285525717,False,,5ea1637e050d8e0008afdff7,,581900,37,,evan-feature22,full_pf_b,,1
3,33443,38,,,,2,2,0.0,1.0,-1.0,0.0,,0.0-30.0,,0.0,404.86,1.0,0.661086576,1.0,0.630492543,0.0,0.399058924,1.0,0.25,False,,5ea1637e050d8e0008afdff7,,592066,38,,evan-feature22,full_pf_b,,0
4,33444,39,,,,1,1,1.0,0.0,0.0,1.0,,0.0-31.0,,0.0,274.085,1.0,0.631324137,0.0,0.6269842929999999,0.0,0.38734784299999997,1.0,0.25,False,,5ea1637e050d8e0008afdff7,,602097,39,,evan-feature22,full_pf_b,,1
5,33445,40,,,,2,2,0.0,0.0,0.0,1.0,,0.0-32.0,,0.0,484.77,0.0,0.6381991370000001,1.0,0.68987999,0.0,0.384107265,0.0,0.271332943,False,,5ea1637e050d8e0008afdff7,,612342,40,,evan-feature22,full_pf_b,,1
6,33446,41,,,,2,2,0.0,0.0,-1.0,0.0,,0.0-33.0,,0.0,1132.97,1.0,0.66034901,1.0,0.742641349,0.0,0.360225629,0.0,0.25,False,,5ea1637e050d8e0008afdff7,,623239,41,,evan-feature22,full_pf_b,,0
7,33447,42,,,,2,2,0.0,1.0,-1.0,0.0,,0.0-34.0,,0.0,912.925,1.0,0.638612418,1.0,0.75,0.0,0.367273939,1.0,0.25,False,,5ea1637e050d8e0008afdff7,,633913,42,,evan-feature22,full_pf_b,,0
8,33448,43,,,,2,2,0.0,0.0,0.0,1.0,,0.0-35.0,,0.0,427.83,0.0,0.624340629,1.0,0.75,0.0,0.425829545,0.0,0.25,False,,5ea1637e050d8e0008afdff7,,644099,43,,evan-feature22,full_pf_b,,0
9,33449,44,,,,1,1,0.0,1.0,0.0,1.0,,0.0-36.0,,1.0,529.19,0.0,0.621999804,1.0,0.75,0.0,0.368609357,0.0,0.25,False,,5ea1637e050d8e0008afdff7,,654387,44,,evan-feature22,full_pf_b,,1
10,33450,45,,,,1,1,1.0,1.0,-1.0,0.0,,0.0-37.0,,-1.0,1380.985,1.0,0.62666403,1.0,0.75,0.0,0.311151498,0.0,0.25,False,,5ea1637e050d8e0008afdff7,,665527,45,,evan-feature22,full_pf_b,,0
11,33451,46,,,,2,2,1.0,0.0,0.0,1.0,,0.0-38.0,,0.0,371.93,1.0,0.6819650009999999,1.0,0.75,1.0,0.310763048,0.0,0.25,False,,5ea1637e050d8e0008afdff7,,675659,46,,evan-feature22,full_pf_b,,1
12,33452,47,,,,2,2,0.0,0.0,-1.0,0.0,,0.0-39.0,,0.0,324.62,0.0,0.740626951,0.0,0.75,0.0,0.25,0.0,0.25,False,,5ea1637e050d8e0008afdff7,,685742,47,,evan-feature22,full_pf_b,,0
13,33453,48,,,,2,2,1.0,1.0,-1.0,0.0,,0.0-40.0,,-1.0,348.44,1.0,0.739599242,1.0,0.742034978,1.0,0.25397114600000004,1.0,0.25,False,,5ea1637e050d8e0008afdff7,,695848,48,,evan-feature22,full_pf_b,,0
14,33454,49,,,,2,2,0.0,0.0,-1.0,0.0,,0.0-41.0,,0.0,490.445,1.0,0.732341315,0.0,0.72735643,0.0,0.25,0.0,0.25,False,,5ea1637e050d8e0008afdff7,,706109,49,,evan-feature22,full_pf_b,,0
15,33455,50,,,,2,2,1.0,0.0,-1.0,0.0,,0.0-42.0,,-1.0,258.335,1.0,0.7062287770000001,1.0,0.75,1.0,0.29002151,0.0,0.288256649,False,,5ea1637e050d8e0008afdff7,,716128,50,,evan-feature22,full_pf_b,,0
16,33456,51,,,,1,1,1.0,1.0,-1.0,0.0,,0.0-43.0,,-1.0,378.25,1.0,0.7086029209999999,1.0,0.75,0.0,0.274129113,0.0,0.262851608,False,,5ea1637e050d8e0008afdff7,,726265,51,,evan-feature22,full_pf_b,,1
17,33457,52,,,,1,1,1.0,0.0,-1.0,0.0,,0.0-44.0,,-1.0,291.895,1.0,0.669189651,0.0,0.727614338,0.0,0.298444036,0.0,0.296944518,False,,5ea1637e050d8e0008afdff7,,736316,52,,evan-feature22,full_pf_b,,0
18,33458,53,,,,2,2,0.0,0.0,-1.0,0.0,,0.0-45.0,,0.0,300.935,1.0,0.6819912929999999,1.0,0.7179434290000001,0.0,0.265003961,0.0,0.28157921199999997,False,,5ea1637e050d8e0008afdff7,,746374,53,,evan-feature22,full_pf_b,,1
19,33459,54,,,,2,2,0.0,0.0,0.0,1.0,,0.0-46.0,,0.0,1153.38,1.0,0.665275002,1.0,0.723065271,0.0,0.260414971,0.0,0.30973870000000003,False,,5ea1637e050d8e0008afdff7,,757297,54,,evan-feature22,full_pf_b,,0
20,33460,55,,,,2,2,0.0,0.0,-1.0,0.0,,0.0-47.0,,0.0,304.06,1.0,0.6660593260000001,1.0,0.728032907,0.0,0.30922817,0.0,0.338778608,False,,5ea1637e050d8e0008afdff7,,767360,55,,evan-feature22,full_pf_b,,0
21,33461,56,,,,2,2,0.0,0.0,-1.0,0.0,,0.0-48.0,,0.0,178.93,1.0,0.702068785,1.0,0.6528750879999999,0.0,0.287329608,0.0,0.35789613200000003,False,,5ea1637e050d8e0008afdff7,,777297,56,,evan-feature22,full_pf_b,,0
22,33462,57,,,,1,1,0.0,1.0,-1.0,0.0,,0.0-49.0,,0.0,274.11,0.0,0.651939787,1.0,0.636725589,1.0,0.284834488,1.0,0.358563756,False,,5ea1637e050d8e0008afdff7,,787330,57,,evan-feature22,full_pf_b,,1
23,33463,58,,,,1,1,1.0,0.0,0.0,1.0,,0.0-50.0,,0.0,157.555,1.0,0.67573929,0.0,0.612550049,0.0,0.37130387600000003,0.0,0.383542402,False,,5ea1637e050d8e0008afdff7,,797246,58,,evan-feature22,full_pf_b,,0
24,33464,59,,,,1,1,1.0,1.0,0.0,1.0,,0.0-51.0,,1.0,545.27,1.0,0.620753801,1.0,0.60513644,1.0,0.385529434,0.0,0.340361743,False,,5ea1637e050d8e0008afdff7,,807552,59,,evan-feature22,full_pf_b,,0
25,33465,60,,,,SLOW,SLOW,,,0.0,1.0,,0.0-52.0,,-3.0,,1.0,0.673564893,1.0,0.672437924,0.0,0.292955382,0.0,0.337633795,False,,5ea1637e050d8e0008afdff7,,813356,60,,evan-feature22,full_pf_b,,1
26,33466,61,,,,1,1,1.0,1.0,-1.0,0.0,,0.0-53.0,,-1.0,2954.735,1.0,0.6749427,1.0,0.724197502,0.0,0.32391132100000003,0.0,0.350995264,False,,5ea1637e050d8e0008afdff7,,826069,61,,evan-feature22,full_pf_b,,1
27,33467,62,,,,1,1,0.0,1.0,-1.0,0.0,,0.0-54.0,,0.0,377.63,0.0,0.6940159379999999,1.0,0.75,0.0,0.31710554399999996,0.0,0.413450341,False,,5ea1637e050d8e0008afdff7,,836206,62,,evan-feature22,full_pf_b,,0
28,33468,63,,,,1,1,1.0,1.0,-1.0,0.0,,0.0-55.0,,-1.0,347.11,1.0,0.6916018270000001,1.0,0.69001187,1.0,0.261817804,1.0,0.40038635,False,,5ea1637e050d8e0008afdff7,,846314,63,,evan-feature22,full_pf_b,,0
29,33469,64,,,,2,2,0.0,0.0,-1.0,0.0,,0.0-56.0,,0.0,266.095,1.0,0.641061544,1.0,0.71337992,0.0,0.277296461,0.0,0.47372791700000005,False,,5ea1637e050d8e0008afdff7,,856339,64,,evan-feature22,full_pf_b,,1
30,33470,65,,,,2,2,0.0,1.0,-1.0,0.0,,0.0-57.0,,0.0,323.015,1.0,0.6082438520000001,1.0,0.708471106,0.0,0.28745137,1.0,0.564174476,False,,5ea1637e050d8e0008afdff7,,866423,65,,evan-feature22,full_pf_b,,0
31,33471,66,,,,2,2,0.0,1.0,-1.0,0.0,,0.0-58.0,,0.0,713.82,1.0,0.6051112120000001,1.0,0.7118147229999999,0.0,0.272390611,1.0,0.5595149939999999,False,,5ea1637e050d8e0008afdff7,,876897,66,,evan-feature22,full_pf_b,,0
32,33472,67,,,,2,2,1.0,0.0,-1.0,0.0,,0.0-59.0,,-1.0,385.705,0.0,0.582420852,1.0,0.635867583,1.0,0.31089574,0.0,0.5227206520000001,False,,5ea1637e050d8e0008afdff7,,887043,67,,evan-feature22,full_pf_b,,0
33,33473,68,,,,2,2,0.0,1.0,0.0,1.0,,0.0-60.0,,1.0,645.8,0.0,0.623195575,1.0,0.655026044,0.0,0.25,1.0,0.560387538,False,,5ea1637e050d8e0008afdff7,,897446,68,,evan-feature22,full_pf_b,,0
34,33474,69,,,,SLOW,SLOW,,,-1.0,0.0,,0.0-61.0,,-3.0,,1.0,0.601889598,1.0,0.678198724,0.0,0.25,1.0,0.559922936,False,,5ea1637e050d8e0008afdff7,,903250,69,,evan-feature22,full_pf_b,,1
35,33475,70,,,,1,1,1.0,1.0,-1.0,0.0,,0.0-62.0,,-1.0,411.12,1.0,0.601259914,1.0,0.704681482,0.0,0.33908969299999997,1.0,0.505003715,False,,5ea1637e050d8e0008afdff7,,913422,70,,evan-feature22,full_pf_b,,1
36,33476,71,,,,1,1,1.0,1.0,-1.0,0.0,,0.0-63.0,,-1.0,327.425,1.0,0.59645454,1.0,0.710437172,0.0,0.327441879,0.0,0.391749613,False,,5ea1637e050d8e0008afdff7,,923509,71,,evan-feature22,full_pf_b,,0
37,33477,72,,,,1,1,0.0,1.0,-1.0,0.0,,0.0-64.0,,0.0,346.725,0.0,0.529473,1.0,0.636758527,0.0,0.301338063,0.0,0.365661481,False,,5ea1637e050d8e0008afdff7,,933615,72,,evan-feature22,full_pf_b,,0
38,33478,73,,,,2,2,0.0,0.0,0.0,1.0,,0.0-65.0,,0.0,309.2,0.0,0.541657162,0.0,0.634541962,0.0,0.343535366,0.0,0.371763742,False,,5ea1637e050d8e0008afdff7,,943684,73,,evan-feature22,full_pf_b,,1
39,33479,74,,,,2,2,1.0,1.0,-1.0,0.0,,0.0-66.0,,-1.0,376.705,0.0,0.5707533260000001,0.0,0.589121171,1.0,0.326428396,1.0,0.43961622899999997,False,,5ea1637e050d8e0008afdff7,,953820,74,,evan-feature22,full_pf_b,,0
40,33480,75,,,,2,2,0.0,0.0,-1.0,0.0,,0.0-67.0,,0.0,275.975,0.0,0.5707533260000001,1.0,0.589121171,0.0,0.326428396,0.0,0.43961622899999997,False,,5ea1637e050d8e0008afdff7,,963855,75,,evan-feature22,full_pf_b,,0
41,33481,76,,,,1,1,0.0,0.0,-1.0,0.0,,0.0-68.0,,0.0,527.345,0.0,0.506271295,0.0,0.641775594,0.0,0.37149690700000004,0.0,0.404330166,False,,5ea1637e050d8e0008afdff7,,974141,76,,evan-feature22,full_pf_b,,1
42,33482,77,,,,1,1,0.0,1.0,0.0,1.0,,0.0-69.0,,1.0,316.77,0.0,0.455642565,1.0,0.623605825,0.0,0.358753011,0.0,0.346174041,False,,5ea1637e050d8e0008afdff7,,984217,77,,evan-feature22,full_pf_b,,0
43,33483,78,,,,1,1,1.0,0.0,0.0,1.0,,0.0-70.0,,0.0,335.355,1.0,0.483677308,0.0,0.5904681070000001,0.0,0.402218411,0.0,0.35344697,False,,5ea1637e050d8e0008afdff7,,994318,78,,evan-feature22,full_pf_b,,0
44,33484,79,,,,1,1,1.0,0.0,0.0,1.0,,0.0-71.0,,0.0,362.64,1.0,0.394210977,0.0,0.558925494,0.0,0.540052017,1.0,0.35182128700000004,False,,5ea1637e050d8e0008afdff7,,1004440,79,,evan-feature22,full_pf_b,,0
45,33485,80,,,,2,2,1.0,0.0,-1.0,0.0,,0.0-72.0,,-1.0,466.915,0.0,0.382300414,1.0,0.577670603,1.0,0.607608448,0.0,0.378261578,False,,5ea1637e050d8e0008afdff7,,1014665,80,,evan-feature22,full_pf_b,,1
46,33486,81,,,,1,1,0.0,0.0,-1.0,0.0,,0.0-73.0,,0.0,332.095,0.0,0.357596762,0.0,0.5929076529999999,1.0,0.6579790010000001,1.0,0.401326777,False,,5ea1637e050d8e0008afdff7,,1024758,81,,evan-feature22,full_pf_b,,1
47,33487,82,,,,1,1,0.0,1.0,-1.0,0.0,,0.0-74.0,,0.0,287.935,0.0,0.362033495,1.0,0.582308608,1.0,0.649195052,0.0,0.355158505,False,,5ea1637e050d8e0008afdff7,,1034806,82,,evan-feature22,full_pf_b,,0
48,33488,83,,,,1,1,0.0,1.0,-1.0,0.0,,0.0-75.0,,0.0,343.485,0.0,0.369620635,1.0,0.669100864,1.0,0.706059111,1.0,0.362516241,False,,5ea1637e050d8e0008afdff7,,1044906,83,,evan-feature22,full_pf_b,,0
49,33489,84,,,,1,1,0.0,1.0,-1.0,0.0,,0.0-76.0,,0.0,309.315,0.0,0.41477751399999996,1.0,0.7284416779999999,1.0,0.7182656940000001,0.0,0.36228040899999997,False,,5ea1637e050d8e0008afdff7,,1054977,84,,evan-feature22,full_pf_b,,0
50,33490,85,,,,1,1,0.0,1.0,0.0,1.0,,0.0-77.0,,1.0,289.28,0.0,0.37675460299999997,1.0,0.703250285,1.0,0.75,1.0,0.461979164,False,,5ea1637e050d8e0008afdff7,,1065025,85,,evan-feature22,full_pf_b,,0
51,33491,86,,,,1,1,0.0,1.0,0.0,1.0,,0.0-78.0,,1.0,647.35,0.0,0.398716075,1.0,0.6723864890000001,0.0,0.674153818,1.0,0.519029516,False,,5ea1637e050d8e0008afdff7,,1075430,86,,evan-feature22,full_pf_b,,0
52,33492,87,,,,1,1,1.0,0.0,-1.0,0.0,,0.0-79.0,,-1.0,272.075,1.0,0.34677856700000004,0.0,0.69057175,1.0,0.6822438540000001,0.0,0.477292237,False,,5ea1637e050d8e0008afdff7,,1085462,87,,evan-feature22,full_pf_b,,0
53,33493,88,,,,2,2,1.0,1.0,0.0,1.0,,0.0-80.0,,1.0,391.305,0.0,0.28580469199999997,1.0,0.68408818,1.0,0.684207565,1.0,0.49780448299999996,False,,5ea1637e050d8e0008afdff7,,1095611,88,,evan-feature22,full_pf_b,,1
54,33495,90,,,,2,2,1.0,0.0,-1.0,0.0,,0.0-82.0,,-1.0,643.515,0.0,0.25,1.0,0.7405808970000001,1.0,0.679614108,0.0,0.436436964,False,,5ea1637e050d8e0008afdff7,,1108945,90,,evan-feature22,full_pf_b,,0
55,33496,91,,,,1,1,0.0,1.0,0.0,1.0,,0.0-83.0,,1.0,549.04,0.0,0.29890393,1.0,0.730505706,1.0,0.7328203320000001,0.0,0.439256938,False,,5ea1637e050d8e0008afdff7,,1119253,91,,evan-feature22,full_pf_b,,1
56,33497,92,,,,2,2,1.0,0.0,-1.0,0.0,,0.0-84.0,,-1.0,330.645,0.0,0.326762398,1.0,0.7148059609999999,1.0,0.75,0.0,0.44389608799999997,False,,5ea1637e050d8e0008afdff7,,1129341,92,,evan-feature22,full_pf_b,,1
57,33498,93,,,,2,2,0.0,0.0,-1.0,0.0,,0.0-85.0,,0.0,282.005,1.0,0.295168515,1.0,0.739760854,0.0,0.719947008,0.0,0.35277284600000003,False,,5ea1637e050d8e0008afdff7,,1139384,93,,evan-feature22,full_pf_b,,0
58,33499,94,,,,1,1,0.0,0.0,-1.0,0.0,,0.0-86.0,,0.0,334.495,0.0,0.25,0.0,0.70781482,0.0,0.75,0.0,0.286095925,False,,5ea1637e050d8e0008afdff7,,1149478,94,,evan-feature22,full_pf_b,,1
59,33500,95,,,,2,2,1.0,0.0,0.0,1.0,,0.0-87.0,,0.0,385.65,0.0,0.25638190899999996,1.0,0.704088163,1.0,0.75,0.0,0.26872601399999996,False,,5ea1637e050d8e0008afdff7,,1159624,95,,evan-feature22,full_pf_b,,1
60,33501,96,,,,2,2,0.0,0.0,0.0,1.0,,0.0-88.0,,0.0,312.075,0.0,0.271581126,0.0,0.669760107,0.0,0.733896663,0.0,0.273244572,False,,5ea1637e050d8e0008afdff7,,1169695,96,,evan-feature22,full_pf_b,,0
61,33502,97,,,,1,1,0.0,0.0,0.0,1.0,,0.0-89.0,,0.0,299.42,0.0,0.257144401,0.0,0.600575706,1.0,0.74488122,0.0,0.25,False,,5ea1637e050d8e0008afdff7,,1179754,97,,evan-feature22,full_pf_b,,1
62,33503,98,,,,1,1,0.0,0.0,-1.0,0.0,,0.0-90.0,,0.0,151.02,0.0,0.25,0.0,0.616870026,1.0,0.723610234,0.0,0.25,False,,5ea1637e050d8e0008afdff7,,1189667,98,,evan-feature22,full_pf_b,,0
63,33504,99,,,,2,2,0.0,1.0,0.0,1.0,,0.0-91.0,,1.0,312.735,0.0,0.25,0.0,0.583540187,0.0,0.7041042559999999,1.0,0.285961995,False,,5ea1637e050d8e0008afdff7,,1199736,99,,evan-feature22,full_pf_b,,1
64,33505,100,,,,2,2,1.0,0.0,-1.0,0.0,,0.0-92.0,,-1.0,348.995,1.0,0.27254536,0.0,0.53875765,1.0,0.693783448,0.0,0.284961652,False,,5ea1637e050d8e0008afdff7,,1209846,100,,evan-feature22,full_pf_b,,0
65,33506,101,,,,1,1,0.0,1.0,0.0,1.0,,0.0-93.0,,1.0,721.26,0.0,0.25,1.0,0.548431252,1.0,0.734221895,0.0,0.279445214,False,,5ea1637e050d8e0008afdff7,,1220327,101,,evan-feature22,full_pf_b,,1
66,33507,102,,,,1,1,0.0,1.0,-1.0,0.0,,0.0-94.0,,0.0,298.565,0.0,0.258640684,1.0,0.545878066,1.0,0.725245965,1.0,0.31487537,False,,5ea1637e050d8e0008afdff7,,1230396,102,,evan-feature22,full_pf_b,,0
67,33508,103,,,,1,1,0.0,0.0,-1.0,0.0,,0.0-95.0,,0.0,291.775,0.0,0.251103711,0.0,0.5776290629999999,0.0,0.696320133,1.0,0.317831047,False,,5ea1637e050d8e0008afdff7,,1240447,103,,evan-feature22,full_pf_b,,0
68,33509,104,,,,2,2,0.0,0.0,-1.0,0.0,,0.0-96.0,,0.0,359.18,0.0,0.276630292,1.0,0.617329858,0.0,0.73838088,0.0,0.261471582,False,,5ea1637e050d8e0008afdff7,,1250567,104,,evan-feature22,full_pf_b,,1
69,33510,105,,,,2,2,1.0,0.0,0.0,1.0,,0.0-97.0,,0.0,308.505,0.0,0.297716424,1.0,0.618863717,1.0,0.7402358259999999,0.0,0.262600834,False,,5ea1637e050d8e0008afdff7,,1260637,105,,evan-feature22,full_pf_b,,0
70,33511,106,,,,1,1,0.0,1.0,-1.0,0.0,,0.0-98.0,,0.0,380.22,0.0,0.290935512,1.0,0.695370945,1.0,0.706570507,0.0,0.280030553,False,,5ea1637e050d8e0008afdff7,,1270779,106,,evan-feature22,full_pf_b,,1
71,33512,107,,,,2,2,1.0,0.0,-1.0,0.0,,0.0-99.0,,-1.0,668.475,0.0,0.25,1.0,0.6465277079999999,1.0,0.67766682,0.0,0.25,False,,5ea1637e050d8e0008afdff7,,1281219,107,,evan-feature22,full_pf_b,,1
72,33513,108,,,,2,2,0.0,0.0,-1.0,0.0,,0.0-100.0,,0.0,405.025,1.0,0.26463816,0.0,0.636100213,0.0,0.646048507,0.0,0.265607101,False,,5ea1637e050d8e0008afdff7,,1291386,108,,evan-feature22,full_pf_b,,0
73,33514,109,,,,1,1,0.0,1.0,-1.0,0.0,,0.0-101.0,,0.0,304.725,0.0,0.314340707,1.0,0.667795927,1.0,0.613630805,1.0,0.25,False,,5ea1637e050d8e0008afdff7,,1301449,109,,evan-feature22,full_pf_b,,1
74,33515,110,,,,1,1,0.0,1.0,-1.0,0.0,,0.0-102.0,,0.0,382.295,0.0,0.28685784,1.0,0.6622549529999999,1.0,0.652154117,0.0,0.25,False,,5ea1637e050d8e0008afdff7,,1311591,110,,evan-feature22,full_pf_b,,0
75,33516,111,,,,1,1,1.0,1.0,0.0,1.0,,0.0-103.0,,1.0,277.88,1.0,0.304106554,1.0,0.631289538,0.0,0.707041942,0.0,0.29314237,False,,5ea1637e050d8e0008afdff7,,1321627,111,,evan-feature22,full_pf_b,,0
76,33517,112,,,,2,2,1.0,1.0,0.0,1.0,,0.0-104.0,,1.0,63.115,0.0,0.304806932,1.0,0.571167718,1.0,0.680472346,1.0,0.25,False,,5ea1637e050d8e0008afdff7,,1331451,112,,evan-feature22,full_pf_b,,1
77,33518,113,,,,2,2,1.0,1.0,0.0,1.0,,0.0-105.0,,1.0,485.235,1.0,0.37919861,0.0,0.5724849710000001,1.0,0.705638003,1.0,0.30179300600000003,False,,5ea1637e050d8e0008afdff7,,1341697,113,,evan-feature22,full_pf_b,,0
78,33519,114,,,,1,1,0.0,0.0,0.0,1.0,,0.0-106.0,,0.0,873.545,0.0,0.464277969,0.0,0.554034373,1.0,0.7372627340000001,1.0,0.264699741,False,,5ea1637e050d8e0008afdff7,,1352330,114,,evan-feature22,full_pf_b,,1
79,33520,115,,,,1,1,1.0,1.0,-1.0,0.0,,0.0-107.0,,-1.0,522.7,1.0,0.465104323,1.0,0.530793115,1.0,0.75,1.0,0.31683071,False,,5ea1637e050d8e0008afdff7,,1362613,115,,evan-feature22,full_pf_b,,0
80,33521,116,,,,2,2,1.0,1.0,0.0,1.0,,0.0-108.0,,1.0,287.19,0.0,0.465104323,1.0,0.530793115,1.0,0.75,1.0,0.31683071,False,,5ea1637e050d8e0008afdff7,,1372660,116,,evan-feature22,full_pf_b,,1
81,33522,117,,,,2,2,1.0,0.0,0.0,1.0,,0.0-109.0,,0.0,457.86,1.0,0.46833986,1.0,0.570249239,1.0,0.7244472590000001,0.0,0.364114163,False,,5ea1637e050d8e0008afdff7,,1382879,117,,evan-feature22,full_pf_b,,0
82,33523,118,,,,2,2,1.0,0.0,0.0,1.0,,0.0-110.0,,0.0,309.07,0.0,0.445444024,1.0,0.649673355,1.0,0.6845441290000001,0.0,0.300660449,False,,5ea1637e050d8e0008afdff7,,1392953,118,,evan-feature22,full_pf_b,,0
83,33524,119,,,,2,2,1.0,0.0,0.0,1.0,,0.0-111.0,,0.0,385.215,0.0,0.39909721299999995,1.0,0.6715179509999999,1.0,0.742310028,0.0,0.35496088299999995,False,,5ea1637e050d8e0008afdff7,,1403099,119,,evan-feature22,full_pf_b,,0
84,33525,120,,,,1,1,0.0,1.0,0.0,1.0,,0.0-112.0,,1.0,183.675,0.0,0.37956104799999996,1.0,0.694725302,1.0,0.7181651309999999,1.0,0.38726906299999997,False,,5ea1637e050d8e0008afdff7,,1413041,120,,evan-feature22,full_pf_b,,1
85,33526,121,,,,1,1,0.0,1.0,0.0,1.0,,0.0-113.0,,1.0,373.525,0.0,0.404995034,1.0,0.724375412,1.0,0.6910946859999999,1.0,0.387187347,False,,5ea1637e050d8e0008afdff7,,1423174,121,,evan-feature22,full_pf_b,,0
86,33527,122,,,,2,2,1.0,1.0,0.0,1.0,,0.0-114.0,,1.0,513.23,0.0,0.461740803,1.0,0.75,1.0,0.75,1.0,0.34872038200000005,False,,5ea1637e050d8e0008afdff7,,1433448,122,,evan-feature22,full_pf_b,,1
87,33528,123,,,,1,1,1.0,1.0,-1.0,0.0,,0.0-115.0,,-1.0,325.99,1.0,0.43821380600000004,1.0,0.738833273,1.0,0.728286963,1.0,0.399538128,False,,5ea1637e050d8e0008afdff7,,1443531,123,,evan-feature22,full_pf_b,,1
88,33529,124,,,,1,1,0.0,0.0,0.0,1.0,,0.0-116.0,,0.0,364.93,0.0,0.41709882,0.0,0.736666736,1.0,0.75,1.0,0.389095584,False,,5ea1637e050d8e0008afdff7,,1453655,124,,evan-feature22,full_pf_b,,0
89,33530,125,,,,1,1,0.0,0.0,0.0,1.0,,0.0-117.0,,0.0,50.95500001,0.0,0.39749009799999996,0.0,0.744320029,0.0,0.75,0.0,0.363848678,False,,5ea1637e050d8e0008afdff7,,1463465,125,,evan-feature22,full_pf_b,,0
90,33531,126,,,,2,2,1.0,1.0,-1.0,0.0,,0.0-118.0,,-1.0,310.2,0.0,0.392653706,0.0,0.75,1.0,0.75,1.0,0.384386976,False,,5ea1637e050d8e0008afdff7,,1473536,126,,evan-feature22,full_pf_b,,1
91,33532,127,,,,2,2,1.0,1.0,-1.0,0.0,,0.0-119.0,,-1.0,402.885,1.0,0.31190902600000003,0.0,0.75,1.0,0.732413819,1.0,0.413082932,False,,5ea1637e050d8e0008afdff7,,1483726,127,,evan-feature22,full_pf_b,,0
92,33533,128,,,,2,2,0.0,1.0,0.0,1.0,,0.0-120.0,,1.0,440.035,0.0,0.366917648,1.0,0.740073855,0.0,0.75,1.0,0.352861979,False,,5ea1637e050d8e0008afdff7,,1493925,128,,evan-feature22,full_pf_b,,0
93,33534,129,,,,2,2,1.0,0.0,0.0,1.0,,0.0-121.0,,0.0,314.74,1.0,0.3645172,1.0,0.721770713,1.0,0.75,0.0,0.404074511,False,,5ea1637e050d8e0008afdff7,,1503998,129,,evan-feature22,full_pf_b,,0
94,33535,130,,,,1,1,0.0,0.0,0.0,1.0,,0.0-122.0,,0.0,312.6,0.0,0.35205600299999995,0.0,0.68983859,1.0,0.739735447,0.0,0.366895945,False,,5ea1637e050d8e0008afdff7,,1514073,130,,evan-feature22,full_pf_b,,1
95,33536,131,,,,1,1,1.0,1.0,0.0,1.0,,0.0-123.0,,1.0,695.845,1.0,0.40998722600000004,1.0,0.720859127,1.0,0.673854955,1.0,0.368528541,False,,5ea1637e050d8e0008afdff7,,1524529,131,,evan-feature22,full_pf_b,,0
96,33537,132,,,,1,1,1.0,0.0,-1.0,0.0,,0.0-124.0,,-1.0,435.12,1.0,0.353625316,0.0,0.75,1.0,0.695605473,0.0,0.38303674200000004,False,,5ea1637e050d8e0008afdff7,,1534723,132,,evan-feature22,full_pf_b,,0
97,33538,133,,,,2,2,1.0,1.0,0.0,1.0,,0.0-125.0,,1.0,683.265,0.0,0.359216989,0.0,0.75,1.0,0.6987915090000001,1.0,0.35169046200000004,False,,5ea1637e050d8e0008afdff7,,1545166,133,,evan-feature22,full_pf_b,,1
98,33539,134,,,,2,2,1.0,0.0,-1.0,0.0,,0.0-126.0,,-1.0,406.4,0.0,0.35834496899999996,1.0,0.75,1.0,0.707067742,0.0,0.416763636,False,,5ea1637e050d8e0008afdff7,,1555349,134,,evan-feature22,full_pf_b,,0
99,33540,135,,,,2,2,1.0,1.0,-1.0,0.0,,0.0-127.0,,-1.0,736.055,0.0,0.38741613799999997,1.0,0.7177369570000001,1.0,0.734902455,1.0,0.49438664299999996,False,,5ea1637e050d8e0008afdff7,,1565847,135,,evan-feature22,full_pf_b,,0
100,33541,136,,,,2,2,1.0,0.0,0.0,1.0,,0.0-128.0,,0.0,352.345,1.0,0.405255252,1.0,0.7300466640000001,1.0,0.7027748070000001,0.0,0.504359668,False,,5ea1637e050d8e0008afdff7,,1575967,136,,evan-feature22,full_pf_b,,0
101,33542,137,,,,1,1,0.0,1.0,0.0,1.0,,0.0-129.0,,1.0,613.875,0.0,0.40697073,1.0,0.7260142190000001,1.0,0.724461982,1.0,0.522779179,False,,5ea1637e050d8e0008afdff7,,1586340,137,,evan-feature22,full_pf_b,,1
102,33543,138,,,,1,1,1.0,1.0,0.0,1.0,,0.0-130.0,,1.0,692.98,1.0,0.43906215299999996,1.0,0.7252802340000001,1.0,0.719079934,1.0,0.5712990579999999,False,,5ea1637e050d8e0008afdff7,,1596791,138,,evan-feature22,full_pf_b,,0
103,33544,139,,,,1,1,1.0,1.0,0.0,1.0,,0.0-131.0,,1.0,329.635,1.0,0.4076705,1.0,0.73280499,0.0,0.681313127,1.0,0.523891346,False,,5ea1637e050d8e0008afdff7,,1606882,139,,evan-feature22,full_pf_b,,0
104,33545,140,,,,1,1,0.0,1.0,0.0,1.0,,0.0-132.0,,1.0,724.905,0.0,0.399102911,1.0,0.730498344,1.0,0.661080239,0.0,0.46742603,False,,5ea1637e050d8e0008afdff7,,1617364,140,,evan-feature22,full_pf_b,,0
105,33546,141,,,,1,1,1.0,1.0,-1.0,0.0,,0.0-133.0,,-1.0,319.26,1.0,0.356477282,1.0,0.712296395,1.0,0.641812684,1.0,0.44868414,False,,5ea1637e050d8e0008afdff7,,1627444,141,,evan-feature22,full_pf_b,,0
106,33547,142,,,,2,2,1.0,1.0,0.0,1.0,,0.0-134.0,,1.0,326.94,1.0,0.462760722,0.0,0.692349322,1.0,0.700947931,1.0,0.394680266,False,,5ea1637e050d8e0008afdff7,,1637529,142,,evan-feature22,full_pf_b,,1
107,33548,143,,,,2,2,1.0,0.0,0.0,1.0,,0.0-135.0,,0.0,459.545,1.0,0.422306413,1.0,0.718375916,1.0,0.706340917,0.0,0.367787185,False,,5ea1637e050d8e0008afdff7,,1647747,143,,evan-feature22,full_pf_b,,0
108,33550,145,,,,2,2,1.0,1.0,0.0,1.0,,0.0-137.0,,1.0,957.655,1.0,0.4582233,1.0,0.643834117,1.0,0.75,1.0,0.39615823299999997,False,,5ea1637e050d8e0008afdff7,,1661889,145,,evan-feature22,full_pf_b,,0
109,33551,146,,,,2,2,1.0,0.0,0.0,1.0,,0.0-138.0,,0.0,351.985,0.0,0.43813437899999996,0.0,0.651283804,1.0,0.729674191,0.0,0.37711048,False,,5ea1637e050d8e0008afdff7,,1672001,146,,evan-feature22,full_pf_b,,0
110,33552,147,,,,2,2,1.0,1.0,0.0,1.0,,0.0-139.0,,1.0,457.19,1.0,0.471199094,1.0,0.6470010979999999,1.0,0.715008097,1.0,0.410656191,False,,5ea1637e050d8e0008afdff7,,1682216,147,,evan-feature22,full_pf_b,,0
111,33553,148,,,,2,2,1.0,0.0,-1.0,0.0,,0.0-140.0,,-1.0,373.45,1.0,0.42486406,1.0,0.629771829,1.0,0.6550939960000001,0.0,0.459093873,False,,5ea1637e050d8e0008afdff7,,1692358,148,,evan-feature22,full_pf_b,,0
112,33554,149,,,,2,2,1.0,0.0,-1.0,0.0,,0.0-141.0,,-1.0,226.425,0.0,0.4803197,0.0,0.645842715,1.0,0.6421749920000001,0.0,0.443092151,False,,5ea1637e050d8e0008afdff7,,1702343,149,,evan-feature22,full_pf_b,,0
113,33555,150,,,,2,2,1.0,1.0,-1.0,0.0,,0.0-142.0,,-1.0,248.28,0.0,0.521848997,1.0,0.735801074,1.0,0.6691348460000001,1.0,0.45259351600000003,False,,5ea1637e050d8e0008afdff7,,1712350,150,,evan-feature22,full_pf_b,,0
114,33556,151,,,,2,2,1.0,1.0,0.0,1.0,,0.0-143.0,,1.0,292.065,0.0,0.49565621299999996,1.0,0.742400847,1.0,0.661512553,1.0,0.483110831,False,,5ea1637e050d8e0008afdff7,,1722402,151,,evan-feature22,full_pf_b,,0
115,33557,152,,,,2,2,0.0,1.0,-1.0,0.0,,0.0-144.0,,0.0,531.735,0.0,0.521564361,1.0,0.731078632,0.0,0.6774886809999999,1.0,0.483263956,False,,5ea1637e050d8e0008afdff7,,1732694,152,,evan-feature22,full_pf_b,,0
116,33558,153,,,,2,2,1.0,0.0,-1.0,0.0,,0.0-145.0,,-1.0,295.715,1.0,0.558893102,0.0,0.719810023,1.0,0.67461031,0.0,0.499349834,False,,5ea1637e050d8e0008afdff7,,1742750,153,,evan-feature22,full_pf_b,,0
117,33559,154,,,,1,1,0.0,1.0,0.0,1.0,,0.0-146.0,,1.0,386.64,0.0,0.611031046,1.0,0.75,1.0,0.688072995,1.0,0.5321422729999999,False,,5ea1637e050d8e0008afdff7,,1752907,154,,evan-feature22,full_pf_b,,1
118,33560,155,,,,1,1,1.0,1.0,-1.0,0.0,,0.0-147.0,,-1.0,272.24,1.0,0.633223941,1.0,0.713567728,1.0,0.75,1.0,0.48185314700000004,False,,5ea1637e050d8e0008afdff7,,1762942,155,,evan-feature22,full_pf_b,,0
119,33561,156,,,,1,1,0.0,0.0,-1.0,0.0,,0.0-148.0,,0.0,740.965,0.0,0.664001694,0.0,0.705509768,1.0,0.75,0.0,0.500211065,False,,5ea1637e050d8e0008afdff7,,1773440,156,,evan-feature22,full_pf_b,,0
120,33562,157,,,,1,1,1.0,1.0,0.0,1.0,,0.0-149.0,,1.0,559.23,1.0,0.664001694,1.0,0.705509768,1.0,0.75,0.0,0.500211065,False,,5ea1637e050d8e0008afdff7,,1783757,157,,evan-feature22,full_pf_b,,0
121,33563,158,,,,1,1,1.0,1.0,0.0,1.0,,0.0-150.0,,1.0,464.535,1.0,0.696508041,1.0,0.71066027,1.0,0.717028709,1.0,0.49792991,False,,5ea1637e050d8e0008afdff7,,1793982,158,,evan-feature22,full_pf_b,,0
122,33564,159,,,,1,1,1.0,1.0,-1.0,0.0,,0.0-151.0,,-1.0,356.075,1.0,0.699883272,1.0,0.75,1.0,0.713543895,0.0,0.496962643,False,,5ea1637e050d8e0008afdff7,,1804096,159,,evan-feature22,full_pf_b,,0
123,33565,160,,,,1,1,1.0,1.0,0.0,1.0,,0.0-152.0,,1.0,296.165,1.0,0.741163419,1.0,0.75,0.0,0.64691024,1.0,0.513858197,False,,5ea1637e050d8e0008afdff7,,1814149,160,,evan-feature22,full_pf_b,,0
124,33566,161,,,,1,1,1.0,0.0,-1.0,0.0,,0.0-153.0,,-1.0,355.915,1.0,0.75,0.0,0.70816558,0.0,0.594499079,1.0,0.48502124,False,,5ea1637e050d8e0008afdff7,,1824265,161,,evan-feature22,full_pf_b,,0
125,33567,162,,,,2,2,0.0,0.0,0.0,1.0,,0.0-154.0,,0.0,2463.79,1.0,0.75,0.0,0.721848901,0.0,0.62197249,0.0,0.48263586399999997,False,,5ea1637e050d8e0008afdff7,,1836488,162,,evan-feature22,full_pf_b,,1
126,33568,163,,,,2,2,0.0,1.0,-1.0,0.0,,0.0-155.0,,0.0,436.875,1.0,0.75,1.0,0.74813071,0.0,0.584357161,1.0,0.411477782,False,,5ea1637e050d8e0008afdff7,,1846684,163,,evan-feature22,full_pf_b,,0
127,33569,164,,,,2,2,0.0,1.0,0.0,1.0,,0.0-156.0,,1.0,330.75,1.0,0.75,1.0,0.75,0.0,0.52287236,1.0,0.488290656,False,,5ea1637e050d8e0008afdff7,,1856780,164,,evan-feature22,full_pf_b,,0
128,33570,165,,,,2,2,1.0,1.0,0.0,1.0,,0.0-157.0,,1.0,387.71,0.0,0.75,1.0,0.75,1.0,0.544321581,1.0,0.53143059,False,,5ea1637e050d8e0008afdff7,,1866927,165,,evan-feature22,full_pf_b,,0
129,33571,166,,,,1,1,0.0,0.0,0.0,1.0,,0.0-158.0,,0.0,294.275,0.0,0.726754564,0.0,0.75,1.0,0.5129306370000001,0.0,0.530592445,False,,5ea1637e050d8e0008afdff7,,1876981,166,,evan-feature22,full_pf_b,,1
130,33572,167,,,,1,1,1.0,1.0,-1.0,0.0,,0.0-159.0,,-1.0,456.83,1.0,0.75,1.0,0.7392590729999999,1.0,0.479875835,1.0,0.547007051,False,,5ea1637e050d8e0008afdff7,,1887197,167,,evan-feature22,full_pf_b,,0
131,33573,168,,,,1,1,1.0,0.0,-1.0,0.0,,0.0-160.0,,-1.0,373.03,1.0,0.75,0.0,0.7393376979999999,1.0,0.546045419,0.0,0.541267353,False,,5ea1637e050d8e0008afdff7,,1897329,168,,evan-feature22,full_pf_b,,0
132,33574,169,,,,2,2,0.0,1.0,-1.0,0.0,,0.0-161.0,,0.0,364.7,0.0,0.75,0.0,0.75,0.0,0.485725895,1.0,0.527625395,False,,5ea1637e050d8e0008afdff7,,1907454,169,,evan-feature22,full_pf_b,,1
133,33575,170,,,,2,2,1.0,1.0,0.0,1.0,,0.0-162.0,,1.0,341.865,0.0,0.75,1.0,0.725087974,1.0,0.488603595,1.0,0.504019206,False,,5ea1637e050d8e0008afdff7,,1917556,170,,evan-feature22,full_pf_b,,0
134,33576,171,,,,2,2,0.0,0.0,0.0,1.0,,0.0-163.0,,0.0,505.65,1.0,0.745504295,1.0,0.75,0.0,0.452379914,0.0,0.50131194,False,,5ea1637e050d8e0008afdff7,,1927823,171,,evan-feature22,full_pf_b,,0
135,33577,172,,,,2,2,1.0,0.0,0.0,1.0,,0.0-164.0,,0.0,509.14,1.0,0.728513874,0.0,0.75,1.0,0.44125567200000004,0.0,0.531454591,False,,5ea1637e050d8e0008afdff7,,1938089,172,,evan-feature22,full_pf_b,,0
136,33578,173,,,,2,2,0.0,0.0,-1.0,0.0,,0.0-165.0,,0.0,378.73,1.0,0.73790804,1.0,0.75,0.0,0.413036656,0.0,0.524619035,False,,5ea1637e050d8e0008afdff7,,1948227,173,,evan-feature22,full_pf_b,,0
137,33579,174,,,,2,2,0.0,0.0,0.0,1.0,,0.0-166.0,,0.0,379.815,1.0,0.7080961309999999,1.0,0.708666865,0.0,0.431915581,0.0,0.481819489,False,,5ea1637e050d8e0008afdff7,,1958364,174,,evan-feature22,full_pf_b,,0
138,33580,175,,,,1,1,0.0,1.0,0.0,1.0,,0.0-167.0,,1.0,579.555,0.0,0.721378003,1.0,0.71605913,0.0,0.36642387,1.0,0.5036739929999999,False,,5ea1637e050d8e0008afdff7,,1968700,175,,evan-feature22,full_pf_b,,1
139,33581,176,,,,1,1,1.0,0.0,0.0,1.0,,0.0-168.0,,0.0,363.095,1.0,0.7340618959999999,0.0,0.699323252,1.0,0.35298046299999997,0.0,0.511241692,False,,5ea1637e050d8e0008afdff7,,1978821,176,,evan-feature22,full_pf_b,,0
140,33582,177,,,,2,2,0.0,0.0,-1.0,0.0,,0.0-169.0,,0.0,332.81,1.0,0.75,1.0,0.70412698,0.0,0.380734814,0.0,0.529580116,False,,5ea1637e050d8e0008afdff7,,1988913,177,,evan-feature22,full_pf_b,,1
141,33583,178,,,,2,2,0.0,1.0,0.0,1.0,,0.0-170.0,,1.0,405.7,1.0,0.7436654909999999,1.0,0.711182751,0.0,0.41125331,1.0,0.49554405,False,,5ea1637e050d8e0008afdff7,,1999080,178,,evan-feature22,full_pf_b,,0
142,33584,179,,,,1,1,0.0,0.0,0.0,1.0,,0.0-171.0,,0.0,470.355,0.0,0.731607915,0.0,0.651774583,1.0,0.35688023,0.0,0.45194491600000003,False,,5ea1637e050d8e0008afdff7,,2009309,179,,evan-feature22,full_pf_b,,1
143,33585,180,,,,2,2,1.0,1.0,-1.0,0.0,,0.0-172.0,,-1.0,264.535,0.0,0.75,1.0,0.75,1.0,0.283145374,1.0,0.528608005,False,,5ea1637e050d8e0008afdff7,,2019331,180,,evan-feature22,full_pf_b,,1
144,33586,181,,,,2,2,0.0,0.0,-1.0,0.0,,0.0-173.0,,0.0,290.615,1.0,0.7491416890000001,0.0,0.7423785959999999,0.0,0.29135870399999997,0.0,0.498888318,False,,5ea1637e050d8e0008afdff7,,2029382,181,,evan-feature22,full_pf_b,,0
145,33587,182,,,,2,2,0.0,0.0,-1.0,0.0,,0.0-174.0,,0.0,322.71,1.0,0.708569387,1.0,0.717682277,0.0,0.294421699,0.0,0.493838163,False,,5ea1637e050d8e0008afdff7,,2039464,182,,evan-feature22,full_pf_b,,0
146,33588,183,,,,1,1,1.0,1.0,0.0,1.0,,0.0-175.0,,1.0,295.75,1.0,0.75,1.0,0.7383382159999999,0.0,0.356098707,1.0,0.442533405,False,,5ea1637e050d8e0008afdff7,,2049518,183,,evan-feature22,full_pf_b,,1
147,33589,184,,,,1,1,1.0,0.0,0.0,1.0,,0.0-176.0,,0.0,545.28,1.0,0.744527075,0.0,0.75,1.0,0.334127506,1.0,0.393165805,False,,5ea1637e050d8e0008afdff7,,2059823,184,,evan-feature22,full_pf_b,,0
148,33590,185,,,,1,1,0.0,1.0,0.0,1.0,,0.0-177.0,,1.0,323.315,0.0,0.75,1.0,0.75,1.0,0.33571021799999995,0.0,0.350393962,False,,5ea1637e050d8e0008afdff7,,2069908,185,,evan-feature22,full_pf_b,,0
149,33591,186,,,,2,2,0.0,0.0,0.0,1.0,,0.0-178.0,,0.0,349.115,1.0,0.75,1.0,0.75,0.0,0.313628297,0.0,0.36349657399999996,False,,5ea1637e050d8e0008afdff7,,2080019,186,,evan-feature22,full_pf_b,,1
150,33592,187,,,,1,1,1.0,1.0,-1.0,0.0,,0.0-179.0,,-1.0,322.485,1.0,0.75,1.0,0.734284182,0.0,0.262667667,0.0,0.380199119,False,,5ea1637e050d8e0008afdff7,,2090106,187,,evan-feature22,full_pf_b,,1
151,33593,188,,,,1,1,1.0,1.0,0.0,1.0,,0.0-180.0,,1.0,315.83,1.0,0.75,1.0,0.75,1.0,0.25,0.0,0.394494013,False,,5ea1637e050d8e0008afdff7,,2100183,188,,evan-feature22,full_pf_b,,0
152,33594,189,,,,1,1,1.0,0.0,-1.0,0.0,,0.0-181.0,,-1.0,321.03,1.0,0.722298145,0.0,0.7357822340000001,0.0,0.25,0.0,0.319142121,False,,5ea1637e050d8e0008afdff7,,2110264,189,,evan-feature22,full_pf_b,,0
153,33595,190,,,,1,1,1.0,0.0,-1.0,0.0,,0.0-182.0,,-1.0,657.05,1.0,0.73149275,0.0,0.724276446,0.0,0.305856907,0.0,0.281315057,False,,5ea1637e050d8e0008afdff7,,2120681,190,,evan-feature22,full_pf_b,,0
154,33596,191,,,,2,2,0.0,0.0,0.0,1.0,,0.0-183.0,,0.0,305.835,1.0,0.7458732690000001,0.0,0.7336382459999999,0.0,0.272571964,0.0,0.266021999,False,,5ea1637e050d8e0008afdff7,,2130743,191,,evan-feature22,full_pf_b,,1
155,33597,192,,,,2,2,1.0,0.0,0.0,1.0,,0.0-184.0,,0.0,288.46,1.0,0.705579037,1.0,0.720778292,1.0,0.320238144,0.0,0.30971744,False,,5ea1637e050d8e0008afdff7,,2140792,192,,evan-feature22,full_pf_b,,0
156,33598,193,,,,2,2,0.0,1.0,0.0,1.0,,0.0-185.0,,1.0,326.59,1.0,0.700425648,1.0,0.7198784009999999,0.0,0.272590393,1.0,0.304182931,False,,5ea1637e050d8e0008afdff7,,2150876,193,,evan-feature22,full_pf_b,,0
157,33599,194,,,,2,2,1.0,0.0,0.0,1.0,,0.0-186.0,,0.0,299.065,1.0,0.735590785,1.0,0.722714973,1.0,0.25,0.0,0.323421091,False,,5ea1637e050d8e0008afdff7,,2160934,194,,evan-feature22,full_pf_b,,0
158,33600,195,,,,2,2,0.0,0.0,0.0,1.0,,0.0-187.0,,0.0,315.57,0.0,0.724807662,1.0,0.63146213,0.0,0.36836492600000004,0.0,0.34592153299999995,False,,5ea1637e050d8e0008afdff7,,2171008,195,,evan-feature22,full_pf_b,,0
159,33601,196,,,,1,1,0.0,0.0,0.0,1.0,,0.0-188.0,,0.0,289.25,0.0,0.7352796909999999,0.0,0.555111392,1.0,0.36003922,0.0,0.31433779999999995,False,,5ea1637e050d8e0008afdff7,,2181067,196,,evan-feature22,full_pf_b,,1
160,33602,197,notice,,,,,,,,,,0.0-189.0,"{""Q0"":""no""}",,17621.0,,,,,,,,,False,,5ea1637e050d8e0008afdff7,,2198690,197,Q,survey-text,full_pf_b,,1
161,33603,198,track1,,[1],,,,,,,,0.0-190.0,"{""Q0"":""no""}",,5280.0,,,,,,,,,False,,5ea1637e050d8e0008afdff7,,2203973,198,Q,evan-quiz,full_pf_b,,1
162,33604,199,track2,,[0],,,,,,,,0.0-191.0,"{""Q0"":""yes""}",,7345.0,,,,,,,,,False,,5ea1637e050d8e0008afdff7,,2211322,199,Q,evan-quiz,full_pf_b,,1
163,33605,200,strat,,,,,,,,,,0.0-192.0,"{""Q0"":""I just simply tried a sort of 123...""}",,18095.0,,,,,,,,,False,,5ea1637e050d8e0008afdff7,,2229422,200,Q,survey-text,full_pf_b,,1
