,index,Unnamed: 0,Q_name,button_pressed,choice_idxs,chosen_pos,chosen_state,chosen_state_f_1_outcome,chosen_state_f_2_outcome,f_1_reward,f_2_reward,incor_questions,internal_node_id,responses,reward_received,rt,s_1_f_1_outcome,s_1_f_1_prob,s_1_f_2_outcome,s_1_f_2_prob,s_2_f_1_outcome,s_2_f_1_prob,s_2_f_2_outcome,s_2_f_2_prob,safe_first,stimulus,subjectID,success,time_elapsed,trial_index,trial_num,trial_type,version,view_history,switching
0,40914,25,,,,1,1,0.0,1.0,0.0,1.0,,0.0-27.0,,1.0,1178.325,0.0,0.6,1.0,0.6,1.0,0.4,0.0,0.4,True,,5ea1ac832ac60d0762c238a7,,579631,25,,evan-feature22,full_rf_b,,0
1,40915,26,,,,1,1,1.0,1.0,0.0,1.0,,0.0-28.0,,1.0,2487.995,1.0,0.608053294,1.0,0.63424552,0.0,0.397152172,0.0,0.347069101,True,,5ea1ac832ac60d0762c238a7,,591914,26,,evan-feature22,full_rf_b,,0
2,40916,27,,,,1,1,1.0,1.0,0.0,1.0,,0.0-29.0,,1.0,1361.71,1.0,0.642237155,1.0,0.648566321,0.0,0.389407674,0.0,0.285525717,True,,5ea1ac832ac60d0762c238a7,,603091,27,,evan-feature22,full_rf_b,,0
3,40917,28,,,,1,1,1.0,1.0,0.0,1.0,,0.0-30.0,,1.0,1064.81,1.0,0.661086576,1.0,0.630492543,1.0,0.399058924,0.0,0.25,True,,5ea1ac832ac60d0762c238a7,,613964,28,,evan-feature22,full_rf_b,,0
4,40918,29,,,,1,1,1.0,1.0,0.0,1.0,,0.0-31.0,,1.0,814.395,1.0,0.631324137,1.0,0.6269842929999999,1.0,0.38734784299999997,0.0,0.25,True,,5ea1ac832ac60d0762c238a7,,624590,29,,evan-feature22,full_rf_b,,0
5,40919,30,,,,1,1,0.0,1.0,0.0,1.0,,0.0-32.0,,1.0,1275.81,0.0,0.6381991370000001,1.0,0.68987999,1.0,0.384107265,0.0,0.271332943,True,,5ea1ac832ac60d0762c238a7,,635706,30,,evan-feature22,full_rf_b,,0
6,40920,31,,,,1,1,0.0,1.0,0.0,1.0,,0.0-33.0,,1.0,759.1949999,0.0,0.66034901,1.0,0.742641349,1.0,0.360225629,0.0,0.25,True,,5ea1ac832ac60d0762c238a7,,646267,31,,evan-feature22,full_rf_b,,0
7,40921,32,,,,1,1,0.0,1.0,-1.0,0.0,,0.0-34.0,,0.0,1878.725,0.0,0.638612418,1.0,0.75,1.0,0.367273939,0.0,0.25,True,,5ea1ac832ac60d0762c238a7,,657967,32,,evan-feature22,full_rf_b,,0
8,40922,33,,,,1,1,1.0,1.0,0.0,1.0,,0.0-35.0,,1.0,494.44,1.0,0.624340629,1.0,0.75,0.0,0.425829545,0.0,0.25,True,,5ea1ac832ac60d0762c238a7,,668273,33,,evan-feature22,full_rf_b,,0
9,40923,34,,,,1,1,0.0,1.0,0.0,1.0,,0.0-36.0,,1.0,284.44999989999997,0.0,0.621999804,1.0,0.75,0.0,0.368609357,1.0,0.25,True,,5ea1ac832ac60d0762c238a7,,678374,34,,evan-feature22,full_rf_b,,0
10,40924,35,,,,1,1,1.0,0.0,-1.0,0.0,,0.0-37.0,,-1.0,489.67500010000003,1.0,0.62666403,0.0,0.75,0.0,0.311151498,0.0,0.25,True,,5ea1ac832ac60d0762c238a7,,688687,35,,evan-feature22,full_rf_b,,0
11,40925,36,,,,2,2,1.0,1.0,-1.0,0.0,,0.0-38.0,,-1.0,1975.57,1.0,0.6819650009999999,1.0,0.75,1.0,0.310763048,1.0,0.25,True,,5ea1ac832ac60d0762c238a7,,700482,36,,evan-feature22,full_rf_b,,1
12,40926,37,,,,2,2,1.0,0.0,0.0,1.0,,0.0-39.0,,0.0,506.48,0.0,0.740626951,1.0,0.75,1.0,0.25,0.0,0.25,True,,5ea1ac832ac60d0762c238a7,,710807,37,,evan-feature22,full_rf_b,,0
13,40927,38,,,,1,1,1.0,1.0,0.0,1.0,,0.0-40.0,,1.0,458.905,1.0,0.739599242,1.0,0.742034978,0.0,0.25397114600000004,0.0,0.25,True,,5ea1ac832ac60d0762c238a7,,721072,38,,evan-feature22,full_rf_b,,1
14,40928,39,,,,1,1,0.0,1.0,0.0,1.0,,0.0-41.0,,1.0,668.755,0.0,0.732341315,1.0,0.72735643,0.0,0.25,0.0,0.25,True,,5ea1ac832ac60d0762c238a7,,731551,39,,evan-feature22,full_rf_b,,0
15,40929,40,,,,1,1,1.0,0.0,0.0,1.0,,0.0-42.0,,0.0,608.79,1.0,0.7062287770000001,0.0,0.75,1.0,0.29002151,0.0,0.288256649,True,,5ea1ac832ac60d0762c238a7,,741965,40,,evan-feature22,full_rf_b,,0
16,40930,41,,,,1,1,1.0,1.0,-1.0,0.0,,0.0-43.0,,-1.0,900.5800001,1.0,0.7086029209999999,1.0,0.75,0.0,0.274129113,0.0,0.262851608,True,,5ea1ac832ac60d0762c238a7,,752687,41,,evan-feature22,full_rf_b,,0
17,40931,42,,,,1,1,1.0,1.0,0.0,1.0,,0.0-44.0,,1.0,670.7049999,1.0,0.669189651,1.0,0.727614338,0.0,0.298444036,0.0,0.296944518,True,,5ea1ac832ac60d0762c238a7,,763156,42,,evan-feature22,full_rf_b,,0
18,40932,43,,,,1,1,1.0,1.0,-1.0,0.0,,0.0-45.0,,-1.0,811.3199999,1.0,0.6819912929999999,1.0,0.7179434290000001,1.0,0.265003961,0.0,0.28157921199999997,True,,5ea1ac832ac60d0762c238a7,,773808,43,,evan-feature22,full_rf_b,,0
19,40933,44,,,,1,1,1.0,1.0,-1.0,0.0,,0.0-46.0,,-1.0,586.84,1.0,0.665275002,1.0,0.723065271,1.0,0.260414971,1.0,0.30973870000000003,True,,5ea1ac832ac60d0762c238a7,,784196,44,,evan-feature22,full_rf_b,,0
20,40934,45,,,,1,1,1.0,1.0,0.0,1.0,,0.0-47.0,,1.0,497.25499979999995,1.0,0.6660593260000001,1.0,0.728032907,0.0,0.30922817,0.0,0.338778608,True,,5ea1ac832ac60d0762c238a7,,794496,45,,evan-feature22,full_rf_b,,0
21,40935,46,,,,1,1,1.0,1.0,0.0,1.0,,0.0-48.0,,1.0,754.275,1.0,0.702068785,1.0,0.6528750879999999,0.0,0.287329608,1.0,0.35789613200000003,True,,5ea1ac832ac60d0762c238a7,,805074,46,,evan-feature22,full_rf_b,,0
22,40936,47,,,,1,1,1.0,0.0,0.0,1.0,,0.0-49.0,,0.0,340.8799998,1.0,0.651939787,0.0,0.636725589,1.0,0.284834488,1.0,0.358563756,True,,5ea1ac832ac60d0762c238a7,,815239,47,,evan-feature22,full_rf_b,,0
23,40937,48,,,,2,2,0.0,1.0,0.0,1.0,,0.0-50.0,,1.0,1025.955,0.0,0.67573929,1.0,0.612550049,0.0,0.37130387600000003,1.0,0.383542402,True,,5ea1ac832ac60d0762c238a7,,826081,48,,evan-feature22,full_rf_b,,1
24,40938,49,,,,2,2,0.0,0.0,0.0,1.0,,0.0-51.0,,0.0,416.56,1.0,0.620753801,1.0,0.60513644,0.0,0.385529434,0.0,0.340361743,True,,5ea1ac832ac60d0762c238a7,,836338,49,,evan-feature22,full_rf_b,,0
25,40939,50,,,,2,2,0.0,0.0,-1.0,0.0,,0.0-52.0,,0.0,1533.02,1.0,0.673564893,1.0,0.672437924,0.0,0.292955382,0.0,0.337633795,True,,5ea1ac832ac60d0762c238a7,,847661,50,,evan-feature22,full_rf_b,,0
26,40940,51,,,,1,1,1.0,1.0,0.0,1.0,,0.0-53.0,,1.0,529.1000002000001,1.0,0.6749427,1.0,0.724197502,1.0,0.32391132100000003,0.0,0.350995264,True,,5ea1ac832ac60d0762c238a7,,857997,51,,evan-feature22,full_rf_b,,1
27,40941,52,,,,1,1,0.0,1.0,0.0,1.0,,0.0-54.0,,1.0,564.1400001000001,0.0,0.6940159379999999,1.0,0.75,0.0,0.31710554399999996,1.0,0.413450341,True,,5ea1ac832ac60d0762c238a7,,868397,52,,evan-feature22,full_rf_b,,0
28,40942,53,,,,1,1,1.0,1.0,0.0,1.0,,0.0-55.0,,1.0,361.8449999,1.0,0.6916018270000001,1.0,0.69001187,0.0,0.261817804,0.0,0.40038635,True,,5ea1ac832ac60d0762c238a7,,878566,53,,evan-feature22,full_rf_b,,0
29,40943,54,,,,SLOW,SLOW,,,0.0,1.0,,0.0-56.0,,-3.0,,1.0,0.641061544,0.0,0.71337992,0.0,0.277296461,1.0,0.47372791700000005,True,,5ea1ac832ac60d0762c238a7,,884390,54,,evan-feature22,full_rf_b,,1
30,40944,55,,,,1,1,1.0,1.0,0.0,1.0,,0.0-57.0,,1.0,1040.075,1.0,0.6082438520000001,1.0,0.708471106,0.0,0.28745137,0.0,0.564174476,True,,5ea1ac832ac60d0762c238a7,,895262,55,,evan-feature22,full_rf_b,,1
31,40945,56,,,,1,1,0.0,1.0,-1.0,0.0,,0.0-58.0,,0.0,529.7299998,0.0,0.6051112120000001,1.0,0.7118147229999999,1.0,0.272390611,0.0,0.5595149939999999,True,,5ea1ac832ac60d0762c238a7,,905601,56,,evan-feature22,full_rf_b,,0
32,40946,57,,,,1,1,0.0,1.0,-1.0,0.0,,0.0-59.0,,0.0,995.6850002,0.0,0.582420852,1.0,0.635867583,0.0,0.31089574,1.0,0.5227206520000001,True,,5ea1ac832ac60d0762c238a7,,916413,57,,evan-feature22,full_rf_b,,0
33,40947,58,,,,1,1,0.0,1.0,-1.0,0.0,,0.0-60.0,,0.0,744.7800001,0.0,0.623195575,1.0,0.655026044,0.0,0.25,1.0,0.560387538,True,,5ea1ac832ac60d0762c238a7,,926960,58,,evan-feature22,full_rf_b,,0
34,40948,59,,,,1,1,0.0,1.0,0.0,1.0,,0.0-61.0,,1.0,593.7649999,0.0,0.601889598,1.0,0.678198724,0.0,0.25,1.0,0.559922936,True,,5ea1ac832ac60d0762c238a7,,937376,59,,evan-feature22,full_rf_b,,0
35,40949,60,,,,1,1,0.0,1.0,-1.0,0.0,,0.0-62.0,,0.0,840.1500001,0.0,0.601259914,1.0,0.704681482,0.0,0.33908969299999997,1.0,0.505003715,True,,5ea1ac832ac60d0762c238a7,,948031,60,,evan-feature22,full_rf_b,,0
36,40950,61,,,,1,1,0.0,0.0,-1.0,0.0,,0.0-63.0,,0.0,716.1650001,0.0,0.59645454,0.0,0.710437172,0.0,0.327441879,1.0,0.391749613,True,,5ea1ac832ac60d0762c238a7,,958556,61,,evan-feature22,full_rf_b,,0
37,40951,62,,,,1,1,1.0,1.0,0.0,1.0,,0.0-64.0,,1.0,534.3150001,1.0,0.529473,1.0,0.636758527,0.0,0.301338063,0.0,0.365661481,True,,5ea1ac832ac60d0762c238a7,,968879,62,,evan-feature22,full_rf_b,,0
38,40952,63,,,,1,1,0.0,1.0,-1.0,0.0,,0.0-65.0,,0.0,481.6099999,0.0,0.541657162,1.0,0.634541962,1.0,0.343535366,0.0,0.371763742,True,,5ea1ac832ac60d0762c238a7,,979185,63,,evan-feature22,full_rf_b,,0
39,40953,64,,,,1,1,1.0,1.0,-1.0,0.0,,0.0-66.0,,-1.0,449.19999989999997,1.0,0.5707533260000001,1.0,0.589121171,0.0,0.326428396,1.0,0.43961622899999997,True,,5ea1ac832ac60d0762c238a7,,989460,64,,evan-feature22,full_rf_b,,0
40,40954,65,,,,1,1,0.0,0.0,0.0,1.0,,0.0-67.0,,0.0,473.07999989999996,0.0,0.5707533260000001,0.0,0.589121171,0.0,0.326428396,0.0,0.43961622899999997,True,,5ea1ac832ac60d0762c238a7,,999723,65,,evan-feature22,full_rf_b,,0
41,40955,66,,,,1,1,0.0,0.0,0.0,1.0,,0.0-68.0,,0.0,449.5600001,0.0,0.506271295,0.0,0.641775594,0.0,0.37149690700000004,0.0,0.404330166,True,,5ea1ac832ac60d0762c238a7,,1009995,66,,evan-feature22,full_rf_b,,0
42,40956,67,,,,1,1,0.0,1.0,-1.0,0.0,,0.0-69.0,,0.0,326.57,0.0,0.455642565,1.0,0.623605825,0.0,0.358753011,0.0,0.346174041,True,,5ea1ac832ac60d0762c238a7,,1020137,67,,evan-feature22,full_rf_b,,0
43,40957,68,,,,1,1,1.0,1.0,0.0,1.0,,0.0-70.0,,1.0,565.3900001000001,1.0,0.483677308,1.0,0.5904681070000001,1.0,0.402218411,1.0,0.35344697,True,,5ea1ac832ac60d0762c238a7,,1030518,68,,evan-feature22,full_rf_b,,0
44,40958,69,,,,1,1,1.0,0.0,-1.0,0.0,,0.0-71.0,,-1.0,358.3149998,1.0,0.394210977,0.0,0.558925494,1.0,0.540052017,0.0,0.35182128700000004,True,,5ea1ac832ac60d0762c238a7,,1040693,69,,evan-feature22,full_rf_b,,0
45,40959,70,,,,1,1,1.0,0.0,0.0,1.0,,0.0-72.0,,0.0,345.5050001,1.0,0.382300414,0.0,0.577670603,0.0,0.607608448,0.0,0.378261578,True,,5ea1ac832ac60d0762c238a7,,1050861,70,,evan-feature22,full_rf_b,,0
46,40960,71,,,,1,1,1.0,1.0,-1.0,0.0,,0.0-73.0,,-1.0,985.5449997999999,1.0,0.357596762,1.0,0.5929076529999999,0.0,0.6579790010000001,1.0,0.401326777,True,,5ea1ac832ac60d0762c238a7,,1061670,71,,evan-feature22,full_rf_b,,0
47,40961,72,,,,1,1,1.0,0.0,0.0,1.0,,0.0-74.0,,0.0,492.36500010000003,1.0,0.362033495,0.0,0.582308608,1.0,0.649195052,1.0,0.355158505,True,,5ea1ac832ac60d0762c238a7,,1071968,72,,evan-feature22,full_rf_b,,0
48,40962,73,,,,2,2,1.0,0.0,0.0,1.0,,0.0-75.0,,0.0,381.2549999,0.0,0.369620635,0.0,0.669100864,1.0,0.706059111,0.0,0.362516241,True,,5ea1ac832ac60d0762c238a7,,1082156,73,,evan-feature22,full_rf_b,,1
49,40963,74,,,,2,2,1.0,1.0,0.0,1.0,,0.0-76.0,,1.0,370.755,0.0,0.41477751399999996,1.0,0.7284416779999999,1.0,0.7182656940000001,1.0,0.36228040899999997,True,,5ea1ac832ac60d0762c238a7,,1092333,74,,evan-feature22,full_rf_b,,0
50,40964,75,,,,2,2,1.0,0.0,-1.0,0.0,,0.0-77.0,,-1.0,361.4800002,1.0,0.37675460299999997,1.0,0.703250285,1.0,0.75,0.0,0.461979164,True,,5ea1ac832ac60d0762c238a7,,1102528,75,,evan-feature22,full_rf_b,,0
51,40965,76,,,,1,1,0.0,0.0,-1.0,0.0,,0.0-78.0,,0.0,387.6749999,0.0,0.398716075,0.0,0.6723864890000001,1.0,0.674153818,0.0,0.519029516,True,,5ea1ac832ac60d0762c238a7,,1112727,76,,evan-feature22,full_rf_b,,1
52,40966,77,,,,1,1,1.0,0.0,-1.0,0.0,,0.0-79.0,,-1.0,522.3400001,1.0,0.34677856700000004,0.0,0.69057175,0.0,0.6822438540000001,1.0,0.477292237,True,,5ea1ac832ac60d0762c238a7,,1123069,77,,evan-feature22,full_rf_b,,0
53,40967,78,,,,2,2,0.0,0.0,0.0,1.0,,0.0-80.0,,0.0,403.7499998,0.0,0.28580469199999997,0.0,0.68408818,0.0,0.684207565,0.0,0.49780448299999996,True,,5ea1ac832ac60d0762c238a7,,1133296,78,,evan-feature22,full_rf_b,,1
54,40969,80,,,,1,1,1.0,1.0,0.0,1.0,,0.0-82.0,,1.0,741.0850001,1.0,0.25,1.0,0.7405808970000001,1.0,0.679614108,0.0,0.436436964,True,,5ea1ac832ac60d0762c238a7,,1150153,80,,evan-feature22,full_rf_b,,1
55,40970,81,,,,1,1,1.0,1.0,0.0,1.0,,0.0-83.0,,1.0,520.245,1.0,0.29890393,1.0,0.730505706,1.0,0.7328203320000001,0.0,0.439256938,True,,5ea1ac832ac60d0762c238a7,,1160466,81,,evan-feature22,full_rf_b,,0
56,40971,82,,,,1,1,0.0,1.0,-1.0,0.0,,0.0-84.0,,0.0,528.435,0.0,0.326762398,1.0,0.7148059609999999,1.0,0.75,0.0,0.44389608799999997,True,,5ea1ac832ac60d0762c238a7,,1170829,82,,evan-feature22,full_rf_b,,0
57,40972,83,,,,1,1,0.0,1.0,0.0,1.0,,0.0-85.0,,1.0,434.1,0.0,0.295168515,1.0,0.739760854,1.0,0.719947008,0.0,0.35277284600000003,True,,5ea1ac832ac60d0762c238a7,,1181085,83,,evan-feature22,full_rf_b,,0
58,40973,84,,,,1,1,0.0,1.0,0.0,1.0,,0.0-86.0,,1.0,304.0500002,0.0,0.25,1.0,0.70781482,1.0,0.75,0.0,0.286095925,True,,5ea1ac832ac60d0762c238a7,,1191225,84,,evan-feature22,full_rf_b,,0
59,40974,85,,,,1,1,0.0,0.0,0.0,1.0,,0.0-87.0,,0.0,423.7200001,0.0,0.25638190899999996,0.0,0.704088163,1.0,0.75,1.0,0.26872601399999996,True,,5ea1ac832ac60d0762c238a7,,1201462,85,,evan-feature22,full_rf_b,,0
60,40975,86,,,,1,1,0.0,1.0,-1.0,0.0,,0.0-88.0,,0.0,427.48000010000004,0.0,0.271581126,1.0,0.669760107,1.0,0.733896663,0.0,0.273244572,True,,5ea1ac832ac60d0762c238a7,,1211695,86,,evan-feature22,full_rf_b,,0
61,40976,87,,,,1,1,0.0,1.0,0.0,1.0,,0.0-89.0,,1.0,309.5,0.0,0.257144401,1.0,0.600575706,1.0,0.74488122,1.0,0.25,True,,5ea1ac832ac60d0762c238a7,,1221825,87,,evan-feature22,full_rf_b,,0
62,40977,88,,,,1,1,1.0,1.0,0.0,1.0,,0.0-90.0,,1.0,414.3999999,1.0,0.25,1.0,0.616870026,1.0,0.723610234,0.0,0.25,True,,5ea1ac832ac60d0762c238a7,,1232074,88,,evan-feature22,full_rf_b,,0
63,40978,89,,,,1,1,0.0,1.0,-1.0,0.0,,0.0-91.0,,0.0,430.41,0.0,0.25,1.0,0.583540187,1.0,0.7041042559999999,1.0,0.285961995,True,,5ea1ac832ac60d0762c238a7,,1242341,89,,evan-feature22,full_rf_b,,0
64,40979,90,,,,1,1,0.0,0.0,-1.0,0.0,,0.0-92.0,,0.0,418.9299999,0.0,0.27254536,0.0,0.53875765,0.0,0.693783448,0.0,0.284961652,True,,5ea1ac832ac60d0762c238a7,,1252566,90,,evan-feature22,full_rf_b,,0
65,40980,91,,,,1,1,0.0,1.0,-1.0,0.0,,0.0-93.0,,0.0,315.5449999,0.0,0.25,1.0,0.548431252,0.0,0.734221895,0.0,0.279445214,True,,5ea1ac832ac60d0762c238a7,,1262698,91,,evan-feature22,full_rf_b,,0
66,40981,92,,,,1,1,0.0,0.0,0.0,1.0,,0.0-94.0,,0.0,477.5100001,0.0,0.258640684,0.0,0.545878066,0.0,0.725245965,1.0,0.31487537,True,,5ea1ac832ac60d0762c238a7,,1272999,92,,evan-feature22,full_rf_b,,0
67,40982,93,,,,1,1,0.0,1.0,0.0,1.0,,0.0-95.0,,1.0,638.8699999,0.0,0.251103711,1.0,0.5776290629999999,1.0,0.696320133,1.0,0.317831047,True,,5ea1ac832ac60d0762c238a7,,1283441,93,,evan-feature22,full_rf_b,,0
68,40983,94,,,,1,1,0.0,1.0,0.0,1.0,,0.0-96.0,,1.0,388.98,0.0,0.276630292,1.0,0.617329858,1.0,0.73838088,0.0,0.261471582,True,,5ea1ac832ac60d0762c238a7,,1293642,94,,evan-feature22,full_rf_b,,0
69,40984,95,,,,1,1,0.0,1.0,0.0,1.0,,0.0-97.0,,1.0,745.4949999,0.0,0.297716424,1.0,0.618863717,1.0,0.7402358259999999,0.0,0.262600834,True,,5ea1ac832ac60d0762c238a7,,1304190,95,,evan-feature22,full_rf_b,,0
70,40985,96,,,,1,1,0.0,1.0,-1.0,0.0,,0.0-98.0,,0.0,459.06,0.0,0.290935512,1.0,0.695370945,1.0,0.706570507,0.0,0.280030553,True,,5ea1ac832ac60d0762c238a7,,1314457,96,,evan-feature22,full_rf_b,,0
71,40986,97,,,,1,1,0.0,0.0,0.0,1.0,,0.0-99.0,,0.0,330.14,0.0,0.25,0.0,0.6465277079999999,0.0,0.67766682,0.0,0.25,True,,5ea1ac832ac60d0762c238a7,,1324597,97,,evan-feature22,full_rf_b,,0
72,40987,98,,,,1,1,0.0,0.0,-1.0,0.0,,0.0-100.0,,0.0,391.74000010000003,0.0,0.26463816,0.0,0.636100213,0.0,0.646048507,0.0,0.265607101,True,,5ea1ac832ac60d0762c238a7,,1334805,98,,evan-feature22,full_rf_b,,0
73,40988,99,,,,1,1,0.0,1.0,-1.0,0.0,,0.0-101.0,,0.0,355.49,0.0,0.314340707,1.0,0.667795927,0.0,0.613630805,1.0,0.25,True,,5ea1ac832ac60d0762c238a7,,1344985,99,,evan-feature22,full_rf_b,,0
74,40989,100,,,,1,1,0.0,1.0,0.0,1.0,,0.0-102.0,,1.0,514.705,0.0,0.28685784,1.0,0.6622549529999999,0.0,0.652154117,1.0,0.25,True,,5ea1ac832ac60d0762c238a7,,1355324,100,,evan-feature22,full_rf_b,,0
75,40990,101,,,,1,1,0.0,1.0,0.0,1.0,,0.0-103.0,,1.0,581.1350001000001,0.0,0.304106554,1.0,0.631289538,1.0,0.707041942,0.0,0.29314237,True,,5ea1ac832ac60d0762c238a7,,1365689,101,,evan-feature22,full_rf_b,,0
76,40991,102,,,,1,1,0.0,1.0,0.0,1.0,,0.0-104.0,,1.0,390.62,0.0,0.304806932,1.0,0.571167718,0.0,0.680472346,0.0,0.25,True,,5ea1ac832ac60d0762c238a7,,1375893,102,,evan-feature22,full_rf_b,,0
77,40992,103,,,,1,1,0.0,1.0,0.0,1.0,,0.0-105.0,,1.0,390.45999989999996,0.0,0.37919861,1.0,0.5724849710000001,1.0,0.705638003,0.0,0.30179300600000003,True,,5ea1ac832ac60d0762c238a7,,1386109,103,,evan-feature22,full_rf_b,,0
78,40993,104,,,,1,1,1.0,1.0,0.0,1.0,,0.0-106.0,,1.0,627.1950002,1.0,0.464277969,1.0,0.554034373,1.0,0.7372627340000001,0.0,0.264699741,True,,5ea1ac832ac60d0762c238a7,,1396570,104,,evan-feature22,full_rf_b,,0
79,40994,105,,,,1,1,1.0,0.0,0.0,1.0,,0.0-107.0,,0.0,292.9450001,1.0,0.465104323,0.0,0.530793115,0.0,0.75,0.0,0.31683071,True,,5ea1ac832ac60d0762c238a7,,1406682,105,,evan-feature22,full_rf_b,,0
80,40995,106,,,,1,1,1.0,1.0,-1.0,0.0,,0.0-108.0,,-1.0,342.3549999,1.0,0.465104323,1.0,0.530793115,1.0,0.75,0.0,0.31683071,True,,5ea1ac832ac60d0762c238a7,,1416845,106,,evan-feature22,full_rf_b,,0
81,40996,107,,,,1,1,1.0,1.0,-1.0,0.0,,0.0-109.0,,-1.0,297.7149999,1.0,0.46833986,1.0,0.570249239,1.0,0.7244472590000001,0.0,0.364114163,True,,5ea1ac832ac60d0762c238a7,,1426969,107,,evan-feature22,full_rf_b,,0
82,40997,108,,,,1,1,1.0,1.0,-1.0,0.0,,0.0-110.0,,-1.0,267.2000001,1.0,0.445444024,1.0,0.649673355,1.0,0.6845441290000001,0.0,0.300660449,True,,5ea1ac832ac60d0762c238a7,,1437052,108,,evan-feature22,full_rf_b,,0
83,40998,109,,,,1,1,0.0,1.0,-1.0,0.0,,0.0-111.0,,0.0,283.80000010000003,0.0,0.39909721299999995,1.0,0.6715179509999999,1.0,0.742310028,0.0,0.35496088299999995,True,,5ea1ac832ac60d0762c238a7,,1447157,109,,evan-feature22,full_rf_b,,0
84,40999,110,,,,1,1,0.0,1.0,0.0,1.0,,0.0-112.0,,1.0,450.13,0.0,0.37956104799999996,1.0,0.694725302,0.0,0.7181651309999999,0.0,0.38726906299999997,True,,5ea1ac832ac60d0762c238a7,,1457412,110,,evan-feature22,full_rf_b,,0
85,41000,111,,,,1,1,1.0,1.0,0.0,1.0,,0.0-113.0,,1.0,296.83499989999996,1.0,0.404995034,1.0,0.724375412,1.0,0.6910946859999999,1.0,0.387187347,True,,5ea1ac832ac60d0762c238a7,,1467534,111,,evan-feature22,full_rf_b,,0
86,41001,112,,,,1,1,0.0,1.0,-1.0,0.0,,0.0-114.0,,0.0,382.3150001,0.0,0.461740803,1.0,0.75,1.0,0.75,0.0,0.34872038200000005,True,,5ea1ac832ac60d0762c238a7,,1477725,112,,evan-feature22,full_rf_b,,0
87,41002,113,,,,1,1,0.0,1.0,-1.0,0.0,,0.0-115.0,,0.0,443.71,0.0,0.43821380600000004,1.0,0.738833273,0.0,0.728286963,1.0,0.399538128,True,,5ea1ac832ac60d0762c238a7,,1487979,113,,evan-feature22,full_rf_b,,0
88,41003,114,,,,1,1,0.0,0.0,0.0,1.0,,0.0-116.0,,0.0,389.6300001,0.0,0.41709882,0.0,0.736666736,1.0,0.75,0.0,0.389095584,True,,5ea1ac832ac60d0762c238a7,,1498178,114,,evan-feature22,full_rf_b,,0
89,41004,115,,,,1,1,1.0,1.0,0.0,1.0,,0.0-117.0,,1.0,338.825,1.0,0.39749009799999996,1.0,0.744320029,1.0,0.75,1.0,0.363848678,True,,5ea1ac832ac60d0762c238a7,,1508340,115,,evan-feature22,full_rf_b,,0
90,41005,116,,,,1,1,0.0,1.0,-1.0,0.0,,0.0-118.0,,0.0,408.2149998,0.0,0.392653706,1.0,0.75,0.0,0.75,0.0,0.384386976,True,,5ea1ac832ac60d0762c238a7,,1518551,116,,evan-feature22,full_rf_b,,0
91,41006,117,,,,1,1,0.0,0.0,0.0,1.0,,0.0-119.0,,0.0,294.6200001,0.0,0.31190902600000003,0.0,0.75,0.0,0.732413819,1.0,0.413082932,True,,5ea1ac832ac60d0762c238a7,,1528646,117,,evan-feature22,full_rf_b,,0
92,41007,118,,,,1,1,0.0,0.0,-1.0,0.0,,0.0-120.0,,0.0,456.86499979999996,0.0,0.366917648,0.0,0.740073855,1.0,0.75,0.0,0.352861979,True,,5ea1ac832ac60d0762c238a7,,1538913,118,,evan-feature22,full_rf_b,,0
93,41008,119,,,,1,1,0.0,0.0,-1.0,0.0,,0.0-121.0,,0.0,573.7900001,0.0,0.3645172,0.0,0.721770713,1.0,0.75,0.0,0.404074511,True,,5ea1ac832ac60d0762c238a7,,1549302,119,,evan-feature22,full_rf_b,,0
94,41009,120,,,,1,1,1.0,0.0,-1.0,0.0,,0.0-122.0,,-1.0,225.43000010000003,1.0,0.35205600299999995,0.0,0.68983859,0.0,0.739735447,0.0,0.366895945,True,,5ea1ac832ac60d0762c238a7,,1559337,120,,evan-feature22,full_rf_b,,0
95,41010,121,,,,1,1,0.0,1.0,-1.0,0.0,,0.0-123.0,,0.0,213.185,0.0,0.40998722600000004,1.0,0.720859127,0.0,0.673854955,0.0,0.368528541,True,,5ea1ac832ac60d0762c238a7,,1569355,121,,evan-feature22,full_rf_b,,0
96,41011,122,,,,1,1,0.0,0.0,-1.0,0.0,,0.0-124.0,,0.0,350.135,0.0,0.353625316,0.0,0.75,1.0,0.695605473,1.0,0.38303674200000004,True,,5ea1ac832ac60d0762c238a7,,1579505,122,,evan-feature22,full_rf_b,,0
97,41012,123,,,,1,1,0.0,1.0,-1.0,0.0,,0.0-125.0,,0.0,336.84,0.0,0.359216989,1.0,0.75,1.0,0.6987915090000001,1.0,0.35169046200000004,True,,5ea1ac832ac60d0762c238a7,,1589659,123,,evan-feature22,full_rf_b,,0
98,41013,124,,,,1,1,0.0,1.0,-1.0,0.0,,0.0-126.0,,0.0,475.68500020000005,0.0,0.35834496899999996,1.0,0.75,1.0,0.707067742,0.0,0.416763636,True,,5ea1ac832ac60d0762c238a7,,1599952,124,,evan-feature22,full_rf_b,,0
99,41014,125,,,,1,1,0.0,0.0,0.0,1.0,,0.0-127.0,,0.0,448.355,0.0,0.38741613799999997,0.0,0.7177369570000001,0.0,0.734902455,0.0,0.49438664299999996,True,,5ea1ac832ac60d0762c238a7,,1610236,125,,evan-feature22,full_rf_b,,0
100,41015,126,,,,1,1,0.0,1.0,-1.0,0.0,,0.0-128.0,,0.0,441.7349999,0.0,0.405255252,1.0,0.7300466640000001,1.0,0.7027748070000001,0.0,0.504359668,True,,5ea1ac832ac60d0762c238a7,,1620472,126,,evan-feature22,full_rf_b,,0
101,41016,127,,,,1,1,1.0,0.0,-1.0,0.0,,0.0-129.0,,-1.0,265.805,1.0,0.40697073,0.0,0.7260142190000001,1.0,0.724461982,0.0,0.522779179,True,,5ea1ac832ac60d0762c238a7,,1630550,127,,evan-feature22,full_rf_b,,0
102,41017,128,,,,1,1,0.0,0.0,-1.0,0.0,,0.0-130.0,,0.0,266.15,0.0,0.43906215299999996,0.0,0.7252802340000001,1.0,0.719079934,0.0,0.5712990579999999,True,,5ea1ac832ac60d0762c238a7,,1640633,128,,evan-feature22,full_rf_b,,0
103,41018,129,,,,1,1,0.0,1.0,0.0,1.0,,0.0-131.0,,1.0,357.2250002,0.0,0.4076705,1.0,0.73280499,1.0,0.681313127,0.0,0.523891346,True,,5ea1ac832ac60d0762c238a7,,1650804,129,,evan-feature22,full_rf_b,,0
104,41019,130,,,,1,1,0.0,1.0,0.0,1.0,,0.0-132.0,,1.0,378.2299999,0.0,0.399102911,1.0,0.730498344,1.0,0.661080239,1.0,0.46742603,True,,5ea1ac832ac60d0762c238a7,,1661027,130,,evan-feature22,full_rf_b,,0
105,41020,131,,,,1,1,0.0,1.0,0.0,1.0,,0.0-133.0,,1.0,300.4750002,0.0,0.356477282,1.0,0.712296395,1.0,0.641812684,1.0,0.44868414,True,,5ea1ac832ac60d0762c238a7,,1671149,131,,evan-feature22,full_rf_b,,0
106,41021,132,,,,1,1,0.0,1.0,-1.0,0.0,,0.0-134.0,,0.0,396.88499989999997,0.0,0.462760722,1.0,0.692349322,1.0,0.700947931,1.0,0.394680266,True,,5ea1ac832ac60d0762c238a7,,1681335,132,,evan-feature22,full_rf_b,,0
107,41022,133,,,,1,1,1.0,1.0,-1.0,0.0,,0.0-135.0,,-1.0,397.8300001,1.0,0.422306413,1.0,0.718375916,1.0,0.706340917,0.0,0.367787185,True,,5ea1ac832ac60d0762c238a7,,1691580,133,,evan-feature22,full_rf_b,,0
108,41024,135,,,,1,1,0.0,0.0,-1.0,0.0,,0.0-137.0,,0.0,1183.65,0.0,0.4582233,0.0,0.643834117,1.0,0.75,0.0,0.39615823299999997,True,,5ea1ac832ac60d0762c238a7,,1812350,135,,evan-feature22,full_rf_b,,0
109,41025,136,,,,1,1,1.0,1.0,-1.0,0.0,,0.0-138.0,,-1.0,859.805,1.0,0.43813437899999996,1.0,0.651283804,1.0,0.729674191,0.0,0.37711048,True,,5ea1ac832ac60d0762c238a7,,1823018,136,,evan-feature22,full_rf_b,,0
110,41026,137,,,,1,1,1.0,1.0,-1.0,0.0,,0.0-139.0,,-1.0,421.995,1.0,0.471199094,1.0,0.6470010979999999,1.0,0.715008097,1.0,0.410656191,True,,5ea1ac832ac60d0762c238a7,,1833264,137,,evan-feature22,full_rf_b,,0
111,41027,138,,,,1,1,1.0,0.0,-1.0,0.0,,0.0-140.0,,-1.0,361.785,1.0,0.42486406,0.0,0.629771829,0.0,0.6550939960000001,0.0,0.459093873,True,,5ea1ac832ac60d0762c238a7,,1843439,138,,evan-feature22,full_rf_b,,0
112,41028,139,,,,1,1,1.0,1.0,-1.0,0.0,,0.0-141.0,,-1.0,334.6599999,1.0,0.4803197,1.0,0.645842715,1.0,0.6421749920000001,0.0,0.443092151,True,,5ea1ac832ac60d0762c238a7,,1853592,139,,evan-feature22,full_rf_b,,0
113,41029,140,,,,1,1,1.0,0.0,0.0,1.0,,0.0-142.0,,0.0,378.46,1.0,0.521848997,0.0,0.735801074,1.0,0.6691348460000001,1.0,0.45259351600000003,True,,5ea1ac832ac60d0762c238a7,,1863782,140,,evan-feature22,full_rf_b,,0
114,41030,141,,,,1,1,1.0,1.0,-1.0,0.0,,0.0-143.0,,-1.0,481.70499989999996,1.0,0.49565621299999996,1.0,0.742400847,0.0,0.661512553,1.0,0.483110831,True,,5ea1ac832ac60d0762c238a7,,1874076,141,,evan-feature22,full_rf_b,,0
115,41031,142,,,,2,2,1.0,0.0,-1.0,0.0,,0.0-144.0,,-1.0,446.06,0.0,0.521564361,1.0,0.731078632,1.0,0.6774886809999999,0.0,0.483263956,True,,5ea1ac832ac60d0762c238a7,,1884358,142,,evan-feature22,full_rf_b,,1
116,41032,143,,,,1,1,1.0,1.0,-1.0,0.0,,0.0-145.0,,-1.0,250.58,1.0,0.558893102,1.0,0.719810023,1.0,0.67461031,1.0,0.499349834,True,,5ea1ac832ac60d0762c238a7,,1894428,143,,evan-feature22,full_rf_b,,1
117,41033,144,,,,1,1,0.0,1.0,-1.0,0.0,,0.0-146.0,,0.0,332.645,0.0,0.611031046,1.0,0.75,0.0,0.688072995,0.0,0.5321422729999999,True,,5ea1ac832ac60d0762c238a7,,1904577,144,,evan-feature22,full_rf_b,,0
118,41034,145,,,,1,1,0.0,1.0,0.0,1.0,,0.0-147.0,,1.0,334.09,0.0,0.633223941,1.0,0.713567728,1.0,0.75,1.0,0.48185314700000004,True,,5ea1ac832ac60d0762c238a7,,1914741,145,,evan-feature22,full_rf_b,,0
119,41035,146,,,,1,1,0.0,1.0,-1.0,0.0,,0.0-148.0,,0.0,287.7849999,0.0,0.664001694,1.0,0.705509768,0.0,0.75,0.0,0.500211065,True,,5ea1ac832ac60d0762c238a7,,1924848,146,,evan-feature22,full_rf_b,,0
120,41036,147,,,,1,1,1.0,0.0,-1.0,0.0,,0.0-149.0,,-1.0,1217.485,1.0,0.664001694,0.0,0.705509768,1.0,0.75,0.0,0.500211065,True,,5ea1ac832ac60d0762c238a7,,1935866,147,,evan-feature22,full_rf_b,,0
121,41037,148,,,,1,1,1.0,1.0,-1.0,0.0,,0.0-150.0,,-1.0,336.4000001,1.0,0.696508041,1.0,0.71066027,1.0,0.717028709,0.0,0.49792991,True,,5ea1ac832ac60d0762c238a7,,1946005,148,,evan-feature22,full_rf_b,,0
122,41038,149,,,,1,1,1.0,1.0,0.0,1.0,,0.0-151.0,,1.0,304.6900001,1.0,0.699883272,1.0,0.75,1.0,0.713543895,0.0,0.496962643,True,,5ea1ac832ac60d0762c238a7,,1956141,149,,evan-feature22,full_rf_b,,0
123,41039,150,,,,1,1,1.0,1.0,0.0,1.0,,0.0-152.0,,1.0,304.6749998,1.0,0.741163419,1.0,0.75,1.0,0.64691024,1.0,0.513858197,True,,5ea1ac832ac60d0762c238a7,,1966254,150,,evan-feature22,full_rf_b,,0
124,41040,151,,,,1,1,0.0,1.0,0.0,1.0,,0.0-153.0,,1.0,710.3550001,0.0,0.75,1.0,0.70816558,1.0,0.594499079,0.0,0.48502124,True,,5ea1ac832ac60d0762c238a7,,1976796,151,,evan-feature22,full_rf_b,,0
125,41041,152,,,,1,1,1.0,1.0,-1.0,0.0,,0.0-154.0,,-1.0,310.0700001,1.0,0.75,1.0,0.721848901,0.0,0.62197249,0.0,0.48263586399999997,True,,5ea1ac832ac60d0762c238a7,,1986925,152,,evan-feature22,full_rf_b,,0
126,41042,153,,,,1,1,1.0,1.0,-1.0,0.0,,0.0-155.0,,-1.0,425.0449999,1.0,0.75,1.0,0.74813071,1.0,0.584357161,0.0,0.411477782,True,,5ea1ac832ac60d0762c238a7,,1997188,153,,evan-feature22,full_rf_b,,0
127,41043,154,,,,1,1,1.0,0.0,-1.0,0.0,,0.0-156.0,,-1.0,428.5949999,1.0,0.75,0.0,0.75,1.0,0.52287236,1.0,0.488290656,True,,5ea1ac832ac60d0762c238a7,,2007445,154,,evan-feature22,full_rf_b,,0
128,41044,155,,,,1,1,1.0,0.0,-1.0,0.0,,0.0-157.0,,-1.0,392.52999980000004,1.0,0.75,0.0,0.75,0.0,0.544321581,1.0,0.53143059,True,,5ea1ac832ac60d0762c238a7,,2017674,155,,evan-feature22,full_rf_b,,0
129,41045,156,,,,1,1,1.0,1.0,-1.0,0.0,,0.0-158.0,,-1.0,328.0,1.0,0.726754564,1.0,0.75,0.0,0.5129306370000001,0.0,0.530592445,True,,5ea1ac832ac60d0762c238a7,,2027827,156,,evan-feature22,full_rf_b,,0
130,41046,157,,,,2,2,1.0,1.0,0.0,1.0,,0.0-159.0,,1.0,518.3699999,1.0,0.75,1.0,0.7392590729999999,1.0,0.479875835,1.0,0.547007051,True,,5ea1ac832ac60d0762c238a7,,2038168,157,,evan-feature22,full_rf_b,,1
131,41047,158,,,,2,2,1.0,1.0,0.0,1.0,,0.0-160.0,,1.0,564.6500001,1.0,0.75,1.0,0.7393376979999999,1.0,0.546045419,1.0,0.541267353,True,,5ea1ac832ac60d0762c238a7,,2048560,158,,evan-feature22,full_rf_b,,0
132,41048,159,,,,2,2,0.0,0.0,-1.0,0.0,,0.0-161.0,,0.0,330.445,0.0,0.75,1.0,0.75,0.0,0.485725895,0.0,0.527625395,True,,5ea1ac832ac60d0762c238a7,,2058727,159,,evan-feature22,full_rf_b,,0
133,41049,160,,,,1,1,1.0,0.0,0.0,1.0,,0.0-162.0,,0.0,366.2,1.0,0.75,0.0,0.725087974,0.0,0.488603595,0.0,0.504019206,True,,5ea1ac832ac60d0762c238a7,,2068919,160,,evan-feature22,full_rf_b,,1
134,41050,161,,,,1,1,1.0,0.0,-1.0,0.0,,0.0-163.0,,-1.0,562.35,1.0,0.745504295,0.0,0.75,1.0,0.452379914,0.0,0.50131194,True,,5ea1ac832ac60d0762c238a7,,2079318,161,,evan-feature22,full_rf_b,,0
135,41051,162,,,,2,2,0.0,1.0,0.0,1.0,,0.0-164.0,,1.0,561.43,0.0,0.728513874,1.0,0.75,0.0,0.44125567200000004,1.0,0.531454591,True,,5ea1ac832ac60d0762c238a7,,2089702,162,,evan-feature22,full_rf_b,,1
136,41052,163,,,,2,2,0.0,1.0,-1.0,0.0,,0.0-165.0,,0.0,363.6,0.0,0.73790804,0.0,0.75,0.0,0.413036656,1.0,0.524619035,True,,5ea1ac832ac60d0762c238a7,,2099876,163,,evan-feature22,full_rf_b,,0
137,41053,164,,,,2,2,1.0,0.0,-1.0,0.0,,0.0-166.0,,-1.0,403.99,1.0,0.7080961309999999,1.0,0.708666865,1.0,0.431915581,0.0,0.481819489,True,,5ea1ac832ac60d0762c238a7,,2110104,164,,evan-feature22,full_rf_b,,0
138,41054,165,,,,1,1,1.0,1.0,-1.0,0.0,,0.0-167.0,,-1.0,270.15,1.0,0.721378003,1.0,0.71605913,0.0,0.36642387,1.0,0.5036739929999999,True,,5ea1ac832ac60d0762c238a7,,2120183,165,,evan-feature22,full_rf_b,,1
139,41055,166,,,,1,1,1.0,1.0,0.0,1.0,,0.0-168.0,,1.0,349.955,1.0,0.7340618959999999,1.0,0.699323252,0.0,0.35298046299999997,1.0,0.511241692,True,,5ea1ac832ac60d0762c238a7,,2130354,166,,evan-feature22,full_rf_b,,0
140,41056,167,,,,1,1,0.0,1.0,0.0,1.0,,0.0-169.0,,1.0,304.2550001,0.0,0.75,1.0,0.70412698,0.0,0.380734814,1.0,0.529580116,True,,5ea1ac832ac60d0762c238a7,,2140465,167,,evan-feature22,full_rf_b,,0
141,41057,168,,,,1,1,1.0,1.0,0.0,1.0,,0.0-170.0,,1.0,265.315,1.0,0.7436654909999999,1.0,0.711182751,0.0,0.41125331,0.0,0.49554405,True,,5ea1ac832ac60d0762c238a7,,2150523,168,,evan-feature22,full_rf_b,,0
142,41058,169,,,,1,1,1.0,1.0,-1.0,0.0,,0.0-171.0,,-1.0,359.28,1.0,0.731607915,1.0,0.651774583,0.0,0.35688023,0.0,0.45194491600000003,True,,5ea1ac832ac60d0762c238a7,,2160697,169,,evan-feature22,full_rf_b,,0
143,41059,170,,,,1,1,1.0,1.0,0.0,1.0,,0.0-172.0,,1.0,775.13,1.0,0.75,1.0,0.75,0.0,0.283145374,1.0,0.528608005,True,,5ea1ac832ac60d0762c238a7,,2171296,170,,evan-feature22,full_rf_b,,0
144,41060,171,,,,1,1,0.0,0.0,-1.0,0.0,,0.0-173.0,,0.0,344.875,0.0,0.7491416890000001,0.0,0.7423785959999999,0.0,0.29135870399999997,0.0,0.498888318,True,,5ea1ac832ac60d0762c238a7,,2181450,171,,evan-feature22,full_rf_b,,0
145,41061,172,,,,1,1,1.0,1.0,0.0,1.0,,0.0-174.0,,1.0,300.6,1.0,0.708569387,1.0,0.717682277,0.0,0.294421699,0.0,0.493838163,True,,5ea1ac832ac60d0762c238a7,,2191582,172,,evan-feature22,full_rf_b,,0
146,41062,173,,,,1,1,0.0,1.0,-1.0,0.0,,0.0-175.0,,0.0,520.2349998999999,0.0,0.75,1.0,0.7383382159999999,0.0,0.356098707,1.0,0.442533405,True,,5ea1ac832ac60d0762c238a7,,2201917,173,,evan-feature22,full_rf_b,,0
147,41063,174,,,,1,1,1.0,1.0,-1.0,0.0,,0.0-176.0,,-1.0,408.1899999,1.0,0.744527075,1.0,0.75,0.0,0.334127506,0.0,0.393165805,True,,5ea1ac832ac60d0762c238a7,,2212125,174,,evan-feature22,full_rf_b,,0
148,41064,175,,,,1,1,1.0,1.0,-1.0,0.0,,0.0-177.0,,-1.0,279.1500001,1.0,0.75,1.0,0.75,0.0,0.33571021799999995,1.0,0.350393962,True,,5ea1ac832ac60d0762c238a7,,2222217,175,,evan-feature22,full_rf_b,,0
149,41065,176,,,,2,2,0.0,0.0,0.0,1.0,,0.0-178.0,,0.0,379.43,1.0,0.75,0.0,0.75,0.0,0.313628297,0.0,0.36349657399999996,True,,5ea1ac832ac60d0762c238a7,,2232396,176,,evan-feature22,full_rf_b,,1
150,41066,177,,,,2,2,1.0,0.0,-1.0,0.0,,0.0-179.0,,-1.0,279.1600002,1.0,0.75,1.0,0.734284182,1.0,0.262667667,0.0,0.380199119,True,,5ea1ac832ac60d0762c238a7,,2242476,177,,evan-feature22,full_rf_b,,0
151,41067,178,,,,1,1,1.0,0.0,-1.0,0.0,,0.0-180.0,,-1.0,264.0749998,1.0,0.75,0.0,0.75,0.0,0.25,1.0,0.394494013,True,,5ea1ac832ac60d0762c238a7,,2252564,178,,evan-feature22,full_rf_b,,1
152,41068,179,,,,1,1,0.0,1.0,-1.0,0.0,,0.0-181.0,,0.0,334.3349998,0.0,0.722298145,1.0,0.7357822340000001,1.0,0.25,0.0,0.319142121,True,,5ea1ac832ac60d0762c238a7,,2262722,179,,evan-feature22,full_rf_b,,0
153,41069,180,,,,1,1,1.0,1.0,-1.0,0.0,,0.0-182.0,,-1.0,479.5949999,1.0,0.73149275,1.0,0.724276446,0.0,0.305856907,0.0,0.281315057,True,,5ea1ac832ac60d0762c238a7,,2273035,180,,evan-feature22,full_rf_b,,0
154,41070,181,,,,1,1,1.0,1.0,-1.0,0.0,,0.0-183.0,,-1.0,277.5950001,1.0,0.7458732690000001,1.0,0.7336382459999999,0.0,0.272571964,0.0,0.266021999,True,,5ea1ac832ac60d0762c238a7,,2283143,181,,evan-feature22,full_rf_b,,0
155,41071,182,,,,1,1,1.0,1.0,0.0,1.0,,0.0-184.0,,1.0,76.535,1.0,0.705579037,1.0,0.720778292,0.0,0.320238144,0.0,0.30971744,True,,5ea1ac832ac60d0762c238a7,,2293040,182,,evan-feature22,full_rf_b,,0
156,41072,183,,,,1,1,1.0,1.0,0.0,1.0,,0.0-185.0,,1.0,269.1249999,1.0,0.700425648,1.0,0.7198784009999999,0.0,0.272590393,1.0,0.304182931,True,,5ea1ac832ac60d0762c238a7,,2303145,183,,evan-feature22,full_rf_b,,0
157,41073,184,,,,1,1,1.0,1.0,0.0,1.0,,0.0-186.0,,1.0,368.49,1.0,0.735590785,1.0,0.722714973,0.0,0.25,0.0,0.323421091,True,,5ea1ac832ac60d0762c238a7,,2313330,184,,evan-feature22,full_rf_b,,0
158,41074,185,,,,1,1,1.0,1.0,0.0,1.0,,0.0-187.0,,1.0,438.015,1.0,0.724807662,1.0,0.63146213,1.0,0.36836492600000004,0.0,0.34592153299999995,True,,5ea1ac832ac60d0762c238a7,,2323580,185,,evan-feature22,full_rf_b,,0
159,41075,186,,,,2,2,0.0,0.0,-1.0,0.0,,0.0-188.0,,0.0,645.3549998999999,1.0,0.7352796909999999,1.0,0.555111392,0.0,0.36003922,0.0,0.31433779999999995,True,,5ea1ac832ac60d0762c238a7,,2334041,186,,evan-feature22,full_rf_b,,1
160,41076,187,notice,,,,,,,,,,0.0-189.0,"{""Q0"":""No""}",,9295.0,,,,,,,,,True,,5ea1ac832ac60d0762c238a7,,2343339,187,Q,survey-text,full_rf_b,,1
161,41077,188,track1,,[0],,,,,,,,0.0-190.0,"{""Q0"":""yes""}",,21933.0,,,,,,,,,True,,5ea1ac832ac60d0762c238a7,,2365276,188,Q,evan-quiz,full_rf_b,,1
162,41078,189,track2,,[2],,,,,,,,0.0-191.0,"{""Q0"":""N/A""}",,6257.0,,,,,,,,,True,,5ea1ac832ac60d0762c238a7,,2371536,189,Q,evan-quiz,full_rf_b,,1
163,41079,190,strat,,,,,,,,,,0.0-192.0,"{""Q0"":""The left side seemed to average as the highest scoring.""}",,43735.0,,,,,,,,,True,,5ea1ac832ac60d0762c238a7,,2415276,190,Q,survey-text,full_rf_b,,1
