,index,Unnamed: 0,Q_name,button_pressed,choice_idxs,chosen_pos,chosen_state,chosen_state_f_1_outcome,chosen_state_f_2_outcome,f_1_reward,f_2_reward,incor_questions,internal_node_id,responses,reward_received,rt,s_1_f_1_outcome,s_1_f_1_prob,s_1_f_2_outcome,s_1_f_2_prob,s_2_f_1_outcome,s_2_f_1_prob,s_2_f_2_outcome,s_2_f_2_prob,safe_first,stimulus,subjectID,success,time_elapsed,trial_index,trial_num,trial_type,version,view_history,switching
0,17298,25,,,,2,2,1.0,0.0,0.0,1.0,,0.0-27.0,,0.0,770.92,1.0,0.6,0.0,0.6,1.0,0.4,0.0,0.4,True,,57618e8a25224a0006d3756e,,477517,25,,evan-feature22,full_rf_b,,0
1,17299,26,,,,2,2,1.0,0.0,0.0,1.0,,0.0-28.0,,0.0,789.345,0.0,0.608053294,0.0,0.63424552,1.0,0.397152172,0.0,0.347069101,True,,57618e8a25224a0006d3756e,,488114,26,,evan-feature22,full_rf_b,,0
2,17300,27,,,,2,2,1.0,0.0,0.0,1.0,,0.0-29.0,,0.0,846.68,0.0,0.642237155,0.0,0.648566321,1.0,0.389407674,0.0,0.285525717,True,,57618e8a25224a0006d3756e,,498789,27,,evan-feature22,full_rf_b,,0
3,17301,28,,,,1,1,1.0,1.0,0.0,1.0,,0.0-30.0,,1.0,504.795,1.0,0.661086576,1.0,0.630492543,0.0,0.399058924,0.0,0.25,True,,57618e8a25224a0006d3756e,,509107,28,,evan-feature22,full_rf_b,,1
4,17302,29,,,,1,1,0.0,1.0,0.0,1.0,,0.0-31.0,,1.0,527.88,0.0,0.631324137,1.0,0.6269842929999999,0.0,0.38734784299999997,1.0,0.25,True,,57618e8a25224a0006d3756e,,519463,29,,evan-feature22,full_rf_b,,0
5,17303,30,,,,1,1,0.0,1.0,0.0,1.0,,0.0-32.0,,1.0,1008.845,0.0,0.6381991370000001,1.0,0.68987999,1.0,0.384107265,1.0,0.271332943,True,,57618e8a25224a0006d3756e,,530290,30,,evan-feature22,full_rf_b,,0
6,17304,31,,,,2,2,0.0,0.0,0.0,1.0,,0.0-33.0,,0.0,926.65,1.0,0.66034901,0.0,0.742641349,0.0,0.360225629,0.0,0.25,True,,57618e8a25224a0006d3756e,,541022,31,,evan-feature22,full_rf_b,,1
7,17305,32,,,,1,1,0.0,1.0,-1.0,0.0,,0.0-34.0,,0.0,539.29,0.0,0.638612418,1.0,0.75,1.0,0.367273939,0.0,0.25,True,,57618e8a25224a0006d3756e,,551374,32,,evan-feature22,full_rf_b,,1
8,17306,33,,,,1,1,1.0,1.0,0.0,1.0,,0.0-35.0,,1.0,727.69,1.0,0.624340629,1.0,0.75,0.0,0.425829545,0.0,0.25,True,,57618e8a25224a0006d3756e,,561902,33,,evan-feature22,full_rf_b,,0
9,17307,34,,,,1,1,0.0,1.0,0.0,1.0,,0.0-36.0,,1.0,1183.175,0.0,0.621999804,1.0,0.75,0.0,0.368609357,0.0,0.25,True,,57618e8a25224a0006d3756e,,572883,34,,evan-feature22,full_rf_b,,0
10,17308,35,,,,1,1,1.0,1.0,-1.0,0.0,,0.0-37.0,,-1.0,631.615,1.0,0.62666403,1.0,0.75,0.0,0.311151498,0.0,0.25,True,,57618e8a25224a0006d3756e,,583314,35,,evan-feature22,full_rf_b,,0
11,17309,36,,,,2,2,0.0,1.0,-1.0,0.0,,0.0-38.0,,0.0,482.255,1.0,0.6819650009999999,0.0,0.75,0.0,0.310763048,1.0,0.25,True,,57618e8a25224a0006d3756e,,593607,36,,evan-feature22,full_rf_b,,1
12,17310,37,,,,2,2,0.0,1.0,0.0,1.0,,0.0-39.0,,1.0,393.01,1.0,0.740626951,1.0,0.75,0.0,0.25,1.0,0.25,True,,57618e8a25224a0006d3756e,,603811,37,,evan-feature22,full_rf_b,,0
13,17311,38,,,,2,2,1.0,0.0,0.0,1.0,,0.0-40.0,,0.0,325.805,1.0,0.739599242,0.0,0.742034978,1.0,0.25397114600000004,0.0,0.25,True,,57618e8a25224a0006d3756e,,613943,38,,evan-feature22,full_rf_b,,0
14,17312,39,,,,2,2,0.0,0.0,0.0,1.0,,0.0-41.0,,0.0,475.08,1.0,0.732341315,1.0,0.72735643,0.0,0.25,0.0,0.25,True,,57618e8a25224a0006d3756e,,624244,39,,evan-feature22,full_rf_b,,0
15,17313,40,,,,1,1,1.0,1.0,0.0,1.0,,0.0-42.0,,1.0,652.135,1.0,0.7062287770000001,1.0,0.75,0.0,0.29002151,0.0,0.288256649,True,,57618e8a25224a0006d3756e,,634707,40,,evan-feature22,full_rf_b,,1
16,17314,41,,,,1,1,0.0,1.0,-1.0,0.0,,0.0-43.0,,0.0,297.61,0.0,0.7086029209999999,1.0,0.75,1.0,0.274129113,1.0,0.262851608,True,,57618e8a25224a0006d3756e,,644826,41,,evan-feature22,full_rf_b,,0
17,17315,42,,,,2,2,1.0,1.0,0.0,1.0,,0.0-44.0,,1.0,696.335,1.0,0.669189651,1.0,0.727614338,1.0,0.298444036,1.0,0.296944518,True,,57618e8a25224a0006d3756e,,655313,42,,evan-feature22,full_rf_b,,1
18,17316,43,,,,2,2,1.0,1.0,-1.0,0.0,,0.0-45.0,,-1.0,472.555,1.0,0.6819912929999999,1.0,0.7179434290000001,1.0,0.265003961,1.0,0.28157921199999997,True,,57618e8a25224a0006d3756e,,665605,43,,evan-feature22,full_rf_b,,0
19,17317,44,,,,1,1,0.0,1.0,-1.0,0.0,,0.0-46.0,,0.0,329.3,0.0,0.665275002,1.0,0.723065271,0.0,0.260414971,1.0,0.30973870000000003,True,,57618e8a25224a0006d3756e,,675749,44,,evan-feature22,full_rf_b,,1
20,17318,45,,,,1,1,0.0,1.0,0.0,1.0,,0.0-47.0,,1.0,548.015,0.0,0.6660593260000001,1.0,0.728032907,1.0,0.30922817,0.0,0.338778608,True,,57618e8a25224a0006d3756e,,686104,45,,evan-feature22,full_rf_b,,0
21,17319,46,,,,1,1,0.0,1.0,0.0,1.0,,0.0-48.0,,1.0,1142.92,0.0,0.702068785,1.0,0.6528750879999999,0.0,0.287329608,1.0,0.35789613200000003,True,,57618e8a25224a0006d3756e,,697055,46,,evan-feature22,full_rf_b,,0
22,17320,47,,,,1,1,0.0,1.0,0.0,1.0,,0.0-49.0,,1.0,1085.82,0.0,0.651939787,1.0,0.636725589,0.0,0.284834488,0.0,0.358563756,True,,57618e8a25224a0006d3756e,,707954,47,,evan-feature22,full_rf_b,,0
23,17321,48,,,,2,2,0.0,0.0,0.0,1.0,,0.0-50.0,,0.0,598.18,1.0,0.67573929,1.0,0.612550049,0.0,0.37130387600000003,0.0,0.383542402,True,,57618e8a25224a0006d3756e,,718361,48,,evan-feature22,full_rf_b,,1
24,17322,49,,,,1,1,1.0,1.0,0.0,1.0,,0.0-51.0,,1.0,349.705,1.0,0.620753801,1.0,0.60513644,1.0,0.385529434,1.0,0.340361743,True,,57618e8a25224a0006d3756e,,728497,49,,evan-feature22,full_rf_b,,1
25,17323,50,,,,1,1,1.0,1.0,-1.0,0.0,,0.0-52.0,,-1.0,470.995,1.0,0.673564893,1.0,0.672437924,1.0,0.292955382,0.0,0.337633795,True,,57618e8a25224a0006d3756e,,738796,50,,evan-feature22,full_rf_b,,0
26,17324,51,,,,1,1,1.0,0.0,0.0,1.0,,0.0-53.0,,0.0,494.44,1.0,0.6749427,0.0,0.724197502,0.0,0.32391132100000003,0.0,0.350995264,True,,57618e8a25224a0006d3756e,,749116,51,,evan-feature22,full_rf_b,,0
27,17325,52,,,,1,1,0.0,1.0,0.0,1.0,,0.0-54.0,,1.0,323.705,0.0,0.6940159379999999,1.0,0.75,0.0,0.31710554399999996,1.0,0.413450341,True,,57618e8a25224a0006d3756e,,759242,52,,evan-feature22,full_rf_b,,0
28,17326,53,,,,1,1,1.0,1.0,0.0,1.0,,0.0-55.0,,1.0,397.625,1.0,0.6916018270000001,1.0,0.69001187,0.0,0.261817804,0.0,0.40038635,True,,57618e8a25224a0006d3756e,,769461,53,,evan-feature22,full_rf_b,,0
29,17327,54,,,,1,1,1.0,1.0,0.0,1.0,,0.0-56.0,,1.0,609.23,1.0,0.641061544,1.0,0.71337992,0.0,0.277296461,1.0,0.47372791700000005,True,,57618e8a25224a0006d3756e,,779893,54,,evan-feature22,full_rf_b,,0
30,17328,55,,,,1,1,1.0,1.0,0.0,1.0,,0.0-57.0,,1.0,445.94,1.0,0.6082438520000001,1.0,0.708471106,0.0,0.28745137,0.0,0.564174476,True,,57618e8a25224a0006d3756e,,790178,55,,evan-feature22,full_rf_b,,0
31,17329,56,,,,1,1,1.0,1.0,-1.0,0.0,,0.0-58.0,,-1.0,534.33,1.0,0.6051112120000001,1.0,0.7118147229999999,1.0,0.272390611,0.0,0.5595149939999999,True,,57618e8a25224a0006d3756e,,800523,56,,evan-feature22,full_rf_b,,0
32,17330,57,,,,1,1,1.0,1.0,-1.0,0.0,,0.0-59.0,,-1.0,377.43,1.0,0.582420852,1.0,0.635867583,1.0,0.31089574,0.0,0.5227206520000001,True,,57618e8a25224a0006d3756e,,810705,57,,evan-feature22,full_rf_b,,0
33,17331,58,,,,2,2,0.0,0.0,-1.0,0.0,,0.0-60.0,,0.0,251.41,0.0,0.623195575,1.0,0.655026044,0.0,0.25,0.0,0.560387538,True,,57618e8a25224a0006d3756e,,820770,58,,evan-feature22,full_rf_b,,1
34,17332,59,,,,2,2,0.0,1.0,0.0,1.0,,0.0-61.0,,1.0,527.74,1.0,0.601889598,1.0,0.678198724,0.0,0.25,1.0,0.559922936,True,,57618e8a25224a0006d3756e,,831146,59,,evan-feature22,full_rf_b,,0
35,17333,60,,,,2,2,1.0,1.0,-1.0,0.0,,0.0-62.0,,-1.0,494.475,0.0,0.601259914,1.0,0.704681482,1.0,0.33908969299999997,1.0,0.505003715,True,,57618e8a25224a0006d3756e,,841469,60,,evan-feature22,full_rf_b,,0
36,17334,61,,,,1,1,1.0,1.0,-1.0,0.0,,0.0-63.0,,-1.0,412.745,1.0,0.59645454,1.0,0.710437172,1.0,0.327441879,0.0,0.391749613,True,,57618e8a25224a0006d3756e,,851706,61,,evan-feature22,full_rf_b,,1
37,17335,62,,,,1,1,1.0,1.0,0.0,1.0,,0.0-64.0,,1.0,585.655,1.0,0.529473,1.0,0.636758527,1.0,0.301338063,1.0,0.365661481,True,,57618e8a25224a0006d3756e,,862096,62,,evan-feature22,full_rf_b,,0
38,17336,63,,,,1,1,1.0,1.0,-1.0,0.0,,0.0-65.0,,-1.0,774.045,1.0,0.541657162,1.0,0.634541962,0.0,0.343535366,0.0,0.371763742,True,,57618e8a25224a0006d3756e,,872696,63,,evan-feature22,full_rf_b,,0
39,17337,64,,,,1,1,0.0,1.0,-1.0,0.0,,0.0-66.0,,0.0,422.5,0.0,0.5707533260000001,1.0,0.589121171,0.0,0.326428396,1.0,0.43961622899999997,True,,57618e8a25224a0006d3756e,,882953,64,,evan-feature22,full_rf_b,,0
40,17338,65,,,,1,1,1.0,0.0,0.0,1.0,,0.0-67.0,,0.0,337.345,1.0,0.5707533260000001,0.0,0.589121171,0.0,0.326428396,1.0,0.43961622899999997,True,,57618e8a25224a0006d3756e,,893119,65,,evan-feature22,full_rf_b,,0
41,17339,66,,,,1,1,0.0,0.0,0.0,1.0,,0.0-68.0,,0.0,418.495,0.0,0.506271295,0.0,0.641775594,0.0,0.37149690700000004,0.0,0.404330166,True,,57618e8a25224a0006d3756e,,903350,66,,evan-feature22,full_rf_b,,0
42,17340,67,,,,1,1,0.0,1.0,-1.0,0.0,,0.0-69.0,,0.0,2186.13,0.0,0.455642565,1.0,0.623605825,0.0,0.358753011,1.0,0.346174041,True,,57618e8a25224a0006d3756e,,915364,67,,evan-feature22,full_rf_b,,0
43,17341,68,,,,2,2,0.0,0.0,0.0,1.0,,0.0-70.0,,0.0,378.73,1.0,0.483677308,1.0,0.5904681070000001,0.0,0.402218411,0.0,0.35344697,True,,57618e8a25224a0006d3756e,,925572,68,,evan-feature22,full_rf_b,,1
44,17342,69,,,,2,2,1.0,0.0,-1.0,0.0,,0.0-71.0,,-1.0,545.525,0.0,0.394210977,1.0,0.558925494,1.0,0.540052017,0.0,0.35182128700000004,True,,57618e8a25224a0006d3756e,,935932,69,,evan-feature22,full_rf_b,,0
45,17343,70,,,,1,1,1.0,0.0,0.0,1.0,,0.0-72.0,,0.0,570.39,1.0,0.382300414,0.0,0.577670603,1.0,0.607608448,1.0,0.378261578,True,,57618e8a25224a0006d3756e,,946314,70,,evan-feature22,full_rf_b,,1
46,17344,71,,,,1,1,0.0,1.0,-1.0,0.0,,0.0-73.0,,0.0,560.4,0.0,0.357596762,1.0,0.5929076529999999,1.0,0.6579790010000001,0.0,0.401326777,True,,57618e8a25224a0006d3756e,,956686,71,,evan-feature22,full_rf_b,,0
47,17345,72,,,,1,1,0.0,1.0,0.0,1.0,,0.0-74.0,,1.0,263.685,0.0,0.362033495,1.0,0.582308608,1.0,0.649195052,1.0,0.355158505,True,,57618e8a25224a0006d3756e,,966776,72,,evan-feature22,full_rf_b,,0
48,17346,73,,,,1,1,0.0,1.0,0.0,1.0,,0.0-75.0,,1.0,405.62,0.0,0.369620635,1.0,0.669100864,1.0,0.706059111,1.0,0.362516241,True,,57618e8a25224a0006d3756e,,976998,73,,evan-feature22,full_rf_b,,0
49,17347,74,,,,1,1,0.0,1.0,0.0,1.0,,0.0-76.0,,1.0,337.49,0.0,0.41477751399999996,1.0,0.7284416779999999,1.0,0.7182656940000001,0.0,0.36228040899999997,True,,57618e8a25224a0006d3756e,,987139,74,,evan-feature22,full_rf_b,,0
50,17348,75,,,,1,1,0.0,0.0,-1.0,0.0,,0.0-77.0,,0.0,346.025,0.0,0.37675460299999997,0.0,0.703250285,1.0,0.75,1.0,0.461979164,True,,57618e8a25224a0006d3756e,,997302,75,,evan-feature22,full_rf_b,,0
51,17349,76,,,,1,1,0.0,1.0,-1.0,0.0,,0.0-78.0,,0.0,624.945,0.0,0.398716075,1.0,0.6723864890000001,0.0,0.674153818,1.0,0.519029516,True,,57618e8a25224a0006d3756e,,1007746,76,,evan-feature22,full_rf_b,,0
52,17350,77,,,,1,1,1.0,1.0,-1.0,0.0,,0.0-79.0,,-1.0,998.115,1.0,0.34677856700000004,1.0,0.69057175,1.0,0.6822438540000001,1.0,0.477292237,True,,57618e8a25224a0006d3756e,,1018568,77,,evan-feature22,full_rf_b,,0
53,17351,78,,,,2,2,0.0,1.0,0.0,1.0,,0.0-80.0,,1.0,593.54,1.0,0.28580469199999997,1.0,0.68408818,0.0,0.684207565,1.0,0.49780448299999996,True,,57618e8a25224a0006d3756e,,1028982,78,,evan-feature22,full_rf_b,,1
54,17353,80,,,,2,2,1.0,0.0,0.0,1.0,,0.0-82.0,,0.0,1819.02,0.0,0.25,1.0,0.7405808970000001,1.0,0.679614108,0.0,0.436436964,True,,57618e8a25224a0006d3756e,,1045169,80,,evan-feature22,full_rf_b,,0
55,17354,81,,,,2,2,1.0,0.0,0.0,1.0,,0.0-83.0,,0.0,586.51,1.0,0.29890393,1.0,0.730505706,1.0,0.7328203320000001,0.0,0.439256938,True,,57618e8a25224a0006d3756e,,1055575,81,,evan-feature22,full_rf_b,,0
56,17355,82,,,,1,1,1.0,1.0,-1.0,0.0,,0.0-84.0,,-1.0,295.4,1.0,0.326762398,1.0,0.7148059609999999,1.0,0.75,0.0,0.44389608799999997,True,,57618e8a25224a0006d3756e,,1065680,82,,evan-feature22,full_rf_b,,1
57,17356,83,,,,2,2,0.0,0.0,0.0,1.0,,0.0-85.0,,0.0,299.295,0.0,0.295168515,1.0,0.739760854,0.0,0.719947008,0.0,0.35277284600000003,True,,57618e8a25224a0006d3756e,,1075802,83,,evan-feature22,full_rf_b,,1
58,17357,84,,,,2,2,0.0,0.0,0.0,1.0,,0.0-86.0,,0.0,468.355,0.0,0.25,1.0,0.70781482,0.0,0.75,0.0,0.286095925,True,,57618e8a25224a0006d3756e,,1086088,84,,evan-feature22,full_rf_b,,0
59,17358,85,,,,2,2,1.0,0.0,0.0,1.0,,0.0-87.0,,0.0,257.265,1.0,0.25638190899999996,1.0,0.704088163,1.0,0.75,0.0,0.26872601399999996,True,,57618e8a25224a0006d3756e,,1096157,85,,evan-feature22,full_rf_b,,0
60,17359,86,,,,2,2,1.0,1.0,-1.0,0.0,,0.0-88.0,,-1.0,590.935,0.0,0.271581126,1.0,0.669760107,1.0,0.733896663,1.0,0.273244572,True,,57618e8a25224a0006d3756e,,1106585,86,,evan-feature22,full_rf_b,,0
61,17360,87,,,,2,2,1.0,0.0,0.0,1.0,,0.0-89.0,,0.0,979.445,0.0,0.257144401,1.0,0.600575706,1.0,0.74488122,0.0,0.25,True,,57618e8a25224a0006d3756e,,1117403,87,,evan-feature22,full_rf_b,,0
62,17361,88,,,,2,2,0.0,0.0,0.0,1.0,,0.0-90.0,,0.0,651.15,1.0,0.25,0.0,0.616870026,0.0,0.723610234,0.0,0.25,True,,57618e8a25224a0006d3756e,,1127883,88,,evan-feature22,full_rf_b,,0
63,17362,89,,,,2,2,1.0,0.0,-1.0,0.0,,0.0-91.0,,-1.0,433.81,1.0,0.25,0.0,0.583540187,1.0,0.7041042559999999,0.0,0.285961995,True,,57618e8a25224a0006d3756e,,1138113,89,,evan-feature22,full_rf_b,,0
64,17363,90,,,,2,2,1.0,0.0,-1.0,0.0,,0.0-92.0,,-1.0,440.665,1.0,0.27254536,1.0,0.53875765,1.0,0.693783448,0.0,0.284961652,True,,57618e8a25224a0006d3756e,,1148358,90,,evan-feature22,full_rf_b,,0
65,17364,91,,,,1,1,1.0,1.0,-1.0,0.0,,0.0-93.0,,-1.0,583.02,1.0,0.25,1.0,0.548431252,1.0,0.734221895,0.0,0.279445214,True,,57618e8a25224a0006d3756e,,1158748,91,,evan-feature22,full_rf_b,,1
66,17365,92,,,,1,1,0.0,0.0,0.0,1.0,,0.0-94.0,,0.0,993.855,0.0,0.258640684,0.0,0.545878066,0.0,0.725245965,1.0,0.31487537,True,,57618e8a25224a0006d3756e,,1169575,92,,evan-feature22,full_rf_b,,0
67,17366,93,,,,1,1,0.0,1.0,0.0,1.0,,0.0-95.0,,1.0,485.445,0.0,0.251103711,1.0,0.5776290629999999,1.0,0.696320133,0.0,0.317831047,True,,57618e8a25224a0006d3756e,,1179877,93,,evan-feature22,full_rf_b,,0
68,17367,94,,,,1,1,1.0,1.0,0.0,1.0,,0.0-96.0,,1.0,493.095,1.0,0.276630292,1.0,0.617329858,1.0,0.73838088,0.0,0.261471582,True,,57618e8a25224a0006d3756e,,1190201,94,,evan-feature22,full_rf_b,,0
69,17368,95,,,,1,1,0.0,0.0,0.0,1.0,,0.0-97.0,,0.0,367.325,0.0,0.297716424,0.0,0.618863717,0.0,0.7402358259999999,1.0,0.262600834,True,,57618e8a25224a0006d3756e,,1200374,95,,evan-feature22,full_rf_b,,0
70,17369,96,,,,1,1,0.0,0.0,-1.0,0.0,,0.0-98.0,,0.0,268.125,0.0,0.290935512,0.0,0.695370945,1.0,0.706570507,1.0,0.280030553,True,,57618e8a25224a0006d3756e,,1210470,96,,evan-feature22,full_rf_b,,0
71,17370,97,,,,1,1,1.0,0.0,0.0,1.0,,0.0-99.0,,0.0,615.785,1.0,0.25,0.0,0.6465277079999999,1.0,0.67766682,0.0,0.25,True,,57618e8a25224a0006d3756e,,1220891,97,,evan-feature22,full_rf_b,,0
72,17371,98,,,,1,1,0.0,1.0,-1.0,0.0,,0.0-100.0,,0.0,475.55,0.0,0.26463816,1.0,0.636100213,1.0,0.646048507,0.0,0.265607101,True,,57618e8a25224a0006d3756e,,1231190,98,,evan-feature22,full_rf_b,,0
73,17372,99,,,,1,1,0.0,0.0,-1.0,0.0,,0.0-101.0,,0.0,294.33,0.0,0.314340707,0.0,0.667795927,0.0,0.613630805,0.0,0.25,True,,57618e8a25224a0006d3756e,,1241281,99,,evan-feature22,full_rf_b,,0
74,17373,100,,,,1,1,0.0,1.0,0.0,1.0,,0.0-102.0,,1.0,379.055,0.0,0.28685784,1.0,0.6622549529999999,1.0,0.652154117,0.0,0.25,True,,57618e8a25224a0006d3756e,,1251454,100,,evan-feature22,full_rf_b,,0
75,17374,101,,,,1,1,0.0,1.0,0.0,1.0,,0.0-103.0,,1.0,335.12,0.0,0.304106554,1.0,0.631289538,1.0,0.707041942,0.0,0.29314237,True,,57618e8a25224a0006d3756e,,1261603,101,,evan-feature22,full_rf_b,,0
76,17375,102,,,,1,1,0.0,1.0,0.0,1.0,,0.0-104.0,,1.0,368.69,0.0,0.304806932,1.0,0.571167718,0.0,0.680472346,0.0,0.25,True,,57618e8a25224a0006d3756e,,1271792,102,,evan-feature22,full_rf_b,,0
77,17376,103,,,,1,1,1.0,1.0,0.0,1.0,,0.0-105.0,,1.0,1047.43,1.0,0.37919861,1.0,0.5724849710000001,1.0,0.705638003,0.0,0.30179300600000003,True,,57618e8a25224a0006d3756e,,1282635,103,,evan-feature22,full_rf_b,,0
78,17377,104,,,,1,1,0.0,0.0,0.0,1.0,,0.0-106.0,,0.0,818.61,0.0,0.464277969,0.0,0.554034373,1.0,0.7372627340000001,1.0,0.264699741,True,,57618e8a25224a0006d3756e,,1293272,104,,evan-feature22,full_rf_b,,0
79,17378,105,,,,1,1,1.0,0.0,0.0,1.0,,0.0-107.0,,0.0,578.975,1.0,0.465104323,0.0,0.530793115,1.0,0.75,0.0,0.31683071,True,,57618e8a25224a0006d3756e,,1303680,105,,evan-feature22,full_rf_b,,0
80,17379,106,,,,1,1,0.0,0.0,-1.0,0.0,,0.0-108.0,,0.0,563.78,0.0,0.465104323,0.0,0.530793115,1.0,0.75,0.0,0.31683071,True,,57618e8a25224a0006d3756e,,1314047,106,,evan-feature22,full_rf_b,,0
81,17380,107,,,,1,1,1.0,1.0,-1.0,0.0,,0.0-109.0,,-1.0,481.195,1.0,0.46833986,1.0,0.570249239,1.0,0.7244472590000001,0.0,0.364114163,True,,57618e8a25224a0006d3756e,,1324330,107,,evan-feature22,full_rf_b,,0
82,17381,108,,,,2,2,1.0,0.0,-1.0,0.0,,0.0-110.0,,-1.0,636.5,0.0,0.445444024,1.0,0.649673355,1.0,0.6845441290000001,0.0,0.300660449,True,,57618e8a25224a0006d3756e,,1334797,108,,evan-feature22,full_rf_b,,1
83,17382,109,,,,1,1,0.0,0.0,-1.0,0.0,,0.0-111.0,,0.0,432.56,0.0,0.39909721299999995,0.0,0.6715179509999999,1.0,0.742310028,1.0,0.35496088299999995,True,,57618e8a25224a0006d3756e,,1345044,109,,evan-feature22,full_rf_b,,1
84,17383,110,,,,1,1,0.0,1.0,0.0,1.0,,0.0-112.0,,1.0,387.895,0.0,0.37956104799999996,1.0,0.694725302,0.0,0.7181651309999999,0.0,0.38726906299999997,True,,57618e8a25224a0006d3756e,,1355274,110,,evan-feature22,full_rf_b,,0
85,17384,111,,,,1,1,1.0,1.0,0.0,1.0,,0.0-113.0,,1.0,423.22,1.0,0.404995034,1.0,0.724375412,0.0,0.6910946859999999,0.0,0.387187347,True,,57618e8a25224a0006d3756e,,1365510,111,,evan-feature22,full_rf_b,,0
86,17385,112,,,,1,1,1.0,1.0,-1.0,0.0,,0.0-114.0,,-1.0,454.23,1.0,0.461740803,1.0,0.75,0.0,0.75,0.0,0.34872038200000005,True,,57618e8a25224a0006d3756e,,1375771,112,,evan-feature22,full_rf_b,,0
87,17386,113,,,,2,2,1.0,0.0,-1.0,0.0,,0.0-115.0,,-1.0,300.715,1.0,0.43821380600000004,1.0,0.738833273,1.0,0.728286963,0.0,0.399538128,True,,57618e8a25224a0006d3756e,,1385889,113,,evan-feature22,full_rf_b,,1
88,17387,114,,,,1,1,0.0,1.0,0.0,1.0,,0.0-116.0,,1.0,307.29,0.0,0.41709882,1.0,0.736666736,1.0,0.75,0.0,0.389095584,True,,57618e8a25224a0006d3756e,,1396012,114,,evan-feature22,full_rf_b,,1
89,17388,115,,,,1,1,0.0,1.0,0.0,1.0,,0.0-117.0,,1.0,334.14,0.0,0.39749009799999996,1.0,0.744320029,0.0,0.75,1.0,0.363848678,True,,57618e8a25224a0006d3756e,,1406152,115,,evan-feature22,full_rf_b,,0
90,17389,116,,,,1,1,0.0,1.0,-1.0,0.0,,0.0-118.0,,0.0,527.89,0.0,0.392653706,1.0,0.75,1.0,0.75,0.0,0.384386976,True,,57618e8a25224a0006d3756e,,1416501,116,,evan-feature22,full_rf_b,,0
91,17390,117,,,,1,1,0.0,1.0,0.0,1.0,,0.0-119.0,,1.0,644.45,0.0,0.31190902600000003,1.0,0.75,1.0,0.732413819,1.0,0.413082932,True,,57618e8a25224a0006d3756e,,1426961,117,,evan-feature22,full_rf_b,,0
92,17391,118,,,,1,1,0.0,0.0,-1.0,0.0,,0.0-120.0,,0.0,546.005,0.0,0.366917648,0.0,0.740073855,1.0,0.75,0.0,0.352861979,True,,57618e8a25224a0006d3756e,,1437326,118,,evan-feature22,full_rf_b,,0
93,17392,119,,,,1,1,1.0,1.0,-1.0,0.0,,0.0-121.0,,-1.0,335.86,1.0,0.3645172,1.0,0.721770713,0.0,0.75,0.0,0.404074511,True,,57618e8a25224a0006d3756e,,1447496,119,,evan-feature22,full_rf_b,,0
94,17393,120,,,,2,2,1.0,0.0,-1.0,0.0,,0.0-122.0,,-1.0,398.08,0.0,0.35205600299999995,1.0,0.68983859,1.0,0.739735447,0.0,0.366895945,True,,57618e8a25224a0006d3756e,,1457717,120,,evan-feature22,full_rf_b,,1
95,17394,121,,,,2,2,1.0,1.0,-1.0,0.0,,0.0-123.0,,-1.0,565.565,0.0,0.40998722600000004,1.0,0.720859127,1.0,0.673854955,1.0,0.368528541,True,,57618e8a25224a0006d3756e,,1468093,121,,evan-feature22,full_rf_b,,0
96,17395,122,,,,1,1,1.0,0.0,-1.0,0.0,,0.0-124.0,,-1.0,352.815,1.0,0.353625316,0.0,0.75,0.0,0.695605473,0.0,0.38303674200000004,True,,57618e8a25224a0006d3756e,,1478264,122,,evan-feature22,full_rf_b,,1
97,17396,123,,,,1,1,1.0,1.0,-1.0,0.0,,0.0-125.0,,-1.0,522.98,1.0,0.359216989,1.0,0.75,0.0,0.6987915090000001,1.0,0.35169046200000004,True,,57618e8a25224a0006d3756e,,1488615,123,,evan-feature22,full_rf_b,,0
98,17397,124,,,,1,1,0.0,0.0,-1.0,0.0,,0.0-126.0,,0.0,450.0,0.0,0.35834496899999996,0.0,0.75,1.0,0.707067742,0.0,0.416763636,True,,57618e8a25224a0006d3756e,,1498874,124,,evan-feature22,full_rf_b,,0
99,17398,125,,,,1,1,0.0,1.0,0.0,1.0,,0.0-127.0,,1.0,586.22,0.0,0.38741613799999997,1.0,0.7177369570000001,0.0,0.734902455,0.0,0.49438664299999996,True,,57618e8a25224a0006d3756e,,1509289,125,,evan-feature22,full_rf_b,,0
100,17399,126,,,,1,1,1.0,1.0,-1.0,0.0,,0.0-128.0,,-1.0,717.09,1.0,0.405255252,1.0,0.7300466640000001,1.0,0.7027748070000001,0.0,0.504359668,True,,57618e8a25224a0006d3756e,,1519812,126,,evan-feature22,full_rf_b,,0
101,17400,127,,,,2,2,0.0,1.0,-1.0,0.0,,0.0-129.0,,0.0,384.695,0.0,0.40697073,1.0,0.7260142190000001,0.0,0.724461982,1.0,0.522779179,True,,57618e8a25224a0006d3756e,,1529994,127,,evan-feature22,full_rf_b,,1
102,17401,128,,,,2,2,1.0,0.0,-1.0,0.0,,0.0-130.0,,-1.0,412.235,1.0,0.43906215299999996,1.0,0.7252802340000001,1.0,0.719079934,0.0,0.5712990579999999,True,,57618e8a25224a0006d3756e,,1540243,128,,evan-feature22,full_rf_b,,0
103,17402,129,,,,1,1,1.0,0.0,0.0,1.0,,0.0-131.0,,0.0,430.44,1.0,0.4076705,0.0,0.73280499,0.0,0.681313127,1.0,0.523891346,True,,57618e8a25224a0006d3756e,,1550485,129,,evan-feature22,full_rf_b,,1
104,17403,130,,,,1,1,0.0,1.0,0.0,1.0,,0.0-132.0,,1.0,558.25,0.0,0.399102911,1.0,0.730498344,1.0,0.661080239,0.0,0.46742603,True,,57618e8a25224a0006d3756e,,1560864,130,,evan-feature22,full_rf_b,,0
105,17404,131,,,,1,1,0.0,1.0,0.0,1.0,,0.0-133.0,,1.0,515.035,0.0,0.356477282,1.0,0.712296395,1.0,0.641812684,1.0,0.44868414,True,,57618e8a25224a0006d3756e,,1571196,131,,evan-feature22,full_rf_b,,0
106,17405,132,,,,1,1,0.0,1.0,-1.0,0.0,,0.0-134.0,,0.0,795.805,0.0,0.462760722,1.0,0.692349322,0.0,0.700947931,0.0,0.394680266,True,,57618e8a25224a0006d3756e,,1581795,132,,evan-feature22,full_rf_b,,0
107,17406,133,,,,1,1,0.0,1.0,-1.0,0.0,,0.0-135.0,,0.0,432.85,0.0,0.422306413,1.0,0.718375916,1.0,0.706340917,1.0,0.367787185,True,,57618e8a25224a0006d3756e,,1592030,133,,evan-feature22,full_rf_b,,0
108,17408,135,,,,1,1,1.0,1.0,-1.0,0.0,,0.0-137.0,,-1.0,863.22,1.0,0.4582233,1.0,0.643834117,1.0,0.75,0.0,0.39615823299999997,True,,57618e8a25224a0006d3756e,,1607520,135,,evan-feature22,full_rf_b,,0
109,17409,136,,,,2,2,1.0,1.0,-1.0,0.0,,0.0-138.0,,-1.0,367.41,0.0,0.43813437899999996,0.0,0.651283804,1.0,0.729674191,1.0,0.37711048,True,,57618e8a25224a0006d3756e,,1617714,136,,evan-feature22,full_rf_b,,1
110,17410,137,,,,2,2,0.0,1.0,-1.0,0.0,,0.0-139.0,,0.0,378.035,0.0,0.471199094,0.0,0.6470010979999999,0.0,0.715008097,1.0,0.410656191,True,,57618e8a25224a0006d3756e,,1627892,137,,evan-feature22,full_rf_b,,0
111,17411,138,,,,2,2,1.0,1.0,-1.0,0.0,,0.0-140.0,,-1.0,332.27,1.0,0.42486406,0.0,0.629771829,1.0,0.6550939960000001,1.0,0.459093873,True,,57618e8a25224a0006d3756e,,1638065,138,,evan-feature22,full_rf_b,,0
112,17412,139,,,,2,2,0.0,0.0,-1.0,0.0,,0.0-141.0,,0.0,319.04,0.0,0.4803197,0.0,0.645842715,0.0,0.6421749920000001,0.0,0.443092151,True,,57618e8a25224a0006d3756e,,1648199,139,,evan-feature22,full_rf_b,,0
113,17413,140,,,,2,2,0.0,1.0,0.0,1.0,,0.0-142.0,,1.0,1450.025,0.0,0.521848997,0.0,0.735801074,0.0,0.6691348460000001,1.0,0.45259351600000003,True,,57618e8a25224a0006d3756e,,1659454,140,,evan-feature22,full_rf_b,,0
114,17414,141,,,,2,2,0.0,1.0,-1.0,0.0,,0.0-143.0,,0.0,959.08,1.0,0.49565621299999996,0.0,0.742400847,0.0,0.661512553,1.0,0.483110831,True,,57618e8a25224a0006d3756e,,1670221,141,,evan-feature22,full_rf_b,,0
115,17415,142,,,,2,2,0.0,0.0,-1.0,0.0,,0.0-144.0,,0.0,473.135,1.0,0.521564361,1.0,0.731078632,0.0,0.6774886809999999,0.0,0.483263956,True,,57618e8a25224a0006d3756e,,1680500,142,,evan-feature22,full_rf_b,,0
116,17416,143,,,,2,2,0.0,0.0,-1.0,0.0,,0.0-145.0,,0.0,320.495,1.0,0.558893102,1.0,0.719810023,0.0,0.67461031,0.0,0.499349834,True,,57618e8a25224a0006d3756e,,1690647,143,,evan-feature22,full_rf_b,,0
117,17417,144,,,,2,2,0.0,0.0,-1.0,0.0,,0.0-146.0,,0.0,711.27,1.0,0.611031046,1.0,0.75,0.0,0.688072995,0.0,0.5321422729999999,True,,57618e8a25224a0006d3756e,,1701169,144,,evan-feature22,full_rf_b,,0
118,17418,145,,,,2,2,0.0,1.0,0.0,1.0,,0.0-147.0,,1.0,456.22,0.0,0.633223941,0.0,0.713567728,0.0,0.75,1.0,0.48185314700000004,True,,57618e8a25224a0006d3756e,,1711423,145,,evan-feature22,full_rf_b,,0
119,17419,146,,,,2,2,1.0,0.0,-1.0,0.0,,0.0-148.0,,-1.0,414.43,1.0,0.664001694,1.0,0.705509768,1.0,0.75,0.0,0.500211065,True,,57618e8a25224a0006d3756e,,1721666,146,,evan-feature22,full_rf_b,,0
120,17420,147,,,,1,1,1.0,0.0,-1.0,0.0,,0.0-149.0,,-1.0,293.19,1.0,0.664001694,0.0,0.705509768,1.0,0.75,0.0,0.500211065,True,,57618e8a25224a0006d3756e,,1731786,147,,evan-feature22,full_rf_b,,1
121,17421,148,,,,1,1,1.0,1.0,-1.0,0.0,,0.0-150.0,,-1.0,300.695,1.0,0.696508041,1.0,0.71066027,1.0,0.717028709,1.0,0.49792991,True,,57618e8a25224a0006d3756e,,1741919,148,,evan-feature22,full_rf_b,,0
122,17422,149,,,,2,2,0.0,0.0,0.0,1.0,,0.0-151.0,,0.0,832.295,0.0,0.699883272,1.0,0.75,0.0,0.713543895,0.0,0.496962643,True,,57618e8a25224a0006d3756e,,1752557,149,,evan-feature22,full_rf_b,,1
123,17423,150,,,,2,2,1.0,1.0,0.0,1.0,,0.0-152.0,,1.0,354.105,1.0,0.741163419,1.0,0.75,1.0,0.64691024,1.0,0.513858197,True,,57618e8a25224a0006d3756e,,1762728,150,,evan-feature22,full_rf_b,,0
124,17424,151,,,,2,2,1.0,1.0,0.0,1.0,,0.0-153.0,,1.0,288.785,1.0,0.75,0.0,0.70816558,1.0,0.594499079,1.0,0.48502124,True,,57618e8a25224a0006d3756e,,1772844,151,,evan-feature22,full_rf_b,,0
125,17425,152,,,,2,2,1.0,1.0,-1.0,0.0,,0.0-154.0,,-1.0,3603.495,1.0,0.75,0.0,0.721848901,1.0,0.62197249,1.0,0.48263586399999997,True,,57618e8a25224a0006d3756e,,1786266,152,,evan-feature22,full_rf_b,,0
126,17426,153,,,,2,2,0.0,1.0,-1.0,0.0,,0.0-155.0,,0.0,595.98,1.0,0.75,0.0,0.74813071,0.0,0.584357161,1.0,0.411477782,True,,57618e8a25224a0006d3756e,,1796666,153,,evan-feature22,full_rf_b,,0
127,17427,154,,,,2,2,1.0,0.0,-1.0,0.0,,0.0-156.0,,-1.0,529.975,1.0,0.75,0.0,0.75,1.0,0.52287236,0.0,0.488290656,True,,57618e8a25224a0006d3756e,,1807027,154,,evan-feature22,full_rf_b,,0
128,17428,155,,,,1,1,1.0,0.0,-1.0,0.0,,0.0-157.0,,-1.0,496.335,1.0,0.75,0.0,0.75,0.0,0.544321581,1.0,0.53143059,True,,57618e8a25224a0006d3756e,,1817337,155,,evan-feature22,full_rf_b,,1
129,17429,156,,,,2,2,0.0,0.0,-1.0,0.0,,0.0-158.0,,0.0,1074.245,1.0,0.726754564,0.0,0.75,0.0,0.5129306370000001,0.0,0.530592445,True,,57618e8a25224a0006d3756e,,1828224,156,,evan-feature22,full_rf_b,,1
130,17430,157,,,,2,2,0.0,1.0,0.0,1.0,,0.0-159.0,,1.0,2624.385,1.0,0.75,1.0,0.7392590729999999,0.0,0.479875835,1.0,0.547007051,True,,57618e8a25224a0006d3756e,,1840674,157,,evan-feature22,full_rf_b,,0
131,17431,158,,,,SLOW,SLOW,,,0.0,1.0,,0.0-160.0,,-3.0,,1.0,0.75,1.0,0.7393376979999999,1.0,0.546045419,1.0,0.541267353,True,,57618e8a25224a0006d3756e,,1846494,158,,evan-feature22,full_rf_b,,1
132,17432,159,,,,2,2,1.0,1.0,-1.0,0.0,,0.0-161.0,,-1.0,1054.29,1.0,0.75,1.0,0.75,1.0,0.485725895,1.0,0.527625395,True,,57618e8a25224a0006d3756e,,1857363,159,,evan-feature22,full_rf_b,,1
133,17433,160,,,,1,1,1.0,1.0,0.0,1.0,,0.0-162.0,,1.0,1375.015,1.0,0.75,1.0,0.725087974,0.0,0.488603595,1.0,0.504019206,True,,57618e8a25224a0006d3756e,,1868553,160,,evan-feature22,full_rf_b,,1
134,17434,161,,,,1,1,1.0,1.0,-1.0,0.0,,0.0-163.0,,-1.0,699.925,1.0,0.745504295,1.0,0.75,1.0,0.452379914,1.0,0.50131194,True,,57618e8a25224a0006d3756e,,1879066,161,,evan-feature22,full_rf_b,,0
135,17435,162,,,,1,1,0.0,1.0,0.0,1.0,,0.0-164.0,,1.0,336.64,0.0,0.728513874,1.0,0.75,1.0,0.44125567200000004,0.0,0.531454591,True,,57618e8a25224a0006d3756e,,1889215,162,,evan-feature22,full_rf_b,,0
136,17436,163,,,,1,1,1.0,1.0,-1.0,0.0,,0.0-165.0,,-1.0,1158.76,1.0,0.73790804,1.0,0.75,1.0,0.413036656,1.0,0.524619035,True,,57618e8a25224a0006d3756e,,1900183,163,,evan-feature22,full_rf_b,,0
137,17437,164,,,,1,1,0.0,1.0,-1.0,0.0,,0.0-166.0,,0.0,433.08,0.0,0.7080961309999999,1.0,0.708666865,0.0,0.431915581,0.0,0.481819489,True,,57618e8a25224a0006d3756e,,1910416,164,,evan-feature22,full_rf_b,,0
138,17438,165,,,,1,1,1.0,1.0,-1.0,0.0,,0.0-167.0,,-1.0,1045.19,1.0,0.721378003,1.0,0.71605913,0.0,0.36642387,1.0,0.5036739929999999,True,,57618e8a25224a0006d3756e,,1921276,165,,evan-feature22,full_rf_b,,0
139,17439,166,,,,2,2,1.0,0.0,0.0,1.0,,0.0-168.0,,0.0,1201.16,0.0,0.7340618959999999,0.0,0.699323252,1.0,0.35298046299999997,0.0,0.511241692,True,,57618e8a25224a0006d3756e,,1932292,166,,evan-feature22,full_rf_b,,1
140,17440,167,,,,2,2,0.0,0.0,0.0,1.0,,0.0-169.0,,0.0,885.835,1.0,0.75,1.0,0.70412698,0.0,0.380734814,0.0,0.529580116,True,,57618e8a25224a0006d3756e,,1942990,167,,evan-feature22,full_rf_b,,0
141,17441,168,,,,2,2,1.0,0.0,0.0,1.0,,0.0-170.0,,0.0,640.985,1.0,0.7436654909999999,1.0,0.711182751,1.0,0.41125331,0.0,0.49554405,True,,57618e8a25224a0006d3756e,,1953429,168,,evan-feature22,full_rf_b,,0
142,17442,169,,,,2,2,0.0,0.0,-1.0,0.0,,0.0-171.0,,0.0,775.79,1.0,0.731607915,0.0,0.651774583,0.0,0.35688023,0.0,0.45194491600000003,True,,57618e8a25224a0006d3756e,,1964031,169,,evan-feature22,full_rf_b,,0
143,17443,170,,,,2,2,0.0,1.0,0.0,1.0,,0.0-172.0,,1.0,616.025,1.0,0.75,1.0,0.75,0.0,0.283145374,1.0,0.528608005,True,,57618e8a25224a0006d3756e,,1974463,170,,evan-feature22,full_rf_b,,0
144,17444,171,,,,2,2,0.0,0.0,-1.0,0.0,,0.0-173.0,,0.0,650.84,0.0,0.7491416890000001,1.0,0.7423785959999999,0.0,0.29135870399999997,0.0,0.498888318,True,,57618e8a25224a0006d3756e,,1984943,171,,evan-feature22,full_rf_b,,0
145,17445,172,,,,2,2,0.0,1.0,0.0,1.0,,0.0-174.0,,1.0,1031.91,1.0,0.708569387,0.0,0.717682277,0.0,0.294421699,1.0,0.493838163,True,,57618e8a25224a0006d3756e,,1995789,172,,evan-feature22,full_rf_b,,0
146,17446,173,,,,2,2,1.0,0.0,-1.0,0.0,,0.0-175.0,,-1.0,658.95,1.0,0.75,1.0,0.7383382159999999,1.0,0.356098707,0.0,0.442533405,True,,57618e8a25224a0006d3756e,,2006249,173,,evan-feature22,full_rf_b,,0
147,17447,174,,,,2,2,0.0,0.0,-1.0,0.0,,0.0-176.0,,0.0,675.29,1.0,0.744527075,1.0,0.75,0.0,0.334127506,0.0,0.393165805,True,,57618e8a25224a0006d3756e,,2016754,174,,evan-feature22,full_rf_b,,0
148,17448,175,,,,2,2,0.0,0.0,-1.0,0.0,,0.0-177.0,,0.0,1727.47,0.0,0.75,1.0,0.75,0.0,0.33571021799999995,0.0,0.350393962,True,,57618e8a25224a0006d3756e,,2028290,175,,evan-feature22,full_rf_b,,0
149,17449,176,,,,2,2,0.0,1.0,0.0,1.0,,0.0-178.0,,1.0,947.485,1.0,0.75,0.0,0.75,0.0,0.313628297,1.0,0.36349657399999996,True,,57618e8a25224a0006d3756e,,2039032,176,,evan-feature22,full_rf_b,,0
150,17450,177,,,,2,2,1.0,0.0,-1.0,0.0,,0.0-179.0,,-1.0,952.8,1.0,0.75,1.0,0.734284182,1.0,0.262667667,0.0,0.380199119,True,,57618e8a25224a0006d3756e,,2049828,177,,evan-feature22,full_rf_b,,0
151,17451,178,,,,2,2,0.0,0.0,-1.0,0.0,,0.0-180.0,,0.0,740.45,0.0,0.75,1.0,0.75,0.0,0.25,0.0,0.394494013,True,,57618e8a25224a0006d3756e,,2060391,178,,evan-feature22,full_rf_b,,0
152,17452,179,,,,2,2,1.0,1.0,-1.0,0.0,,0.0-181.0,,-1.0,415.91,1.0,0.722298145,1.0,0.7357822340000001,1.0,0.25,1.0,0.319142121,True,,57618e8a25224a0006d3756e,,2070629,179,,evan-feature22,full_rf_b,,0
153,17453,180,,,,1,1,1.0,1.0,-1.0,0.0,,0.0-182.0,,-1.0,605.015,1.0,0.73149275,1.0,0.724276446,1.0,0.305856907,1.0,0.281315057,True,,57618e8a25224a0006d3756e,,2081063,180,,evan-feature22,full_rf_b,,1
154,17454,181,,,,2,2,1.0,0.0,-1.0,0.0,,0.0-183.0,,-1.0,715.495,1.0,0.7458732690000001,1.0,0.7336382459999999,1.0,0.272571964,0.0,0.266021999,True,,57618e8a25224a0006d3756e,,2091576,181,,evan-feature22,full_rf_b,,1
155,17455,182,,,,1,1,1.0,1.0,0.0,1.0,,0.0-184.0,,1.0,343.12,1.0,0.705579037,1.0,0.720778292,0.0,0.320238144,0.0,0.30971744,True,,57618e8a25224a0006d3756e,,2101734,182,,evan-feature22,full_rf_b,,1
156,17456,183,,,,1,1,1.0,1.0,0.0,1.0,,0.0-185.0,,1.0,401.37,1.0,0.700425648,1.0,0.7198784009999999,0.0,0.272590393,0.0,0.304182931,True,,57618e8a25224a0006d3756e,,2111962,183,,evan-feature22,full_rf_b,,0
157,17457,184,,,,1,1,0.0,1.0,0.0,1.0,,0.0-186.0,,1.0,252.535,0.0,0.735590785,1.0,0.722714973,0.0,0.25,0.0,0.323421091,True,,57618e8a25224a0006d3756e,,2122022,184,,evan-feature22,full_rf_b,,0
158,17458,185,,,,1,1,0.0,0.0,0.0,1.0,,0.0-187.0,,0.0,542.035,0.0,0.724807662,0.0,0.63146213,0.0,0.36836492600000004,1.0,0.34592153299999995,True,,57618e8a25224a0006d3756e,,2132386,185,,evan-feature22,full_rf_b,,0
159,17459,186,,,,1,1,1.0,1.0,-1.0,0.0,,0.0-188.0,,-1.0,409.305,1.0,0.7352796909999999,1.0,0.555111392,0.0,0.36003922,1.0,0.31433779999999995,True,,57618e8a25224a0006d3756e,,2142615,186,,evan-feature22,full_rf_b,,0
160,17460,187,notice,,,,,,,,,,0.0-189.0,"{""Q0"":""no""}",,9107.0,,,,,,,,,True,,57618e8a25224a0006d3756e,,2151725,187,Q,survey-text,full_rf_b,,1
161,17461,188,track1,,[1],,,,,,,,0.0-190.0,"{""Q0"":""no""}",,3581.0,,,,,,,,,True,,57618e8a25224a0006d3756e,,2155309,188,Q,evan-quiz,full_rf_b,,1
162,17462,189,track2,,[1],,,,,,,,0.0-191.0,"{""Q0"":""no""}",,7014.0,,,,,,,,,True,,57618e8a25224a0006d3756e,,2162325,189,Q,evan-quiz,full_rf_b,,1
163,17463,190,strat,,,,,,,,,,0.0-192.0,"{""Q0"":""I found the left side tended to be more fruitful""}",,14421.0,,,,,,,,,True,,57618e8a25224a0006d3756e,,2176748,190,Q,survey-text,full_rf_b,,1
