,index,Unnamed: 0,Q_name,button_pressed,choice_idxs,chosen_pos,chosen_state,chosen_state_f_1_outcome,chosen_state_f_2_outcome,f_1_reward,f_2_reward,incor_questions,internal_node_id,responses,reward_received,rt,s_1_f_1_outcome,s_1_f_1_prob,s_1_f_2_outcome,s_1_f_2_prob,s_2_f_1_outcome,s_2_f_1_prob,s_2_f_2_outcome,s_2_f_2_prob,safe_first,stimulus,subjectID,success,time_elapsed,trial_index,trial_num,trial_type,version,view_history,switching
0,2799,25,,,,1,1,1.0,1.0,0.0,-1.0,,0.0-27.0,,-1.0,1733.085,1.0,0.6,1.0,0.6,1.0,0.4,1.0,0.4,False,,5be7752e66e3d1000103957f,,537679,25,,evan-feature22,full_pf_a,,0
1,2800,26,,,,1,1,0.0,0.0,0.0,-1.0,,0.0-28.0,,0.0,1876.45,0.0,0.608053294,0.0,0.63424552,0.0,0.397152172,0.0,0.347069101,False,,5be7752e66e3d1000103957f,,549317,26,,evan-feature22,full_pf_a,,0
2,2801,27,,,,1,1,1.0,1.0,0.0,-1.0,,0.0-29.0,,-1.0,1427.03,1.0,0.642237155,1.0,0.648566321,0.0,0.389407674,0.0,0.285525717,False,,5be7752e66e3d1000103957f,,560511,27,,evan-feature22,full_pf_a,,0
3,2802,28,,,,2,2,0.0,1.0,0.0,-1.0,,0.0-30.0,,-1.0,1584.655,1.0,0.661086576,1.0,0.630492543,0.0,0.399058924,1.0,0.25,False,,5be7752e66e3d1000103957f,,571854,28,,evan-feature22,full_pf_a,,1
4,2803,29,,,,2,2,1.0,1.0,0.0,-1.0,,0.0-31.0,,-1.0,3395.935,0.0,0.631324137,0.0,0.6269842929999999,1.0,0.38734784299999997,1.0,0.25,False,,5be7752e66e3d1000103957f,,585008,29,,evan-feature22,full_pf_a,,0
5,2804,30,,,,1,1,1.0,0.0,0.0,-1.0,,0.0-32.0,,0.0,2501.92,1.0,0.6381991370000001,0.0,0.68987999,0.0,0.384107265,1.0,0.271332943,False,,5be7752e66e3d1000103957f,,597269,30,,evan-feature22,full_pf_a,,1
6,2805,31,,,,1,1,0.0,1.0,0.0,-1.0,,0.0-33.0,,-1.0,1264.935,0.0,0.66034901,1.0,0.742641349,1.0,0.360225629,0.0,0.25,False,,5be7752e66e3d1000103957f,,608293,31,,evan-feature22,full_pf_a,,0
7,2806,32,,,,1,1,0.0,1.0,1.0,0.0,,0.0-34.0,,0.0,3891.1,0.0,0.638612418,1.0,0.75,0.0,0.367273939,0.0,0.25,False,,5be7752e66e3d1000103957f,,621944,32,,evan-feature22,full_pf_a,,0
8,2807,33,,,,SLOW,SLOW,,,0.0,-1.0,,0.0-35.0,,-3.0,,0.0,0.624340629,1.0,0.75,0.0,0.425829545,1.0,0.25,False,,5be7752e66e3d1000103957f,,627749,33,,evan-feature22,full_pf_a,,1
9,2808,34,,,,1,1,1.0,1.0,0.0,-1.0,,0.0-36.0,,-1.0,1139.945,1.0,0.621999804,1.0,0.75,0.0,0.368609357,0.0,0.25,False,,5be7752e66e3d1000103957f,,638649,34,,evan-feature22,full_pf_a,,1
10,2809,35,,,,2,2,0.0,0.0,1.0,0.0,,0.0-37.0,,0.0,797.915,0.0,0.62666403,1.0,0.75,0.0,0.311151498,0.0,0.25,False,,5be7752e66e3d1000103957f,,649206,35,,evan-feature22,full_pf_a,,1
11,2810,36,,,,1,1,0.0,1.0,1.0,0.0,,0.0-38.0,,0.0,785.33,0.0,0.6819650009999999,1.0,0.75,0.0,0.310763048,0.0,0.25,False,,5be7752e66e3d1000103957f,,659754,36,,evan-feature22,full_pf_a,,1
12,2811,37,,,,2,2,0.0,0.0,0.0,-1.0,,0.0-39.0,,0.0,938.12,1.0,0.740626951,1.0,0.75,0.0,0.25,0.0,0.25,False,,5be7752e66e3d1000103957f,,670453,37,,evan-feature22,full_pf_a,,1
13,2812,38,,,,2,2,0.0,1.0,0.0,-1.0,,0.0-40.0,,-1.0,824.745,0.0,0.739599242,1.0,0.742034978,0.0,0.25397114600000004,1.0,0.25,False,,5be7752e66e3d1000103957f,,681037,38,,evan-feature22,full_pf_a,,0
14,2813,39,,,,2,2,1.0,0.0,0.0,-1.0,,0.0-41.0,,0.0,804.835,0.0,0.732341315,0.0,0.72735643,1.0,0.25,0.0,0.25,False,,5be7752e66e3d1000103957f,,691599,39,,evan-feature22,full_pf_a,,0
15,2814,40,,,,2,2,0.0,1.0,0.0,-1.0,,0.0-42.0,,-1.0,598.325,1.0,0.7062287770000001,1.0,0.75,0.0,0.29002151,1.0,0.288256649,False,,5be7752e66e3d1000103957f,,701957,40,,evan-feature22,full_pf_a,,0
16,2815,41,,,,2,2,0.0,0.0,1.0,0.0,,0.0-43.0,,0.0,586.245,1.0,0.7086029209999999,1.0,0.75,0.0,0.274129113,0.0,0.262851608,False,,5be7752e66e3d1000103957f,,712301,41,,evan-feature22,full_pf_a,,0
17,2816,42,,,,2,2,0.0,1.0,0.0,-1.0,,0.0-44.0,,-1.0,847.765,0.0,0.669189651,0.0,0.727614338,0.0,0.298444036,1.0,0.296944518,False,,5be7752e66e3d1000103957f,,722908,42,,evan-feature22,full_pf_a,,0
18,2817,43,,,,1,1,1.0,0.0,1.0,0.0,,0.0-45.0,,1.0,1007.57,1.0,0.6819912929999999,0.0,0.7179434290000001,0.0,0.265003961,0.0,0.28157921199999997,False,,5be7752e66e3d1000103957f,,733676,43,,evan-feature22,full_pf_a,,1
19,2818,44,,,,1,1,1.0,1.0,1.0,0.0,,0.0-46.0,,1.0,561.95,1.0,0.665275002,1.0,0.723065271,0.0,0.260414971,0.0,0.30973870000000003,False,,5be7752e66e3d1000103957f,,744001,44,,evan-feature22,full_pf_a,,0
20,2819,45,,,,2,2,0.0,0.0,0.0,-1.0,,0.0-47.0,,0.0,650.86,1.0,0.6660593260000001,1.0,0.728032907,0.0,0.30922817,0.0,0.338778608,False,,5be7752e66e3d1000103957f,,754410,45,,evan-feature22,full_pf_a,,1
21,2820,46,,,,2,2,0.0,0.0,0.0,-1.0,,0.0-48.0,,0.0,652.915,1.0,0.702068785,1.0,0.6528750879999999,0.0,0.287329608,0.0,0.35789613200000003,False,,5be7752e66e3d1000103957f,,764823,46,,evan-feature22,full_pf_a,,0
22,2821,47,,,,2,2,0.0,0.0,0.0,-1.0,,0.0-49.0,,0.0,708.28,1.0,0.651939787,1.0,0.636725589,0.0,0.284834488,0.0,0.358563756,False,,5be7752e66e3d1000103957f,,775289,47,,evan-feature22,full_pf_a,,0
23,2822,48,,,,2,2,1.0,0.0,0.0,-1.0,,0.0-50.0,,0.0,579.775,1.0,0.67573929,0.0,0.612550049,1.0,0.37130387600000003,0.0,0.383542402,False,,5be7752e66e3d1000103957f,,785631,48,,evan-feature22,full_pf_a,,0
24,2823,49,,,,2,2,0.0,1.0,0.0,-1.0,,0.0-51.0,,-1.0,750.92,1.0,0.620753801,1.0,0.60513644,0.0,0.385529434,1.0,0.340361743,False,,5be7752e66e3d1000103957f,,796142,49,,evan-feature22,full_pf_a,,0
25,2824,50,,,,1,1,1.0,0.0,1.0,0.0,,0.0-52.0,,1.0,620.47,1.0,0.673564893,0.0,0.672437924,0.0,0.292955382,1.0,0.337633795,False,,5be7752e66e3d1000103957f,,806521,50,,evan-feature22,full_pf_a,,1
26,2825,51,,,,2,2,0.0,0.0,0.0,-1.0,,0.0-53.0,,0.0,663.64,1.0,0.6749427,1.0,0.724197502,0.0,0.32391132100000003,0.0,0.350995264,False,,5be7752e66e3d1000103957f,,816943,51,,evan-feature22,full_pf_a,,1
27,2826,52,,,,2,2,0.0,0.0,0.0,-1.0,,0.0-54.0,,0.0,834.57,1.0,0.6940159379999999,1.0,0.75,0.0,0.31710554399999996,0.0,0.413450341,False,,5be7752e66e3d1000103957f,,827536,52,,evan-feature22,full_pf_a,,0
28,2827,53,,,,2,2,0.0,0.0,0.0,-1.0,,0.0-55.0,,0.0,714.235,1.0,0.6916018270000001,1.0,0.69001187,0.0,0.261817804,0.0,0.40038635,False,,5be7752e66e3d1000103957f,,838010,53,,evan-feature22,full_pf_a,,0
29,2828,54,,,,2,2,1.0,0.0,0.0,-1.0,,0.0-56.0,,0.0,581.44,1.0,0.641061544,0.0,0.71337992,1.0,0.277296461,0.0,0.47372791700000005,False,,5be7752e66e3d1000103957f,,848352,54,,evan-feature22,full_pf_a,,0
30,2829,55,,,,2,2,0.0,0.0,0.0,-1.0,,0.0-57.0,,0.0,712.31,1.0,0.6082438520000001,1.0,0.708471106,0.0,0.28745137,0.0,0.564174476,False,,5be7752e66e3d1000103957f,,858824,55,,evan-feature22,full_pf_a,,0
31,2830,56,,,,1,1,1.0,1.0,1.0,0.0,,0.0-58.0,,1.0,650.575,1.0,0.6051112120000001,1.0,0.7118147229999999,1.0,0.272390611,0.0,0.5595149939999999,False,,5be7752e66e3d1000103957f,,869237,56,,evan-feature22,full_pf_a,,1
32,2831,57,,,,1,1,1.0,1.0,1.0,0.0,,0.0-59.0,,1.0,493.425,1.0,0.582420852,1.0,0.635867583,0.0,0.31089574,0.0,0.5227206520000001,False,,5be7752e66e3d1000103957f,,879489,57,,evan-feature22,full_pf_a,,0
33,2832,58,,,,1,1,1.0,1.0,1.0,0.0,,0.0-60.0,,1.0,928.14,1.0,0.623195575,1.0,0.655026044,0.0,0.25,1.0,0.560387538,False,,5be7752e66e3d1000103957f,,890179,58,,evan-feature22,full_pf_a,,0
34,2833,59,,,,2,2,0.0,1.0,0.0,-1.0,,0.0-61.0,,-1.0,759.015,0.0,0.601889598,1.0,0.678198724,0.0,0.25,1.0,0.559922936,False,,5be7752e66e3d1000103957f,,900698,59,,evan-feature22,full_pf_a,,1
35,2834,60,,,,1,1,1.0,1.0,1.0,0.0,,0.0-62.0,,1.0,655.555,1.0,0.601259914,1.0,0.704681482,0.0,0.33908969299999997,1.0,0.505003715,False,,5be7752e66e3d1000103957f,,911114,60,,evan-feature22,full_pf_a,,1
36,2835,61,,,,1,1,1.0,1.0,1.0,0.0,,0.0-63.0,,1.0,503.34,1.0,0.59645454,1.0,0.710437172,1.0,0.327441879,0.0,0.391749613,False,,5be7752e66e3d1000103957f,,921380,61,,evan-feature22,full_pf_a,,0
37,2836,62,,,,2,2,1.0,1.0,0.0,-1.0,,0.0-64.0,,-1.0,678.16,0.0,0.529473,1.0,0.636758527,1.0,0.301338063,1.0,0.365661481,False,,5be7752e66e3d1000103957f,,931820,62,,evan-feature22,full_pf_a,,1
38,2837,63,,,,1,1,1.0,0.0,1.0,0.0,,0.0-65.0,,1.0,559.095,1.0,0.541657162,0.0,0.634541962,0.0,0.343535366,1.0,0.371763742,False,,5be7752e66e3d1000103957f,,942138,63,,evan-feature22,full_pf_a,,1
39,2838,64,,,,1,1,1.0,1.0,1.0,0.0,,0.0-66.0,,1.0,656.44,1.0,0.5707533260000001,1.0,0.589121171,0.0,0.326428396,0.0,0.43961622899999997,False,,5be7752e66e3d1000103957f,,952553,64,,evan-feature22,full_pf_a,,0
40,2839,65,,,,2,2,0.0,0.0,0.0,-1.0,,0.0-67.0,,0.0,705.975,0.0,0.5707533260000001,1.0,0.589121171,0.0,0.326428396,0.0,0.43961622899999997,False,,5be7752e66e3d1000103957f,,963021,65,,evan-feature22,full_pf_a,,1
41,2840,66,,,,2,2,0.0,0.0,0.0,-1.0,,0.0-68.0,,0.0,428.54,1.0,0.506271295,1.0,0.641775594,0.0,0.37149690700000004,0.0,0.404330166,False,,5be7752e66e3d1000103957f,,973209,66,,evan-feature22,full_pf_a,,0
42,2841,67,,,,1,1,1.0,0.0,1.0,0.0,,0.0-69.0,,1.0,537.235,1.0,0.455642565,0.0,0.623605825,0.0,0.358753011,0.0,0.346174041,False,,5be7752e66e3d1000103957f,,983504,67,,evan-feature22,full_pf_a,,1
43,2842,68,,,,2,2,1.0,1.0,0.0,-1.0,,0.0-70.0,,-1.0,567.91,0.0,0.483677308,1.0,0.5904681070000001,1.0,0.402218411,1.0,0.35344697,False,,5be7752e66e3d1000103957f,,993832,68,,evan-feature22,full_pf_a,,1
44,2843,69,,,,1,1,0.0,0.0,1.0,0.0,,0.0-71.0,,0.0,622.02,0.0,0.394210977,0.0,0.558925494,1.0,0.540052017,0.0,0.35182128700000004,False,,5be7752e66e3d1000103957f,,1004213,69,,evan-feature22,full_pf_a,,1
45,2844,70,,,,2,2,1.0,0.0,0.0,-1.0,,0.0-72.0,,0.0,690.57,1.0,0.382300414,1.0,0.577670603,1.0,0.607608448,0.0,0.378261578,False,,5be7752e66e3d1000103957f,,1014663,70,,evan-feature22,full_pf_a,,1
46,2845,71,,,,1,1,1.0,0.0,1.0,0.0,,0.0-73.0,,1.0,643.89,1.0,0.357596762,0.0,0.5929076529999999,1.0,0.6579790010000001,0.0,0.401326777,False,,5be7752e66e3d1000103957f,,1025067,71,,evan-feature22,full_pf_a,,1
47,2846,72,,,,2,2,1.0,0.0,0.0,-1.0,,0.0-74.0,,0.0,672.935,0.0,0.362033495,1.0,0.582308608,1.0,0.649195052,0.0,0.355158505,False,,5be7752e66e3d1000103957f,,1035499,72,,evan-feature22,full_pf_a,,1
48,2847,73,,,,2,2,1.0,1.0,0.0,-1.0,,0.0-75.0,,-1.0,427.235,0.0,0.369620635,1.0,0.669100864,1.0,0.706059111,1.0,0.362516241,False,,5be7752e66e3d1000103957f,,1045687,73,,evan-feature22,full_pf_a,,0
49,2848,74,,,,2,2,1.0,1.0,0.0,-1.0,,0.0-76.0,,-1.0,782.365,1.0,0.41477751399999996,1.0,0.7284416779999999,1.0,0.7182656940000001,1.0,0.36228040899999997,False,,5be7752e66e3d1000103957f,,1056231,74,,evan-feature22,full_pf_a,,0
50,2849,75,,,,1,1,0.0,1.0,1.0,0.0,,0.0-77.0,,0.0,595.315,0.0,0.37675460299999997,1.0,0.703250285,1.0,0.75,1.0,0.461979164,False,,5be7752e66e3d1000103957f,,1066587,75,,evan-feature22,full_pf_a,,1
51,2850,76,,,,1,1,0.0,1.0,1.0,0.0,,0.0-78.0,,0.0,556.105,0.0,0.398716075,1.0,0.6723864890000001,1.0,0.674153818,1.0,0.519029516,False,,5be7752e66e3d1000103957f,,1076903,76,,evan-feature22,full_pf_a,,0
52,2851,77,,,,2,2,1.0,1.0,1.0,0.0,,0.0-79.0,,1.0,539.065,0.0,0.34677856700000004,1.0,0.69057175,1.0,0.6822438540000001,1.0,0.477292237,False,,5be7752e66e3d1000103957f,,1087204,77,,evan-feature22,full_pf_a,,1
53,2852,78,,,,1,1,1.0,0.0,0.0,-1.0,,0.0-80.0,,0.0,959.68,1.0,0.28580469199999997,0.0,0.68408818,0.0,0.684207565,0.0,0.49780448299999996,False,,5be7752e66e3d1000103957f,,1097924,78,,evan-feature22,full_pf_a,,1
54,2854,80,,,,2,2,0.0,0.0,0.0,-1.0,,0.0-82.0,,0.0,2035.44,0.0,0.25,1.0,0.7405808970000001,0.0,0.679614108,0.0,0.436436964,False,,5be7752e66e3d1000103957f,,1123152,80,,evan-feature22,full_pf_a,,1
55,2855,81,,,,2,2,0.0,0.0,0.0,-1.0,,0.0-83.0,,0.0,817.72,0.0,0.29890393,1.0,0.730505706,0.0,0.7328203320000001,0.0,0.439256938,False,,5be7752e66e3d1000103957f,,1133728,81,,evan-feature22,full_pf_a,,0
56,2856,82,,,,2,2,1.0,0.0,1.0,0.0,,0.0-84.0,,1.0,678.51,1.0,0.326762398,0.0,0.7148059609999999,1.0,0.75,0.0,0.44389608799999997,False,,5be7752e66e3d1000103957f,,1144167,82,,evan-feature22,full_pf_a,,0
57,2857,83,,,,2,2,1.0,0.0,0.0,-1.0,,0.0-85.0,,0.0,967.02,0.0,0.295168515,1.0,0.739760854,1.0,0.719947008,0.0,0.35277284600000003,False,,5be7752e66e3d1000103957f,,1154896,83,,evan-feature22,full_pf_a,,0
58,2858,84,,,,2,2,0.0,1.0,0.0,-1.0,,0.0-86.0,,-1.0,902.46,0.0,0.25,1.0,0.70781482,0.0,0.75,1.0,0.286095925,False,,5be7752e66e3d1000103957f,,1165557,84,,evan-feature22,full_pf_a,,0
59,2859,85,,,,2,2,0.0,1.0,0.0,-1.0,,0.0-87.0,,-1.0,723.495,1.0,0.25638190899999996,1.0,0.704088163,0.0,0.75,1.0,0.26872601399999996,False,,5be7752e66e3d1000103957f,,1176040,85,,evan-feature22,full_pf_a,,0
60,2860,86,,,,2,2,0.0,0.0,1.0,0.0,,0.0-88.0,,0.0,670.315,1.0,0.271581126,1.0,0.669760107,0.0,0.733896663,0.0,0.273244572,False,,5be7752e66e3d1000103957f,,1186469,86,,evan-feature22,full_pf_a,,0
61,2861,87,,,,1,1,0.0,1.0,0.0,-1.0,,0.0-89.0,,-1.0,1059.715,0.0,0.257144401,1.0,0.600575706,1.0,0.74488122,0.0,0.25,False,,5be7752e66e3d1000103957f,,1197289,87,,evan-feature22,full_pf_a,,1
62,2862,88,,,,2,2,1.0,1.0,0.0,-1.0,,0.0-90.0,,-1.0,441.01,0.0,0.25,1.0,0.616870026,1.0,0.723610234,1.0,0.25,False,,5be7752e66e3d1000103957f,,1207489,88,,evan-feature22,full_pf_a,,1
63,2863,89,,,,2,2,1.0,0.0,1.0,0.0,,0.0-91.0,,1.0,575.045,0.0,0.25,0.0,0.583540187,1.0,0.7041042559999999,0.0,0.285961995,False,,5be7752e66e3d1000103957f,,1217822,89,,evan-feature22,full_pf_a,,0
64,2864,90,,,,2,2,0.0,1.0,1.0,0.0,,0.0-92.0,,0.0,686.72,0.0,0.27254536,1.0,0.53875765,0.0,0.693783448,1.0,0.284961652,False,,5be7752e66e3d1000103957f,,1228267,90,,evan-feature22,full_pf_a,,0
65,2865,91,,,,2,2,1.0,0.0,1.0,0.0,,0.0-93.0,,1.0,403.92,0.0,0.25,1.0,0.548431252,1.0,0.734221895,0.0,0.279445214,False,,5be7752e66e3d1000103957f,,1238434,91,,evan-feature22,full_pf_a,,0
66,2866,92,,,,1,1,1.0,1.0,0.0,-1.0,,0.0-94.0,,-1.0,1017.46,1.0,0.258640684,1.0,0.545878066,0.0,0.725245965,0.0,0.31487537,False,,5be7752e66e3d1000103957f,,1249211,92,,evan-feature22,full_pf_a,,1
67,2867,93,,,,2,2,1.0,0.0,0.0,-1.0,,0.0-95.0,,0.0,848.905,0.0,0.251103711,0.0,0.5776290629999999,1.0,0.696320133,0.0,0.317831047,False,,5be7752e66e3d1000103957f,,1259819,93,,evan-feature22,full_pf_a,,1
68,2868,94,,,,2,2,1.0,1.0,0.0,-1.0,,0.0-96.0,,-1.0,793.155,0.0,0.276630292,0.0,0.617329858,1.0,0.73838088,1.0,0.261471582,False,,5be7752e66e3d1000103957f,,1270375,94,,evan-feature22,full_pf_a,,0
69,2869,95,,,,1,1,0.0,0.0,0.0,-1.0,,0.0-97.0,,0.0,767.78,0.0,0.297716424,0.0,0.618863717,1.0,0.7402358259999999,1.0,0.262600834,False,,5be7752e66e3d1000103957f,,1280902,95,,evan-feature22,full_pf_a,,1
70,2870,96,,,,2,2,1.0,1.0,1.0,0.0,,0.0-98.0,,1.0,568.565,1.0,0.290935512,1.0,0.695370945,1.0,0.706570507,1.0,0.280030553,False,,5be7752e66e3d1000103957f,,1291232,96,,evan-feature22,full_pf_a,,1
71,2871,97,,,,1,1,1.0,0.0,0.0,-1.0,,0.0-99.0,,0.0,944.31,1.0,0.25,0.0,0.6465277079999999,1.0,0.67766682,0.0,0.25,False,,5be7752e66e3d1000103957f,,1301939,97,,evan-feature22,full_pf_a,,1
72,2872,98,,,,2,2,1.0,0.0,1.0,0.0,,0.0-100.0,,1.0,705.255,0.0,0.26463816,1.0,0.636100213,1.0,0.646048507,0.0,0.265607101,False,,5be7752e66e3d1000103957f,,1312402,98,,evan-feature22,full_pf_a,,1
73,2873,99,,,,2,2,0.0,0.0,1.0,0.0,,0.0-101.0,,0.0,669.905,0.0,0.314340707,0.0,0.667795927,0.0,0.613630805,0.0,0.25,False,,5be7752e66e3d1000103957f,,1322830,99,,evan-feature22,full_pf_a,,0
74,2874,100,,,,1,1,0.0,0.0,0.0,-1.0,,0.0-102.0,,0.0,801.435,0.0,0.28685784,0.0,0.6622549529999999,1.0,0.652154117,1.0,0.25,False,,5be7752e66e3d1000103957f,,1333390,100,,evan-feature22,full_pf_a,,1
75,2875,101,,,,1,1,1.0,0.0,0.0,-1.0,,0.0-103.0,,0.0,794.67,1.0,0.304106554,0.0,0.631289538,0.0,0.707041942,0.0,0.29314237,False,,5be7752e66e3d1000103957f,,1343944,101,,evan-feature22,full_pf_a,,0
76,2876,102,,,,1,1,1.0,0.0,0.0,-1.0,,0.0-104.0,,0.0,571.92,1.0,0.304806932,0.0,0.571167718,1.0,0.680472346,0.0,0.25,False,,5be7752e66e3d1000103957f,,1354275,102,,evan-feature22,full_pf_a,,0
77,2877,103,,,,1,1,0.0,0.0,0.0,-1.0,,0.0-105.0,,0.0,499.805,0.0,0.37919861,0.0,0.5724849710000001,0.0,0.705638003,1.0,0.30179300600000003,False,,5be7752e66e3d1000103957f,,1364534,103,,evan-feature22,full_pf_a,,0
78,2878,104,,,,1,1,1.0,0.0,0.0,-1.0,,0.0-106.0,,0.0,513.12,1.0,0.464277969,0.0,0.554034373,0.0,0.7372627340000001,0.0,0.264699741,False,,5be7752e66e3d1000103957f,,1374806,104,,evan-feature22,full_pf_a,,0
79,2879,105,,,,1,1,1.0,0.0,0.0,-1.0,,0.0-107.0,,0.0,453.4,1.0,0.465104323,0.0,0.530793115,1.0,0.75,0.0,0.31683071,False,,5be7752e66e3d1000103957f,,1385018,105,,evan-feature22,full_pf_a,,0
80,2880,106,,,,2,2,1.0,0.0,1.0,0.0,,0.0-108.0,,1.0,648.35,0.0,0.465104323,1.0,0.530793115,1.0,0.75,0.0,0.31683071,False,,5be7752e66e3d1000103957f,,1395425,106,,evan-feature22,full_pf_a,,1
81,2881,107,,,,2,2,1.0,0.0,1.0,0.0,,0.0-109.0,,1.0,503.755,0.0,0.46833986,0.0,0.570249239,1.0,0.7244472590000001,0.0,0.364114163,False,,5be7752e66e3d1000103957f,,1405689,107,,evan-feature22,full_pf_a,,0
82,2882,108,,,,2,2,1.0,0.0,1.0,0.0,,0.0-110.0,,1.0,564.895,1.0,0.445444024,1.0,0.649673355,1.0,0.6845441290000001,0.0,0.300660449,False,,5be7752e66e3d1000103957f,,1416013,108,,evan-feature22,full_pf_a,,0
83,2883,109,,,,2,2,1.0,1.0,1.0,0.0,,0.0-111.0,,1.0,588.365,0.0,0.39909721299999995,1.0,0.6715179509999999,1.0,0.742310028,1.0,0.35496088299999995,False,,5be7752e66e3d1000103957f,,1426361,109,,evan-feature22,full_pf_a,,0
84,2884,110,,,,1,1,0.0,0.0,0.0,-1.0,,0.0-112.0,,0.0,721.055,0.0,0.37956104799999996,0.0,0.694725302,1.0,0.7181651309999999,1.0,0.38726906299999997,False,,5be7752e66e3d1000103957f,,1436842,110,,evan-feature22,full_pf_a,,1
85,2885,111,,,,1,1,0.0,0.0,0.0,-1.0,,0.0-113.0,,0.0,662.62,0.0,0.404995034,0.0,0.724375412,0.0,0.6910946859999999,1.0,0.387187347,False,,5be7752e66e3d1000103957f,,1447265,111,,evan-feature22,full_pf_a,,0
86,2886,112,,,,2,2,1.0,0.0,1.0,0.0,,0.0-114.0,,1.0,850.515,1.0,0.461740803,0.0,0.75,1.0,0.75,0.0,0.34872038200000005,False,,5be7752e66e3d1000103957f,,1457876,112,,evan-feature22,full_pf_a,,1
87,2887,113,,,,2,2,0.0,1.0,1.0,0.0,,0.0-115.0,,0.0,1367.595,0.0,0.43821380600000004,0.0,0.738833273,0.0,0.728286963,1.0,0.399538128,False,,5be7752e66e3d1000103957f,,1469003,113,,evan-feature22,full_pf_a,,0
88,2888,114,,,,1,1,0.0,1.0,0.0,-1.0,,0.0-116.0,,-1.0,782.18,0.0,0.41709882,1.0,0.736666736,0.0,0.75,0.0,0.389095584,False,,5be7752e66e3d1000103957f,,1479544,114,,evan-feature22,full_pf_a,,1
89,2889,115,,,,2,2,0.0,0.0,0.0,-1.0,,0.0-117.0,,0.0,715.745,1.0,0.39749009799999996,1.0,0.744320029,0.0,0.75,0.0,0.363848678,False,,5be7752e66e3d1000103957f,,1490019,115,,evan-feature22,full_pf_a,,1
90,2890,116,,,,1,1,1.0,0.0,1.0,0.0,,0.0-118.0,,1.0,894.67,1.0,0.392653706,0.0,0.75,1.0,0.75,1.0,0.384386976,False,,5be7752e66e3d1000103957f,,1500674,116,,evan-feature22,full_pf_a,,1
91,2891,117,,,,2,2,1.0,1.0,0.0,-1.0,,0.0-119.0,,-1.0,679.825,1.0,0.31190902600000003,1.0,0.75,1.0,0.732413819,1.0,0.413082932,False,,5be7752e66e3d1000103957f,,1511118,117,,evan-feature22,full_pf_a,,1
92,2892,118,,,,1,1,1.0,1.0,1.0,0.0,,0.0-120.0,,1.0,761.87,1.0,0.366917648,1.0,0.740073855,1.0,0.75,0.0,0.352861979,False,,5be7752e66e3d1000103957f,,1521640,118,,evan-feature22,full_pf_a,,1
93,2893,119,,,,1,1,1.0,1.0,1.0,0.0,,0.0-121.0,,1.0,773.025,1.0,0.3645172,1.0,0.721770713,1.0,0.75,0.0,0.404074511,False,,5be7752e66e3d1000103957f,,1532174,119,,evan-feature22,full_pf_a,,0
94,2894,120,,,,1,1,1.0,1.0,1.0,0.0,,0.0-122.0,,1.0,609.55,1.0,0.35205600299999995,1.0,0.68983859,1.0,0.739735447,0.0,0.366895945,False,,5be7752e66e3d1000103957f,,1542543,120,,evan-feature22,full_pf_a,,0
95,2895,121,,,,1,1,0.0,1.0,1.0,0.0,,0.0-123.0,,0.0,648.1,0.0,0.40998722600000004,1.0,0.720859127,1.0,0.673854955,0.0,0.368528541,False,,5be7752e66e3d1000103957f,,1552951,121,,evan-feature22,full_pf_a,,0
96,2896,122,,,,1,1,0.0,1.0,1.0,0.0,,0.0-124.0,,0.0,601.39,0.0,0.353625316,1.0,0.75,1.0,0.695605473,1.0,0.38303674200000004,False,,5be7752e66e3d1000103957f,,1563311,122,,evan-feature22,full_pf_a,,0
97,2897,123,,,,2,2,1.0,0.0,1.0,0.0,,0.0-125.0,,1.0,522.035,0.0,0.359216989,1.0,0.75,1.0,0.6987915090000001,0.0,0.35169046200000004,False,,5be7752e66e3d1000103957f,,1573592,123,,evan-feature22,full_pf_a,,1
98,2898,124,,,,2,2,1.0,0.0,1.0,0.0,,0.0-126.0,,1.0,617.26,0.0,0.35834496899999996,1.0,0.75,1.0,0.707067742,0.0,0.416763636,False,,5be7752e66e3d1000103957f,,1583971,124,,evan-feature22,full_pf_a,,0
99,2899,125,,,,2,2,0.0,0.0,0.0,-1.0,,0.0-127.0,,0.0,662.37,0.0,0.38741613799999997,0.0,0.7177369570000001,0.0,0.734902455,0.0,0.49438664299999996,False,,5be7752e66e3d1000103957f,,1594392,125,,evan-feature22,full_pf_a,,0
100,2900,126,,,,2,2,1.0,1.0,1.0,0.0,,0.0-128.0,,1.0,468.97,1.0,0.405255252,0.0,0.7300466640000001,1.0,0.7027748070000001,1.0,0.504359668,False,,5be7752e66e3d1000103957f,,1604624,126,,evan-feature22,full_pf_a,,0
101,2901,127,,,,2,2,0.0,1.0,1.0,0.0,,0.0-129.0,,0.0,658.635,1.0,0.40697073,1.0,0.7260142190000001,0.0,0.724461982,1.0,0.522779179,False,,5be7752e66e3d1000103957f,,1615044,127,,evan-feature22,full_pf_a,,0
102,2902,128,,,,1,1,0.0,1.0,1.0,0.0,,0.0-130.0,,0.0,885.995,0.0,0.43906215299999996,1.0,0.7252802340000001,0.0,0.719079934,1.0,0.5712990579999999,False,,5be7752e66e3d1000103957f,,1625692,128,,evan-feature22,full_pf_a,,1
103,2903,129,,,,2,2,1.0,1.0,0.0,-1.0,,0.0-131.0,,-1.0,1383.275,0.0,0.4076705,1.0,0.73280499,1.0,0.681313127,1.0,0.523891346,False,,5be7752e66e3d1000103957f,,1636834,129,,evan-feature22,full_pf_a,,1
104,2904,130,,,,2,2,1.0,1.0,0.0,-1.0,,0.0-132.0,,-1.0,552.34,0.0,0.399102911,0.0,0.730498344,1.0,0.661080239,1.0,0.46742603,False,,5be7752e66e3d1000103957f,,1647145,130,,evan-feature22,full_pf_a,,0
105,2905,131,,,,1,1,0.0,0.0,0.0,-1.0,,0.0-133.0,,0.0,562.2,0.0,0.356477282,0.0,0.712296395,1.0,0.641812684,0.0,0.44868414,False,,5be7752e66e3d1000103957f,,1657467,131,,evan-feature22,full_pf_a,,1
106,2906,132,,,,2,2,0.0,0.0,1.0,0.0,,0.0-134.0,,0.0,899.95,1.0,0.462760722,1.0,0.692349322,0.0,0.700947931,0.0,0.394680266,False,,5be7752e66e3d1000103957f,,1668127,132,,evan-feature22,full_pf_a,,1
107,2907,133,,,,1,1,1.0,0.0,1.0,0.0,,0.0-135.0,,1.0,679.05,1.0,0.422306413,0.0,0.718375916,1.0,0.706340917,0.0,0.367787185,False,,5be7752e66e3d1000103957f,,1678566,133,,evan-feature22,full_pf_a,,1
108,2909,135,,,,1,1,0.0,1.0,1.0,0.0,,0.0-137.0,,0.0,1488.645,0.0,0.4582233,1.0,0.643834117,1.0,0.75,1.0,0.39615823299999997,False,,5be7752e66e3d1000103957f,,1719677,135,,evan-feature22,full_pf_a,,0
109,2910,136,,,,2,2,1.0,1.0,1.0,0.0,,0.0-138.0,,1.0,498.09,0.0,0.43813437899999996,1.0,0.651283804,1.0,0.729674191,1.0,0.37711048,False,,5be7752e66e3d1000103957f,,1729933,136,,evan-feature22,full_pf_a,,1
110,2911,137,,,,2,2,1.0,1.0,1.0,0.0,,0.0-139.0,,1.0,605.98,0.0,0.471199094,1.0,0.6470010979999999,1.0,0.715008097,1.0,0.410656191,False,,5be7752e66e3d1000103957f,,1740298,137,,evan-feature22,full_pf_a,,0
111,2912,138,,,,2,2,0.0,1.0,1.0,0.0,,0.0-140.0,,0.0,690.165,0.0,0.42486406,1.0,0.629771829,0.0,0.6550939960000001,1.0,0.459093873,False,,5be7752e66e3d1000103957f,,1750750,138,,evan-feature22,full_pf_a,,0
112,2913,139,,,,2,2,0.0,1.0,1.0,0.0,,0.0-141.0,,0.0,520.235,0.0,0.4803197,1.0,0.645842715,0.0,0.6421749920000001,1.0,0.443092151,False,,5be7752e66e3d1000103957f,,1761030,139,,evan-feature22,full_pf_a,,0
113,2914,140,,,,2,2,0.0,1.0,0.0,-1.0,,0.0-142.0,,-1.0,1317.5,0.0,0.521848997,1.0,0.735801074,0.0,0.6691348460000001,1.0,0.45259351600000003,False,,5be7752e66e3d1000103957f,,1772106,140,,evan-feature22,full_pf_a,,0
114,2915,141,,,,2,2,0.0,0.0,1.0,0.0,,0.0-143.0,,0.0,588.41,0.0,0.49565621299999996,0.0,0.742400847,0.0,0.661512553,0.0,0.483110831,False,,5be7752e66e3d1000103957f,,1782455,141,,evan-feature22,full_pf_a,,0
115,2916,142,,,,2,2,1.0,0.0,1.0,0.0,,0.0-144.0,,1.0,508.56,1.0,0.521564361,1.0,0.731078632,1.0,0.6774886809999999,0.0,0.483263956,False,,5be7752e66e3d1000103957f,,1792722,142,,evan-feature22,full_pf_a,,0
116,2917,143,,,,2,2,1.0,0.0,1.0,0.0,,0.0-145.0,,1.0,536.915,1.0,0.558893102,1.0,0.719810023,1.0,0.67461031,0.0,0.499349834,False,,5be7752e66e3d1000103957f,,1803019,143,,evan-feature22,full_pf_a,,0
117,2918,144,,,,2,2,0.0,1.0,1.0,0.0,,0.0-146.0,,0.0,443.52,1.0,0.611031046,1.0,0.75,0.0,0.688072995,1.0,0.5321422729999999,False,,5be7752e66e3d1000103957f,,1813221,144,,evan-feature22,full_pf_a,,0
118,2919,145,,,,2,2,1.0,1.0,0.0,-1.0,,0.0-147.0,,-1.0,389.3,1.0,0.633223941,1.0,0.713567728,1.0,0.75,1.0,0.48185314700000004,False,,5be7752e66e3d1000103957f,,1823372,145,,evan-feature22,full_pf_a,,0
119,2920,146,,,,2,2,1.0,0.0,1.0,0.0,,0.0-148.0,,1.0,341.565,0.0,0.664001694,1.0,0.705509768,1.0,0.75,0.0,0.500211065,False,,5be7752e66e3d1000103957f,,1833472,146,,evan-feature22,full_pf_a,,0
120,2921,147,,,,2,2,1.0,0.0,1.0,0.0,,0.0-149.0,,1.0,535.97,1.0,0.664001694,1.0,0.705509768,1.0,0.75,0.0,0.500211065,False,,5be7752e66e3d1000103957f,,1843766,147,,evan-feature22,full_pf_a,,0
121,2922,148,,,,2,2,0.0,0.0,1.0,0.0,,0.0-150.0,,0.0,507.555,1.0,0.696508041,1.0,0.71066027,0.0,0.717028709,0.0,0.49792991,False,,5be7752e66e3d1000103957f,,1854034,148,,evan-feature22,full_pf_a,,0
122,2923,149,,,,2,2,0.0,0.0,0.0,-1.0,,0.0-151.0,,0.0,1069.64,0.0,0.699883272,1.0,0.75,0.0,0.713543895,0.0,0.496962643,False,,5be7752e66e3d1000103957f,,1864863,149,,evan-feature22,full_pf_a,,0
123,2924,150,,,,2,2,0.0,1.0,0.0,-1.0,,0.0-152.0,,-1.0,475.9,1.0,0.741163419,1.0,0.75,0.0,0.64691024,1.0,0.513858197,False,,5be7752e66e3d1000103957f,,1875097,150,,evan-feature22,full_pf_a,,0
124,2925,151,,,,2,2,0.0,1.0,0.0,-1.0,,0.0-153.0,,-1.0,754.275,1.0,0.75,0.0,0.70816558,0.0,0.594499079,1.0,0.48502124,False,,5be7752e66e3d1000103957f,,1885611,151,,evan-feature22,full_pf_a,,0
125,2926,152,,,,2,2,1.0,1.0,1.0,0.0,,0.0-154.0,,1.0,1026.5,0.0,0.75,1.0,0.721848901,1.0,0.62197249,1.0,0.48263586399999997,False,,5be7752e66e3d1000103957f,,1896398,152,,evan-feature22,full_pf_a,,0
126,2927,153,,,,2,2,0.0,0.0,1.0,0.0,,0.0-155.0,,0.0,720.96,1.0,0.75,1.0,0.74813071,0.0,0.584357161,0.0,0.411477782,False,,5be7752e66e3d1000103957f,,1906877,153,,evan-feature22,full_pf_a,,0
127,2928,154,,,,1,1,1.0,1.0,1.0,0.0,,0.0-156.0,,1.0,698.365,1.0,0.75,1.0,0.75,0.0,0.52287236,0.0,0.488290656,False,,5be7752e66e3d1000103957f,,1917337,154,,evan-feature22,full_pf_a,,1
128,2929,155,,,,1,1,1.0,1.0,1.0,0.0,,0.0-157.0,,1.0,504.095,1.0,0.75,1.0,0.75,0.0,0.544321581,1.0,0.53143059,False,,5be7752e66e3d1000103957f,,1927603,155,,evan-feature22,full_pf_a,,0
129,2930,156,,,,1,1,1.0,1.0,1.0,0.0,,0.0-158.0,,1.0,660.315,1.0,0.726754564,1.0,0.75,1.0,0.5129306370000001,0.0,0.530592445,False,,5be7752e66e3d1000103957f,,1938022,156,,evan-feature22,full_pf_a,,0
130,2931,157,,,,2,2,0.0,1.0,0.0,-1.0,,0.0-159.0,,-1.0,843.9,1.0,0.75,1.0,0.7392590729999999,0.0,0.479875835,1.0,0.547007051,False,,5be7752e66e3d1000103957f,,1948625,157,,evan-feature22,full_pf_a,,1
131,2932,158,,,,2,2,1.0,1.0,0.0,-1.0,,0.0-160.0,,-1.0,738.565,0.0,0.75,1.0,0.7393376979999999,1.0,0.546045419,1.0,0.541267353,False,,5be7752e66e3d1000103957f,,1959124,158,,evan-feature22,full_pf_a,,0
132,2933,159,,,,1,1,1.0,1.0,1.0,0.0,,0.0-161.0,,1.0,618.145,1.0,0.75,1.0,0.75,0.0,0.485725895,1.0,0.527625395,False,,5be7752e66e3d1000103957f,,1969501,159,,evan-feature22,full_pf_a,,1
133,2934,160,,,,2,2,1.0,1.0,0.0,-1.0,,0.0-162.0,,-1.0,866.105,0.0,0.75,1.0,0.725087974,1.0,0.488603595,1.0,0.504019206,False,,5be7752e66e3d1000103957f,,1980126,160,,evan-feature22,full_pf_a,,1
134,2935,161,,,,1,1,0.0,0.0,1.0,0.0,,0.0-163.0,,0.0,512.265,0.0,0.745504295,0.0,0.75,0.0,0.452379914,0.0,0.50131194,False,,5be7752e66e3d1000103957f,,1990396,161,,evan-feature22,full_pf_a,,1
135,2936,162,,,,2,2,0.0,1.0,0.0,-1.0,,0.0-164.0,,-1.0,1013.405,0.0,0.728513874,1.0,0.75,0.0,0.44125567200000004,1.0,0.531454591,False,,5be7752e66e3d1000103957f,,2001171,162,,evan-feature22,full_pf_a,,1
136,2937,163,,,,1,1,1.0,1.0,1.0,0.0,,0.0-165.0,,1.0,429.065,1.0,0.73790804,1.0,0.75,1.0,0.413036656,1.0,0.524619035,False,,5be7752e66e3d1000103957f,,2011361,163,,evan-feature22,full_pf_a,,1
137,2938,164,,,,1,1,1.0,1.0,1.0,0.0,,0.0-166.0,,1.0,535.785,1.0,0.7080961309999999,1.0,0.708666865,0.0,0.431915581,1.0,0.481819489,False,,5be7752e66e3d1000103957f,,2021655,164,,evan-feature22,full_pf_a,,0
138,2939,165,,,,1,1,1.0,0.0,1.0,0.0,,0.0-167.0,,1.0,606.465,1.0,0.721378003,0.0,0.71605913,0.0,0.36642387,1.0,0.5036739929999999,False,,5be7752e66e3d1000103957f,,2032021,165,,evan-feature22,full_pf_a,,0
139,2940,166,,,,1,1,1.0,0.0,0.0,-1.0,,0.0-168.0,,0.0,657.7,1.0,0.7340618959999999,0.0,0.699323252,0.0,0.35298046299999997,1.0,0.511241692,False,,5be7752e66e3d1000103957f,,2042437,166,,evan-feature22,full_pf_a,,0
140,2941,167,,,,1,1,1.0,0.0,0.0,-1.0,,0.0-169.0,,0.0,927.195,1.0,0.75,0.0,0.70412698,0.0,0.380734814,1.0,0.529580116,False,,5be7752e66e3d1000103957f,,2053126,167,,evan-feature22,full_pf_a,,0
141,2942,168,,,,1,1,1.0,1.0,0.0,-1.0,,0.0-170.0,,-1.0,524.005,1.0,0.7436654909999999,1.0,0.711182751,0.0,0.41125331,0.0,0.49554405,False,,5be7752e66e3d1000103957f,,2063412,168,,evan-feature22,full_pf_a,,0
142,2943,169,,,,1,1,0.0,0.0,1.0,0.0,,0.0-171.0,,0.0,519.36,0.0,0.731607915,0.0,0.651774583,0.0,0.35688023,0.0,0.45194491600000003,False,,5be7752e66e3d1000103957f,,2073690,169,,evan-feature22,full_pf_a,,0
143,2944,170,,,,1,1,0.0,1.0,0.0,-1.0,,0.0-172.0,,-1.0,853.14,0.0,0.75,1.0,0.75,0.0,0.283145374,1.0,0.528608005,False,,5be7752e66e3d1000103957f,,2084303,170,,evan-feature22,full_pf_a,,0
144,2945,171,,,,1,1,0.0,1.0,1.0,0.0,,0.0-173.0,,0.0,473.845,0.0,0.7491416890000001,1.0,0.7423785959999999,0.0,0.29135870399999997,0.0,0.498888318,False,,5be7752e66e3d1000103957f,,2094538,171,,evan-feature22,full_pf_a,,0
145,2946,172,,,,1,1,0.0,1.0,0.0,-1.0,,0.0-174.0,,-1.0,951.29,0.0,0.708569387,1.0,0.717682277,0.0,0.294421699,0.0,0.493838163,False,,5be7752e66e3d1000103957f,,2105248,172,,evan-feature22,full_pf_a,,0
146,2947,173,,,,1,1,1.0,0.0,1.0,0.0,,0.0-175.0,,1.0,668.83,1.0,0.75,0.0,0.7383382159999999,0.0,0.356098707,0.0,0.442533405,False,,5be7752e66e3d1000103957f,,2115674,173,,evan-feature22,full_pf_a,,0
147,2948,174,,,,1,1,1.0,1.0,1.0,0.0,,0.0-176.0,,1.0,545.095,1.0,0.744527075,1.0,0.75,0.0,0.334127506,1.0,0.393165805,False,,5be7752e66e3d1000103957f,,2125984,174,,evan-feature22,full_pf_a,,0
148,2949,175,,,,1,1,1.0,0.0,1.0,0.0,,0.0-177.0,,1.0,862.905,1.0,0.75,0.0,0.75,1.0,0.33571021799999995,0.0,0.350393962,False,,5be7752e66e3d1000103957f,,2136610,175,,evan-feature22,full_pf_a,,0
149,2950,176,,,,2,2,0.0,1.0,0.0,-1.0,,0.0-178.0,,-1.0,965.49,1.0,0.75,1.0,0.75,0.0,0.313628297,1.0,0.36349657399999996,False,,5be7752e66e3d1000103957f,,2147337,176,,evan-feature22,full_pf_a,,1
150,2951,177,,,,1,1,1.0,0.0,1.0,0.0,,0.0-179.0,,1.0,573.775,1.0,0.75,0.0,0.734284182,0.0,0.262667667,1.0,0.380199119,False,,5be7752e66e3d1000103957f,,2157673,177,,evan-feature22,full_pf_a,,1
151,2952,178,,,,1,1,1.0,1.0,1.0,0.0,,0.0-180.0,,1.0,506.42,1.0,0.75,1.0,0.75,0.0,0.25,0.0,0.394494013,False,,5be7752e66e3d1000103957f,,2167940,178,,evan-feature22,full_pf_a,,0
152,2953,179,,,,1,1,1.0,0.0,1.0,0.0,,0.0-181.0,,1.0,433.565,1.0,0.722298145,0.0,0.7357822340000001,1.0,0.25,0.0,0.319142121,False,,5be7752e66e3d1000103957f,,2178134,179,,evan-feature22,full_pf_a,,0
153,2954,180,,,,1,1,1.0,1.0,1.0,0.0,,0.0-182.0,,1.0,804.56,1.0,0.73149275,1.0,0.724276446,1.0,0.305856907,0.0,0.281315057,False,,5be7752e66e3d1000103957f,,2188698,180,,evan-feature22,full_pf_a,,0
154,2955,181,,,,1,1,1.0,0.0,1.0,0.0,,0.0-183.0,,1.0,772.515,1.0,0.7458732690000001,0.0,0.7336382459999999,0.0,0.272571964,0.0,0.266021999,False,,5be7752e66e3d1000103957f,,2199229,181,,evan-feature22,full_pf_a,,0
155,2956,182,,,,2,2,1.0,1.0,0.0,-1.0,,0.0-184.0,,-1.0,2272.29,1.0,0.705579037,1.0,0.720778292,1.0,0.320238144,1.0,0.30971744,False,,5be7752e66e3d1000103957f,,2211262,182,,evan-feature22,full_pf_a,,1
156,2957,183,,,,2,2,0.0,0.0,0.0,-1.0,,0.0-185.0,,0.0,796.905,1.0,0.700425648,0.0,0.7198784009999999,0.0,0.272590393,0.0,0.304182931,False,,5be7752e66e3d1000103957f,,2221817,183,,evan-feature22,full_pf_a,,0
157,2958,184,,,,2,2,1.0,0.0,0.0,-1.0,,0.0-186.0,,0.0,822.37,1.0,0.735590785,0.0,0.722714973,1.0,0.25,0.0,0.323421091,False,,5be7752e66e3d1000103957f,,2232400,184,,evan-feature22,full_pf_a,,0
158,2959,185,,,,1,1,1.0,0.0,0.0,-1.0,,0.0-187.0,,0.0,1287.285,1.0,0.724807662,0.0,0.63146213,0.0,0.36836492600000004,1.0,0.34592153299999995,False,,5be7752e66e3d1000103957f,,2243449,185,,evan-feature22,full_pf_a,,1
159,2960,186,,,,1,1,1.0,1.0,1.0,0.0,,0.0-188.0,,1.0,581.66,1.0,0.7352796909999999,1.0,0.555111392,0.0,0.36003922,0.0,0.31433779999999995,False,,5be7752e66e3d1000103957f,,2253797,186,,evan-feature22,full_pf_a,,0
160,2961,187,notice,,,,,,,,,,0.0-189.0,"{""Q0"":""There seemed to be more regular/predictable patterns towards the end, but that could be me getting used to the task.""}",,47738.0,,,,,,,,,False,,5be7752e66e3d1000103957f,,2301537,187,Q,survey-text,full_pf_a,,1
161,2962,188,track1,,[1],,,,,,,,0.0-190.0,"{""Q0"":""no""}",,5390.0,,,,,,,,,False,,5be7752e66e3d1000103957f,,2306932,188,Q,evan-quiz,full_pf_a,,1
162,2963,189,track2,,[0],,,,,,,,0.0-191.0,"{""Q0"":""yes""}",,12351.0,,,,,,,,,False,,5be7752e66e3d1000103957f,,2319286,189,Q,evan-quiz,full_pf_a,,1
163,2964,190,strat,,,,,,,,,,0.0-192.0,"{""Q0"":""Really, just trying to pick out when to swap sides - at certain times it was definitely more advantageous to choose one or the other door when either the yellow alien was sought or the black avoided.  ""}",,183969.0,,,,,,,,,False,,5be7752e66e3d1000103957f,,2503259,190,Q,survey-text,full_pf_a,,1
