,index,Unnamed: 0,Q_name,button_pressed,choice_idxs,chosen_pos,chosen_state,chosen_state_f_1_outcome,chosen_state_f_2_outcome,f_1_reward,f_2_reward,incor_questions,internal_node_id,responses,reward_received,rt,s_1_f_1_outcome,s_1_f_1_prob,s_1_f_2_outcome,s_1_f_2_prob,s_2_f_1_outcome,s_2_f_1_prob,s_2_f_2_outcome,s_2_f_2_prob,safe_first,stimulus,subjectID,success,time_elapsed,trial_index,trial_num,trial_type,version,view_history,switching
0,20561,25,,,,1,1,1.0,1.0,0.0,1.0,,0.0-27.0,,1.0,1900.18,1.0,0.6,1.0,0.6,0.0,0.4,1.0,0.4,True,,5b9d57e5737d030001ad2cbf,,545378,25,,evan-feature22,full_rf_b,,0
1,20562,26,,,,1,1,0.0,1.0,0.0,1.0,,0.0-28.0,,1.0,1005.49,0.0,0.608053294,1.0,0.63424552,1.0,0.397152172,0.0,0.347069101,True,,5b9d57e5737d030001ad2cbf,,556187,26,,evan-feature22,full_rf_b,,0
2,20563,27,,,,1,1,0.0,1.0,0.0,1.0,,0.0-29.0,,1.0,732.075,0.0,0.642237155,1.0,0.648566321,0.0,0.389407674,0.0,0.285525717,True,,5b9d57e5737d030001ad2cbf,,566723,27,,evan-feature22,full_rf_b,,0
3,20564,28,,,,1,1,1.0,1.0,0.0,1.0,,0.0-30.0,,1.0,1629.08,1.0,0.661086576,1.0,0.630492543,0.0,0.399058924,0.0,0.25,True,,5b9d57e5737d030001ad2cbf,,578170,28,,evan-feature22,full_rf_b,,0
4,20565,29,,,,1,1,1.0,1.0,0.0,1.0,,0.0-31.0,,1.0,495.855,1.0,0.631324137,1.0,0.6269842929999999,0.0,0.38734784299999997,0.0,0.25,True,,5b9d57e5737d030001ad2cbf,,588475,29,,evan-feature22,full_rf_b,,0
5,20566,30,,,,1,1,1.0,1.0,0.0,1.0,,0.0-32.0,,1.0,1146.65,1.0,0.6381991370000001,1.0,0.68987999,1.0,0.384107265,1.0,0.271332943,True,,5b9d57e5737d030001ad2cbf,,599455,30,,evan-feature22,full_rf_b,,0
6,20567,31,,,,1,1,1.0,0.0,0.0,1.0,,0.0-33.0,,0.0,796.66,1.0,0.66034901,0.0,0.742641349,1.0,0.360225629,0.0,0.25,True,,5b9d57e5737d030001ad2cbf,,610079,31,,evan-feature22,full_rf_b,,0
7,20568,32,,,,2,2,0.0,0.0,-1.0,0.0,,0.0-34.0,,0.0,1865.67,1.0,0.638612418,1.0,0.75,0.0,0.367273939,0.0,0.25,True,,5b9d57e5737d030001ad2cbf,,621757,32,,evan-feature22,full_rf_b,,1
8,20569,33,,,,2,2,0.0,0.0,0.0,1.0,,0.0-35.0,,0.0,1556.915,1.0,0.624340629,1.0,0.75,0.0,0.425829545,0.0,0.25,True,,5b9d57e5737d030001ad2cbf,,633113,33,,evan-feature22,full_rf_b,,0
9,20570,34,,,,1,1,0.0,1.0,0.0,1.0,,0.0-36.0,,1.0,1137.34,0.0,0.621999804,1.0,0.75,1.0,0.368609357,0.0,0.25,True,,5b9d57e5737d030001ad2cbf,,644069,34,,evan-feature22,full_rf_b,,1
10,20571,35,,,,1,1,1.0,0.0,-1.0,0.0,,0.0-37.0,,-1.0,2755.085,1.0,0.62666403,0.0,0.75,0.0,0.311151498,0.0,0.25,True,,5b9d57e5737d030001ad2cbf,,656629,35,,evan-feature22,full_rf_b,,0
11,20572,36,,,,2,2,0.0,0.0,-1.0,0.0,,0.0-38.0,,0.0,1914.02,1.0,0.6819650009999999,1.0,0.75,0.0,0.310763048,0.0,0.25,True,,5b9d57e5737d030001ad2cbf,,668348,36,,evan-feature22,full_rf_b,,1
12,20573,37,,,,1,1,0.0,1.0,0.0,1.0,,0.0-39.0,,1.0,2330.27,0.0,0.740626951,1.0,0.75,1.0,0.25,0.0,0.25,True,,5b9d57e5737d030001ad2cbf,,680508,37,,evan-feature22,full_rf_b,,1
13,20574,38,,,,1,1,1.0,0.0,0.0,1.0,,0.0-40.0,,0.0,1555.235,1.0,0.739599242,0.0,0.742034978,0.0,0.25397114600000004,0.0,0.25,True,,5b9d57e5737d030001ad2cbf,,691873,38,,evan-feature22,full_rf_b,,0
14,20575,39,,,,1,1,1.0,1.0,0.0,1.0,,0.0-41.0,,1.0,1410.625,1.0,0.732341315,1.0,0.72735643,0.0,0.25,0.0,0.25,True,,5b9d57e5737d030001ad2cbf,,703088,39,,evan-feature22,full_rf_b,,0
15,20576,40,,,,1,1,1.0,1.0,0.0,1.0,,0.0-42.0,,1.0,2164.645,1.0,0.7062287770000001,1.0,0.75,0.0,0.29002151,0.0,0.288256649,True,,5b9d57e5737d030001ad2cbf,,715056,40,,evan-feature22,full_rf_b,,0
16,20577,41,,,,1,1,1.0,1.0,-1.0,0.0,,0.0-43.0,,-1.0,2371.725,1.0,0.7086029209999999,1.0,0.75,1.0,0.274129113,0.0,0.262851608,True,,5b9d57e5737d030001ad2cbf,,727247,41,,evan-feature22,full_rf_b,,0
17,20578,42,,,,1,1,0.0,1.0,0.0,1.0,,0.0-44.0,,1.0,1497.685,0.0,0.669189651,1.0,0.727614338,0.0,0.298444036,0.0,0.296944518,True,,5b9d57e5737d030001ad2cbf,,738570,42,,evan-feature22,full_rf_b,,0
18,20579,43,,,,2,2,0.0,0.0,-1.0,0.0,,0.0-45.0,,0.0,1213.97,1.0,0.6819912929999999,1.0,0.7179434290000001,0.0,0.265003961,0.0,0.28157921199999997,True,,5b9d57e5737d030001ad2cbf,,749608,43,,evan-feature22,full_rf_b,,1
19,20580,44,,,,2,2,0.0,1.0,-1.0,0.0,,0.0-46.0,,0.0,973.03,1.0,0.665275002,1.0,0.723065271,0.0,0.260414971,1.0,0.30973870000000003,True,,5b9d57e5737d030001ad2cbf,,760403,44,,evan-feature22,full_rf_b,,0
20,20581,45,,,,1,1,1.0,0.0,0.0,1.0,,0.0-47.0,,0.0,1513.125,1.0,0.6660593260000001,0.0,0.728032907,0.0,0.30922817,0.0,0.338778608,True,,5b9d57e5737d030001ad2cbf,,771726,45,,evan-feature22,full_rf_b,,1
21,20582,46,,,,1,1,1.0,0.0,0.0,1.0,,0.0-48.0,,0.0,1398.3,1.0,0.702068785,0.0,0.6528750879999999,0.0,0.287329608,1.0,0.35789613200000003,True,,5b9d57e5737d030001ad2cbf,,782948,46,,evan-feature22,full_rf_b,,0
22,20583,47,,,,2,2,0.0,0.0,0.0,1.0,,0.0-49.0,,0.0,1007.845,1.0,0.651939787,0.0,0.636725589,0.0,0.284834488,0.0,0.358563756,True,,5b9d57e5737d030001ad2cbf,,793773,47,,evan-feature22,full_rf_b,,1
23,20584,48,,,,2,2,0.0,0.0,0.0,1.0,,0.0-50.0,,0.0,1223.42,1.0,0.67573929,1.0,0.612550049,0.0,0.37130387600000003,0.0,0.383542402,True,,5b9d57e5737d030001ad2cbf,,804808,48,,evan-feature22,full_rf_b,,0
24,20585,49,,,,1,1,1.0,0.0,0.0,1.0,,0.0-51.0,,0.0,933.745,1.0,0.620753801,0.0,0.60513644,0.0,0.385529434,1.0,0.340361743,True,,5b9d57e5737d030001ad2cbf,,815555,49,,evan-feature22,full_rf_b,,1
25,20586,50,,,,2,2,0.0,0.0,-1.0,0.0,,0.0-52.0,,0.0,2558.585,1.0,0.673564893,1.0,0.672437924,0.0,0.292955382,0.0,0.337633795,True,,5b9d57e5737d030001ad2cbf,,827938,50,,evan-feature22,full_rf_b,,1
26,20587,51,,,,1,1,1.0,1.0,0.0,1.0,,0.0-53.0,,1.0,1470.12,1.0,0.6749427,1.0,0.724197502,1.0,0.32391132100000003,1.0,0.350995264,True,,5b9d57e5737d030001ad2cbf,,839220,51,,evan-feature22,full_rf_b,,1
27,20588,52,,,,2,2,0.0,1.0,0.0,1.0,,0.0-54.0,,1.0,1318.735,0.0,0.6940159379999999,0.0,0.75,0.0,0.31710554399999996,1.0,0.413450341,True,,5b9d57e5737d030001ad2cbf,,850336,52,,evan-feature22,full_rf_b,,1
28,20589,53,,,,2,2,0.0,0.0,0.0,1.0,,0.0-55.0,,0.0,1324.105,1.0,0.6916018270000001,1.0,0.69001187,0.0,0.261817804,0.0,0.40038635,True,,5b9d57e5737d030001ad2cbf,,861479,53,,evan-feature22,full_rf_b,,0
29,20590,54,,,,2,2,0.0,1.0,0.0,1.0,,0.0-56.0,,1.0,752.095,1.0,0.641061544,0.0,0.71337992,0.0,0.277296461,1.0,0.47372791700000005,True,,5b9d57e5737d030001ad2cbf,,872031,54,,evan-feature22,full_rf_b,,0
30,20591,55,,,,1,1,0.0,1.0,0.0,1.0,,0.0-57.0,,1.0,1620.995,0.0,0.6082438520000001,1.0,0.708471106,0.0,0.28745137,0.0,0.564174476,True,,5b9d57e5737d030001ad2cbf,,883462,55,,evan-feature22,full_rf_b,,1
31,20592,56,,,,2,2,0.0,1.0,-1.0,0.0,,0.0-58.0,,0.0,1630.795,1.0,0.6051112120000001,1.0,0.7118147229999999,0.0,0.272390611,1.0,0.5595149939999999,True,,5b9d57e5737d030001ad2cbf,,894919,56,,evan-feature22,full_rf_b,,1
32,20593,57,,,,2,2,1.0,1.0,-1.0,0.0,,0.0-59.0,,-1.0,1940.935,1.0,0.582420852,1.0,0.635867583,1.0,0.31089574,1.0,0.5227206520000001,True,,5b9d57e5737d030001ad2cbf,,906674,57,,evan-feature22,full_rf_b,,0
33,20594,58,,,,2,2,0.0,1.0,-1.0,0.0,,0.0-60.0,,0.0,1448.585,0.0,0.623195575,1.0,0.655026044,0.0,0.25,1.0,0.560387538,True,,5b9d57e5737d030001ad2cbf,,917932,58,,evan-feature22,full_rf_b,,0
34,20595,59,,,,1,1,1.0,1.0,0.0,1.0,,0.0-61.0,,1.0,1538.75,1.0,0.601889598,1.0,0.678198724,1.0,0.25,0.0,0.559922936,True,,5b9d57e5737d030001ad2cbf,,929286,59,,evan-feature22,full_rf_b,,1
35,20596,60,,,,2,2,1.0,0.0,-1.0,0.0,,0.0-62.0,,-1.0,1294.035,1.0,0.601259914,0.0,0.704681482,1.0,0.33908969299999997,0.0,0.505003715,True,,5b9d57e5737d030001ad2cbf,,940372,60,,evan-feature22,full_rf_b,,1
36,20597,61,,,,2,2,0.0,1.0,-1.0,0.0,,0.0-63.0,,0.0,1751.06,0.0,0.59645454,1.0,0.710437172,0.0,0.327441879,1.0,0.391749613,True,,5b9d57e5737d030001ad2cbf,,951953,61,,evan-feature22,full_rf_b,,0
37,20598,62,,,,1,1,0.0,0.0,0.0,1.0,,0.0-64.0,,0.0,1095.865,0.0,0.529473,0.0,0.636758527,0.0,0.301338063,1.0,0.365661481,True,,5b9d57e5737d030001ad2cbf,,962868,62,,evan-feature22,full_rf_b,,1
38,20599,63,,,,2,2,0.0,1.0,-1.0,0.0,,0.0-65.0,,0.0,1523.94,1.0,0.541657162,1.0,0.634541962,0.0,0.343535366,1.0,0.371763742,True,,5b9d57e5737d030001ad2cbf,,974186,63,,evan-feature22,full_rf_b,,1
39,20600,64,,,,1,1,0.0,1.0,-1.0,0.0,,0.0-66.0,,0.0,2268.04,0.0,0.5707533260000001,1.0,0.589121171,1.0,0.326428396,0.0,0.43961622899999997,True,,5b9d57e5737d030001ad2cbf,,986268,64,,evan-feature22,full_rf_b,,1
40,20601,65,,,,2,2,1.0,0.0,0.0,1.0,,0.0-67.0,,0.0,1980.37,1.0,0.5707533260000001,1.0,0.589121171,1.0,0.326428396,0.0,0.43961622899999997,True,,5b9d57e5737d030001ad2cbf,,998047,65,,evan-feature22,full_rf_b,,1
41,20602,66,,,,2,2,0.0,1.0,0.0,1.0,,0.0-68.0,,1.0,1150.015,0.0,0.506271295,1.0,0.641775594,0.0,0.37149690700000004,1.0,0.404330166,True,,5b9d57e5737d030001ad2cbf,,1009001,66,,evan-feature22,full_rf_b,,0
42,20603,67,,,,2,2,1.0,1.0,-1.0,0.0,,0.0-69.0,,-1.0,1803.48,0.0,0.455642565,0.0,0.623605825,1.0,0.358753011,1.0,0.346174041,True,,5b9d57e5737d030001ad2cbf,,1020615,67,,evan-feature22,full_rf_b,,0
43,20604,68,,,,2,2,0.0,0.0,0.0,1.0,,0.0-70.0,,0.0,1815.6,0.0,0.483677308,1.0,0.5904681070000001,0.0,0.402218411,0.0,0.35344697,True,,5b9d57e5737d030001ad2cbf,,1032254,68,,evan-feature22,full_rf_b,,0
44,20605,69,,,,1,1,1.0,0.0,-1.0,0.0,,0.0-71.0,,-1.0,1150.875,1.0,0.394210977,0.0,0.558925494,0.0,0.540052017,1.0,0.35182128700000004,True,,5b9d57e5737d030001ad2cbf,,1043218,69,,evan-feature22,full_rf_b,,1
45,20606,70,,,,1,1,1.0,1.0,0.0,1.0,,0.0-72.0,,1.0,1385.25,1.0,0.382300414,1.0,0.577670603,1.0,0.607608448,1.0,0.378261578,True,,5b9d57e5737d030001ad2cbf,,1054427,70,,evan-feature22,full_rf_b,,0
46,20607,71,,,,2,2,1.0,0.0,-1.0,0.0,,0.0-73.0,,-1.0,1960.95,1.0,0.357596762,0.0,0.5929076529999999,1.0,0.6579790010000001,0.0,0.401326777,True,,5b9d57e5737d030001ad2cbf,,1066183,71,,evan-feature22,full_rf_b,,1
47,20608,72,,,,2,2,0.0,0.0,0.0,1.0,,0.0-74.0,,0.0,1331.905,1.0,0.362033495,0.0,0.582308608,0.0,0.649195052,0.0,0.355158505,True,,5b9d57e5737d030001ad2cbf,,1077333,72,,evan-feature22,full_rf_b,,0
48,20609,73,,,,1,1,1.0,1.0,0.0,1.0,,0.0-75.0,,1.0,825.255,1.0,0.369620635,1.0,0.669100864,0.0,0.706059111,0.0,0.362516241,True,,5b9d57e5737d030001ad2cbf,,1087966,73,,evan-feature22,full_rf_b,,1
49,20610,74,,,,2,2,0.0,1.0,0.0,1.0,,0.0-76.0,,1.0,692.3150001,0.0,0.41477751399999996,0.0,0.7284416779999999,0.0,0.7182656940000001,1.0,0.36228040899999997,True,,5b9d57e5737d030001ad2cbf,,1098459,74,,evan-feature22,full_rf_b,,1
50,20611,75,,,,1,1,1.0,1.0,-1.0,0.0,,0.0-77.0,,-1.0,1692.445,1.0,0.37675460299999997,1.0,0.703250285,0.0,0.75,0.0,0.461979164,True,,5b9d57e5737d030001ad2cbf,,1109962,75,,evan-feature22,full_rf_b,,1
51,20612,76,,,,1,1,0.0,1.0,-1.0,0.0,,0.0-78.0,,0.0,1692.935,0.0,0.398716075,1.0,0.6723864890000001,1.0,0.674153818,1.0,0.519029516,True,,5b9d57e5737d030001ad2cbf,,1121462,76,,evan-feature22,full_rf_b,,0
52,20613,77,,,,2,2,1.0,0.0,-1.0,0.0,,0.0-79.0,,-1.0,1619.555,1.0,0.34677856700000004,1.0,0.69057175,1.0,0.6822438540000001,0.0,0.477292237,True,,5b9d57e5737d030001ad2cbf,,1132888,77,,evan-feature22,full_rf_b,,1
53,20614,78,,,,1,1,0.0,1.0,0.0,1.0,,0.0-80.0,,1.0,1724.015,0.0,0.28580469199999997,1.0,0.68408818,0.0,0.684207565,0.0,0.49780448299999996,True,,5b9d57e5737d030001ad2cbf,,1144417,78,,evan-feature22,full_rf_b,,1
54,20616,80,,,,1,1,0.0,1.0,0.0,1.0,,0.0-82.0,,1.0,840.575,0.0,0.25,1.0,0.7405808970000001,1.0,0.679614108,1.0,0.436436964,True,,5b9d57e5737d030001ad2cbf,,1161297,80,,evan-feature22,full_rf_b,,0
55,20617,81,,,,1,1,0.0,0.0,0.0,1.0,,0.0-83.0,,0.0,1405.565,0.0,0.29890393,0.0,0.730505706,1.0,0.7328203320000001,1.0,0.439256938,True,,5b9d57e5737d030001ad2cbf,,1172520,81,,evan-feature22,full_rf_b,,0
56,20618,82,,,,2,2,1.0,0.0,-1.0,0.0,,0.0-84.0,,-1.0,1580.705,1.0,0.326762398,1.0,0.7148059609999999,1.0,0.75,0.0,0.44389608799999997,True,,5b9d57e5737d030001ad2cbf,,1183924,82,,evan-feature22,full_rf_b,,1
57,20619,83,,,,2,2,0.0,0.0,0.0,1.0,,0.0-85.0,,0.0,1903.345,1.0,0.295168515,0.0,0.739760854,0.0,0.719947008,0.0,0.35277284600000003,True,,5b9d57e5737d030001ad2cbf,,1195632,83,,evan-feature22,full_rf_b,,0
58,20620,84,,,,1,1,1.0,1.0,0.0,1.0,,0.0-86.0,,1.0,807.865,1.0,0.25,1.0,0.70781482,1.0,0.75,1.0,0.286095925,True,,5b9d57e5737d030001ad2cbf,,1206258,84,,evan-feature22,full_rf_b,,1
59,20621,85,,,,2,2,1.0,0.0,0.0,1.0,,0.0-87.0,,0.0,828.86,0.0,0.25638190899999996,1.0,0.704088163,1.0,0.75,0.0,0.26872601399999996,True,,5b9d57e5737d030001ad2cbf,,1216876,85,,evan-feature22,full_rf_b,,1
60,20622,86,,,,2,2,0.0,0.0,-1.0,0.0,,0.0-88.0,,0.0,1866.745,0.0,0.271581126,0.0,0.669760107,0.0,0.733896663,0.0,0.273244572,True,,5b9d57e5737d030001ad2cbf,,1228548,86,,evan-feature22,full_rf_b,,0
61,20623,87,,,,1,1,0.0,1.0,0.0,1.0,,0.0-89.0,,1.0,1349.98,0.0,0.257144401,1.0,0.600575706,1.0,0.74488122,0.0,0.25,True,,5b9d57e5737d030001ad2cbf,,1239725,87,,evan-feature22,full_rf_b,,1
62,20624,88,,,,1,1,0.0,0.0,0.0,1.0,,0.0-90.0,,0.0,961.505,0.0,0.25,0.0,0.616870026,0.0,0.723610234,1.0,0.25,True,,5b9d57e5737d030001ad2cbf,,1250481,88,,evan-feature22,full_rf_b,,0
63,20625,89,,,,1,1,0.0,0.0,-1.0,0.0,,0.0-91.0,,0.0,1733.73,0.0,0.25,0.0,0.583540187,1.0,0.7041042559999999,0.0,0.285961995,True,,5b9d57e5737d030001ad2cbf,,1262036,89,,evan-feature22,full_rf_b,,0
64,20626,90,,,,1,1,1.0,0.0,-1.0,0.0,,0.0-92.0,,-1.0,1812.065,1.0,0.27254536,0.0,0.53875765,1.0,0.693783448,1.0,0.284961652,True,,5b9d57e5737d030001ad2cbf,,1273657,90,,evan-feature22,full_rf_b,,0
65,20627,91,,,,1,1,0.0,1.0,-1.0,0.0,,0.0-93.0,,0.0,826.215,0.0,0.25,1.0,0.548431252,1.0,0.734221895,1.0,0.279445214,True,,5b9d57e5737d030001ad2cbf,,1284295,91,,evan-feature22,full_rf_b,,0
66,20628,92,,,,1,1,0.0,1.0,0.0,1.0,,0.0-94.0,,1.0,2075.82,0.0,0.258640684,1.0,0.545878066,1.0,0.725245965,0.0,0.31487537,True,,5b9d57e5737d030001ad2cbf,,1296175,92,,evan-feature22,full_rf_b,,0
67,20629,93,,,,1,1,0.0,0.0,0.0,1.0,,0.0-95.0,,0.0,1141.885,0.0,0.251103711,0.0,0.5776290629999999,0.0,0.696320133,0.0,0.317831047,True,,5b9d57e5737d030001ad2cbf,,1307117,93,,evan-feature22,full_rf_b,,0
68,20630,94,,,,1,1,0.0,1.0,0.0,1.0,,0.0-96.0,,1.0,1083.12,0.0,0.276630292,1.0,0.617329858,0.0,0.73838088,1.0,0.261471582,True,,5b9d57e5737d030001ad2cbf,,1318019,94,,evan-feature22,full_rf_b,,0
69,20631,95,,,,1,1,1.0,1.0,0.0,1.0,,0.0-97.0,,1.0,1040.37,1.0,0.297716424,1.0,0.618863717,1.0,0.7402358259999999,0.0,0.262600834,True,,5b9d57e5737d030001ad2cbf,,1328874,95,,evan-feature22,full_rf_b,,0
70,20632,96,,,,1,1,1.0,0.0,-1.0,0.0,,0.0-98.0,,-1.0,2568.22,1.0,0.290935512,0.0,0.695370945,0.0,0.706570507,1.0,0.280030553,True,,5b9d57e5737d030001ad2cbf,,1341258,96,,evan-feature22,full_rf_b,,0
71,20633,97,,,,1,1,0.0,1.0,0.0,1.0,,0.0-99.0,,1.0,1493.125,0.0,0.25,1.0,0.6465277079999999,1.0,0.67766682,0.0,0.25,True,,5b9d57e5737d030001ad2cbf,,1352572,97,,evan-feature22,full_rf_b,,0
72,20634,98,,,,1,1,0.0,1.0,-1.0,0.0,,0.0-100.0,,0.0,1691.04,0.0,0.26463816,1.0,0.636100213,1.0,0.646048507,0.0,0.265607101,True,,5b9d57e5737d030001ad2cbf,,1364091,98,,evan-feature22,full_rf_b,,0
73,20635,99,,,,1,1,0.0,0.0,-1.0,0.0,,0.0-101.0,,0.0,956.51,0.0,0.314340707,0.0,0.667795927,1.0,0.613630805,0.0,0.25,True,,5b9d57e5737d030001ad2cbf,,1374840,99,,evan-feature22,full_rf_b,,0
74,20636,100,,,,1,1,0.0,1.0,0.0,1.0,,0.0-102.0,,1.0,1422.075,0.0,0.28685784,1.0,0.6622549529999999,1.0,0.652154117,0.0,0.25,True,,5b9d57e5737d030001ad2cbf,,1386072,100,,evan-feature22,full_rf_b,,0
75,20637,101,,,,1,1,0.0,1.0,0.0,1.0,,0.0-103.0,,1.0,1119.93,0.0,0.304106554,1.0,0.631289538,1.0,0.707041942,1.0,0.29314237,True,,5b9d57e5737d030001ad2cbf,,1397012,101,,evan-feature22,full_rf_b,,0
76,20638,102,,,,1,1,0.0,1.0,0.0,1.0,,0.0-104.0,,1.0,973.275,0.0,0.304806932,1.0,0.571167718,1.0,0.680472346,1.0,0.25,True,,5b9d57e5737d030001ad2cbf,,1407803,102,,evan-feature22,full_rf_b,,0
77,20639,103,,,,1,1,1.0,1.0,0.0,1.0,,0.0-105.0,,1.0,1228.28,1.0,0.37919861,1.0,0.5724849710000001,0.0,0.705638003,0.0,0.30179300600000003,True,,5b9d57e5737d030001ad2cbf,,1418844,103,,evan-feature22,full_rf_b,,0
78,20640,104,,,,1,1,1.0,1.0,0.0,1.0,,0.0-106.0,,1.0,918.27,1.0,0.464277969,1.0,0.554034373,1.0,0.7372627340000001,0.0,0.264699741,True,,5b9d57e5737d030001ad2cbf,,1429585,104,,evan-feature22,full_rf_b,,0
79,20641,105,,,,1,1,0.0,1.0,0.0,1.0,,0.0-107.0,,1.0,832.605,0.0,0.465104323,1.0,0.530793115,1.0,0.75,0.0,0.31683071,True,,5b9d57e5737d030001ad2cbf,,1440221,105,,evan-feature22,full_rf_b,,0
80,20642,106,,,,1,1,0.0,1.0,-1.0,0.0,,0.0-108.0,,0.0,1516.91,0.0,0.465104323,1.0,0.530793115,1.0,0.75,0.0,0.31683071,True,,5b9d57e5737d030001ad2cbf,,1451572,106,,evan-feature22,full_rf_b,,0
81,20643,107,,,,1,1,1.0,1.0,-1.0,0.0,,0.0-109.0,,-1.0,1691.74,1.0,0.46833986,1.0,0.570249239,1.0,0.7244472590000001,0.0,0.364114163,True,,5b9d57e5737d030001ad2cbf,,1463073,107,,evan-feature22,full_rf_b,,0
82,20644,108,,,,1,1,1.0,1.0,-1.0,0.0,,0.0-110.0,,-1.0,1279.43,1.0,0.445444024,1.0,0.649673355,1.0,0.6845441290000001,1.0,0.300660449,True,,5b9d57e5737d030001ad2cbf,,1474173,108,,evan-feature22,full_rf_b,,0
83,20645,109,,,,2,2,1.0,1.0,-1.0,0.0,,0.0-111.0,,-1.0,1426.17,0.0,0.39909721299999995,1.0,0.6715179509999999,1.0,0.742310028,1.0,0.35496088299999995,True,,5b9d57e5737d030001ad2cbf,,1485417,109,,evan-feature22,full_rf_b,,1
84,20646,110,,,,1,1,1.0,1.0,0.0,1.0,,0.0-112.0,,1.0,1383.22,1.0,0.37956104799999996,1.0,0.694725302,0.0,0.7181651309999999,1.0,0.38726906299999997,True,,5b9d57e5737d030001ad2cbf,,1496634,110,,evan-feature22,full_rf_b,,1
85,20647,111,,,,1,1,0.0,1.0,0.0,1.0,,0.0-113.0,,1.0,1221.74,0.0,0.404995034,1.0,0.724375412,1.0,0.6910946859999999,0.0,0.387187347,True,,5b9d57e5737d030001ad2cbf,,1507659,111,,evan-feature22,full_rf_b,,0
86,20648,112,,,,1,1,0.0,1.0,-1.0,0.0,,0.0-114.0,,0.0,1072.67,0.0,0.461740803,1.0,0.75,1.0,0.75,0.0,0.34872038200000005,True,,5b9d57e5737d030001ad2cbf,,1518536,112,,evan-feature22,full_rf_b,,0
87,20649,113,,,,1,1,1.0,1.0,-1.0,0.0,,0.0-115.0,,-1.0,754.595,1.0,0.43821380600000004,1.0,0.738833273,1.0,0.728286963,0.0,0.399538128,True,,5b9d57e5737d030001ad2cbf,,1529116,113,,evan-feature22,full_rf_b,,0
88,20650,114,,,,1,1,1.0,1.0,0.0,1.0,,0.0-116.0,,1.0,1097.795,1.0,0.41709882,1.0,0.736666736,1.0,0.75,0.0,0.389095584,True,,5b9d57e5737d030001ad2cbf,,1540040,114,,evan-feature22,full_rf_b,,0
89,20651,115,,,,1,1,1.0,1.0,0.0,1.0,,0.0-117.0,,1.0,983.135,1.0,0.39749009799999996,1.0,0.744320029,1.0,0.75,0.0,0.363848678,True,,5b9d57e5737d030001ad2cbf,,1550845,115,,evan-feature22,full_rf_b,,0
90,20652,116,,,,1,1,1.0,1.0,-1.0,0.0,,0.0-118.0,,-1.0,1659.095,1.0,0.392653706,1.0,0.75,1.0,0.75,0.0,0.384386976,True,,5b9d57e5737d030001ad2cbf,,1562319,116,,evan-feature22,full_rf_b,,0
91,20653,117,,,,1,1,0.0,1.0,0.0,1.0,,0.0-119.0,,1.0,1491.025,0.0,0.31190902600000003,1.0,0.75,1.0,0.732413819,0.0,0.413082932,True,,5b9d57e5737d030001ad2cbf,,1573623,117,,evan-feature22,full_rf_b,,0
92,20654,118,,,,1,1,0.0,1.0,-1.0,0.0,,0.0-120.0,,0.0,1498.38,0.0,0.366917648,1.0,0.740073855,1.0,0.75,0.0,0.352861979,True,,5b9d57e5737d030001ad2cbf,,1584913,118,,evan-feature22,full_rf_b,,0
93,20655,119,,,,1,1,1.0,0.0,-1.0,0.0,,0.0-121.0,,-1.0,819.685,1.0,0.3645172,0.0,0.721770713,1.0,0.75,0.0,0.404074511,True,,5b9d57e5737d030001ad2cbf,,1595545,119,,evan-feature22,full_rf_b,,0
94,20656,120,,,,1,1,0.0,1.0,-1.0,0.0,,0.0-122.0,,0.0,1012.06,0.0,0.35205600299999995,1.0,0.68983859,0.0,0.739735447,1.0,0.366895945,True,,5b9d57e5737d030001ad2cbf,,1606371,120,,evan-feature22,full_rf_b,,0
95,20657,121,,,,1,1,0.0,1.0,-1.0,0.0,,0.0-123.0,,0.0,839.235,0.0,0.40998722600000004,1.0,0.720859127,1.0,0.673854955,0.0,0.368528541,True,,5b9d57e5737d030001ad2cbf,,1617037,121,,evan-feature22,full_rf_b,,0
96,20658,122,,,,1,1,0.0,1.0,-1.0,0.0,,0.0-124.0,,0.0,742.88,0.0,0.353625316,1.0,0.75,1.0,0.695605473,0.0,0.38303674200000004,True,,5b9d57e5737d030001ad2cbf,,1627584,122,,evan-feature22,full_rf_b,,0
97,20659,123,,,,1,1,0.0,0.0,-1.0,0.0,,0.0-125.0,,0.0,878.2250001,0.0,0.359216989,0.0,0.75,1.0,0.6987915090000001,1.0,0.35169046200000004,True,,5b9d57e5737d030001ad2cbf,,1638289,123,,evan-feature22,full_rf_b,,0
98,20660,124,,,,1,1,1.0,1.0,-1.0,0.0,,0.0-126.0,,-1.0,623.78,1.0,0.35834496899999996,1.0,0.75,1.0,0.707067742,0.0,0.416763636,True,,5b9d57e5737d030001ad2cbf,,1648724,124,,evan-feature22,full_rf_b,,0
99,20661,125,,,,1,1,0.0,1.0,0.0,1.0,,0.0-127.0,,1.0,1352.07,0.0,0.38741613799999997,1.0,0.7177369570000001,1.0,0.734902455,1.0,0.49438664299999996,True,,5b9d57e5737d030001ad2cbf,,1659881,125,,evan-feature22,full_rf_b,,0
100,20662,126,,,,1,1,0.0,0.0,-1.0,0.0,,0.0-128.0,,0.0,1124.305,0.0,0.405255252,0.0,0.7300466640000001,1.0,0.7027748070000001,1.0,0.504359668,True,,5b9d57e5737d030001ad2cbf,,1670833,126,,evan-feature22,full_rf_b,,0
101,20663,127,,,,1,1,0.0,1.0,-1.0,0.0,,0.0-129.0,,0.0,553.355,0.0,0.40697073,1.0,0.7260142190000001,1.0,0.724461982,1.0,0.522779179,True,,5b9d57e5737d030001ad2cbf,,1681200,127,,evan-feature22,full_rf_b,,0
102,20664,128,,,,1,1,1.0,1.0,-1.0,0.0,,0.0-130.0,,-1.0,734.06,1.0,0.43906215299999996,1.0,0.7252802340000001,1.0,0.719079934,1.0,0.5712990579999999,True,,5b9d57e5737d030001ad2cbf,,1691769,128,,evan-feature22,full_rf_b,,0
103,20665,129,,,,1,1,1.0,1.0,0.0,1.0,,0.0-131.0,,1.0,1029.095,1.0,0.4076705,1.0,0.73280499,1.0,0.681313127,0.0,0.523891346,True,,5b9d57e5737d030001ad2cbf,,1702592,129,,evan-feature22,full_rf_b,,0
104,20666,130,,,,1,1,0.0,1.0,0.0,1.0,,0.0-132.0,,1.0,1045.96,0.0,0.399102911,1.0,0.730498344,0.0,0.661080239,1.0,0.46742603,True,,5b9d57e5737d030001ad2cbf,,1713461,130,,evan-feature22,full_rf_b,,0
105,20667,131,,,,1,1,0.0,1.0,0.0,1.0,,0.0-133.0,,1.0,1054.555,0.0,0.356477282,1.0,0.712296395,0.0,0.641812684,1.0,0.44868414,True,,5b9d57e5737d030001ad2cbf,,1724332,131,,evan-feature22,full_rf_b,,0
106,20668,132,,,,1,1,0.0,1.0,-1.0,0.0,,0.0-134.0,,0.0,826.465,0.0,0.462760722,1.0,0.692349322,1.0,0.700947931,0.0,0.394680266,True,,5b9d57e5737d030001ad2cbf,,1734980,132,,evan-feature22,full_rf_b,,0
107,20669,133,,,,1,1,0.0,1.0,-1.0,0.0,,0.0-135.0,,0.0,734.1600001,0.0,0.422306413,1.0,0.718375916,1.0,0.706340917,1.0,0.367787185,True,,5b9d57e5737d030001ad2cbf,,1745539,133,,evan-feature22,full_rf_b,,0
108,20671,135,,,,1,1,1.0,1.0,-1.0,0.0,,0.0-137.0,,-1.0,2344.005,1.0,0.4582233,1.0,0.643834117,0.0,0.75,1.0,0.39615823299999997,True,,5b9d57e5737d030001ad2cbf,,1843334,135,,evan-feature22,full_rf_b,,0
109,20672,136,,,,2,2,0.0,0.0,-1.0,0.0,,0.0-138.0,,0.0,868.265,1.0,0.43813437899999996,0.0,0.651283804,0.0,0.729674191,0.0,0.37711048,True,,5b9d57e5737d030001ad2cbf,,1854012,136,,evan-feature22,full_rf_b,,1
110,20673,137,,,,2,2,1.0,0.0,-1.0,0.0,,0.0-139.0,,-1.0,560.04,1.0,0.471199094,1.0,0.6470010979999999,1.0,0.715008097,0.0,0.410656191,True,,5b9d57e5737d030001ad2cbf,,1864393,137,,evan-feature22,full_rf_b,,0
111,20674,138,,,,2,2,0.0,0.0,-1.0,0.0,,0.0-140.0,,0.0,843.765,1.0,0.42486406,0.0,0.629771829,0.0,0.6550939960000001,0.0,0.459093873,True,,5b9d57e5737d030001ad2cbf,,1875045,138,,evan-feature22,full_rf_b,,0
112,20675,139,,,,2,2,0.0,0.0,-1.0,0.0,,0.0-141.0,,0.0,684.385,0.0,0.4803197,0.0,0.645842715,0.0,0.6421749920000001,0.0,0.443092151,True,,5b9d57e5737d030001ad2cbf,,1885548,139,,evan-feature22,full_rf_b,,0
113,20676,140,,,,2,2,0.0,0.0,0.0,1.0,,0.0-142.0,,0.0,1562.915,0.0,0.521848997,1.0,0.735801074,0.0,0.6691348460000001,0.0,0.45259351600000003,True,,5b9d57e5737d030001ad2cbf,,1896916,140,,evan-feature22,full_rf_b,,0
114,20677,141,,,,2,2,0.0,0.0,-1.0,0.0,,0.0-143.0,,0.0,830.275,1.0,0.49565621299999996,1.0,0.742400847,0.0,0.661512553,0.0,0.483110831,True,,5b9d57e5737d030001ad2cbf,,1907577,141,,evan-feature22,full_rf_b,,0
115,20678,142,,,,2,2,1.0,0.0,-1.0,0.0,,0.0-144.0,,-1.0,963.47,0.0,0.521564361,0.0,0.731078632,1.0,0.6774886809999999,0.0,0.483263956,True,,5b9d57e5737d030001ad2cbf,,1918348,142,,evan-feature22,full_rf_b,,0
116,20679,143,,,,2,2,1.0,0.0,-1.0,0.0,,0.0-145.0,,-1.0,669.95,0.0,0.558893102,1.0,0.719810023,1.0,0.67461031,0.0,0.499349834,True,,5b9d57e5737d030001ad2cbf,,1928823,143,,evan-feature22,full_rf_b,,0
117,20680,144,,,,1,1,1.0,1.0,-1.0,0.0,,0.0-146.0,,-1.0,763.82,1.0,0.611031046,1.0,0.75,1.0,0.688072995,1.0,0.5321422729999999,True,,5b9d57e5737d030001ad2cbf,,1939409,144,,evan-feature22,full_rf_b,,1
118,20681,145,,,,1,1,0.0,0.0,0.0,1.0,,0.0-147.0,,0.0,1693.87,0.0,0.633223941,0.0,0.713567728,0.0,0.75,1.0,0.48185314700000004,True,,5b9d57e5737d030001ad2cbf,,1950912,145,,evan-feature22,full_rf_b,,0
119,20682,146,,,,2,2,1.0,1.0,-1.0,0.0,,0.0-148.0,,-1.0,283.965,1.0,0.664001694,0.0,0.705509768,1.0,0.75,1.0,0.500211065,True,,5b9d57e5737d030001ad2cbf,,1961031,146,,evan-feature22,full_rf_b,,1
120,20683,147,,,,2,2,0.0,1.0,-1.0,0.0,,0.0-149.0,,0.0,549.845,1.0,0.664001694,0.0,0.705509768,0.0,0.75,1.0,0.500211065,True,,5b9d57e5737d030001ad2cbf,,1971391,147,,evan-feature22,full_rf_b,,0
121,20684,148,,,,2,2,1.0,1.0,-1.0,0.0,,0.0-150.0,,-1.0,452.33,0.0,0.696508041,1.0,0.71066027,1.0,0.717028709,1.0,0.49792991,True,,5b9d57e5737d030001ad2cbf,,1981658,148,,evan-feature22,full_rf_b,,0
122,20685,149,,,,2,2,1.0,1.0,0.0,1.0,,0.0-151.0,,1.0,1729.635,0.0,0.699883272,1.0,0.75,1.0,0.713543895,1.0,0.496962643,True,,5b9d57e5737d030001ad2cbf,,1993186,149,,evan-feature22,full_rf_b,,0
123,20686,150,,,,1,1,1.0,1.0,0.0,1.0,,0.0-152.0,,1.0,1891.06,1.0,0.741163419,1.0,0.75,0.0,0.64691024,0.0,0.513858197,True,,5b9d57e5737d030001ad2cbf,,2004889,150,,evan-feature22,full_rf_b,,1
124,20687,151,,,,1,1,1.0,1.0,0.0,1.0,,0.0-153.0,,1.0,847.275,1.0,0.75,1.0,0.70816558,1.0,0.594499079,1.0,0.48502124,True,,5b9d57e5737d030001ad2cbf,,2015550,151,,evan-feature22,full_rf_b,,0
125,20688,152,,,,2,2,1.0,0.0,-1.0,0.0,,0.0-154.0,,-1.0,2490.62,0.0,0.75,1.0,0.721848901,1.0,0.62197249,0.0,0.48263586399999997,True,,5b9d57e5737d030001ad2cbf,,2027832,152,,evan-feature22,full_rf_b,,1
126,20689,153,,,,1,1,1.0,1.0,-1.0,0.0,,0.0-155.0,,-1.0,603.64,1.0,0.75,1.0,0.74813071,0.0,0.584357161,1.0,0.411477782,True,,5b9d57e5737d030001ad2cbf,,2038257,153,,evan-feature22,full_rf_b,,1
127,20690,154,,,,1,1,1.0,0.0,-1.0,0.0,,0.0-156.0,,-1.0,515.785,1.0,0.75,0.0,0.75,0.0,0.52287236,1.0,0.488290656,True,,5b9d57e5737d030001ad2cbf,,2048570,154,,evan-feature22,full_rf_b,,0
128,20691,155,,,,1,1,1.0,0.0,-1.0,0.0,,0.0-157.0,,-1.0,453.835,1.0,0.75,0.0,0.75,0.0,0.544321581,1.0,0.53143059,True,,5b9d57e5737d030001ad2cbf,,2058834,155,,evan-feature22,full_rf_b,,0
129,20692,156,,,,2,2,1.0,1.0,-1.0,0.0,,0.0-158.0,,-1.0,442.025,1.0,0.726754564,1.0,0.75,1.0,0.5129306370000001,1.0,0.530592445,True,,5b9d57e5737d030001ad2cbf,,2069089,156,,evan-feature22,full_rf_b,,1
130,20693,157,,,,1,1,1.0,1.0,0.0,1.0,,0.0-159.0,,1.0,1159.54,1.0,0.75,1.0,0.7392590729999999,1.0,0.479875835,1.0,0.547007051,True,,5b9d57e5737d030001ad2cbf,,2080073,157,,evan-feature22,full_rf_b,,1
131,20694,158,,,,1,1,0.0,1.0,0.0,1.0,,0.0-160.0,,1.0,639.385,0.0,0.75,1.0,0.7393376979999999,1.0,0.546045419,1.0,0.541267353,True,,5b9d57e5737d030001ad2cbf,,2090524,158,,evan-feature22,full_rf_b,,0
132,20695,159,,,,1,1,1.0,1.0,-1.0,0.0,,0.0-161.0,,-1.0,1536.97,1.0,0.75,1.0,0.75,1.0,0.485725895,1.0,0.527625395,True,,5b9d57e5737d030001ad2cbf,,2101885,159,,evan-feature22,full_rf_b,,0
133,20696,160,,,,1,1,0.0,1.0,0.0,1.0,,0.0-162.0,,1.0,1239.38,0.0,0.75,1.0,0.725087974,0.0,0.488603595,1.0,0.504019206,True,,5b9d57e5737d030001ad2cbf,,2112941,160,,evan-feature22,full_rf_b,,0
134,20697,161,,,,1,1,1.0,1.0,-1.0,0.0,,0.0-163.0,,-1.0,571.11,1.0,0.745504295,1.0,0.75,0.0,0.452379914,1.0,0.50131194,True,,5b9d57e5737d030001ad2cbf,,2123330,161,,evan-feature22,full_rf_b,,0
135,20698,162,,,,1,1,1.0,1.0,0.0,1.0,,0.0-164.0,,1.0,758.93,1.0,0.728513874,1.0,0.75,1.0,0.44125567200000004,1.0,0.531454591,True,,5b9d57e5737d030001ad2cbf,,2133918,162,,evan-feature22,full_rf_b,,0
136,20699,163,,,,2,2,0.0,1.0,-1.0,0.0,,0.0-165.0,,0.0,573.555,1.0,0.73790804,1.0,0.75,0.0,0.413036656,1.0,0.524619035,True,,5b9d57e5737d030001ad2cbf,,2144301,163,,evan-feature22,full_rf_b,,1
137,20700,164,,,,2,2,1.0,0.0,-1.0,0.0,,0.0-166.0,,-1.0,847.775,1.0,0.7080961309999999,1.0,0.708666865,1.0,0.431915581,0.0,0.481819489,True,,5b9d57e5737d030001ad2cbf,,2154948,164,,evan-feature22,full_rf_b,,0
138,20701,165,,,,2,2,1.0,1.0,-1.0,0.0,,0.0-167.0,,-1.0,1037.525,1.0,0.721378003,1.0,0.71605913,1.0,0.36642387,1.0,0.5036739929999999,True,,5b9d57e5737d030001ad2cbf,,2165802,165,,evan-feature22,full_rf_b,,0
139,20702,166,,,,1,1,1.0,1.0,0.0,1.0,,0.0-168.0,,1.0,898.67,1.0,0.7340618959999999,1.0,0.699323252,0.0,0.35298046299999997,1.0,0.511241692,True,,5b9d57e5737d030001ad2cbf,,2176521,166,,evan-feature22,full_rf_b,,1
140,20703,167,,,,1,1,1.0,1.0,0.0,1.0,,0.0-169.0,,1.0,1138.44,1.0,0.75,1.0,0.70412698,0.0,0.380734814,0.0,0.529580116,True,,5b9d57e5737d030001ad2cbf,,2187467,167,,evan-feature22,full_rf_b,,0
141,20704,168,,,,1,1,1.0,1.0,0.0,1.0,,0.0-170.0,,1.0,1172.575,1.0,0.7436654909999999,1.0,0.711182751,0.0,0.41125331,0.0,0.49554405,True,,5b9d57e5737d030001ad2cbf,,2198452,168,,evan-feature22,full_rf_b,,0
142,20705,169,,,,2,2,0.0,0.0,-1.0,0.0,,0.0-171.0,,0.0,952.045,0.0,0.731607915,1.0,0.651774583,0.0,0.35688023,0.0,0.45194491600000003,True,,5b9d57e5737d030001ad2cbf,,2209206,169,,evan-feature22,full_rf_b,,1
143,20706,170,,,,1,1,1.0,1.0,0.0,1.0,,0.0-172.0,,1.0,1123.435,1.0,0.75,1.0,0.75,0.0,0.283145374,0.0,0.528608005,True,,5b9d57e5737d030001ad2cbf,,2220134,170,,evan-feature22,full_rf_b,,1
144,20707,171,,,,2,2,0.0,0.0,-1.0,0.0,,0.0-173.0,,0.0,909.275,1.0,0.7491416890000001,1.0,0.7423785959999999,0.0,0.29135870399999997,0.0,0.498888318,True,,5b9d57e5737d030001ad2cbf,,2230860,171,,evan-feature22,full_rf_b,,1
145,20708,172,,,,1,1,0.0,1.0,0.0,1.0,,0.0-174.0,,1.0,874.155,0.0,0.708569387,1.0,0.717682277,0.0,0.294421699,0.0,0.493838163,True,,5b9d57e5737d030001ad2cbf,,2241545,172,,evan-feature22,full_rf_b,,1
146,20709,173,,,,2,2,0.0,0.0,-1.0,0.0,,0.0-175.0,,0.0,850.125,1.0,0.75,1.0,0.7383382159999999,0.0,0.356098707,0.0,0.442533405,True,,5b9d57e5737d030001ad2cbf,,2252199,173,,evan-feature22,full_rf_b,,1
147,20710,174,,,,2,2,1.0,0.0,-1.0,0.0,,0.0-176.0,,-1.0,818.4,1.0,0.744527075,1.0,0.75,1.0,0.334127506,0.0,0.393165805,True,,5b9d57e5737d030001ad2cbf,,2262846,174,,evan-feature22,full_rf_b,,0
148,20711,175,,,,2,2,1.0,0.0,-1.0,0.0,,0.0-177.0,,-1.0,922.345,1.0,0.75,1.0,0.75,1.0,0.33571021799999995,0.0,0.350393962,True,,5b9d57e5737d030001ad2cbf,,2273600,175,,evan-feature22,full_rf_b,,0
149,20712,176,,,,1,1,1.0,0.0,0.0,1.0,,0.0-178.0,,0.0,1163.59,1.0,0.75,0.0,0.75,1.0,0.313628297,0.0,0.36349657399999996,True,,5b9d57e5737d030001ad2cbf,,2284576,176,,evan-feature22,full_rf_b,,1
150,20713,177,,,,2,2,0.0,0.0,-1.0,0.0,,0.0-179.0,,0.0,828.695,1.0,0.75,1.0,0.734284182,0.0,0.262667667,0.0,0.380199119,True,,5b9d57e5737d030001ad2cbf,,2295215,177,,evan-feature22,full_rf_b,,1
151,20714,178,,,,2,2,0.0,1.0,-1.0,0.0,,0.0-180.0,,0.0,834.33,1.0,0.75,1.0,0.75,0.0,0.25,1.0,0.394494013,True,,5b9d57e5737d030001ad2cbf,,2305864,178,,evan-feature22,full_rf_b,,0
152,20715,179,,,,2,2,0.0,0.0,-1.0,0.0,,0.0-181.0,,0.0,865.755,1.0,0.722298145,0.0,0.7357822340000001,0.0,0.25,0.0,0.319142121,True,,5b9d57e5737d030001ad2cbf,,2316551,179,,evan-feature22,full_rf_b,,0
153,20716,180,,,,2,2,0.0,1.0,-1.0,0.0,,0.0-182.0,,0.0,835.27,0.0,0.73149275,0.0,0.724276446,0.0,0.305856907,1.0,0.281315057,True,,5b9d57e5737d030001ad2cbf,,2327198,180,,evan-feature22,full_rf_b,,0
154,20717,181,,,,2,2,0.0,1.0,-1.0,0.0,,0.0-183.0,,0.0,983.92,1.0,0.7458732690000001,1.0,0.7336382459999999,0.0,0.272571964,1.0,0.266021999,True,,5b9d57e5737d030001ad2cbf,,2338001,181,,evan-feature22,full_rf_b,,0
155,20718,182,,,,1,1,1.0,1.0,0.0,1.0,,0.0-184.0,,1.0,1187.615,1.0,0.705579037,1.0,0.720778292,0.0,0.320238144,1.0,0.30971744,True,,5b9d57e5737d030001ad2cbf,,2348996,182,,evan-feature22,full_rf_b,,1
156,20719,183,,,,1,1,1.0,1.0,0.0,1.0,,0.0-185.0,,1.0,1188.655,1.0,0.700425648,1.0,0.7198784009999999,0.0,0.272590393,0.0,0.304182931,True,,5b9d57e5737d030001ad2cbf,,2359986,183,,evan-feature22,full_rf_b,,0
157,20720,184,,,,1,1,1.0,1.0,0.0,1.0,,0.0-186.0,,1.0,697.84,1.0,0.735590785,1.0,0.722714973,0.0,0.25,0.0,0.323421091,True,,5b9d57e5737d030001ad2cbf,,2370509,184,,evan-feature22,full_rf_b,,0
158,20721,185,,,,1,1,1.0,1.0,0.0,1.0,,0.0-187.0,,1.0,828.28,1.0,0.724807662,1.0,0.63146213,0.0,0.36836492600000004,0.0,0.34592153299999995,True,,5b9d57e5737d030001ad2cbf,,2381158,185,,evan-feature22,full_rf_b,,0
159,20722,186,,,,2,2,0.0,0.0,-1.0,0.0,,0.0-188.0,,0.0,922.325,0.0,0.7352796909999999,1.0,0.555111392,0.0,0.36003922,0.0,0.31433779999999995,True,,5b9d57e5737d030001ad2cbf,,2391905,186,,evan-feature22,full_rf_b,,1
160,20723,187,notice,,,,,,,,,,0.0-189.0,"{""Q0"":""""}",,41638.0,,,,,,,,,True,,5b9d57e5737d030001ad2cbf,,2433544,187,Q,survey-text,full_rf_b,,1
161,20724,188,track1,,[0],,,,,,,,0.0-190.0,"{""Q0"":""yes""}",,4649.0,,,,,,,,,True,,5b9d57e5737d030001ad2cbf,,2438196,188,Q,evan-quiz,full_rf_b,,1
162,20725,189,track2,,[2],,,,,,,,0.0-191.0,"{""Q0"":""N/A""}",,11640.0,,,,,,,,,True,,5b9d57e5737d030001ad2cbf,,2449841,189,Q,evan-quiz,full_rf_b,,1
163,20726,190,strat,,,,,,,,,,0.0-192.0,"{""Q0"":""""}",,12382.0,,,,,,,,,True,,5b9d57e5737d030001ad2cbf,,2462227,190,Q,survey-text,full_rf_b,,1
