,index,Unnamed: 0,Q_name,button_pressed,choice_idxs,chosen_pos,chosen_state,chosen_state_f_1_outcome,chosen_state_f_2_outcome,f_1_reward,f_2_reward,incor_questions,internal_node_id,responses,reward_received,rt,s_1_f_1_outcome,s_1_f_1_prob,s_1_f_2_outcome,s_1_f_2_prob,s_2_f_1_outcome,s_2_f_1_prob,s_2_f_2_outcome,s_2_f_2_prob,safe_first,stimulus,subjectID,success,time_elapsed,trial_index,trial_num,trial_type,version,view_history,switching
0,37577,30,,,,SLOW,SLOW,,,-1.0,0.0,,0.0-27.0,,-3.0,,0.0,0.6,1.0,0.6,1.0,0.4,0.0,0.4,False,,56cf683331a5bc000de1d20e,,846594,30,,evan-feature22,full_pf_b,,0
1,37578,31,,,,1,1,1.0,0.0,-1.0,0.0,,0.0-28.0,,-1.0,2032.0,1.0,0.608053294,0.0,0.63424552,1.0,0.397152172,0.0,0.347069101,False,,56cf683331a5bc000de1d20e,,858494,31,,evan-feature22,full_pf_b,,1
2,37579,32,,,,1,1,1.0,1.0,-1.0,0.0,,0.0-29.0,,-1.0,1659.0,1.0,0.642237155,1.0,0.648566321,0.0,0.389407674,1.0,0.285525717,False,,56cf683331a5bc000de1d20e,,870033,32,,evan-feature22,full_pf_b,,0
3,37580,33,,,,2,2,0.0,0.0,-1.0,0.0,,0.0-30.0,,0.0,781.0,1.0,0.661086576,1.0,0.630492543,0.0,0.399058924,0.0,0.25,False,,56cf683331a5bc000de1d20e,,880665,33,,evan-feature22,full_pf_b,,1
4,37581,34,,,,1,1,0.0,1.0,0.0,1.0,,0.0-31.0,,1.0,487.0,0.0,0.631324137,1.0,0.6269842929999999,0.0,0.38734784299999997,0.0,0.25,False,,56cf683331a5bc000de1d20e,,891034,34,,evan-feature22,full_pf_b,,1
5,37582,35,,,,1,1,1.0,1.0,0.0,1.0,,0.0-32.0,,1.0,2580.0,1.0,0.6381991370000001,1.0,0.68987999,0.0,0.384107265,0.0,0.271332943,False,,56cf683331a5bc000de1d20e,,903444,35,,evan-feature22,full_pf_b,,0
6,37583,36,,,,2,2,1.0,0.0,-1.0,0.0,,0.0-33.0,,-1.0,831.0,1.0,0.66034901,0.0,0.742641349,1.0,0.360225629,0.0,0.25,False,,56cf683331a5bc000de1d20e,,914125,36,,evan-feature22,full_pf_b,,1
7,37584,37,,,,1,1,1.0,1.0,-1.0,0.0,,0.0-34.0,,-1.0,1589.0,1.0,0.638612418,1.0,0.75,0.0,0.367273939,0.0,0.25,False,,56cf683331a5bc000de1d20e,,925563,37,,evan-feature22,full_pf_b,,1
8,37585,38,,,,2,2,0.0,1.0,0.0,1.0,,0.0-35.0,,1.0,3244.0,0.0,0.624340629,0.0,0.75,0.0,0.425829545,1.0,0.25,False,,56cf683331a5bc000de1d20e,,938644,38,,evan-feature22,full_pf_b,,1
9,37586,39,,,,1,1,1.0,1.0,0.0,1.0,,0.0-36.0,,1.0,1100.0,1.0,0.621999804,1.0,0.75,0.0,0.368609357,0.0,0.25,False,,56cf683331a5bc000de1d20e,,949594,39,,evan-feature22,full_pf_b,,1
10,37587,40,,,,1,1,1.0,1.0,-1.0,0.0,,0.0-37.0,,-1.0,1120.0,1.0,0.62666403,1.0,0.75,1.0,0.311151498,0.0,0.25,False,,56cf683331a5bc000de1d20e,,960554,40,,evan-feature22,full_pf_b,,0
11,37588,41,,,,2,2,0.0,0.0,0.0,1.0,,0.0-38.0,,0.0,2110.0,1.0,0.6819650009999999,1.0,0.75,0.0,0.310763048,0.0,0.25,False,,56cf683331a5bc000de1d20e,,972535,41,,evan-feature22,full_pf_b,,1
12,37589,42,,,,1,1,0.0,1.0,-1.0,0.0,,0.0-39.0,,0.0,1288.0,0.0,0.740626951,1.0,0.75,0.0,0.25,1.0,0.25,False,,56cf683331a5bc000de1d20e,,983695,42,,evan-feature22,full_pf_b,,1
13,37590,43,,,,1,1,0.0,1.0,-1.0,0.0,,0.0-40.0,,0.0,1198.0,0.0,0.739599242,1.0,0.742034978,0.0,0.25397114600000004,1.0,0.25,False,,56cf683331a5bc000de1d20e,,994754,43,,evan-feature22,full_pf_b,,0
14,37591,44,,,,1,1,1.0,1.0,-1.0,0.0,,0.0-41.0,,-1.0,2096.0,1.0,0.732341315,1.0,0.72735643,0.0,0.25,0.0,0.25,False,,56cf683331a5bc000de1d20e,,1006714,44,,evan-feature22,full_pf_b,,0
15,37592,45,,,,2,2,1.0,0.0,-1.0,0.0,,0.0-42.0,,-1.0,1239.0,1.0,0.7062287770000001,1.0,0.75,1.0,0.29002151,0.0,0.288256649,False,,56cf683331a5bc000de1d20e,,1017815,45,,evan-feature22,full_pf_b,,1
16,37593,46,,,,2,2,0.0,0.0,-1.0,0.0,,0.0-43.0,,0.0,1099.0,1.0,0.7086029209999999,1.0,0.75,0.0,0.274129113,0.0,0.262851608,False,,56cf683331a5bc000de1d20e,,1028774,46,,evan-feature22,full_pf_b,,0
17,37594,47,,,,2,2,0.0,0.0,-1.0,0.0,,0.0-44.0,,0.0,1388.0,1.0,0.669189651,0.0,0.727614338,0.0,0.298444036,0.0,0.296944518,False,,56cf683331a5bc000de1d20e,,1040034,47,,evan-feature22,full_pf_b,,0
18,37595,48,,,,2,2,1.0,0.0,-1.0,0.0,,0.0-45.0,,-1.0,1205.0,1.0,0.6819912929999999,1.0,0.7179434290000001,1.0,0.265003961,0.0,0.28157921199999997,False,,56cf683331a5bc000de1d20e,,1051072,48,,evan-feature22,full_pf_b,,0
19,37596,49,,,,1,1,1.0,1.0,0.0,1.0,,0.0-46.0,,1.0,1044.0,1.0,0.665275002,1.0,0.723065271,1.0,0.260414971,0.0,0.30973870000000003,False,,56cf683331a5bc000de1d20e,,1061965,49,,evan-feature22,full_pf_b,,1
20,37597,50,,,,1,1,1.0,1.0,-1.0,0.0,,0.0-47.0,,-1.0,1061.0,1.0,0.6660593260000001,1.0,0.728032907,0.0,0.30922817,0.0,0.338778608,False,,56cf683331a5bc000de1d20e,,1072844,50,,evan-feature22,full_pf_b,,0
21,37598,51,,,,1,1,1.0,0.0,-1.0,0.0,,0.0-48.0,,-1.0,1977.0,1.0,0.702068785,0.0,0.6528750879999999,0.0,0.287329608,0.0,0.35789613200000003,False,,56cf683331a5bc000de1d20e,,1084664,51,,evan-feature22,full_pf_b,,0
22,37599,52,,,,1,1,0.0,1.0,-1.0,0.0,,0.0-49.0,,0.0,658.0,0.0,0.651939787,1.0,0.636725589,0.0,0.284834488,1.0,0.358563756,False,,56cf683331a5bc000de1d20e,,1095185,52,,evan-feature22,full_pf_b,,0
23,37600,53,,,,2,2,1.0,1.0,0.0,1.0,,0.0-50.0,,1.0,1235.0,1.0,0.67573929,1.0,0.612550049,1.0,0.37130387600000003,1.0,0.383542402,False,,56cf683331a5bc000de1d20e,,1106284,53,,evan-feature22,full_pf_b,,1
24,37601,54,,,,2,2,1.0,0.0,0.0,1.0,,0.0-51.0,,0.0,754.0,1.0,0.620753801,0.0,0.60513644,1.0,0.385529434,0.0,0.340361743,False,,56cf683331a5bc000de1d20e,,1116894,54,,evan-feature22,full_pf_b,,0
25,37602,55,,,,1,1,0.0,1.0,0.0,1.0,,0.0-52.0,,1.0,1458.0,0.0,0.673564893,1.0,0.672437924,0.0,0.292955382,0.0,0.337633795,False,,56cf683331a5bc000de1d20e,,1128194,55,,evan-feature22,full_pf_b,,1
26,37603,56,,,,1,1,0.0,1.0,-1.0,0.0,,0.0-53.0,,0.0,1777.0,0.0,0.6749427,1.0,0.724197502,0.0,0.32391132100000003,0.0,0.350995264,False,,56cf683331a5bc000de1d20e,,1139814,56,,evan-feature22,full_pf_b,,0
27,37604,57,,,,2,2,0.0,1.0,-1.0,0.0,,0.0-54.0,,0.0,1876.0,1.0,0.6940159379999999,1.0,0.75,0.0,0.31710554399999996,1.0,0.413450341,False,,56cf683331a5bc000de1d20e,,1151554,57,,evan-feature22,full_pf_b,,1
28,37605,58,,,,1,1,0.0,0.0,-1.0,0.0,,0.0-55.0,,0.0,536.0,0.0,0.6916018270000001,0.0,0.69001187,0.0,0.261817804,0.0,0.40038635,False,,56cf683331a5bc000de1d20e,,1161934,58,,evan-feature22,full_pf_b,,1
29,37606,59,,,,1,1,1.0,1.0,-1.0,0.0,,0.0-56.0,,-1.0,2206.0,1.0,0.641061544,1.0,0.71337992,0.0,0.277296461,1.0,0.47372791700000005,False,,56cf683331a5bc000de1d20e,,1174005,59,,evan-feature22,full_pf_b,,0
30,37607,60,,,,2,2,0.0,0.0,-1.0,0.0,,0.0-57.0,,0.0,544.0,1.0,0.6082438520000001,1.0,0.708471106,0.0,0.28745137,0.0,0.564174476,False,,56cf683331a5bc000de1d20e,,1184384,60,,evan-feature22,full_pf_b,,1
31,37608,61,,,,2,2,1.0,1.0,-1.0,0.0,,0.0-58.0,,-1.0,1629.0,0.0,0.6051112120000001,0.0,0.7118147229999999,1.0,0.272390611,1.0,0.5595149939999999,False,,56cf683331a5bc000de1d20e,,1195844,61,,evan-feature22,full_pf_b,,0
32,37609,62,,,,1,1,0.0,1.0,-1.0,0.0,,0.0-59.0,,0.0,1128.0,0.0,0.582420852,1.0,0.635867583,0.0,0.31089574,1.0,0.5227206520000001,False,,56cf683331a5bc000de1d20e,,1206824,62,,evan-feature22,full_pf_b,,1
33,37610,63,,,,2,2,1.0,1.0,0.0,1.0,,0.0-60.0,,1.0,3473.0,1.0,0.623195575,0.0,0.655026044,1.0,0.25,1.0,0.560387538,False,,56cf683331a5bc000de1d20e,,1220124,63,,evan-feature22,full_pf_b,,1
34,37611,64,,,,2,2,0.0,1.0,-1.0,0.0,,0.0-61.0,,0.0,1197.0,0.0,0.601889598,1.0,0.678198724,0.0,0.25,1.0,0.559922936,False,,56cf683331a5bc000de1d20e,,1231144,64,,evan-feature22,full_pf_b,,0
35,37612,65,,,,1,1,1.0,1.0,-1.0,0.0,,0.0-62.0,,-1.0,824.0,1.0,0.601259914,1.0,0.704681482,1.0,0.33908969299999997,1.0,0.505003715,False,,56cf683331a5bc000de1d20e,,1241834,65,,evan-feature22,full_pf_b,,1
36,37613,66,,,,2,2,0.0,1.0,-1.0,0.0,,0.0-63.0,,0.0,1412.0,0.0,0.59645454,0.0,0.710437172,0.0,0.327441879,1.0,0.391749613,False,,56cf683331a5bc000de1d20e,,1253104,66,,evan-feature22,full_pf_b,,1
37,37614,67,,,,2,2,0.0,1.0,-1.0,0.0,,0.0-64.0,,0.0,1242.0,1.0,0.529473,1.0,0.636758527,0.0,0.301338063,1.0,0.365661481,False,,56cf683331a5bc000de1d20e,,1264214,67,,evan-feature22,full_pf_b,,0
38,37615,68,,,,2,2,1.0,1.0,0.0,1.0,,0.0-65.0,,1.0,3403.0,1.0,0.541657162,1.0,0.634541962,1.0,0.343535366,1.0,0.371763742,False,,56cf683331a5bc000de1d20e,,1277485,68,,evan-feature22,full_pf_b,,0
39,37616,69,,,,1,1,1.0,1.0,-1.0,0.0,,0.0-66.0,,-1.0,2459.0,1.0,0.5707533260000001,1.0,0.589121171,0.0,0.326428396,0.0,0.43961622899999997,False,,56cf683331a5bc000de1d20e,,1289825,69,,evan-feature22,full_pf_b,,1
40,37617,70,,,,2,2,0.0,0.0,-1.0,0.0,,0.0-67.0,,0.0,637.0,1.0,0.5707533260000001,0.0,0.589121171,0.0,0.326428396,0.0,0.43961622899999997,False,,56cf683331a5bc000de1d20e,,1300304,70,,evan-feature22,full_pf_b,,1
41,37618,71,,,,SLOW,SLOW,,,-1.0,0.0,,0.0-68.0,,-3.0,,0.0,0.506271295,0.0,0.641775594,0.0,0.37149690700000004,0.0,0.404330166,False,,56cf683331a5bc000de1d20e,,1306145,71,,evan-feature22,full_pf_b,,1
42,37619,72,,,,2,2,0.0,0.0,0.0,1.0,,0.0-69.0,,0.0,2359.0,1.0,0.455642565,1.0,0.623605825,0.0,0.358753011,0.0,0.346174041,False,,56cf683331a5bc000de1d20e,,1318354,72,,evan-feature22,full_pf_b,,1
43,37620,73,,,,1,1,1.0,1.0,0.0,1.0,,0.0-70.0,,1.0,2736.0,1.0,0.483677308,1.0,0.5904681070000001,1.0,0.402218411,1.0,0.35344697,False,,56cf683331a5bc000de1d20e,,1330924,73,,evan-feature22,full_pf_b,,1
44,37621,74,,,,1,1,0.0,0.0,0.0,1.0,,0.0-71.0,,0.0,1810.0,0.0,0.394210977,0.0,0.558925494,1.0,0.540052017,0.0,0.35182128700000004,False,,56cf683331a5bc000de1d20e,,1342584,74,,evan-feature22,full_pf_b,,0
45,37622,75,,,,2,2,1.0,0.0,-1.0,0.0,,0.0-72.0,,-1.0,3415.0,0.0,0.382300414,1.0,0.577670603,1.0,0.607608448,0.0,0.378261578,False,,56cf683331a5bc000de1d20e,,1355864,75,,evan-feature22,full_pf_b,,1
46,37623,76,,,,1,1,0.0,1.0,-1.0,0.0,,0.0-73.0,,0.0,2372.0,0.0,0.357596762,1.0,0.5929076529999999,0.0,0.6579790010000001,1.0,0.401326777,False,,56cf683331a5bc000de1d20e,,1368086,76,,evan-feature22,full_pf_b,,1
47,37624,77,,,,1,1,0.0,1.0,-1.0,0.0,,0.0-74.0,,0.0,2768.0,0.0,0.362033495,1.0,0.582308608,1.0,0.649195052,0.0,0.355158505,False,,56cf683331a5bc000de1d20e,,1380714,77,,evan-feature22,full_pf_b,,0
48,37625,78,,,,1,1,0.0,0.0,-1.0,0.0,,0.0-75.0,,0.0,2241.0,0.0,0.369620635,0.0,0.669100864,1.0,0.706059111,0.0,0.362516241,False,,56cf683331a5bc000de1d20e,,1392804,78,,evan-feature22,full_pf_b,,0
49,37626,79,,,,2,2,1.0,0.0,-1.0,0.0,,0.0-76.0,,-1.0,2836.0,1.0,0.41477751399999996,1.0,0.7284416779999999,1.0,0.7182656940000001,0.0,0.36228040899999997,False,,56cf683331a5bc000de1d20e,,1405494,79,,evan-feature22,full_pf_b,,1
50,37627,80,,,,1,1,1.0,0.0,0.0,1.0,,0.0-77.0,,0.0,1299.0,1.0,0.37675460299999997,0.0,0.703250285,0.0,0.75,1.0,0.461979164,False,,56cf683331a5bc000de1d20e,,1416675,80,,evan-feature22,full_pf_b,,1
51,37628,81,,,,1,1,0.0,1.0,0.0,1.0,,0.0-78.0,,1.0,1991.0,0.0,0.398716075,1.0,0.6723864890000001,1.0,0.674153818,1.0,0.519029516,False,,56cf683331a5bc000de1d20e,,1428528,81,,evan-feature22,full_pf_b,,0
52,37629,82,,,,1,1,0.0,0.0,-1.0,0.0,,0.0-79.0,,0.0,2390.0,0.0,0.34677856700000004,0.0,0.69057175,0.0,0.6822438540000001,0.0,0.477292237,False,,56cf683331a5bc000de1d20e,,1440765,82,,evan-feature22,full_pf_b,,0
53,37630,83,,,,1,1,0.0,1.0,0.0,1.0,,0.0-80.0,,1.0,1147.0,0.0,0.28580469199999997,1.0,0.68408818,0.0,0.684207565,1.0,0.49780448299999996,False,,56cf683331a5bc000de1d20e,,1451764,83,,evan-feature22,full_pf_b,,0
54,37632,85,,,,1,1,0.0,1.0,-1.0,0.0,,0.0-82.0,,0.0,2220.0,0.0,0.25,1.0,0.7405808970000001,0.0,0.679614108,0.0,0.436436964,False,,56cf683331a5bc000de1d20e,,1470054,85,,evan-feature22,full_pf_b,,0
55,37633,86,,,,1,1,0.0,1.0,0.0,1.0,,0.0-83.0,,1.0,2267.0,0.0,0.29890393,1.0,0.730505706,1.0,0.7328203320000001,1.0,0.439256938,False,,56cf683331a5bc000de1d20e,,1482125,86,,evan-feature22,full_pf_b,,0
56,37634,87,,,,1,1,1.0,0.0,-1.0,0.0,,0.0-84.0,,-1.0,2872.0,1.0,0.326762398,0.0,0.7148059609999999,0.0,0.75,0.0,0.44389608799999997,False,,56cf683331a5bc000de1d20e,,1494814,87,,evan-feature22,full_pf_b,,0
57,37635,88,,,,1,1,0.0,1.0,-1.0,0.0,,0.0-85.0,,0.0,2907.0,0.0,0.295168515,1.0,0.739760854,1.0,0.719947008,0.0,0.35277284600000003,False,,56cf683331a5bc000de1d20e,,1507567,88,,evan-feature22,full_pf_b,,0
58,37636,89,,,,2,2,1.0,0.0,-1.0,0.0,,0.0-86.0,,-1.0,2371.0,1.0,0.25,0.0,0.70781482,1.0,0.75,0.0,0.286095925,False,,56cf683331a5bc000de1d20e,,1519774,89,,evan-feature22,full_pf_b,,1
59,37637,90,,,,1,1,0.0,1.0,0.0,1.0,,0.0-87.0,,1.0,1510.0,0.0,0.25638190899999996,1.0,0.704088163,1.0,0.75,1.0,0.26872601399999996,False,,56cf683331a5bc000de1d20e,,1531134,90,,evan-feature22,full_pf_b,,1
60,37638,91,,,,1,1,0.0,1.0,0.0,1.0,,0.0-88.0,,1.0,2905.0,0.0,0.271581126,1.0,0.669760107,1.0,0.733896663,1.0,0.273244572,False,,56cf683331a5bc000de1d20e,,1543884,91,,evan-feature22,full_pf_b,,0
61,37639,92,,,,2,2,1.0,0.0,0.0,1.0,,0.0-89.0,,0.0,2699.0,0.0,0.257144401,0.0,0.600575706,1.0,0.74488122,0.0,0.25,False,,56cf683331a5bc000de1d20e,,1556435,92,,evan-feature22,full_pf_b,,1
62,37640,93,,,,1,1,0.0,1.0,-1.0,0.0,,0.0-90.0,,0.0,3426.0,0.0,0.25,1.0,0.616870026,1.0,0.723610234,0.0,0.25,False,,56cf683331a5bc000de1d20e,,1569694,93,,evan-feature22,full_pf_b,,1
63,37641,94,,,,1,1,0.0,0.0,0.0,1.0,,0.0-91.0,,0.0,1049.0,0.0,0.25,0.0,0.583540187,1.0,0.7041042559999999,0.0,0.285961995,False,,56cf683331a5bc000de1d20e,,1580595,94,,evan-feature22,full_pf_b,,0
64,37642,95,,,,1,1,0.0,1.0,-1.0,0.0,,0.0-92.0,,0.0,906.0,0.0,0.27254536,1.0,0.53875765,0.0,0.693783448,0.0,0.284961652,False,,56cf683331a5bc000de1d20e,,1591334,95,,evan-feature22,full_pf_b,,0
65,37643,96,,,,1,1,0.0,1.0,0.0,1.0,,0.0-93.0,,1.0,822.0,0.0,0.25,1.0,0.548431252,1.0,0.734221895,0.0,0.279445214,False,,56cf683331a5bc000de1d20e,,1602015,96,,evan-feature22,full_pf_b,,0
66,37644,97,,,,1,1,0.0,0.0,-1.0,0.0,,0.0-94.0,,0.0,2193.0,0.0,0.258640684,0.0,0.545878066,1.0,0.725245965,0.0,0.31487537,False,,56cf683331a5bc000de1d20e,,1614047,97,,evan-feature22,full_pf_b,,0
67,37645,98,,,,2,2,1.0,1.0,-1.0,0.0,,0.0-95.0,,-1.0,2350.0,1.0,0.251103711,0.0,0.5776290629999999,1.0,0.696320133,1.0,0.317831047,False,,56cf683331a5bc000de1d20e,,1626244,98,,evan-feature22,full_pf_b,,1
68,37646,99,,,,1,1,0.0,0.0,-1.0,0.0,,0.0-96.0,,0.0,1605.0,0.0,0.276630292,0.0,0.617329858,0.0,0.73838088,0.0,0.261471582,False,,56cf683331a5bc000de1d20e,,1637695,99,,evan-feature22,full_pf_b,,1
69,37647,100,,,,1,1,1.0,0.0,0.0,1.0,,0.0-97.0,,0.0,3795.0,1.0,0.297716424,0.0,0.618863717,0.0,0.7402358259999999,0.0,0.262600834,False,,56cf683331a5bc000de1d20e,,1651324,100,,evan-feature22,full_pf_b,,0
70,37648,101,,,,1,1,0.0,0.0,-1.0,0.0,,0.0-98.0,,0.0,2221.0,0.0,0.290935512,0.0,0.695370945,1.0,0.706570507,1.0,0.280030553,False,,56cf683331a5bc000de1d20e,,1663405,101,,evan-feature22,full_pf_b,,0
71,37649,102,,,,1,1,0.0,0.0,-1.0,0.0,,0.0-99.0,,0.0,2580.0,0.0,0.25,0.0,0.6465277079999999,1.0,0.67766682,0.0,0.25,False,,56cf683331a5bc000de1d20e,,1675844,102,,evan-feature22,full_pf_b,,0
72,37650,103,,,,SLOW,SLOW,,,-1.0,0.0,,0.0-100.0,,-3.0,,0.0,0.26463816,1.0,0.636100213,1.0,0.646048507,0.0,0.265607101,False,,56cf683331a5bc000de1d20e,,1681695,103,,evan-feature22,full_pf_b,,1
73,37651,104,,,,1,1,0.0,0.0,-1.0,0.0,,0.0-101.0,,0.0,1702.0,0.0,0.314340707,0.0,0.667795927,0.0,0.613630805,0.0,0.25,False,,56cf683331a5bc000de1d20e,,1693255,104,,evan-feature22,full_pf_b,,1
74,37652,105,,,,1,1,0.0,1.0,-1.0,0.0,,0.0-102.0,,0.0,1535.0,0.0,0.28685784,1.0,0.6622549529999999,0.0,0.652154117,0.0,0.25,False,,56cf683331a5bc000de1d20e,,1704614,105,,evan-feature22,full_pf_b,,0
75,37653,106,,,,2,2,1.0,0.0,0.0,1.0,,0.0-103.0,,0.0,3928.0,1.0,0.304106554,0.0,0.631289538,1.0,0.707041942,0.0,0.29314237,False,,56cf683331a5bc000de1d20e,,1718405,106,,evan-feature22,full_pf_b,,1
76,37654,107,,,,1,1,1.0,0.0,0.0,1.0,,0.0-104.0,,0.0,1079.0,1.0,0.304806932,0.0,0.571167718,1.0,0.680472346,1.0,0.25,False,,56cf683331a5bc000de1d20e,,1729345,107,,evan-feature22,full_pf_b,,1
77,37655,108,,,,1,1,0.0,0.0,0.0,1.0,,0.0-105.0,,0.0,1558.0,0.0,0.37919861,0.0,0.5724849710000001,0.0,0.705638003,0.0,0.30179300600000003,False,,56cf683331a5bc000de1d20e,,1740734,108,,evan-feature22,full_pf_b,,0
78,37656,109,,,,1,1,0.0,0.0,0.0,1.0,,0.0-106.0,,0.0,2999.0,0.0,0.464277969,0.0,0.554034373,1.0,0.7372627340000001,1.0,0.264699741,False,,56cf683331a5bc000de1d20e,,1753585,109,,evan-feature22,full_pf_b,,0
79,37657,110,,,,1,1,0.0,1.0,-1.0,0.0,,0.0-107.0,,0.0,3840.0,0.0,0.465104323,1.0,0.530793115,1.0,0.75,0.0,0.31683071,False,,56cf683331a5bc000de1d20e,,1767295,110,,evan-feature22,full_pf_b,,0
80,37658,111,,,,2,2,0.0,1.0,0.0,1.0,,0.0-108.0,,1.0,1556.0,0.0,0.465104323,1.0,0.530793115,0.0,0.75,1.0,0.31683071,False,,56cf683331a5bc000de1d20e,,1778695,111,,evan-feature22,full_pf_b,,1
81,37659,112,,,,2,2,0.0,1.0,0.0,1.0,,0.0-109.0,,1.0,2201.0,0.0,0.46833986,0.0,0.570249239,0.0,0.7244472590000001,1.0,0.364114163,False,,56cf683331a5bc000de1d20e,,1790755,112,,evan-feature22,full_pf_b,,0
82,37660,113,,,,2,2,1.0,0.0,0.0,1.0,,0.0-110.0,,0.0,1938.0,1.0,0.445444024,0.0,0.649673355,1.0,0.6845441290000001,0.0,0.300660449,False,,56cf683331a5bc000de1d20e,,1802555,113,,evan-feature22,full_pf_b,,0
83,37661,114,,,,1,1,0.0,1.0,0.0,1.0,,0.0-111.0,,1.0,1154.0,0.0,0.39909721299999995,1.0,0.6715179509999999,1.0,0.742310028,1.0,0.35496088299999995,False,,56cf683331a5bc000de1d20e,,1813575,114,,evan-feature22,full_pf_b,,1
84,37662,115,,,,1,1,0.0,1.0,0.0,1.0,,0.0-112.0,,1.0,1450.0,0.0,0.37956104799999996,1.0,0.694725302,1.0,0.7181651309999999,0.0,0.38726906299999997,False,,56cf683331a5bc000de1d20e,,1824895,115,,evan-feature22,full_pf_b,,0
85,37663,116,,,,1,1,1.0,1.0,0.0,1.0,,0.0-113.0,,1.0,1990.0,1.0,0.404995034,1.0,0.724375412,0.0,0.6910946859999999,1.0,0.387187347,False,,56cf683331a5bc000de1d20e,,1836734,116,,evan-feature22,full_pf_b,,0
86,37664,117,,,,1,1,0.0,0.0,0.0,1.0,,0.0-114.0,,0.0,741.0,0.0,0.461740803,0.0,0.75,1.0,0.75,0.0,0.34872038200000005,False,,56cf683331a5bc000de1d20e,,1847335,117,,evan-feature22,full_pf_b,,0
87,37665,118,,,,2,2,1.0,0.0,-1.0,0.0,,0.0-115.0,,-1.0,2138.0,0.0,0.43821380600000004,1.0,0.738833273,1.0,0.728286963,0.0,0.399538128,False,,56cf683331a5bc000de1d20e,,1859345,118,,evan-feature22,full_pf_b,,1
88,37666,119,,,,1,1,1.0,1.0,0.0,1.0,,0.0-116.0,,1.0,1285.0,1.0,0.41709882,1.0,0.736666736,1.0,0.75,0.0,0.389095584,False,,56cf683331a5bc000de1d20e,,1870495,119,,evan-feature22,full_pf_b,,1
89,37667,120,,,,1,1,0.0,0.0,0.0,1.0,,0.0-117.0,,0.0,1653.0,0.0,0.39749009799999996,0.0,0.744320029,1.0,0.75,0.0,0.363848678,False,,56cf683331a5bc000de1d20e,,1881984,120,,evan-feature22,full_pf_b,,0
90,37668,121,,,,1,1,0.0,1.0,-1.0,0.0,,0.0-118.0,,0.0,1130.0,0.0,0.392653706,1.0,0.75,0.0,0.75,1.0,0.384386976,False,,56cf683331a5bc000de1d20e,,1892965,121,,evan-feature22,full_pf_b,,0
91,37669,122,,,,1,1,0.0,1.0,-1.0,0.0,,0.0-119.0,,0.0,1360.0,0.0,0.31190902600000003,1.0,0.75,1.0,0.732413819,1.0,0.413082932,False,,56cf683331a5bc000de1d20e,,1904185,122,,evan-feature22,full_pf_b,,0
92,37670,123,,,,1,1,1.0,1.0,0.0,1.0,,0.0-120.0,,1.0,2297.0,1.0,0.366917648,1.0,0.740073855,1.0,0.75,1.0,0.352861979,False,,56cf683331a5bc000de1d20e,,1916324,123,,evan-feature22,full_pf_b,,0
93,37671,124,,,,2,2,1.0,1.0,0.0,1.0,,0.0-121.0,,1.0,2194.0,0.0,0.3645172,1.0,0.721770713,1.0,0.75,1.0,0.404074511,False,,56cf683331a5bc000de1d20e,,1928374,124,,evan-feature22,full_pf_b,,1
94,37672,125,,,,1,1,1.0,1.0,0.0,1.0,,0.0-122.0,,1.0,970.0,1.0,0.35205600299999995,1.0,0.68983859,1.0,0.739735447,0.0,0.366895945,False,,56cf683331a5bc000de1d20e,,1939215,125,,evan-feature22,full_pf_b,,1
95,37673,126,,,,2,2,1.0,0.0,0.0,1.0,,0.0-123.0,,0.0,1844.0,1.0,0.40998722600000004,1.0,0.720859127,1.0,0.673854955,0.0,0.368528541,False,,56cf683331a5bc000de1d20e,,1950915,126,,evan-feature22,full_pf_b,,1
96,37674,127,,,,1,1,1.0,1.0,-1.0,0.0,,0.0-124.0,,-1.0,2059.0,1.0,0.353625316,1.0,0.75,1.0,0.695605473,1.0,0.38303674200000004,False,,56cf683331a5bc000de1d20e,,1962835,127,,evan-feature22,full_pf_b,,1
97,37675,128,,,,1,1,0.0,1.0,0.0,1.0,,0.0-125.0,,1.0,1571.0,0.0,0.359216989,1.0,0.75,1.0,0.6987915090000001,1.0,0.35169046200000004,False,,56cf683331a5bc000de1d20e,,1974244,128,,evan-feature22,full_pf_b,,0
98,37676,129,,,,2,2,1.0,0.0,-1.0,0.0,,0.0-126.0,,-1.0,2101.0,0.0,0.35834496899999996,1.0,0.75,1.0,0.707067742,0.0,0.416763636,False,,56cf683331a5bc000de1d20e,,1986185,129,,evan-feature22,full_pf_b,,1
99,37677,130,,,,1,1,1.0,1.0,-1.0,0.0,,0.0-127.0,,-1.0,2201.0,1.0,0.38741613799999997,1.0,0.7177369570000001,1.0,0.734902455,1.0,0.49438664299999996,False,,56cf683331a5bc000de1d20e,,1998215,130,,evan-feature22,full_pf_b,,1
100,37678,131,,,,1,1,0.0,1.0,0.0,1.0,,0.0-128.0,,1.0,875.0,0.0,0.405255252,1.0,0.7300466640000001,1.0,0.7027748070000001,1.0,0.504359668,False,,56cf683331a5bc000de1d20e,,2008925,131,,evan-feature22,full_pf_b,,0
101,37679,132,,,,1,1,0.0,1.0,0.0,1.0,,0.0-129.0,,1.0,1699.0,0.0,0.40697073,1.0,0.7260142190000001,1.0,0.724461982,1.0,0.522779179,False,,56cf683331a5bc000de1d20e,,2020474,132,,evan-feature22,full_pf_b,,0
102,37680,133,,,,1,1,1.0,1.0,0.0,1.0,,0.0-130.0,,1.0,1047.0,1.0,0.43906215299999996,1.0,0.7252802340000001,1.0,0.719079934,0.0,0.5712990579999999,False,,56cf683331a5bc000de1d20e,,2031345,133,,evan-feature22,full_pf_b,,0
103,37681,134,,,,1,1,1.0,1.0,0.0,1.0,,0.0-131.0,,1.0,2357.0,1.0,0.4076705,1.0,0.73280499,1.0,0.681313127,0.0,0.523891346,False,,56cf683331a5bc000de1d20e,,2043544,134,,evan-feature22,full_pf_b,,0
104,37682,135,,,,1,1,0.0,1.0,0.0,1.0,,0.0-132.0,,1.0,745.0,0.0,0.399102911,1.0,0.730498344,1.0,0.661080239,0.0,0.46742603,False,,56cf683331a5bc000de1d20e,,2054125,135,,evan-feature22,full_pf_b,,0
105,37683,136,,,,1,1,0.0,0.0,-1.0,0.0,,0.0-133.0,,0.0,1503.0,0.0,0.356477282,0.0,0.712296395,0.0,0.641812684,1.0,0.44868414,False,,56cf683331a5bc000de1d20e,,2065474,136,,evan-feature22,full_pf_b,,0
106,37684,137,,,,2,2,1.0,0.0,0.0,1.0,,0.0-134.0,,0.0,2246.0,0.0,0.462760722,0.0,0.692349322,1.0,0.700947931,0.0,0.394680266,False,,56cf683331a5bc000de1d20e,,2077585,137,,evan-feature22,full_pf_b,,1
107,37685,138,,,,1,1,0.0,0.0,0.0,1.0,,0.0-135.0,,0.0,1032.0,0.0,0.422306413,0.0,0.718375916,0.0,0.706340917,0.0,0.367787185,False,,56cf683331a5bc000de1d20e,,2088464,138,,evan-feature22,full_pf_b,,1
108,37687,140,,,,1,1,0.0,0.0,0.0,1.0,,0.0-137.0,,0.0,2053.0,0.0,0.4582233,0.0,0.643834117,1.0,0.75,0.0,0.39615823299999997,False,,56cf683331a5bc000de1d20e,,2104674,140,,evan-feature22,full_pf_b,,0
109,37688,141,,,,1,1,0.0,1.0,0.0,1.0,,0.0-138.0,,1.0,1573.0,0.0,0.43813437899999996,1.0,0.651283804,1.0,0.729674191,1.0,0.37711048,False,,56cf683331a5bc000de1d20e,,2116085,141,,evan-feature22,full_pf_b,,0
110,37689,142,,,,1,1,1.0,0.0,0.0,1.0,,0.0-139.0,,0.0,1338.0,1.0,0.471199094,0.0,0.6470010979999999,1.0,0.715008097,0.0,0.410656191,False,,56cf683331a5bc000de1d20e,,2127256,142,,evan-feature22,full_pf_b,,0
111,37690,143,,,,2,2,0.0,1.0,-1.0,0.0,,0.0-140.0,,0.0,3625.0,0.0,0.42486406,1.0,0.629771829,0.0,0.6550939960000001,1.0,0.459093873,False,,56cf683331a5bc000de1d20e,,2140715,143,,evan-feature22,full_pf_b,,1
112,37691,144,,,,1,1,0.0,1.0,-1.0,0.0,,0.0-141.0,,0.0,784.0,0.0,0.4803197,1.0,0.645842715,0.0,0.6421749920000001,1.0,0.443092151,False,,56cf683331a5bc000de1d20e,,2151352,144,,evan-feature22,full_pf_b,,1
113,37692,145,,,,1,1,1.0,0.0,-1.0,0.0,,0.0-142.0,,-1.0,1448.0,1.0,0.521848997,0.0,0.735801074,1.0,0.6691348460000001,0.0,0.45259351600000003,False,,56cf683331a5bc000de1d20e,,2162674,145,,evan-feature22,full_pf_b,,0
114,37693,146,,,,1,1,0.0,1.0,0.0,1.0,,0.0-143.0,,1.0,2614.0,0.0,0.49565621299999996,1.0,0.742400847,1.0,0.661512553,1.0,0.483110831,False,,56cf683331a5bc000de1d20e,,2175125,146,,evan-feature22,full_pf_b,,0
115,37694,147,,,,1,1,0.0,0.0,-1.0,0.0,,0.0-144.0,,0.0,1382.0,0.0,0.521564361,0.0,0.731078632,1.0,0.6774886809999999,1.0,0.483263956,False,,56cf683331a5bc000de1d20e,,2186345,147,,evan-feature22,full_pf_b,,0
116,37695,148,,,,1,1,1.0,0.0,-1.0,0.0,,0.0-145.0,,-1.0,1621.0,1.0,0.558893102,0.0,0.719810023,0.0,0.67461031,1.0,0.499349834,False,,56cf683331a5bc000de1d20e,,2197845,148,,evan-feature22,full_pf_b,,0
117,37696,149,,,,1,1,1.0,0.0,0.0,1.0,,0.0-146.0,,0.0,1080.0,1.0,0.611031046,0.0,0.75,1.0,0.688072995,1.0,0.5321422729999999,False,,56cf683331a5bc000de1d20e,,2208774,149,,evan-feature22,full_pf_b,,0
118,37697,150,,,,2,2,1.0,0.0,-1.0,0.0,,0.0-147.0,,-1.0,1309.0,1.0,0.633223941,0.0,0.713567728,1.0,0.75,0.0,0.48185314700000004,False,,56cf683331a5bc000de1d20e,,2219935,150,,evan-feature22,full_pf_b,,1
119,37698,151,,,,1,1,0.0,1.0,-1.0,0.0,,0.0-148.0,,0.0,1165.0,0.0,0.664001694,1.0,0.705509768,1.0,0.75,1.0,0.500211065,False,,56cf683331a5bc000de1d20e,,2230955,151,,evan-feature22,full_pf_b,,1
120,37699,152,,,,1,1,1.0,0.0,0.0,1.0,,0.0-149.0,,0.0,1819.0,1.0,0.664001694,0.0,0.705509768,0.0,0.75,1.0,0.500211065,False,,56cf683331a5bc000de1d20e,,2242624,152,,evan-feature22,full_pf_b,,0
121,37700,153,,,,1,1,1.0,1.0,0.0,1.0,,0.0-150.0,,1.0,2694.0,1.0,0.696508041,1.0,0.71066027,1.0,0.717028709,1.0,0.49792991,False,,56cf683331a5bc000de1d20e,,2255195,153,,evan-feature22,full_pf_b,,0
122,37701,154,,,,1,1,1.0,1.0,-1.0,0.0,,0.0-151.0,,-1.0,832.0,1.0,0.699883272,1.0,0.75,1.0,0.713543895,0.0,0.496962643,False,,56cf683331a5bc000de1d20e,,2265864,154,,evan-feature22,full_pf_b,,0
123,37702,155,,,,1,1,1.0,0.0,0.0,1.0,,0.0-152.0,,0.0,1204.0,1.0,0.741163419,0.0,0.75,1.0,0.64691024,1.0,0.513858197,False,,56cf683331a5bc000de1d20e,,2276924,155,,evan-feature22,full_pf_b,,0
124,37703,156,,,,2,2,0.0,1.0,-1.0,0.0,,0.0-153.0,,0.0,1290.0,1.0,0.75,0.0,0.70816558,0.0,0.594499079,1.0,0.48502124,False,,56cf683331a5bc000de1d20e,,2288085,156,,evan-feature22,full_pf_b,,1
125,37704,157,,,,2,2,0.0,0.0,0.0,1.0,,0.0-154.0,,0.0,2177.0,1.0,0.75,1.0,0.721848901,0.0,0.62197249,0.0,0.48263586399999997,False,,56cf683331a5bc000de1d20e,,2300085,157,,evan-feature22,full_pf_b,,0
126,37705,158,,,,2,2,1.0,0.0,-1.0,0.0,,0.0-155.0,,-1.0,2742.0,0.0,0.75,0.0,0.74813071,1.0,0.584357161,0.0,0.411477782,False,,56cf683331a5bc000de1d20e,,2312675,158,,evan-feature22,full_pf_b,,0
127,37706,159,,,,1,1,1.0,1.0,0.0,1.0,,0.0-156.0,,1.0,1026.0,1.0,0.75,1.0,0.75,0.0,0.52287236,0.0,0.488290656,False,,56cf683331a5bc000de1d20e,,2323515,159,,evan-feature22,full_pf_b,,1
128,37707,160,,,,1,1,1.0,1.0,0.0,1.0,,0.0-157.0,,1.0,1961.0,1.0,0.75,1.0,0.75,1.0,0.544321581,0.0,0.53143059,False,,56cf683331a5bc000de1d20e,,2335335,160,,evan-feature22,full_pf_b,,0
129,37708,161,,,,1,1,1.0,1.0,0.0,1.0,,0.0-158.0,,1.0,1598.0,1.0,0.726754564,1.0,0.75,1.0,0.5129306370000001,0.0,0.530592445,False,,56cf683331a5bc000de1d20e,,2346775,161,,evan-feature22,full_pf_b,,0
130,37709,162,,,,1,1,1.0,0.0,-1.0,0.0,,0.0-159.0,,-1.0,1002.0,1.0,0.75,0.0,0.7392590729999999,1.0,0.479875835,1.0,0.547007051,False,,56cf683331a5bc000de1d20e,,2357644,162,,evan-feature22,full_pf_b,,0
131,37710,163,,,,1,1,1.0,1.0,-1.0,0.0,,0.0-160.0,,-1.0,695.0,1.0,0.75,1.0,0.7393376979999999,1.0,0.546045419,0.0,0.541267353,False,,56cf683331a5bc000de1d20e,,2368164,163,,evan-feature22,full_pf_b,,0
132,37711,164,,,,1,1,1.0,1.0,-1.0,0.0,,0.0-161.0,,-1.0,805.0,1.0,0.75,1.0,0.75,1.0,0.485725895,0.0,0.527625395,False,,56cf683331a5bc000de1d20e,,2378834,164,,evan-feature22,full_pf_b,,0
133,37712,165,,,,2,2,1.0,0.0,0.0,1.0,,0.0-162.0,,0.0,631.0,1.0,0.75,1.0,0.725087974,1.0,0.488603595,0.0,0.504019206,False,,56cf683331a5bc000de1d20e,,2389334,165,,evan-feature22,full_pf_b,,1
134,37713,166,,,,2,2,0.0,1.0,0.0,1.0,,0.0-163.0,,1.0,491.0,1.0,0.745504295,1.0,0.75,0.0,0.452379914,1.0,0.50131194,False,,56cf683331a5bc000de1d20e,,2399695,166,,evan-feature22,full_pf_b,,0
135,37714,167,,,,2,2,0.0,0.0,0.0,1.0,,0.0-164.0,,0.0,811.0,1.0,0.728513874,1.0,0.75,0.0,0.44125567200000004,0.0,0.531454591,False,,56cf683331a5bc000de1d20e,,2410355,167,,evan-feature22,full_pf_b,,0
136,37715,168,,,,1,1,0.0,1.0,-1.0,0.0,,0.0-165.0,,0.0,2216.0,0.0,0.73790804,1.0,0.75,1.0,0.413036656,0.0,0.524619035,False,,56cf683331a5bc000de1d20e,,2422415,168,,evan-feature22,full_pf_b,,1
137,37716,169,,,,1,1,1.0,1.0,0.0,1.0,,0.0-166.0,,1.0,901.0,1.0,0.7080961309999999,1.0,0.708666865,1.0,0.431915581,0.0,0.481819489,False,,56cf683331a5bc000de1d20e,,2433149,169,,evan-feature22,full_pf_b,,0
138,37717,170,,,,1,1,0.0,0.0,0.0,1.0,,0.0-167.0,,0.0,888.0,0.0,0.721378003,0.0,0.71605913,0.0,0.36642387,0.0,0.5036739929999999,False,,56cf683331a5bc000de1d20e,,2443834,170,,evan-feature22,full_pf_b,,0
139,37718,171,,,,1,1,1.0,1.0,0.0,1.0,,0.0-168.0,,1.0,2244.0,1.0,0.7340618959999999,1.0,0.699323252,0.0,0.35298046299999997,1.0,0.511241692,False,,56cf683331a5bc000de1d20e,,2455955,171,,evan-feature22,full_pf_b,,0
140,37719,172,,,,1,1,1.0,0.0,-1.0,0.0,,0.0-169.0,,-1.0,1191.0,1.0,0.75,0.0,0.70412698,1.0,0.380734814,1.0,0.529580116,False,,56cf683331a5bc000de1d20e,,2467005,172,,evan-feature22,full_pf_b,,0
141,37720,173,,,,1,1,1.0,1.0,0.0,1.0,,0.0-170.0,,1.0,1923.0,1.0,0.7436654909999999,1.0,0.711182751,0.0,0.41125331,0.0,0.49554405,False,,56cf683331a5bc000de1d20e,,2478774,173,,evan-feature22,full_pf_b,,0
142,37721,174,,,,2,2,0.0,0.0,0.0,1.0,,0.0-171.0,,0.0,2653.0,1.0,0.731607915,1.0,0.651774583,0.0,0.35688023,0.0,0.45194491600000003,False,,56cf683331a5bc000de1d20e,,2491275,174,,evan-feature22,full_pf_b,,1
143,37722,175,,,,1,1,1.0,0.0,-1.0,0.0,,0.0-172.0,,-1.0,2283.0,1.0,0.75,0.0,0.75,1.0,0.283145374,0.0,0.528608005,False,,56cf683331a5bc000de1d20e,,2503405,175,,evan-feature22,full_pf_b,,1
144,37723,176,,,,2,2,1.0,1.0,-1.0,0.0,,0.0-173.0,,-1.0,992.0,1.0,0.7491416890000001,1.0,0.7423785959999999,1.0,0.29135870399999997,1.0,0.498888318,False,,56cf683331a5bc000de1d20e,,2514265,176,,evan-feature22,full_pf_b,,1
145,37724,177,,,,1,1,1.0,1.0,-1.0,0.0,,0.0-174.0,,-1.0,925.0,1.0,0.708569387,1.0,0.717682277,0.0,0.294421699,1.0,0.493838163,False,,56cf683331a5bc000de1d20e,,2525025,177,,evan-feature22,full_pf_b,,1
146,37725,178,,,,1,1,1.0,1.0,0.0,1.0,,0.0-175.0,,1.0,978.0,1.0,0.75,1.0,0.7383382159999999,1.0,0.356098707,0.0,0.442533405,False,,56cf683331a5bc000de1d20e,,2535845,178,,evan-feature22,full_pf_b,,0
147,37726,179,,,,1,1,1.0,1.0,0.0,1.0,,0.0-176.0,,1.0,745.0,1.0,0.744527075,1.0,0.75,1.0,0.334127506,1.0,0.393165805,False,,56cf683331a5bc000de1d20e,,2546445,179,,evan-feature22,full_pf_b,,0
148,37727,180,,,,1,1,1.0,0.0,0.0,1.0,,0.0-177.0,,0.0,918.0,1.0,0.75,0.0,0.75,0.0,0.33571021799999995,1.0,0.350393962,False,,56cf683331a5bc000de1d20e,,2557205,180,,evan-feature22,full_pf_b,,0
149,37728,181,,,,1,1,1.0,0.0,0.0,1.0,,0.0-178.0,,0.0,639.0,1.0,0.75,0.0,0.75,0.0,0.313628297,0.0,0.36349657399999996,False,,56cf683331a5bc000de1d20e,,2567705,181,,evan-feature22,full_pf_b,,0
150,37729,182,,,,1,1,1.0,1.0,-1.0,0.0,,0.0-179.0,,-1.0,2272.0,1.0,0.75,1.0,0.734284182,1.0,0.262667667,0.0,0.380199119,False,,56cf683331a5bc000de1d20e,,2579805,182,,evan-feature22,full_pf_b,,0
151,37730,183,,,,2,2,0.0,0.0,0.0,1.0,,0.0-180.0,,0.0,468.0,1.0,0.75,1.0,0.75,0.0,0.25,0.0,0.394494013,False,,56cf683331a5bc000de1d20e,,2590115,183,,evan-feature22,full_pf_b,,1
152,37731,184,,,,2,2,0.0,0.0,-1.0,0.0,,0.0-181.0,,0.0,611.0,0.0,0.722298145,0.0,0.7357822340000001,0.0,0.25,0.0,0.319142121,False,,56cf683331a5bc000de1d20e,,2600562,184,,evan-feature22,full_pf_b,,0
153,37732,185,,,,2,2,0.0,1.0,-1.0,0.0,,0.0-182.0,,0.0,1043.0,1.0,0.73149275,1.0,0.724276446,0.0,0.305856907,1.0,0.281315057,False,,56cf683331a5bc000de1d20e,,2611435,185,,evan-feature22,full_pf_b,,0
154,37733,186,,,,1,1,1.0,1.0,0.0,1.0,,0.0-183.0,,1.0,1438.0,1.0,0.7458732690000001,1.0,0.7336382459999999,1.0,0.272571964,0.0,0.266021999,False,,56cf683331a5bc000de1d20e,,2622755,186,,evan-feature22,full_pf_b,,1
155,37734,187,,,,SLOW,SLOW,,,0.0,1.0,,0.0-184.0,,-3.0,,1.0,0.705579037,1.0,0.720778292,0.0,0.320238144,0.0,0.30971744,False,,56cf683331a5bc000de1d20e,,2628605,187,,evan-feature22,full_pf_b,,1
156,37735,188,,,,1,1,1.0,1.0,0.0,1.0,,0.0-185.0,,1.0,1551.0,1.0,0.700425648,1.0,0.7198784009999999,1.0,0.272590393,0.0,0.304182931,False,,56cf683331a5bc000de1d20e,,2640014,188,,evan-feature22,full_pf_b,,1
157,37736,189,,,,1,1,1.0,1.0,0.0,1.0,,0.0-186.0,,1.0,952.0,1.0,0.735590785,1.0,0.722714973,1.0,0.25,0.0,0.323421091,False,,56cf683331a5bc000de1d20e,,2650805,189,,evan-feature22,full_pf_b,,0
158,37737,190,,,,1,1,1.0,1.0,0.0,1.0,,0.0-187.0,,1.0,763.0,1.0,0.724807662,1.0,0.63146213,0.0,0.36836492600000004,1.0,0.34592153299999995,False,,56cf683331a5bc000de1d20e,,2661434,190,,evan-feature22,full_pf_b,,0
159,37738,191,,,,1,1,0.0,0.0,0.0,1.0,,0.0-188.0,,0.0,1357.0,0.0,0.7352796909999999,0.0,0.555111392,0.0,0.36003922,0.0,0.31433779999999995,False,,56cf683331a5bc000de1d20e,,2672645,191,,evan-feature22,full_pf_b,,0
160,37739,192,notice,,,,,,,,,,0.0-189.0,"{""Q0"":""I lost more often""}",,14532.0,,,,,,,,,False,,56cf683331a5bc000de1d20e,,2687179,192,Q,survey-text,full_pf_b,,1
161,37740,193,track1,,[1],,,,,,,,0.0-190.0,"{""Q0"":""no""}",,4053.0,,,,,,,,,False,,56cf683331a5bc000de1d20e,,2691235,193,Q,evan-quiz,full_pf_b,,1
162,37741,194,track2,,[1],,,,,,,,0.0-191.0,"{""Q0"":""no""}",,7493.0,,,,,,,,,False,,56cf683331a5bc000de1d20e,,2698732,194,Q,evan-quiz,full_pf_b,,1
163,37742,195,strat,,,,,,,,,,0.0-192.0,"{""Q0"":""I just chose each time on instinct""}",,27071.0,,,,,,,,,False,,56cf683331a5bc000de1d20e,,2725805,195,Q,survey-text,full_pf_b,,1
