,index,Unnamed: 0,Q_name,button_pressed,choice_idxs,chosen_pos,chosen_state,chosen_state_f_1_outcome,chosen_state_f_2_outcome,f_1_reward,f_2_reward,incor_questions,internal_node_id,responses,reward_received,rt,s_1_f_1_outcome,s_1_f_1_prob,s_1_f_2_outcome,s_1_f_2_prob,s_2_f_1_outcome,s_2_f_1_prob,s_2_f_2_outcome,s_2_f_2_prob,safe_first,stimulus,subjectID,success,time_elapsed,trial_index,trial_num,trial_type,version,view_history,switching
0,44487,25,,,,2,2,0.0,0.0,0.0,1.0,,0.0-27.0,,0.0,1360.11,0.0,0.6,0.0,0.6,0.0,0.4,0.0,0.4,True,,5e2f5d67028f41527321f838,,527523,25,,evan-feature22,full_rf_b,,0
1,44488,26,,,,2,2,0.0,0.0,0.0,1.0,,0.0-28.0,,0.0,736.295,0.0,0.608053294,0.0,0.63424552,0.0,0.397152172,0.0,0.347069101,True,,5e2f5d67028f41527321f838,,538024,26,,evan-feature22,full_rf_b,,0
2,44489,27,,,,2,2,0.0,0.0,0.0,1.0,,0.0-29.0,,0.0,764.0150001000001,1.0,0.642237155,1.0,0.648566321,0.0,0.389407674,0.0,0.285525717,True,,5e2f5d67028f41527321f838,,548551,27,,evan-feature22,full_rf_b,,0
3,44490,28,,,,1,1,1.0,0.0,0.0,1.0,,0.0-30.0,,0.0,2581.155,1.0,0.661086576,0.0,0.630492543,1.0,0.399058924,0.0,0.25,True,,5e2f5d67028f41527321f838,,560895,28,,evan-feature22,full_rf_b,,1
4,44491,29,,,,1,1,1.0,1.0,0.0,1.0,,0.0-31.0,,1.0,2500.055,1.0,0.631324137,1.0,0.6269842929999999,0.0,0.38734784299999997,0.0,0.25,True,,5e2f5d67028f41527321f838,,573161,29,,evan-feature22,full_rf_b,,0
5,44492,30,,,,1,1,1.0,1.0,0.0,1.0,,0.0-32.0,,1.0,1585.53,1.0,0.6381991370000001,1.0,0.68987999,0.0,0.384107265,0.0,0.271332943,True,,5e2f5d67028f41527321f838,,584509,30,,evan-feature22,full_rf_b,,0
6,44493,31,,,,1,1,1.0,1.0,0.0,1.0,,0.0-33.0,,1.0,719.73,1.0,0.66034901,1.0,0.742641349,0.0,0.360225629,0.0,0.25,True,,5e2f5d67028f41527321f838,,594991,31,,evan-feature22,full_rf_b,,0
7,44494,32,,,,2,2,1.0,0.0,-1.0,0.0,,0.0-34.0,,-1.0,2908.635,0.0,0.638612418,1.0,0.75,1.0,0.367273939,0.0,0.25,True,,5e2f5d67028f41527321f838,,607663,32,,evan-feature22,full_rf_b,,1
8,44495,33,,,,1,1,0.0,1.0,0.0,1.0,,0.0-35.0,,1.0,620.875,0.0,0.624340629,1.0,0.75,0.0,0.425829545,0.0,0.25,True,,5e2f5d67028f41527321f838,,618047,33,,evan-feature22,full_rf_b,,1
9,44496,34,,,,1,1,0.0,1.0,0.0,1.0,,0.0-36.0,,1.0,1101.155,0.0,0.621999804,1.0,0.75,0.0,0.368609357,0.0,0.25,True,,5e2f5d67028f41527321f838,,628911,34,,evan-feature22,full_rf_b,,0
10,44497,35,,,,1,1,1.0,1.0,-1.0,0.0,,0.0-37.0,,-1.0,1485.45,1.0,0.62666403,1.0,0.75,1.0,0.311151498,0.0,0.25,True,,5e2f5d67028f41527321f838,,640160,35,,evan-feature22,full_rf_b,,0
11,44498,36,,,,1,1,1.0,1.0,-1.0,0.0,,0.0-38.0,,-1.0,700.295,1.0,0.6819650009999999,1.0,0.75,0.0,0.310763048,0.0,0.25,True,,5e2f5d67028f41527321f838,,650623,36,,evan-feature22,full_rf_b,,0
12,44499,37,,,,1,1,1.0,0.0,0.0,1.0,,0.0-39.0,,0.0,2710.115,1.0,0.740626951,0.0,0.75,1.0,0.25,0.0,0.25,True,,5e2f5d67028f41527321f838,,663097,37,,evan-feature22,full_rf_b,,0
13,44500,38,,,,1,1,1.0,1.0,0.0,1.0,,0.0-40.0,,1.0,3299.165,1.0,0.739599242,1.0,0.742034978,0.0,0.25397114600000004,1.0,0.25,True,,5e2f5d67028f41527321f838,,676160,38,,evan-feature22,full_rf_b,,0
14,44501,39,,,,2,2,0.0,0.0,0.0,1.0,,0.0-41.0,,0.0,3124.865,1.0,0.732341315,1.0,0.72735643,0.0,0.25,0.0,0.25,True,,5e2f5d67028f41527321f838,,689048,39,,evan-feature22,full_rf_b,,1
15,44502,40,,,,1,1,1.0,0.0,0.0,1.0,,0.0-42.0,,0.0,2213.245,1.0,0.7062287770000001,0.0,0.75,1.0,0.29002151,0.0,0.288256649,True,,5e2f5d67028f41527321f838,,701021,40,,evan-feature22,full_rf_b,,1
16,44503,41,,,,2,2,1.0,0.0,-1.0,0.0,,0.0-43.0,,-1.0,2565.36,1.0,0.7086029209999999,1.0,0.75,1.0,0.274129113,0.0,0.262851608,True,,5e2f5d67028f41527321f838,,713350,41,,evan-feature22,full_rf_b,,1
17,44504,42,,,,1,1,1.0,0.0,0.0,1.0,,0.0-44.0,,0.0,1982.355,1.0,0.669189651,0.0,0.727614338,0.0,0.298444036,1.0,0.296944518,True,,5e2f5d67028f41527321f838,,725094,42,,evan-feature22,full_rf_b,,1
18,44505,43,,,,2,2,0.0,0.0,-1.0,0.0,,0.0-45.0,,0.0,2990.04,1.0,0.6819912929999999,1.0,0.7179434290000001,0.0,0.265003961,0.0,0.28157921199999997,True,,5e2f5d67028f41527321f838,,737846,43,,evan-feature22,full_rf_b,,1
19,44506,44,,,,2,2,1.0,0.0,-1.0,0.0,,0.0-46.0,,-1.0,1702.42,1.0,0.665275002,1.0,0.723065271,1.0,0.260414971,0.0,0.30973870000000003,True,,5e2f5d67028f41527321f838,,749310,44,,evan-feature22,full_rf_b,,0
20,44507,45,,,,1,1,1.0,1.0,0.0,1.0,,0.0-47.0,,1.0,1268.205,1.0,0.6660593260000001,1.0,0.728032907,1.0,0.30922817,1.0,0.338778608,True,,5e2f5d67028f41527321f838,,760342,45,,evan-feature22,full_rf_b,,1
21,44508,46,,,,1,1,0.0,0.0,0.0,1.0,,0.0-48.0,,0.0,1227.52,0.0,0.702068785,0.0,0.6528750879999999,0.0,0.287329608,0.0,0.35789613200000003,True,,5e2f5d67028f41527321f838,,771330,46,,evan-feature22,full_rf_b,,0
22,44509,47,,,,1,1,1.0,0.0,0.0,1.0,,0.0-49.0,,0.0,1202.575,1.0,0.651939787,0.0,0.636725589,0.0,0.284834488,0.0,0.358563756,True,,5e2f5d67028f41527321f838,,782294,47,,evan-feature22,full_rf_b,,0
23,44510,48,,,,1,1,0.0,1.0,0.0,1.0,,0.0-50.0,,1.0,1732.795,0.0,0.67573929,1.0,0.612550049,1.0,0.37130387600000003,0.0,0.383542402,True,,5e2f5d67028f41527321f838,,793790,48,,evan-feature22,full_rf_b,,0
24,44511,49,,,,1,1,1.0,0.0,0.0,1.0,,0.0-51.0,,0.0,942.3849999,1.0,0.620753801,0.0,0.60513644,0.0,0.385529434,0.0,0.340361743,True,,5e2f5d67028f41527321f838,,804496,49,,evan-feature22,full_rf_b,,0
25,44512,50,,,,2,2,1.0,0.0,-1.0,0.0,,0.0-52.0,,-1.0,1811.95,1.0,0.673564893,0.0,0.672437924,1.0,0.292955382,0.0,0.337633795,True,,5e2f5d67028f41527321f838,,816070,50,,evan-feature22,full_rf_b,,1
26,44513,51,,,,2,2,1.0,0.0,0.0,1.0,,0.0-53.0,,0.0,1326.48,1.0,0.6749427,1.0,0.724197502,1.0,0.32391132100000003,0.0,0.350995264,True,,5e2f5d67028f41527321f838,,827159,51,,evan-feature22,full_rf_b,,0
27,44514,52,,,,1,1,1.0,1.0,0.0,1.0,,0.0-54.0,,1.0,2396.95,1.0,0.6940159379999999,1.0,0.75,0.0,0.31710554399999996,1.0,0.413450341,True,,5e2f5d67028f41527321f838,,839320,52,,evan-feature22,full_rf_b,,1
28,44515,53,,,,1,1,1.0,1.0,0.0,1.0,,0.0-55.0,,1.0,1165.675,1.0,0.6916018270000001,1.0,0.69001187,0.0,0.261817804,0.0,0.40038635,True,,5e2f5d67028f41527321f838,,850248,53,,evan-feature22,full_rf_b,,0
29,44516,54,,,,1,1,1.0,1.0,0.0,1.0,,0.0-56.0,,1.0,924.645,1.0,0.641061544,1.0,0.71337992,0.0,0.277296461,0.0,0.47372791700000005,True,,5e2f5d67028f41527321f838,,860936,54,,evan-feature22,full_rf_b,,0
30,44517,55,,,,1,1,1.0,1.0,0.0,1.0,,0.0-57.0,,1.0,1803.855,1.0,0.6082438520000001,1.0,0.708471106,0.0,0.28745137,0.0,0.564174476,True,,5e2f5d67028f41527321f838,,872505,55,,evan-feature22,full_rf_b,,0
31,44518,56,,,,2,2,0.0,1.0,-1.0,0.0,,0.0-58.0,,0.0,2750.915,1.0,0.6051112120000001,0.0,0.7118147229999999,0.0,0.272390611,1.0,0.5595149939999999,True,,5e2f5d67028f41527321f838,,885022,56,,evan-feature22,full_rf_b,,1
32,44519,57,,,,2,2,0.0,0.0,-1.0,0.0,,0.0-59.0,,0.0,1998.455,1.0,0.582420852,1.0,0.635867583,0.0,0.31089574,0.0,0.5227206520000001,True,,5e2f5d67028f41527321f838,,896782,57,,evan-feature22,full_rf_b,,0
33,44520,58,,,,2,2,1.0,1.0,-1.0,0.0,,0.0-60.0,,-1.0,3685.575,0.0,0.623195575,0.0,0.655026044,1.0,0.25,1.0,0.560387538,True,,5e2f5d67028f41527321f838,,910230,58,,evan-feature22,full_rf_b,,0
34,44521,59,,,,1,1,1.0,1.0,0.0,1.0,,0.0-61.0,,1.0,1693.635,1.0,0.601889598,1.0,0.678198724,0.0,0.25,0.0,0.559922936,True,,5e2f5d67028f41527321f838,,921686,59,,evan-feature22,full_rf_b,,1
35,44522,60,,,,2,2,0.0,0.0,-1.0,0.0,,0.0-62.0,,0.0,1558.105,1.0,0.601259914,1.0,0.704681482,0.0,0.33908969299999997,0.0,0.505003715,True,,5e2f5d67028f41527321f838,,933005,60,,evan-feature22,full_rf_b,,1
36,44523,61,,,,2,2,1.0,0.0,-1.0,0.0,,0.0-63.0,,-1.0,2550.215,1.0,0.59645454,1.0,0.710437172,1.0,0.327441879,0.0,0.391749613,True,,5e2f5d67028f41527321f838,,945318,61,,evan-feature22,full_rf_b,,0
37,44524,62,,,,1,1,0.0,1.0,0.0,1.0,,0.0-64.0,,1.0,1718.06,0.0,0.529473,1.0,0.636758527,0.0,0.301338063,0.0,0.365661481,True,,5e2f5d67028f41527321f838,,956797,62,,evan-feature22,full_rf_b,,1
38,44525,63,,,,1,1,1.0,0.0,-1.0,0.0,,0.0-65.0,,-1.0,2878.455,1.0,0.541657162,0.0,0.634541962,0.0,0.343535366,1.0,0.371763742,True,,5e2f5d67028f41527321f838,,969436,63,,evan-feature22,full_rf_b,,0
39,44526,64,,,,1,1,1.0,0.0,-1.0,0.0,,0.0-66.0,,-1.0,1519.495,1.0,0.5707533260000001,0.0,0.589121171,1.0,0.326428396,1.0,0.43961622899999997,True,,5e2f5d67028f41527321f838,,980718,64,,evan-feature22,full_rf_b,,0
40,44527,65,,,,2,2,1.0,1.0,0.0,1.0,,0.0-67.0,,1.0,1973.525,1.0,0.5707533260000001,1.0,0.589121171,1.0,0.326428396,1.0,0.43961622899999997,True,,5e2f5d67028f41527321f838,,992456,65,,evan-feature22,full_rf_b,,1
41,44528,66,,,,2,2,1.0,0.0,0.0,1.0,,0.0-68.0,,0.0,1226.64,0.0,0.506271295,1.0,0.641775594,1.0,0.37149690700000004,0.0,0.404330166,True,,5e2f5d67028f41527321f838,,1003445,66,,evan-feature22,full_rf_b,,0
42,44529,67,,,,1,1,0.0,1.0,-1.0,0.0,,0.0-69.0,,0.0,2414.725,0.0,0.455642565,1.0,0.623605825,1.0,0.358753011,1.0,0.346174041,True,,5e2f5d67028f41527321f838,,1015622,67,,evan-feature22,full_rf_b,,1
43,44530,68,,,,2,2,0.0,1.0,0.0,1.0,,0.0-70.0,,1.0,2887.885,0.0,0.483677308,1.0,0.5904681070000001,0.0,0.402218411,1.0,0.35344697,True,,5e2f5d67028f41527321f838,,1028271,68,,evan-feature22,full_rf_b,,1
44,44531,69,,,,2,2,1.0,0.0,-1.0,0.0,,0.0-71.0,,-1.0,3693.545,0.0,0.394210977,0.0,0.558925494,1.0,0.540052017,0.0,0.35182128700000004,True,,5e2f5d67028f41527321f838,,1041728,69,,evan-feature22,full_rf_b,,0
45,44532,70,,,,1,1,0.0,1.0,0.0,1.0,,0.0-72.0,,1.0,3148.615,0.0,0.382300414,1.0,0.577670603,0.0,0.607608448,0.0,0.378261578,True,,5e2f5d67028f41527321f838,,1054637,70,,evan-feature22,full_rf_b,,1
46,44533,71,,,,1,1,0.0,1.0,-1.0,0.0,,0.0-73.0,,0.0,1927.015,0.0,0.357596762,1.0,0.5929076529999999,1.0,0.6579790010000001,0.0,0.401326777,True,,5e2f5d67028f41527321f838,,1066326,71,,evan-feature22,full_rf_b,,0
47,44534,72,,,,1,1,0.0,0.0,0.0,1.0,,0.0-74.0,,0.0,1534.245,0.0,0.362033495,0.0,0.582308608,0.0,0.649195052,1.0,0.355158505,True,,5e2f5d67028f41527321f838,,1077623,72,,evan-feature22,full_rf_b,,0
48,44535,73,,,,2,2,1.0,0.0,0.0,1.0,,0.0-75.0,,0.0,1733.635,1.0,0.369620635,0.0,0.669100864,1.0,0.706059111,0.0,0.362516241,True,,5e2f5d67028f41527321f838,,1089120,73,,evan-feature22,full_rf_b,,1
49,44536,74,,,,2,2,1.0,0.0,0.0,1.0,,0.0-76.0,,0.0,1700.17,1.0,0.41477751399999996,1.0,0.7284416779999999,1.0,0.7182656940000001,0.0,0.36228040899999997,True,,5e2f5d67028f41527321f838,,1100581,74,,evan-feature22,full_rf_b,,0
50,44537,75,,,,2,2,1.0,1.0,-1.0,0.0,,0.0-77.0,,-1.0,1809.32,1.0,0.37675460299999997,1.0,0.703250285,1.0,0.75,1.0,0.461979164,True,,5e2f5d67028f41527321f838,,1112153,75,,evan-feature22,full_rf_b,,0
51,44538,76,,,,2,2,1.0,1.0,-1.0,0.0,,0.0-78.0,,-1.0,2073.315,0.0,0.398716075,1.0,0.6723864890000001,1.0,0.674153818,1.0,0.519029516,True,,5e2f5d67028f41527321f838,,1123992,76,,evan-feature22,full_rf_b,,0
52,44539,77,,,,1,1,0.0,1.0,-1.0,0.0,,0.0-79.0,,0.0,2276.135,0.0,0.34677856700000004,1.0,0.69057175,1.0,0.6822438540000001,1.0,0.477292237,True,,5e2f5d67028f41527321f838,,1136033,77,,evan-feature22,full_rf_b,,1
53,44540,78,,,,1,1,1.0,1.0,0.0,1.0,,0.0-80.0,,1.0,1435.56,1.0,0.28580469199999997,1.0,0.68408818,0.0,0.684207565,1.0,0.49780448299999996,True,,5e2f5d67028f41527321f838,,1147232,78,,evan-feature22,full_rf_b,,0
54,44542,80,,,,1,1,1.0,1.0,0.0,1.0,,0.0-82.0,,1.0,3243.87,1.0,0.25,1.0,0.7405808970000001,1.0,0.679614108,1.0,0.436436964,True,,5e2f5d67028f41527321f838,,1177013,80,,evan-feature22,full_rf_b,,0
55,44543,81,,,,1,1,1.0,1.0,0.0,1.0,,0.0-83.0,,1.0,1613.685,1.0,0.29890393,1.0,0.730505706,1.0,0.7328203320000001,1.0,0.439256938,True,,5e2f5d67028f41527321f838,,1188388,81,,evan-feature22,full_rf_b,,0
56,44544,82,,,,1,1,1.0,1.0,-1.0,0.0,,0.0-84.0,,-1.0,1816.12,1.0,0.326762398,1.0,0.7148059609999999,1.0,0.75,0.0,0.44389608799999997,True,,5e2f5d67028f41527321f838,,1199965,82,,evan-feature22,full_rf_b,,0
57,44545,83,,,,1,1,0.0,0.0,0.0,1.0,,0.0-85.0,,0.0,2382.79,0.0,0.295168515,0.0,0.739760854,1.0,0.719947008,0.0,0.35277284600000003,True,,5e2f5d67028f41527321f838,,1212110,83,,evan-feature22,full_rf_b,,0
58,44546,84,,,,1,1,1.0,1.0,0.0,1.0,,0.0-86.0,,1.0,2134.33,1.0,0.25,1.0,0.70781482,1.0,0.75,1.0,0.286095925,True,,5e2f5d67028f41527321f838,,1224007,84,,evan-feature22,full_rf_b,,0
59,44547,85,,,,1,1,0.0,1.0,0.0,1.0,,0.0-87.0,,1.0,1308.83,0.0,0.25638190899999996,1.0,0.704088163,1.0,0.75,0.0,0.26872601399999996,True,,5e2f5d67028f41527321f838,,1235083,85,,evan-feature22,full_rf_b,,0
60,44548,86,,,,1,1,0.0,1.0,-1.0,0.0,,0.0-88.0,,0.0,1456.63,0.0,0.271581126,1.0,0.669760107,0.0,0.733896663,0.0,0.273244572,True,,5e2f5d67028f41527321f838,,1246302,86,,evan-feature22,full_rf_b,,0
61,44549,87,,,,1,1,1.0,1.0,0.0,1.0,,0.0-89.0,,1.0,1324.06,1.0,0.257144401,1.0,0.600575706,1.0,0.74488122,0.0,0.25,True,,5e2f5d67028f41527321f838,,1257390,87,,evan-feature22,full_rf_b,,0
62,44550,88,,,,1,1,0.0,1.0,0.0,1.0,,0.0-90.0,,1.0,942.4599999,0.0,0.25,1.0,0.616870026,1.0,0.723610234,0.0,0.25,True,,5e2f5d67028f41527321f838,,1268094,88,,evan-feature22,full_rf_b,,0
63,44551,89,,,,1,1,0.0,1.0,-1.0,0.0,,0.0-91.0,,0.0,3401.795,0.0,0.25,1.0,0.583540187,0.0,0.7041042559999999,0.0,0.285961995,True,,5e2f5d67028f41527321f838,,1281260,89,,evan-feature22,full_rf_b,,0
64,44552,90,,,,1,1,1.0,1.0,-1.0,0.0,,0.0-92.0,,-1.0,1632.93,1.0,0.27254536,1.0,0.53875765,1.0,0.693783448,0.0,0.284961652,True,,5e2f5d67028f41527321f838,,1292655,90,,evan-feature22,full_rf_b,,0
65,44553,91,,,,1,1,0.0,0.0,-1.0,0.0,,0.0-93.0,,0.0,1995.045,0.0,0.25,0.0,0.548431252,1.0,0.734221895,1.0,0.279445214,True,,5e2f5d67028f41527321f838,,1304412,91,,evan-feature22,full_rf_b,,0
66,44554,92,,,,1,1,0.0,0.0,0.0,1.0,,0.0-94.0,,0.0,1887.585,0.0,0.258640684,0.0,0.545878066,1.0,0.725245965,0.0,0.31487537,True,,5e2f5d67028f41527321f838,,1316061,92,,evan-feature22,full_rf_b,,0
67,44555,93,,,,1,1,0.0,0.0,0.0,1.0,,0.0-95.0,,0.0,1431.615,0.0,0.251103711,0.0,0.5776290629999999,0.0,0.696320133,0.0,0.317831047,True,,5e2f5d67028f41527321f838,,1327255,93,,evan-feature22,full_rf_b,,0
68,44556,94,,,,1,1,1.0,1.0,0.0,1.0,,0.0-96.0,,1.0,1661.165,1.0,0.276630292,1.0,0.617329858,1.0,0.73838088,1.0,0.261471582,True,,5e2f5d67028f41527321f838,,1338682,94,,evan-feature22,full_rf_b,,0
69,44557,95,,,,2,2,1.0,1.0,0.0,1.0,,0.0-97.0,,1.0,1170.28,0.0,0.297716424,1.0,0.618863717,1.0,0.7402358259999999,1.0,0.262600834,True,,5e2f5d67028f41527321f838,,1349613,95,,evan-feature22,full_rf_b,,1
70,44558,96,,,,1,1,0.0,1.0,-1.0,0.0,,0.0-98.0,,0.0,1544.49,0.0,0.290935512,1.0,0.695370945,1.0,0.706570507,0.0,0.280030553,True,,5e2f5d67028f41527321f838,,1360920,96,,evan-feature22,full_rf_b,,1
71,44559,97,,,,1,1,0.0,1.0,0.0,1.0,,0.0-99.0,,1.0,2296.435,0.0,0.25,1.0,0.6465277079999999,1.0,0.67766682,0.0,0.25,True,,5e2f5d67028f41527321f838,,1372982,97,,evan-feature22,full_rf_b,,0
72,44560,98,,,,1,1,1.0,1.0,-1.0,0.0,,0.0-100.0,,-1.0,2085.715,1.0,0.26463816,1.0,0.636100213,1.0,0.646048507,0.0,0.265607101,True,,5e2f5d67028f41527321f838,,1384831,98,,evan-feature22,full_rf_b,,0
73,44561,99,,,,1,1,0.0,1.0,-1.0,0.0,,0.0-101.0,,0.0,1388.86,0.0,0.314340707,1.0,0.667795927,1.0,0.613630805,0.0,0.25,True,,5e2f5d67028f41527321f838,,1395982,99,,evan-feature22,full_rf_b,,0
74,44562,100,,,,1,1,0.0,1.0,0.0,1.0,,0.0-102.0,,1.0,2246.955,0.0,0.28685784,1.0,0.6622549529999999,1.0,0.652154117,0.0,0.25,True,,5e2f5d67028f41527321f838,,1407992,100,,evan-feature22,full_rf_b,,0
75,44563,101,,,,1,1,0.0,1.0,0.0,1.0,,0.0-103.0,,1.0,1371.13,0.0,0.304106554,1.0,0.631289538,1.0,0.707041942,0.0,0.29314237,True,,5e2f5d67028f41527321f838,,1419124,101,,evan-feature22,full_rf_b,,0
76,44564,102,,,,1,1,0.0,0.0,0.0,1.0,,0.0-104.0,,0.0,910.96,0.0,0.304806932,0.0,0.571167718,0.0,0.680472346,0.0,0.25,True,,5e2f5d67028f41527321f838,,1429797,102,,evan-feature22,full_rf_b,,0
77,44565,103,,,,1,1,0.0,0.0,0.0,1.0,,0.0-105.0,,0.0,903.0350001,0.0,0.37919861,0.0,0.5724849710000001,0.0,0.705638003,0.0,0.30179300600000003,True,,5e2f5d67028f41527321f838,,1440462,103,,evan-feature22,full_rf_b,,0
78,44566,104,,,,1,1,1.0,0.0,0.0,1.0,,0.0-106.0,,0.0,1724.105,1.0,0.464277969,0.0,0.554034373,1.0,0.7372627340000001,1.0,0.264699741,True,,5e2f5d67028f41527321f838,,1451949,104,,evan-feature22,full_rf_b,,0
79,44567,105,,,,2,2,0.0,0.0,0.0,1.0,,0.0-107.0,,0.0,1049.19,0.0,0.465104323,1.0,0.530793115,0.0,0.75,0.0,0.31683071,True,,5e2f5d67028f41527321f838,,1462758,105,,evan-feature22,full_rf_b,,1
80,44568,106,,,,1,1,1.0,1.0,-1.0,0.0,,0.0-108.0,,-1.0,1397.05,1.0,0.465104323,1.0,0.530793115,1.0,0.75,0.0,0.31683071,True,,5e2f5d67028f41527321f838,,1473919,106,,evan-feature22,full_rf_b,,1
81,44569,107,,,,1,1,1.0,1.0,-1.0,0.0,,0.0-109.0,,-1.0,1578.425,1.0,0.46833986,1.0,0.570249239,1.0,0.7244472590000001,0.0,0.364114163,True,,5e2f5d67028f41527321f838,,1485267,107,,evan-feature22,full_rf_b,,0
82,44570,108,,,,1,1,1.0,0.0,-1.0,0.0,,0.0-110.0,,-1.0,1441.435,1.0,0.445444024,0.0,0.649673355,0.0,0.6845441290000001,1.0,0.300660449,True,,5e2f5d67028f41527321f838,,1496471,108,,evan-feature22,full_rf_b,,0
83,44571,109,,,,2,2,1.0,0.0,-1.0,0.0,,0.0-111.0,,-1.0,1084.37,0.0,0.39909721299999995,1.0,0.6715179509999999,1.0,0.742310028,0.0,0.35496088299999995,True,,5e2f5d67028f41527321f838,,1507316,109,,evan-feature22,full_rf_b,,1
84,44572,110,,,,1,1,0.0,0.0,0.0,1.0,,0.0-112.0,,0.0,2421.395,0.0,0.37956104799999996,0.0,0.694725302,1.0,0.7181651309999999,0.0,0.38726906299999997,True,,5e2f5d67028f41527321f838,,1519501,110,,evan-feature22,full_rf_b,,1
85,44573,111,,,,1,1,0.0,1.0,0.0,1.0,,0.0-113.0,,1.0,1343.735,0.0,0.404995034,1.0,0.724375412,1.0,0.6910946859999999,0.0,0.387187347,True,,5e2f5d67028f41527321f838,,1530605,111,,evan-feature22,full_rf_b,,0
86,44574,112,,,,1,1,1.0,1.0,-1.0,0.0,,0.0-114.0,,-1.0,1887.4,1.0,0.461740803,1.0,0.75,1.0,0.75,0.0,0.34872038200000005,True,,5e2f5d67028f41527321f838,,1542254,112,,evan-feature22,full_rf_b,,0
87,44575,113,,,,1,1,1.0,1.0,-1.0,0.0,,0.0-115.0,,-1.0,661.3050001,1.0,0.43821380600000004,1.0,0.738833273,1.0,0.728286963,0.0,0.399538128,True,,5e2f5d67028f41527321f838,,1552677,113,,evan-feature22,full_rf_b,,0
88,44576,114,,,,1,1,0.0,1.0,0.0,1.0,,0.0-116.0,,1.0,1253.4,0.0,0.41709882,1.0,0.736666736,1.0,0.75,0.0,0.389095584,True,,5e2f5d67028f41527321f838,,1563693,114,,evan-feature22,full_rf_b,,0
89,44577,115,,,,1,1,1.0,0.0,0.0,1.0,,0.0-117.0,,0.0,2839.04,1.0,0.39749009799999996,0.0,0.744320029,1.0,0.75,0.0,0.363848678,True,,5e2f5d67028f41527321f838,,1576293,115,,evan-feature22,full_rf_b,,0
90,44578,116,,,,1,1,0.0,1.0,-1.0,0.0,,0.0-118.0,,0.0,1205.14,0.0,0.392653706,1.0,0.75,1.0,0.75,0.0,0.384386976,True,,5e2f5d67028f41527321f838,,1587262,116,,evan-feature22,full_rf_b,,0
91,44579,117,,,,1,1,1.0,1.0,0.0,1.0,,0.0-119.0,,1.0,843.6649999,1.0,0.31190902600000003,1.0,0.75,1.0,0.732413819,0.0,0.413082932,True,,5e2f5d67028f41527321f838,,1597872,117,,evan-feature22,full_rf_b,,0
92,44580,118,,,,1,1,0.0,1.0,-1.0,0.0,,0.0-120.0,,0.0,1059.91,0.0,0.366917648,1.0,0.740073855,1.0,0.75,0.0,0.352861979,True,,5e2f5d67028f41527321f838,,1608695,118,,evan-feature22,full_rf_b,,0
93,44581,119,,,,1,1,0.0,1.0,-1.0,0.0,,0.0-121.0,,0.0,989.465,0.0,0.3645172,1.0,0.721770713,0.0,0.75,0.0,0.404074511,True,,5e2f5d67028f41527321f838,,1619447,119,,evan-feature22,full_rf_b,,0
94,44582,120,,,,2,2,0.0,0.0,-1.0,0.0,,0.0-122.0,,0.0,1316.28,1.0,0.35205600299999995,1.0,0.68983859,0.0,0.739735447,0.0,0.366895945,True,,5e2f5d67028f41527321f838,,1630527,120,,evan-feature22,full_rf_b,,1
95,44583,121,,,,1,1,0.0,1.0,-1.0,0.0,,0.0-123.0,,0.0,3428.96,0.0,0.40998722600000004,1.0,0.720859127,1.0,0.673854955,0.0,0.368528541,True,,5e2f5d67028f41527321f838,,1643719,121,,evan-feature22,full_rf_b,,1
96,44584,122,,,,SLOW,SLOW,,,-1.0,0.0,,0.0-124.0,,-3.0,,0.0,0.353625316,1.0,0.75,1.0,0.695605473,0.0,0.38303674200000004,True,,5e2f5d67028f41527321f838,,1649526,122,,evan-feature22,full_rf_b,,1
97,44585,123,,,,1,1,1.0,1.0,-1.0,0.0,,0.0-125.0,,-1.0,990.6149998999999,1.0,0.359216989,1.0,0.75,0.0,0.6987915090000001,0.0,0.35169046200000004,True,,5e2f5d67028f41527321f838,,1660278,123,,evan-feature22,full_rf_b,,1
98,44586,124,,,,2,2,0.0,1.0,-1.0,0.0,,0.0-126.0,,0.0,1300.325,1.0,0.35834496899999996,1.0,0.75,0.0,0.707067742,1.0,0.416763636,True,,5e2f5d67028f41527321f838,,1671340,124,,evan-feature22,full_rf_b,,1
99,44587,125,,,,1,1,1.0,1.0,0.0,1.0,,0.0-127.0,,1.0,2457.385,1.0,0.38741613799999997,1.0,0.7177369570000001,1.0,0.734902455,1.0,0.49438664299999996,True,,5e2f5d67028f41527321f838,,1683557,125,,evan-feature22,full_rf_b,,1
100,44588,126,,,,1,1,0.0,1.0,-1.0,0.0,,0.0-128.0,,0.0,1077.975,0.0,0.405255252,1.0,0.7300466640000001,0.0,0.7027748070000001,0.0,0.504359668,True,,5e2f5d67028f41527321f838,,1694396,126,,evan-feature22,full_rf_b,,0
101,44589,127,,,,1,1,1.0,0.0,-1.0,0.0,,0.0-129.0,,-1.0,1021.36,1.0,0.40697073,0.0,0.7260142190000001,1.0,0.724461982,1.0,0.522779179,True,,5e2f5d67028f41527321f838,,1705181,127,,evan-feature22,full_rf_b,,0
102,44590,128,,,,2,2,1.0,1.0,-1.0,0.0,,0.0-130.0,,-1.0,991.23,1.0,0.43906215299999996,0.0,0.7252802340000001,1.0,0.719079934,1.0,0.5712990579999999,True,,5e2f5d67028f41527321f838,,1715936,128,,evan-feature22,full_rf_b,,1
103,44591,129,,,,2,2,1.0,0.0,0.0,1.0,,0.0-131.0,,0.0,1099.78,1.0,0.4076705,1.0,0.73280499,1.0,0.681313127,0.0,0.523891346,True,,5e2f5d67028f41527321f838,,1726799,129,,evan-feature22,full_rf_b,,0
104,44592,130,,,,1,1,1.0,0.0,0.0,1.0,,0.0-132.0,,0.0,1165.44,1.0,0.399102911,0.0,0.730498344,0.0,0.661080239,1.0,0.46742603,True,,5e2f5d67028f41527321f838,,1737727,130,,evan-feature22,full_rf_b,,1
105,44593,131,,,,2,2,1.0,0.0,0.0,1.0,,0.0-133.0,,0.0,588.8,0.0,0.356477282,1.0,0.712296395,1.0,0.641812684,0.0,0.44868414,True,,5e2f5d67028f41527321f838,,1748078,131,,evan-feature22,full_rf_b,,1
106,44594,132,,,,1,1,1.0,0.0,-1.0,0.0,,0.0-134.0,,-1.0,1773.645,1.0,0.462760722,0.0,0.692349322,1.0,0.700947931,0.0,0.394680266,True,,5e2f5d67028f41527321f838,,1759613,132,,evan-feature22,full_rf_b,,1
107,44595,133,,,,1,1,0.0,1.0,-1.0,0.0,,0.0-135.0,,0.0,513.42,0.0,0.422306413,1.0,0.718375916,1.0,0.706340917,0.0,0.367787185,True,,5e2f5d67028f41527321f838,,1769887,133,,evan-feature22,full_rf_b,,0
108,44597,135,,,,1,1,0.0,0.0,-1.0,0.0,,0.0-137.0,,0.0,1429.8,0.0,0.4582233,0.0,0.643834117,0.0,0.75,0.0,0.39615823299999997,True,,5e2f5d67028f41527321f838,,1804701,135,,evan-feature22,full_rf_b,,0
109,44598,136,,,,1,1,0.0,0.0,-1.0,0.0,,0.0-138.0,,0.0,2080.445,0.0,0.43813437899999996,0.0,0.651283804,1.0,0.729674191,1.0,0.37711048,True,,5e2f5d67028f41527321f838,,1816543,136,,evan-feature22,full_rf_b,,0
110,44599,137,,,,1,1,1.0,0.0,-1.0,0.0,,0.0-139.0,,-1.0,2837.34,1.0,0.471199094,0.0,0.6470010979999999,1.0,0.715008097,0.0,0.410656191,True,,5e2f5d67028f41527321f838,,1829143,137,,evan-feature22,full_rf_b,,0
111,44600,138,,,,2,2,1.0,0.0,-1.0,0.0,,0.0-140.0,,-1.0,613.765,1.0,0.42486406,1.0,0.629771829,1.0,0.6550939960000001,0.0,0.459093873,True,,5e2f5d67028f41527321f838,,1839521,138,,evan-feature22,full_rf_b,,1
112,44601,139,,,,1,1,1.0,1.0,-1.0,0.0,,0.0-141.0,,-1.0,2044.925,1.0,0.4803197,1.0,0.645842715,1.0,0.6421749920000001,0.0,0.443092151,True,,5e2f5d67028f41527321f838,,1851328,139,,evan-feature22,full_rf_b,,1
113,44602,140,,,,2,2,1.0,0.0,0.0,1.0,,0.0-142.0,,0.0,1131.415,1.0,0.521848997,0.0,0.735801074,1.0,0.6691348460000001,0.0,0.45259351600000003,True,,5e2f5d67028f41527321f838,,1862222,140,,evan-feature22,full_rf_b,,1
114,44603,141,,,,1,1,1.0,1.0,-1.0,0.0,,0.0-143.0,,-1.0,1294.44,1.0,0.49565621299999996,1.0,0.742400847,1.0,0.661512553,0.0,0.483110831,True,,5e2f5d67028f41527321f838,,1873279,141,,evan-feature22,full_rf_b,,1
115,44604,142,,,,1,1,1.0,0.0,-1.0,0.0,,0.0-144.0,,-1.0,1444.305,1.0,0.521564361,0.0,0.731078632,1.0,0.6774886809999999,1.0,0.483263956,True,,5e2f5d67028f41527321f838,,1884486,142,,evan-feature22,full_rf_b,,0
116,44605,143,,,,1,1,1.0,1.0,-1.0,0.0,,0.0-145.0,,-1.0,2374.74,1.0,0.558893102,1.0,0.719810023,0.0,0.67461031,1.0,0.499349834,True,,5e2f5d67028f41527321f838,,1896620,143,,evan-feature22,full_rf_b,,0
117,44606,144,,,,2,2,1.0,1.0,-1.0,0.0,,0.0-146.0,,-1.0,2536.89,1.0,0.611031046,0.0,0.75,1.0,0.688072995,1.0,0.5321422729999999,True,,5e2f5d67028f41527321f838,,1908922,144,,evan-feature22,full_rf_b,,1
118,44607,145,,,,2,2,1.0,0.0,0.0,1.0,,0.0-147.0,,0.0,1298.185,0.0,0.633223941,1.0,0.713567728,1.0,0.75,0.0,0.48185314700000004,True,,5e2f5d67028f41527321f838,,1919980,145,,evan-feature22,full_rf_b,,0
119,44608,146,,,,1,1,1.0,1.0,-1.0,0.0,,0.0-148.0,,-1.0,504.19499989999997,1.0,0.664001694,1.0,0.705509768,1.0,0.75,1.0,0.500211065,True,,5e2f5d67028f41527321f838,,1930248,146,,evan-feature22,full_rf_b,,1
120,44609,147,,,,1,1,1.0,1.0,-1.0,0.0,,0.0-149.0,,-1.0,651.31,1.0,0.664001694,1.0,0.705509768,1.0,0.75,0.0,0.500211065,True,,5e2f5d67028f41527321f838,,1940660,147,,evan-feature22,full_rf_b,,0
121,44610,148,,,,2,2,1.0,0.0,-1.0,0.0,,0.0-150.0,,-1.0,1828.935,0.0,0.696508041,1.0,0.71066027,1.0,0.717028709,0.0,0.49792991,True,,5e2f5d67028f41527321f838,,1952254,148,,evan-feature22,full_rf_b,,1
122,44611,149,,,,1,1,1.0,1.0,0.0,1.0,,0.0-151.0,,1.0,2350.17,1.0,0.699883272,1.0,0.75,0.0,0.713543895,1.0,0.496962643,True,,5e2f5d67028f41527321f838,,1964364,149,,evan-feature22,full_rf_b,,1
123,44612,150,,,,2,2,1.0,0.0,0.0,1.0,,0.0-152.0,,0.0,2919.095,1.0,0.741163419,1.0,0.75,1.0,0.64691024,0.0,0.513858197,True,,5e2f5d67028f41527321f838,,1977046,150,,evan-feature22,full_rf_b,,1
124,44613,151,,,,1,1,1.0,1.0,0.0,1.0,,0.0-153.0,,1.0,3453.175,1.0,0.75,1.0,0.70816558,0.0,0.594499079,1.0,0.48502124,True,,5e2f5d67028f41527321f838,,1990262,151,,evan-feature22,full_rf_b,,1
125,44614,152,,,,2,2,1.0,1.0,-1.0,0.0,,0.0-154.0,,-1.0,1141.575,1.0,0.75,1.0,0.721848901,1.0,0.62197249,1.0,0.48263586399999997,True,,5e2f5d67028f41527321f838,,2001165,152,,evan-feature22,full_rf_b,,1
126,44615,153,,,,1,1,0.0,1.0,-1.0,0.0,,0.0-155.0,,0.0,686.6200001,0.0,0.75,1.0,0.74813071,0.0,0.584357161,1.0,0.411477782,True,,5e2f5d67028f41527321f838,,2011613,153,,evan-feature22,full_rf_b,,1
127,44616,154,,,,1,1,1.0,1.0,-1.0,0.0,,0.0-156.0,,-1.0,1094.605,1.0,0.75,1.0,0.75,0.0,0.52287236,1.0,0.488290656,True,,5e2f5d67028f41527321f838,,2022472,154,,evan-feature22,full_rf_b,,0
128,44617,155,,,,1,1,1.0,1.0,-1.0,0.0,,0.0-157.0,,-1.0,1877.075,1.0,0.75,1.0,0.75,1.0,0.544321581,1.0,0.53143059,True,,5e2f5d67028f41527321f838,,2034109,155,,evan-feature22,full_rf_b,,0
129,44618,156,,,,1,1,1.0,1.0,-1.0,0.0,,0.0-158.0,,-1.0,639.9450001,1.0,0.726754564,1.0,0.75,1.0,0.5129306370000001,0.0,0.530592445,True,,5e2f5d67028f41527321f838,,2044510,156,,evan-feature22,full_rf_b,,0
130,44619,157,,,,1,1,0.0,1.0,0.0,1.0,,0.0-159.0,,1.0,813.51,0.0,0.75,1.0,0.7392590729999999,0.0,0.479875835,0.0,0.547007051,True,,5e2f5d67028f41527321f838,,2055087,157,,evan-feature22,full_rf_b,,0
131,44620,158,,,,1,1,1.0,1.0,0.0,1.0,,0.0-160.0,,1.0,850.4,1.0,0.75,1.0,0.7393376979999999,1.0,0.546045419,1.0,0.541267353,True,,5e2f5d67028f41527321f838,,2065705,158,,evan-feature22,full_rf_b,,0
132,44621,159,,,,1,1,1.0,0.0,-1.0,0.0,,0.0-161.0,,-1.0,2402.955,1.0,0.75,0.0,0.75,1.0,0.485725895,1.0,0.527625395,True,,5e2f5d67028f41527321f838,,2077869,159,,evan-feature22,full_rf_b,,0
133,44622,160,,,,2,2,1.0,1.0,0.0,1.0,,0.0-162.0,,1.0,2310.035,1.0,0.75,0.0,0.725087974,1.0,0.488603595,1.0,0.504019206,True,,5e2f5d67028f41527321f838,,2089940,160,,evan-feature22,full_rf_b,,1
134,44623,161,,,,2,2,1.0,1.0,-1.0,0.0,,0.0-163.0,,-1.0,2951.82,1.0,0.745504295,1.0,0.75,1.0,0.452379914,1.0,0.50131194,True,,5e2f5d67028f41527321f838,,2102656,161,,evan-feature22,full_rf_b,,0
135,44624,162,,,,1,1,1.0,1.0,0.0,1.0,,0.0-164.0,,1.0,1836.685,1.0,0.728513874,1.0,0.75,0.0,0.44125567200000004,1.0,0.531454591,True,,5e2f5d67028f41527321f838,,2114258,162,,evan-feature22,full_rf_b,,1
136,44625,163,,,,2,2,0.0,0.0,-1.0,0.0,,0.0-165.0,,0.0,2522.315,1.0,0.73790804,1.0,0.75,0.0,0.413036656,0.0,0.524619035,True,,5e2f5d67028f41527321f838,,2126542,163,,evan-feature22,full_rf_b,,1
137,44626,164,,,,2,2,0.0,0.0,-1.0,0.0,,0.0-166.0,,0.0,3927.695,1.0,0.7080961309999999,0.0,0.708666865,0.0,0.431915581,0.0,0.481819489,True,,5e2f5d67028f41527321f838,,2140228,164,,evan-feature22,full_rf_b,,0
138,44627,165,,,,2,2,1.0,0.0,-1.0,0.0,,0.0-167.0,,-1.0,1183.25,0.0,0.721378003,1.0,0.71605913,1.0,0.36642387,0.0,0.5036739929999999,True,,5e2f5d67028f41527321f838,,2151173,165,,evan-feature22,full_rf_b,,0
139,44628,166,,,,1,1,1.0,0.0,0.0,1.0,,0.0-168.0,,0.0,1262.37,1.0,0.7340618959999999,0.0,0.699323252,0.0,0.35298046299999997,1.0,0.511241692,True,,5e2f5d67028f41527321f838,,2162200,166,,evan-feature22,full_rf_b,,1
140,44629,167,,,,2,2,0.0,0.0,0.0,1.0,,0.0-169.0,,0.0,1490.655,1.0,0.75,1.0,0.70412698,0.0,0.380734814,0.0,0.529580116,True,,5e2f5d67028f41527321f838,,2173454,167,,evan-feature22,full_rf_b,,1
141,44630,168,,,,1,1,0.0,1.0,0.0,1.0,,0.0-170.0,,1.0,1450.92,0.0,0.7436654909999999,1.0,0.711182751,0.0,0.41125331,1.0,0.49554405,True,,5e2f5d67028f41527321f838,,2184673,168,,evan-feature22,full_rf_b,,1
142,44631,169,,,,2,2,1.0,0.0,-1.0,0.0,,0.0-171.0,,-1.0,883.0650001,0.0,0.731607915,0.0,0.651774583,1.0,0.35688023,0.0,0.45194491600000003,True,,5e2f5d67028f41527321f838,,2195317,169,,evan-feature22,full_rf_b,,1
143,44632,170,,,,1,1,1.0,1.0,0.0,1.0,,0.0-172.0,,1.0,638.5850001,1.0,0.75,1.0,0.75,1.0,0.283145374,0.0,0.528608005,True,,5e2f5d67028f41527321f838,,2205719,170,,evan-feature22,full_rf_b,,1
144,44633,171,,,,1,1,0.0,1.0,-1.0,0.0,,0.0-173.0,,0.0,2604.185,0.0,0.7491416890000001,1.0,0.7423785959999999,0.0,0.29135870399999997,1.0,0.498888318,True,,5e2f5d67028f41527321f838,,2218087,171,,evan-feature22,full_rf_b,,0
145,44634,172,,,,1,1,0.0,0.0,0.0,1.0,,0.0-174.0,,0.0,1836.46,0.0,0.708569387,0.0,0.717682277,0.0,0.294421699,1.0,0.493838163,True,,5e2f5d67028f41527321f838,,2229687,172,,evan-feature22,full_rf_b,,0
146,44635,173,,,,2,2,1.0,0.0,-1.0,0.0,,0.0-175.0,,-1.0,1508.98,0.0,0.75,1.0,0.7383382159999999,1.0,0.356098707,0.0,0.442533405,True,,5e2f5d67028f41527321f838,,2240957,173,,evan-feature22,full_rf_b,,1
147,44636,174,,,,1,1,1.0,1.0,-1.0,0.0,,0.0-176.0,,-1.0,799.285,1.0,0.744527075,1.0,0.75,0.0,0.334127506,0.0,0.393165805,True,,5e2f5d67028f41527321f838,,2251519,174,,evan-feature22,full_rf_b,,1
148,44637,175,,,,1,1,1.0,0.0,-1.0,0.0,,0.0-177.0,,-1.0,1436.63,1.0,0.75,0.0,0.75,0.0,0.33571021799999995,0.0,0.350393962,True,,5e2f5d67028f41527321f838,,2262715,175,,evan-feature22,full_rf_b,,0
149,44638,176,,,,1,1,1.0,1.0,0.0,1.0,,0.0-178.0,,1.0,1193.06,1.0,0.75,1.0,0.75,0.0,0.313628297,0.0,0.36349657399999996,True,,5e2f5d67028f41527321f838,,2273672,176,,evan-feature22,full_rf_b,,0
150,44639,177,,,,2,2,1.0,1.0,-1.0,0.0,,0.0-179.0,,-1.0,788.935,1.0,0.75,1.0,0.734284182,1.0,0.262667667,1.0,0.380199119,True,,5e2f5d67028f41527321f838,,2284221,177,,evan-feature22,full_rf_b,,1
151,44640,178,,,,1,1,0.0,1.0,-1.0,0.0,,0.0-180.0,,0.0,1579.6,0.0,0.75,1.0,0.75,1.0,0.25,0.0,0.394494013,True,,5e2f5d67028f41527321f838,,2295567,178,,evan-feature22,full_rf_b,,1
152,44641,179,,,,1,1,1.0,1.0,-1.0,0.0,,0.0-181.0,,-1.0,940.8649998999999,1.0,0.722298145,1.0,0.7357822340000001,1.0,0.25,0.0,0.319142121,True,,5e2f5d67028f41527321f838,,2306270,179,,evan-feature22,full_rf_b,,0
153,44642,180,,,,1,1,1.0,1.0,-1.0,0.0,,0.0-182.0,,-1.0,1021.705,1.0,0.73149275,1.0,0.724276446,1.0,0.305856907,1.0,0.281315057,True,,5e2f5d67028f41527321f838,,2317057,180,,evan-feature22,full_rf_b,,0
154,44643,181,,,,1,1,1.0,0.0,-1.0,0.0,,0.0-183.0,,-1.0,1521.875,1.0,0.7458732690000001,0.0,0.7336382459999999,0.0,0.272571964,0.0,0.266021999,True,,5e2f5d67028f41527321f838,,2328340,181,,evan-feature22,full_rf_b,,0
155,44644,182,,,,1,1,0.0,1.0,0.0,1.0,,0.0-184.0,,1.0,1632.265,0.0,0.705579037,1.0,0.720778292,0.0,0.320238144,1.0,0.30971744,True,,5e2f5d67028f41527321f838,,2339732,182,,evan-feature22,full_rf_b,,0
156,44645,183,,,,1,1,1.0,0.0,0.0,1.0,,0.0-185.0,,0.0,830.8,1.0,0.700425648,0.0,0.7198784009999999,0.0,0.272590393,0.0,0.304182931,True,,5e2f5d67028f41527321f838,,2350323,183,,evan-feature22,full_rf_b,,0
157,44646,184,,,,1,1,0.0,0.0,0.0,1.0,,0.0-186.0,,0.0,1240.755,0.0,0.735590785,0.0,0.722714973,1.0,0.25,0.0,0.323421091,True,,5e2f5d67028f41527321f838,,2361328,184,,evan-feature22,full_rf_b,,0
158,44647,185,,,,1,1,1.0,1.0,0.0,1.0,,0.0-187.0,,1.0,2419.315,1.0,0.724807662,1.0,0.63146213,0.0,0.36836492600000004,1.0,0.34592153299999995,True,,5e2f5d67028f41527321f838,,2373508,185,,evan-feature22,full_rf_b,,0
159,44648,186,,,,2,2,0.0,1.0,-1.0,0.0,,0.0-188.0,,0.0,1400.72,1.0,0.7352796909999999,1.0,0.555111392,0.0,0.36003922,1.0,0.31433779999999995,True,,5e2f5d67028f41527321f838,,2384672,186,,evan-feature22,full_rf_b,,1
160,44649,187,notice,,,,,,,,,,0.0-189.0,"{""Q0"":""I think the first door initially showed more black aliens, and then the second door started to show more black aliens""}",,41978.0,,,,,,,,,True,,5e2f5d67028f41527321f838,,2426652,187,Q,survey-text,full_rf_b,,1
161,44650,188,track1,,[0],,,,,,,,0.0-190.0,"{""Q0"":""yes""}",,8191.0,,,,,,,,,True,,5e2f5d67028f41527321f838,,2434847,188,Q,evan-quiz,full_rf_b,,1
162,44651,189,track2,,[2],,,,,,,,0.0-191.0,"{""Q0"":""N/A""}",,7302.0,,,,,,,,,True,,5e2f5d67028f41527321f838,,2442150,189,Q,evan-quiz,full_rf_b,,1
163,44652,190,strat,,,,,,,,,,0.0-192.0,"{""Q0"":""I kept track of which doors were showing the most black (more likely positive of neutral) and the yellow (more likely negative), and would estimate a probability of those colours coming through those doors. ""}",,80114.0,,,,,,,,,True,,5e2f5d67028f41527321f838,,2522266,190,Q,survey-text,full_rf_b,,1
