,index,Unnamed: 0,Q_name,button_pressed,choice_idxs,chosen_pos,chosen_state,chosen_state_f_1_outcome,chosen_state_f_2_outcome,f_1_reward,f_2_reward,incor_questions,internal_node_id,responses,reward_received,rt,s_1_f_1_outcome,s_1_f_1_prob,s_1_f_2_outcome,s_1_f_2_prob,s_2_f_1_outcome,s_2_f_1_prob,s_2_f_2_outcome,s_2_f_2_prob,safe_first,stimulus,subjectID,success,time_elapsed,trial_index,trial_num,trial_type,version,view_history,switching
0,7627,25,,,,1,1,1.0,1.0,-1.0,0.0,,0.0-27.0,,-1.0,443.27,1.0,0.6,1.0,0.6,0.0,0.4,0.0,0.4,False,,5c1cdb060108690001f8fe85,,578962,25,,evan-feature22,full_pf_b,,0
1,7628,26,,,,2,2,0.0,1.0,-1.0,0.0,,0.0-28.0,,0.0,787.885,1.0,0.608053294,1.0,0.63424552,0.0,0.397152172,1.0,0.347069101,False,,5c1cdb060108690001f8fe85,,589555,26,,evan-feature22,full_pf_b,,1
2,7629,27,,,,2,2,0.0,0.0,-1.0,0.0,,0.0-29.0,,0.0,459.82,0.0,0.642237155,1.0,0.648566321,0.0,0.389407674,0.0,0.285525717,False,,5c1cdb060108690001f8fe85,,599824,27,,evan-feature22,full_pf_b,,0
3,7630,28,,,,2,2,0.0,0.0,-1.0,0.0,,0.0-30.0,,0.0,906.735,0.0,0.661086576,1.0,0.630492543,0.0,0.399058924,0.0,0.25,False,,5c1cdb060108690001f8fe85,,610530,28,,evan-feature22,full_pf_b,,0
4,7631,29,,,,2,2,0.0,0.0,0.0,1.0,,0.0-31.0,,0.0,315.01,1.0,0.631324137,0.0,0.6269842929999999,0.0,0.38734784299999997,0.0,0.25,False,,5c1cdb060108690001f8fe85,,620648,29,,evan-feature22,full_pf_b,,0
5,7632,30,,,,1,1,0.0,1.0,0.0,1.0,,0.0-32.0,,1.0,785.595,0.0,0.6381991370000001,1.0,0.68987999,1.0,0.384107265,0.0,0.271332943,False,,5c1cdb060108690001f8fe85,,631240,30,,evan-feature22,full_pf_b,,1
6,7633,31,,,,2,2,0.0,0.0,-1.0,0.0,,0.0-33.0,,0.0,887.905,0.0,0.66034901,1.0,0.742641349,0.0,0.360225629,0.0,0.25,False,,5c1cdb060108690001f8fe85,,641937,31,,evan-feature22,full_pf_b,,1
7,7634,32,,,,2,2,1.0,0.0,-1.0,0.0,,0.0-34.0,,-1.0,723.345,1.0,0.638612418,1.0,0.75,1.0,0.367273939,0.0,0.25,False,,5c1cdb060108690001f8fe85,,652474,32,,evan-feature22,full_pf_b,,0
8,7635,33,,,,1,1,0.0,0.0,0.0,1.0,,0.0-35.0,,0.0,2249.675,0.0,0.624340629,0.0,0.75,1.0,0.425829545,0.0,0.25,False,,5c1cdb060108690001f8fe85,,664530,33,,evan-feature22,full_pf_b,,1
9,7636,34,,,,1,1,1.0,1.0,0.0,1.0,,0.0-36.0,,1.0,320.415,1.0,0.621999804,1.0,0.75,0.0,0.368609357,0.0,0.25,False,,5c1cdb060108690001f8fe85,,674668,34,,evan-feature22,full_pf_b,,0
10,7637,35,,,,2,2,0.0,0.0,-1.0,0.0,,0.0-37.0,,0.0,1993.865,0.0,0.62666403,1.0,0.75,0.0,0.311151498,0.0,0.25,False,,5c1cdb060108690001f8fe85,,686455,35,,evan-feature22,full_pf_b,,1
11,7638,36,,,,1,1,1.0,0.0,0.0,1.0,,0.0-38.0,,0.0,1638.63,1.0,0.6819650009999999,0.0,0.75,1.0,0.310763048,0.0,0.25,False,,5c1cdb060108690001f8fe85,,697920,36,,evan-feature22,full_pf_b,,1
12,7639,37,,,,2,2,0.0,0.0,-1.0,0.0,,0.0-39.0,,0.0,1595.915,1.0,0.740626951,1.0,0.75,0.0,0.25,0.0,0.25,False,,5c1cdb060108690001f8fe85,,709319,37,,evan-feature22,full_pf_b,,1
13,7640,38,,,,2,2,0.0,0.0,-1.0,0.0,,0.0-40.0,,0.0,1866.715,0.0,0.739599242,0.0,0.742034978,0.0,0.25397114600000004,0.0,0.25,False,,5c1cdb060108690001f8fe85,,720990,38,,evan-feature22,full_pf_b,,0
14,7641,39,,,,2,2,0.0,0.0,-1.0,0.0,,0.0-41.0,,0.0,539.805,1.0,0.732341315,0.0,0.72735643,0.0,0.25,0.0,0.25,False,,5c1cdb060108690001f8fe85,,731342,39,,evan-feature22,full_pf_b,,0
15,7642,40,,,,2,2,0.0,1.0,-1.0,0.0,,0.0-42.0,,0.0,719.83,0.0,0.7062287770000001,0.0,0.75,0.0,0.29002151,1.0,0.288256649,False,,5c1cdb060108690001f8fe85,,741861,40,,evan-feature22,full_pf_b,,0
16,7643,41,,,,2,2,1.0,1.0,-1.0,0.0,,0.0-43.0,,-1.0,612.05,1.0,0.7086029209999999,1.0,0.75,1.0,0.274129113,1.0,0.262851608,False,,5c1cdb060108690001f8fe85,,752289,41,,evan-feature22,full_pf_b,,0
17,7644,42,,,,1,1,0.0,0.0,-1.0,0.0,,0.0-44.0,,0.0,1495.02,0.0,0.669189651,0.0,0.727614338,0.0,0.298444036,1.0,0.296944518,False,,5c1cdb060108690001f8fe85,,763578,42,,evan-feature22,full_pf_b,,1
18,7645,43,,,,1,1,1.0,1.0,-1.0,0.0,,0.0-45.0,,-1.0,545.815,1.0,0.6819912929999999,1.0,0.7179434290000001,0.0,0.265003961,0.0,0.28157921199999997,False,,5c1cdb060108690001f8fe85,,773917,43,,evan-feature22,full_pf_b,,0
19,7646,44,,,,1,1,1.0,0.0,0.0,1.0,,0.0-46.0,,0.0,1149.08,1.0,0.665275002,0.0,0.723065271,0.0,0.260414971,1.0,0.30973870000000003,False,,5c1cdb060108690001f8fe85,,784871,44,,evan-feature22,full_pf_b,,0
20,7647,45,,,,2,2,1.0,0.0,-1.0,0.0,,0.0-47.0,,-1.0,1753.495,1.0,0.6660593260000001,1.0,0.728032907,1.0,0.30922817,0.0,0.338778608,False,,5c1cdb060108690001f8fe85,,796434,45,,evan-feature22,full_pf_b,,1
21,7648,46,,,,1,1,1.0,0.0,-1.0,0.0,,0.0-48.0,,-1.0,400.795,1.0,0.702068785,0.0,0.6528750879999999,0.0,0.287329608,0.0,0.35789613200000003,False,,5c1cdb060108690001f8fe85,,806662,46,,evan-feature22,full_pf_b,,1
22,7649,47,,,,2,2,0.0,1.0,-1.0,0.0,,0.0-49.0,,0.0,575.745,1.0,0.651939787,1.0,0.636725589,0.0,0.284834488,1.0,0.358563756,False,,5c1cdb060108690001f8fe85,,817044,47,,evan-feature22,full_pf_b,,1
23,7650,48,,,,2,2,1.0,0.0,0.0,1.0,,0.0-50.0,,0.0,1174.555,1.0,0.67573929,1.0,0.612550049,1.0,0.37130387600000003,0.0,0.383542402,False,,5c1cdb060108690001f8fe85,,828008,48,,evan-feature22,full_pf_b,,0
24,7651,49,,,,1,1,1.0,1.0,0.0,1.0,,0.0-51.0,,1.0,353.255,1.0,0.620753801,1.0,0.60513644,0.0,0.385529434,0.0,0.340361743,False,,5c1cdb060108690001f8fe85,,838178,49,,evan-feature22,full_pf_b,,1
25,7652,50,,,,1,1,1.0,1.0,0.0,1.0,,0.0-52.0,,1.0,697.67,1.0,0.673564893,1.0,0.672437924,0.0,0.292955382,0.0,0.337633795,False,,5c1cdb060108690001f8fe85,,848683,50,,evan-feature22,full_pf_b,,0
26,7653,51,,,,2,2,1.0,1.0,-1.0,0.0,,0.0-53.0,,-1.0,2037.05,0.0,0.6749427,1.0,0.724197502,1.0,0.32391132100000003,1.0,0.350995264,False,,5c1cdb060108690001f8fe85,,860528,51,,evan-feature22,full_pf_b,,1
27,7654,52,,,,1,1,1.0,1.0,-1.0,0.0,,0.0-54.0,,-1.0,894.13,1.0,0.6940159379999999,1.0,0.75,1.0,0.31710554399999996,0.0,0.413450341,False,,5c1cdb060108690001f8fe85,,871232,52,,evan-feature22,full_pf_b,,1
28,7655,53,,,,1,1,1.0,0.0,-1.0,0.0,,0.0-55.0,,-1.0,1001.445,1.0,0.6916018270000001,0.0,0.69001187,1.0,0.261817804,1.0,0.40038635,False,,5c1cdb060108690001f8fe85,,882031,53,,evan-feature22,full_pf_b,,0
29,7656,54,,,,1,1,0.0,1.0,-1.0,0.0,,0.0-56.0,,0.0,1405.12,0.0,0.641061544,1.0,0.71337992,0.0,0.277296461,0.0,0.47372791700000005,False,,5c1cdb060108690001f8fe85,,893236,54,,evan-feature22,full_pf_b,,0
30,7657,55,,,,1,1,0.0,1.0,-1.0,0.0,,0.0-57.0,,0.0,890.17,0.0,0.6082438520000001,1.0,0.708471106,0.0,0.28745137,1.0,0.564174476,False,,5c1cdb060108690001f8fe85,,903923,55,,evan-feature22,full_pf_b,,0
31,7658,56,,,,1,1,1.0,1.0,-1.0,0.0,,0.0-58.0,,-1.0,922.86,1.0,0.6051112120000001,1.0,0.7118147229999999,1.0,0.272390611,1.0,0.5595149939999999,False,,5c1cdb060108690001f8fe85,,914655,56,,evan-feature22,full_pf_b,,0
32,7659,57,,,,1,1,1.0,1.0,-1.0,0.0,,0.0-59.0,,-1.0,889.59,1.0,0.582420852,1.0,0.635867583,0.0,0.31089574,1.0,0.5227206520000001,False,,5c1cdb060108690001f8fe85,,925360,57,,evan-feature22,full_pf_b,,0
33,7660,58,,,,SLOW,SLOW,,,0.0,1.0,,0.0-60.0,,-3.0,,1.0,0.623195575,1.0,0.655026044,0.0,0.25,0.0,0.560387538,False,,5c1cdb060108690001f8fe85,,931183,58,,evan-feature22,full_pf_b,,1
34,7661,59,,,,1,1,1.0,1.0,-1.0,0.0,,0.0-61.0,,-1.0,2015.785,1.0,0.601889598,1.0,0.678198724,1.0,0.25,0.0,0.559922936,False,,5c1cdb060108690001f8fe85,,943014,59,,evan-feature22,full_pf_b,,1
35,7662,60,,,,1,1,0.0,1.0,-1.0,0.0,,0.0-62.0,,0.0,969.92,0.0,0.601259914,1.0,0.704681482,1.0,0.33908969299999997,0.0,0.505003715,False,,5c1cdb060108690001f8fe85,,953786,60,,evan-feature22,full_pf_b,,0
36,7663,61,,,,1,1,0.0,1.0,-1.0,0.0,,0.0-63.0,,0.0,521.29,0.0,0.59645454,1.0,0.710437172,0.0,0.327441879,0.0,0.391749613,False,,5c1cdb060108690001f8fe85,,964112,61,,evan-feature22,full_pf_b,,0
37,7664,62,,,,1,1,0.0,1.0,-1.0,0.0,,0.0-64.0,,0.0,796.71,0.0,0.529473,1.0,0.636758527,0.0,0.301338063,0.0,0.365661481,False,,5c1cdb060108690001f8fe85,,974695,62,,evan-feature22,full_pf_b,,0
38,7665,63,,,,1,1,1.0,0.0,0.0,1.0,,0.0-65.0,,0.0,526.385,1.0,0.541657162,0.0,0.634541962,1.0,0.343535366,0.0,0.371763742,False,,5c1cdb060108690001f8fe85,,985035,63,,evan-feature22,full_pf_b,,0
39,7666,64,,,,1,1,1.0,1.0,-1.0,0.0,,0.0-66.0,,-1.0,685.42,1.0,0.5707533260000001,1.0,0.589121171,1.0,0.326428396,1.0,0.43961622899999997,False,,5c1cdb060108690001f8fe85,,995519,64,,evan-feature22,full_pf_b,,0
40,7667,65,,,,1,1,1.0,1.0,-1.0,0.0,,0.0-67.0,,-1.0,657.935,1.0,0.5707533260000001,1.0,0.589121171,1.0,0.326428396,1.0,0.43961622899999997,False,,5c1cdb060108690001f8fe85,,1005980,65,,evan-feature22,full_pf_b,,0
41,7668,66,,,,1,1,0.0,1.0,-1.0,0.0,,0.0-68.0,,0.0,678.17,0.0,0.506271295,1.0,0.641775594,0.0,0.37149690700000004,1.0,0.404330166,False,,5c1cdb060108690001f8fe85,,1016458,66,,evan-feature22,full_pf_b,,0
42,7669,67,,,,1,1,1.0,0.0,0.0,1.0,,0.0-69.0,,0.0,1649.485,1.0,0.455642565,0.0,0.623605825,1.0,0.358753011,0.0,0.346174041,False,,5c1cdb060108690001f8fe85,,1027907,67,,evan-feature22,full_pf_b,,0
43,7670,68,,,,1,1,0.0,1.0,0.0,1.0,,0.0-70.0,,1.0,875.0,0.0,0.483677308,1.0,0.5904681070000001,1.0,0.402218411,0.0,0.35344697,False,,5c1cdb060108690001f8fe85,,1038577,68,,evan-feature22,full_pf_b,,0
44,7671,69,,,,1,1,0.0,1.0,0.0,1.0,,0.0-71.0,,1.0,877.52,0.0,0.394210977,1.0,0.558925494,1.0,0.540052017,0.0,0.35182128700000004,False,,5c1cdb060108690001f8fe85,,1049257,69,,evan-feature22,full_pf_b,,0
45,7672,70,,,,2,2,0.0,1.0,-1.0,0.0,,0.0-72.0,,0.0,998.6,0.0,0.382300414,1.0,0.577670603,0.0,0.607608448,1.0,0.378261578,False,,5c1cdb060108690001f8fe85,,1060061,70,,evan-feature22,full_pf_b,,1
46,7673,71,,,,1,1,1.0,1.0,-1.0,0.0,,0.0-73.0,,-1.0,494.54,1.0,0.357596762,1.0,0.5929076529999999,1.0,0.6579790010000001,0.0,0.401326777,False,,5c1cdb060108690001f8fe85,,1070365,71,,evan-feature22,full_pf_b,,1
47,7674,72,,,,1,1,0.0,0.0,-1.0,0.0,,0.0-74.0,,0.0,751.325,0.0,0.362033495,0.0,0.582308608,0.0,0.649195052,1.0,0.355158505,False,,5c1cdb060108690001f8fe85,,1080912,72,,evan-feature22,full_pf_b,,0
48,7675,73,,,,2,2,1.0,0.0,-1.0,0.0,,0.0-75.0,,-1.0,808.195,0.0,0.369620635,1.0,0.669100864,1.0,0.706059111,0.0,0.362516241,False,,5c1cdb060108690001f8fe85,,1091531,73,,evan-feature22,full_pf_b,,1
49,7676,74,,,,1,1,0.0,0.0,-1.0,0.0,,0.0-76.0,,0.0,623.79,0.0,0.41477751399999996,0.0,0.7284416779999999,1.0,0.7182656940000001,1.0,0.36228040899999997,False,,5c1cdb060108690001f8fe85,,1101955,74,,evan-feature22,full_pf_b,,1
50,7677,75,,,,1,1,1.0,1.0,0.0,1.0,,0.0-77.0,,1.0,498.905,1.0,0.37675460299999997,1.0,0.703250285,0.0,0.75,0.0,0.461979164,False,,5c1cdb060108690001f8fe85,,1112268,75,,evan-feature22,full_pf_b,,0
51,7678,76,,,,1,1,0.0,0.0,0.0,1.0,,0.0-78.0,,0.0,484.725,0.0,0.398716075,0.0,0.6723864890000001,1.0,0.674153818,0.0,0.519029516,False,,5c1cdb060108690001f8fe85,,1122554,76,,evan-feature22,full_pf_b,,0
52,7679,77,,,,1,1,0.0,1.0,-1.0,0.0,,0.0-79.0,,0.0,1263.59,0.0,0.34677856700000004,1.0,0.69057175,1.0,0.6822438540000001,0.0,0.477292237,False,,5c1cdb060108690001f8fe85,,1133625,77,,evan-feature22,full_pf_b,,0
53,7680,78,,,,1,1,0.0,1.0,0.0,1.0,,0.0-80.0,,1.0,1181.52,0.0,0.28580469199999997,1.0,0.68408818,0.0,0.684207565,1.0,0.49780448299999996,False,,5c1cdb060108690001f8fe85,,1144623,78,,evan-feature22,full_pf_b,,0
54,7682,80,,,,1,1,0.0,1.0,-1.0,0.0,,0.0-82.0,,0.0,1008.635,0.0,0.25,1.0,0.7405808970000001,0.0,0.679614108,0.0,0.436436964,False,,5c1cdb060108690001f8fe85,,1174562,80,,evan-feature22,full_pf_b,,0
55,7683,81,,,,1,1,0.0,0.0,0.0,1.0,,0.0-83.0,,0.0,615.76,0.0,0.29890393,0.0,0.730505706,0.0,0.7328203320000001,0.0,0.439256938,False,,5c1cdb060108690001f8fe85,,1184983,81,,evan-feature22,full_pf_b,,0
56,7684,82,,,,1,1,0.0,1.0,-1.0,0.0,,0.0-84.0,,0.0,1160.535,0.0,0.326762398,1.0,0.7148059609999999,1.0,0.75,0.0,0.44389608799999997,False,,5c1cdb060108690001f8fe85,,1195954,82,,evan-feature22,full_pf_b,,0
57,7685,83,,,,1,1,1.0,1.0,-1.0,0.0,,0.0-85.0,,-1.0,792.015,1.0,0.295168515,1.0,0.739760854,1.0,0.719947008,0.0,0.35277284600000003,False,,5c1cdb060108690001f8fe85,,1206551,83,,evan-feature22,full_pf_b,,0
58,7686,84,,,,1,1,1.0,0.0,-1.0,0.0,,0.0-86.0,,-1.0,368.48,1.0,0.25,0.0,0.70781482,0.0,0.75,0.0,0.286095925,False,,5c1cdb060108690001f8fe85,,1216740,84,,evan-feature22,full_pf_b,,0
59,7687,85,,,,2,2,1.0,1.0,0.0,1.0,,0.0-87.0,,1.0,1992.575,1.0,0.25638190899999996,1.0,0.704088163,1.0,0.75,1.0,0.26872601399999996,False,,5c1cdb060108690001f8fe85,,1228550,85,,evan-feature22,full_pf_b,,1
60,7688,86,,,,2,2,1.0,1.0,0.0,1.0,,0.0-88.0,,1.0,377.13,0.0,0.271581126,1.0,0.669760107,1.0,0.733896663,1.0,0.273244572,False,,5c1cdb060108690001f8fe85,,1238740,86,,evan-feature22,full_pf_b,,0
61,7689,87,,,,2,2,1.0,0.0,0.0,1.0,,0.0-89.0,,0.0,1000.475,0.0,0.257144401,1.0,0.600575706,1.0,0.74488122,0.0,0.25,False,,5c1cdb060108690001f8fe85,,1249545,87,,evan-feature22,full_pf_b,,0
62,7690,88,,,,1,1,0.0,1.0,-1.0,0.0,,0.0-90.0,,0.0,1897.165,0.0,0.25,1.0,0.616870026,1.0,0.723610234,0.0,0.25,False,,5c1cdb060108690001f8fe85,,1261256,88,,evan-feature22,full_pf_b,,1
63,7691,89,,,,1,1,0.0,0.0,0.0,1.0,,0.0-91.0,,0.0,570.955,0.0,0.25,0.0,0.583540187,0.0,0.7041042559999999,1.0,0.285961995,False,,5c1cdb060108690001f8fe85,,1271631,89,,evan-feature22,full_pf_b,,0
64,7692,90,,,,1,1,0.0,1.0,-1.0,0.0,,0.0-92.0,,0.0,1691.53,0.0,0.27254536,1.0,0.53875765,0.0,0.693783448,1.0,0.284961652,False,,5c1cdb060108690001f8fe85,,1283129,90,,evan-feature22,full_pf_b,,0
65,7693,91,,,,1,1,0.0,0.0,0.0,1.0,,0.0-93.0,,0.0,648.85,0.0,0.25,0.0,0.548431252,0.0,0.734221895,0.0,0.279445214,False,,5c1cdb060108690001f8fe85,,1293578,91,,evan-feature22,full_pf_b,,0
66,7694,92,,,,1,1,0.0,1.0,-1.0,0.0,,0.0-94.0,,0.0,553.09,0.0,0.258640684,1.0,0.545878066,1.0,0.725245965,0.0,0.31487537,False,,5c1cdb060108690001f8fe85,,1303933,92,,evan-feature22,full_pf_b,,0
67,7695,93,,,,1,1,0.0,1.0,-1.0,0.0,,0.0-95.0,,0.0,933.955,0.0,0.251103711,1.0,0.5776290629999999,0.0,0.696320133,0.0,0.317831047,False,,5c1cdb060108690001f8fe85,,1314664,93,,evan-feature22,full_pf_b,,0
68,7696,94,,,,1,1,0.0,1.0,-1.0,0.0,,0.0-96.0,,0.0,676.5,0.0,0.276630292,1.0,0.617329858,1.0,0.73838088,0.0,0.261471582,False,,5c1cdb060108690001f8fe85,,1325153,94,,evan-feature22,full_pf_b,,0
69,7697,95,,,,1,1,0.0,0.0,0.0,1.0,,0.0-97.0,,0.0,597.025,0.0,0.297716424,0.0,0.618863717,1.0,0.7402358259999999,0.0,0.262600834,False,,5c1cdb060108690001f8fe85,,1335548,95,,evan-feature22,full_pf_b,,0
70,7698,96,,,,1,1,0.0,1.0,-1.0,0.0,,0.0-98.0,,0.0,386.855,0.0,0.290935512,1.0,0.695370945,0.0,0.706570507,0.0,0.280030553,False,,5c1cdb060108690001f8fe85,,1345742,96,,evan-feature22,full_pf_b,,0
71,7699,97,,,,1,1,0.0,0.0,-1.0,0.0,,0.0-99.0,,0.0,630.815,0.0,0.25,0.0,0.6465277079999999,1.0,0.67766682,0.0,0.25,False,,5c1cdb060108690001f8fe85,,1356183,97,,evan-feature22,full_pf_b,,0
72,7700,98,,,,1,1,0.0,0.0,-1.0,0.0,,0.0-100.0,,0.0,465.64,0.0,0.26463816,0.0,0.636100213,1.0,0.646048507,0.0,0.265607101,False,,5c1cdb060108690001f8fe85,,1366464,98,,evan-feature22,full_pf_b,,0
73,7701,99,,,,1,1,0.0,0.0,-1.0,0.0,,0.0-101.0,,0.0,518.66,0.0,0.314340707,0.0,0.667795927,1.0,0.613630805,1.0,0.25,False,,5c1cdb060108690001f8fe85,,1376781,99,,evan-feature22,full_pf_b,,0
74,7702,100,,,,1,1,0.0,1.0,-1.0,0.0,,0.0-102.0,,0.0,446.065,0.0,0.28685784,1.0,0.6622549529999999,1.0,0.652154117,1.0,0.25,False,,5c1cdb060108690001f8fe85,,1387037,100,,evan-feature22,full_pf_b,,0
75,7703,101,,,,1,1,0.0,1.0,0.0,1.0,,0.0-103.0,,1.0,1327.425,0.0,0.304106554,1.0,0.631289538,1.0,0.707041942,0.0,0.29314237,False,,5c1cdb060108690001f8fe85,,1398161,101,,evan-feature22,full_pf_b,,0
76,7704,102,,,,1,1,1.0,1.0,0.0,1.0,,0.0-104.0,,1.0,709.055,1.0,0.304806932,1.0,0.571167718,1.0,0.680472346,0.0,0.25,False,,5c1cdb060108690001f8fe85,,1408676,102,,evan-feature22,full_pf_b,,0
77,7705,103,,,,1,1,1.0,1.0,0.0,1.0,,0.0-105.0,,1.0,426.73,1.0,0.37919861,1.0,0.5724849710000001,0.0,0.705638003,1.0,0.30179300600000003,False,,5c1cdb060108690001f8fe85,,1418927,103,,evan-feature22,full_pf_b,,0
78,7706,104,,,,1,1,1.0,1.0,0.0,1.0,,0.0-106.0,,1.0,620.97,1.0,0.464277969,1.0,0.554034373,1.0,0.7372627340000001,1.0,0.264699741,False,,5c1cdb060108690001f8fe85,,1429344,104,,evan-feature22,full_pf_b,,0
79,7707,105,,,,2,2,1.0,0.0,-1.0,0.0,,0.0-107.0,,-1.0,2592.32,1.0,0.465104323,1.0,0.530793115,1.0,0.75,0.0,0.31683071,False,,5c1cdb060108690001f8fe85,,1441743,105,,evan-feature22,full_pf_b,,1
80,7708,106,,,,1,1,0.0,0.0,0.0,1.0,,0.0-108.0,,0.0,1051.425,0.0,0.465104323,0.0,0.530793115,1.0,0.75,0.0,0.31683071,False,,5c1cdb060108690001f8fe85,,1452610,106,,evan-feature22,full_pf_b,,1
81,7709,107,,,,1,1,0.0,1.0,0.0,1.0,,0.0-109.0,,1.0,569.99,0.0,0.46833986,1.0,0.570249239,0.0,0.7244472590000001,1.0,0.364114163,False,,5c1cdb060108690001f8fe85,,1462992,107,,evan-feature22,full_pf_b,,0
82,7710,108,,,,1,1,0.0,0.0,0.0,1.0,,0.0-110.0,,0.0,417.035,0.0,0.445444024,0.0,0.649673355,1.0,0.6845441290000001,0.0,0.300660449,False,,5c1cdb060108690001f8fe85,,1473213,108,,evan-feature22,full_pf_b,,0
83,7711,109,,,,1,1,1.0,1.0,0.0,1.0,,0.0-111.0,,1.0,453.885,1.0,0.39909721299999995,1.0,0.6715179509999999,1.0,0.742310028,1.0,0.35496088299999995,False,,5c1cdb060108690001f8fe85,,1483450,109,,evan-feature22,full_pf_b,,0
84,7712,110,,,,1,1,1.0,1.0,0.0,1.0,,0.0-112.0,,1.0,674.095,1.0,0.37956104799999996,1.0,0.694725302,0.0,0.7181651309999999,0.0,0.38726906299999997,False,,5c1cdb060108690001f8fe85,,1493926,110,,evan-feature22,full_pf_b,,0
85,7713,111,,,,1,1,0.0,1.0,0.0,1.0,,0.0-113.0,,1.0,765.325,0.0,0.404995034,1.0,0.724375412,1.0,0.6910946859999999,0.0,0.387187347,False,,5c1cdb060108690001f8fe85,,1504496,111,,evan-feature22,full_pf_b,,0
86,7714,112,,,,1,1,1.0,1.0,0.0,1.0,,0.0-114.0,,1.0,752.205,1.0,0.461740803,1.0,0.75,0.0,0.75,1.0,0.34872038200000005,False,,5c1cdb060108690001f8fe85,,1515052,112,,evan-feature22,full_pf_b,,0
87,7715,113,,,,1,1,0.0,1.0,-1.0,0.0,,0.0-115.0,,0.0,706.515,0.0,0.43821380600000004,1.0,0.738833273,1.0,0.728286963,1.0,0.399538128,False,,5c1cdb060108690001f8fe85,,1525563,113,,evan-feature22,full_pf_b,,0
88,7716,114,,,,1,1,0.0,0.0,0.0,1.0,,0.0-116.0,,0.0,872.57,0.0,0.41709882,0.0,0.736666736,1.0,0.75,1.0,0.389095584,False,,5c1cdb060108690001f8fe85,,1536253,114,,evan-feature22,full_pf_b,,0
89,7717,115,,,,2,2,1.0,1.0,0.0,1.0,,0.0-117.0,,1.0,1579.355,0.0,0.39749009799999996,1.0,0.744320029,1.0,0.75,1.0,0.363848678,False,,5c1cdb060108690001f8fe85,,1547638,115,,evan-feature22,full_pf_b,,1
90,7718,116,,,,1,1,1.0,1.0,-1.0,0.0,,0.0-118.0,,-1.0,1124.94,1.0,0.392653706,1.0,0.75,0.0,0.75,1.0,0.384386976,False,,5c1cdb060108690001f8fe85,,1558571,116,,evan-feature22,full_pf_b,,1
91,7719,117,,,,2,2,0.0,1.0,-1.0,0.0,,0.0-119.0,,0.0,552.565,1.0,0.31190902600000003,1.0,0.75,0.0,0.732413819,1.0,0.413082932,False,,5c1cdb060108690001f8fe85,,1568915,117,,evan-feature22,full_pf_b,,1
92,7720,118,,,,2,2,1.0,1.0,0.0,1.0,,0.0-120.0,,1.0,1931.745,0.0,0.366917648,1.0,0.740073855,1.0,0.75,1.0,0.352861979,False,,5c1cdb060108690001f8fe85,,1580650,118,,evan-feature22,full_pf_b,,0
93,7721,119,,,,1,1,1.0,0.0,0.0,1.0,,0.0-121.0,,0.0,331.325,1.0,0.3645172,0.0,0.721770713,1.0,0.75,1.0,0.404074511,False,,5c1cdb060108690001f8fe85,,1590802,119,,evan-feature22,full_pf_b,,1
94,7722,120,,,,2,2,1.0,0.0,0.0,1.0,,0.0-122.0,,0.0,566.475,0.0,0.35205600299999995,1.0,0.68983859,1.0,0.739735447,0.0,0.366895945,False,,5c1cdb060108690001f8fe85,,1601167,120,,evan-feature22,full_pf_b,,1
95,7723,121,,,,1,1,0.0,1.0,0.0,1.0,,0.0-123.0,,1.0,1131.06,0.0,0.40998722600000004,1.0,0.720859127,1.0,0.673854955,0.0,0.368528541,False,,5c1cdb060108690001f8fe85,,1612103,121,,evan-feature22,full_pf_b,,1
96,7724,122,,,,1,1,0.0,1.0,-1.0,0.0,,0.0-124.0,,0.0,1134.775,0.0,0.353625316,1.0,0.75,1.0,0.695605473,0.0,0.38303674200000004,False,,5c1cdb060108690001f8fe85,,1623041,122,,evan-feature22,full_pf_b,,0
97,7725,123,,,,1,1,0.0,1.0,0.0,1.0,,0.0-125.0,,1.0,886.545,0.0,0.359216989,1.0,0.75,1.0,0.6987915090000001,1.0,0.35169046200000004,False,,5c1cdb060108690001f8fe85,,1633738,123,,evan-feature22,full_pf_b,,0
98,7726,124,,,,1,1,1.0,0.0,-1.0,0.0,,0.0-126.0,,-1.0,1231.61,1.0,0.35834496899999996,0.0,0.75,0.0,0.707067742,0.0,0.416763636,False,,5c1cdb060108690001f8fe85,,1644770,124,,evan-feature22,full_pf_b,,0
99,7727,125,,,,2,2,0.0,0.0,-1.0,0.0,,0.0-127.0,,0.0,689.58,0.0,0.38741613799999997,1.0,0.7177369570000001,0.0,0.734902455,0.0,0.49438664299999996,False,,5c1cdb060108690001f8fe85,,1655268,125,,evan-feature22,full_pf_b,,1
100,7728,126,,,,1,1,0.0,1.0,0.0,1.0,,0.0-128.0,,1.0,1654.91,0.0,0.405255252,1.0,0.7300466640000001,1.0,0.7027748070000001,0.0,0.504359668,False,,5c1cdb060108690001f8fe85,,1666720,126,,evan-feature22,full_pf_b,,1
101,7729,127,,,,1,1,0.0,1.0,0.0,1.0,,0.0-129.0,,1.0,729.13,0.0,0.40697073,1.0,0.7260142190000001,1.0,0.724461982,0.0,0.522779179,False,,5c1cdb060108690001f8fe85,,1677275,127,,evan-feature22,full_pf_b,,0
102,7730,128,,,,1,1,0.0,0.0,0.0,1.0,,0.0-130.0,,0.0,641.485,0.0,0.43906215299999996,0.0,0.7252802340000001,0.0,0.719079934,1.0,0.5712990579999999,False,,5c1cdb060108690001f8fe85,,1687737,128,,evan-feature22,full_pf_b,,0
103,7731,129,,,,1,1,0.0,1.0,0.0,1.0,,0.0-131.0,,1.0,760.615,0.0,0.4076705,1.0,0.73280499,0.0,0.681313127,1.0,0.523891346,False,,5c1cdb060108690001f8fe85,,1698300,129,,evan-feature22,full_pf_b,,0
104,7732,130,,,,1,1,0.0,1.0,0.0,1.0,,0.0-132.0,,1.0,885.455,0.0,0.399102911,1.0,0.730498344,0.0,0.661080239,1.0,0.46742603,False,,5c1cdb060108690001f8fe85,,1708997,130,,evan-feature22,full_pf_b,,0
105,7733,131,,,,1,1,0.0,0.0,-1.0,0.0,,0.0-133.0,,0.0,1729.37,0.0,0.356477282,0.0,0.712296395,0.0,0.641812684,0.0,0.44868414,False,,5c1cdb060108690001f8fe85,,1720553,131,,evan-feature22,full_pf_b,,0
106,7734,132,,,,1,1,1.0,1.0,0.0,1.0,,0.0-134.0,,1.0,1401.61,1.0,0.462760722,1.0,0.692349322,1.0,0.700947931,1.0,0.394680266,False,,5c1cdb060108690001f8fe85,,1731746,132,,evan-feature22,full_pf_b,,0
107,7735,133,,,,1,1,0.0,1.0,0.0,1.0,,0.0-135.0,,1.0,1245.845,0.0,0.422306413,1.0,0.718375916,0.0,0.706340917,1.0,0.367787185,False,,5c1cdb060108690001f8fe85,,1742791,133,,evan-feature22,full_pf_b,,0
108,7737,135,,,,1,1,1.0,1.0,0.0,1.0,,0.0-137.0,,1.0,856.72,1.0,0.4582233,1.0,0.643834117,1.0,0.75,0.0,0.39615823299999997,False,,5c1cdb060108690001f8fe85,,1777829,135,,evan-feature22,full_pf_b,,0
109,7738,136,,,,1,1,1.0,1.0,0.0,1.0,,0.0-138.0,,1.0,528.865,1.0,0.43813437899999996,1.0,0.651283804,1.0,0.729674191,1.0,0.37711048,False,,5c1cdb060108690001f8fe85,,1788183,136,,evan-feature22,full_pf_b,,0
110,7739,137,,,,1,1,0.0,1.0,0.0,1.0,,0.0-139.0,,1.0,588.565,0.0,0.471199094,1.0,0.6470010979999999,1.0,0.715008097,1.0,0.410656191,False,,5c1cdb060108690001f8fe85,,1798570,137,,evan-feature22,full_pf_b,,0
111,7740,138,,,,1,1,1.0,1.0,-1.0,0.0,,0.0-140.0,,-1.0,1401.37,1.0,0.42486406,1.0,0.629771829,0.0,0.6550939960000001,0.0,0.459093873,False,,5c1cdb060108690001f8fe85,,1809767,138,,evan-feature22,full_pf_b,,0
112,7741,139,,,,2,2,1.0,0.0,-1.0,0.0,,0.0-141.0,,-1.0,406.605,0.0,0.4803197,1.0,0.645842715,1.0,0.6421749920000001,0.0,0.443092151,False,,5c1cdb060108690001f8fe85,,1819979,139,,evan-feature22,full_pf_b,,1
113,7742,140,,,,1,1,0.0,1.0,-1.0,0.0,,0.0-142.0,,0.0,890.845,0.0,0.521848997,1.0,0.735801074,1.0,0.6691348460000001,1.0,0.45259351600000003,False,,5c1cdb060108690001f8fe85,,1830672,140,,evan-feature22,full_pf_b,,1
114,7743,141,,,,1,1,1.0,0.0,0.0,1.0,,0.0-143.0,,0.0,486.89,1.0,0.49565621299999996,0.0,0.742400847,0.0,0.661512553,0.0,0.483110831,False,,5c1cdb060108690001f8fe85,,1840963,141,,evan-feature22,full_pf_b,,0
115,7744,142,,,,2,2,0.0,0.0,-1.0,0.0,,0.0-144.0,,0.0,1458.625,0.0,0.521564361,1.0,0.731078632,0.0,0.6774886809999999,0.0,0.483263956,False,,5c1cdb060108690001f8fe85,,1852228,142,,evan-feature22,full_pf_b,,1
116,7745,143,,,,2,2,1.0,0.0,-1.0,0.0,,0.0-145.0,,-1.0,592.475,0.0,0.558893102,1.0,0.719810023,1.0,0.67461031,0.0,0.499349834,False,,5c1cdb060108690001f8fe85,,1862634,143,,evan-feature22,full_pf_b,,0
117,7746,144,,,,1,1,1.0,1.0,0.0,1.0,,0.0-146.0,,1.0,999.275,1.0,0.611031046,1.0,0.75,1.0,0.688072995,1.0,0.5321422729999999,False,,5c1cdb060108690001f8fe85,,1873431,144,,evan-feature22,full_pf_b,,1
118,7747,145,,,,1,1,1.0,1.0,-1.0,0.0,,0.0-147.0,,-1.0,1421.1,1.0,0.633223941,1.0,0.713567728,0.0,0.75,1.0,0.48185314700000004,False,,5c1cdb060108690001f8fe85,,1884668,145,,evan-feature22,full_pf_b,,0
119,7748,146,,,,2,2,1.0,0.0,-1.0,0.0,,0.0-148.0,,-1.0,623.96,1.0,0.664001694,0.0,0.705509768,1.0,0.75,0.0,0.500211065,False,,5c1cdb060108690001f8fe85,,1895113,146,,evan-feature22,full_pf_b,,1
120,7749,147,,,,1,1,0.0,1.0,0.0,1.0,,0.0-149.0,,1.0,1521.56,0.0,0.664001694,1.0,0.705509768,1.0,0.75,0.0,0.500211065,False,,5c1cdb060108690001f8fe85,,1906451,147,,evan-feature22,full_pf_b,,1
121,7750,148,,,,1,1,1.0,1.0,0.0,1.0,,0.0-150.0,,1.0,799.51,1.0,0.696508041,1.0,0.71066027,1.0,0.717028709,0.0,0.49792991,False,,5c1cdb060108690001f8fe85,,1917053,148,,evan-feature22,full_pf_b,,0
122,7751,149,,,,1,1,1.0,0.0,-1.0,0.0,,0.0-151.0,,-1.0,402.29,1.0,0.699883272,0.0,0.75,1.0,0.713543895,0.0,0.496962643,False,,5c1cdb060108690001f8fe85,,1927275,149,,evan-feature22,full_pf_b,,0
123,7752,150,,,,1,1,1.0,1.0,0.0,1.0,,0.0-152.0,,1.0,475.22,1.0,0.741163419,1.0,0.75,1.0,0.64691024,1.0,0.513858197,False,,5c1cdb060108690001f8fe85,,1937561,150,,evan-feature22,full_pf_b,,0
124,7753,151,,,,1,1,1.0,1.0,-1.0,0.0,,0.0-153.0,,-1.0,2571.17,1.0,0.75,1.0,0.70816558,1.0,0.594499079,1.0,0.48502124,False,,5c1cdb060108690001f8fe85,,1949940,151,,evan-feature22,full_pf_b,,0
125,7754,152,,,,1,1,0.0,1.0,0.0,1.0,,0.0-154.0,,1.0,1091.785,0.0,0.75,1.0,0.721848901,0.0,0.62197249,1.0,0.48263586399999997,False,,5c1cdb060108690001f8fe85,,1960834,152,,evan-feature22,full_pf_b,,0
126,7755,153,,,,1,1,0.0,1.0,-1.0,0.0,,0.0-155.0,,0.0,1201.985,0.0,0.75,1.0,0.74813071,1.0,0.584357161,0.0,0.411477782,False,,5c1cdb060108690001f8fe85,,1971832,153,,evan-feature22,full_pf_b,,0
127,7756,154,,,,1,1,1.0,0.0,0.0,1.0,,0.0-156.0,,0.0,641.775,1.0,0.75,0.0,0.75,1.0,0.52287236,1.0,0.488290656,False,,5c1cdb060108690001f8fe85,,1982292,154,,evan-feature22,full_pf_b,,0
128,7757,155,,,,2,2,0.0,0.0,0.0,1.0,,0.0-157.0,,0.0,407.96,1.0,0.75,1.0,0.75,0.0,0.544321581,0.0,0.53143059,False,,5c1cdb060108690001f8fe85,,1992506,155,,evan-feature22,full_pf_b,,1
129,7758,156,,,,1,1,1.0,1.0,0.0,1.0,,0.0-158.0,,1.0,653.33,1.0,0.726754564,1.0,0.75,0.0,0.5129306370000001,0.0,0.530592445,False,,5c1cdb060108690001f8fe85,,2002966,156,,evan-feature22,full_pf_b,,1
130,7759,157,,,,2,2,0.0,0.0,-1.0,0.0,,0.0-159.0,,0.0,1542.99,0.0,0.75,0.0,0.7392590729999999,0.0,0.479875835,0.0,0.547007051,False,,5c1cdb060108690001f8fe85,,2014328,157,,evan-feature22,full_pf_b,,1
131,7760,158,,,,2,2,1.0,1.0,-1.0,0.0,,0.0-160.0,,-1.0,491.41,1.0,0.75,1.0,0.7393376979999999,1.0,0.546045419,1.0,0.541267353,False,,5c1cdb060108690001f8fe85,,2024631,158,,evan-feature22,full_pf_b,,0
132,7761,159,,,,2,2,1.0,1.0,-1.0,0.0,,0.0-161.0,,-1.0,650.62,1.0,0.75,1.0,0.75,1.0,0.485725895,1.0,0.527625395,False,,5c1cdb060108690001f8fe85,,2035094,159,,evan-feature22,full_pf_b,,0
133,7762,160,,,,1,1,0.0,1.0,0.0,1.0,,0.0-162.0,,1.0,2929.215,0.0,0.75,1.0,0.725087974,1.0,0.488603595,1.0,0.504019206,False,,5c1cdb060108690001f8fe85,,2047827,160,,evan-feature22,full_pf_b,,1
134,7763,161,,,,1,1,1.0,0.0,0.0,1.0,,0.0-163.0,,0.0,725.595,1.0,0.745504295,0.0,0.75,1.0,0.452379914,1.0,0.50131194,False,,5c1cdb060108690001f8fe85,,2058365,161,,evan-feature22,full_pf_b,,0
135,7764,162,,,,2,2,0.0,1.0,0.0,1.0,,0.0-164.0,,1.0,512.24,0.0,0.728513874,0.0,0.75,0.0,0.44125567200000004,1.0,0.531454591,False,,5c1cdb060108690001f8fe85,,2068691,162,,evan-feature22,full_pf_b,,1
136,7765,163,,,,2,2,0.0,0.0,-1.0,0.0,,0.0-165.0,,0.0,1551.135,1.0,0.73790804,1.0,0.75,0.0,0.413036656,0.0,0.524619035,False,,5c1cdb060108690001f8fe85,,2080058,163,,evan-feature22,full_pf_b,,0
137,7766,164,,,,2,2,0.0,0.0,0.0,1.0,,0.0-166.0,,0.0,1327.21,0.0,0.7080961309999999,1.0,0.708666865,0.0,0.431915581,0.0,0.481819489,False,,5c1cdb060108690001f8fe85,,2091186,164,,evan-feature22,full_pf_b,,0
138,7767,165,,,,1,1,0.0,1.0,0.0,1.0,,0.0-167.0,,1.0,630.18,0.0,0.721378003,1.0,0.71605913,1.0,0.36642387,0.0,0.5036739929999999,False,,5c1cdb060108690001f8fe85,,2101636,165,,evan-feature22,full_pf_b,,1
139,7768,166,,,,1,1,1.0,1.0,0.0,1.0,,0.0-168.0,,1.0,675.07,1.0,0.7340618959999999,1.0,0.699323252,0.0,0.35298046299999997,0.0,0.511241692,False,,5c1cdb060108690001f8fe85,,2112131,166,,evan-feature22,full_pf_b,,0
140,7769,167,,,,1,1,0.0,1.0,-1.0,0.0,,0.0-169.0,,0.0,1147.655,0.0,0.75,1.0,0.70412698,0.0,0.380734814,1.0,0.529580116,False,,5c1cdb060108690001f8fe85,,2123085,167,,evan-feature22,full_pf_b,,0
141,7770,168,,,,2,2,0.0,0.0,0.0,1.0,,0.0-170.0,,0.0,885.735,0.0,0.7436654909999999,1.0,0.711182751,0.0,0.41125331,0.0,0.49554405,False,,5c1cdb060108690001f8fe85,,2133783,168,,evan-feature22,full_pf_b,,1
142,7771,169,,,,1,1,1.0,1.0,0.0,1.0,,0.0-171.0,,1.0,569.695,1.0,0.731607915,1.0,0.651774583,1.0,0.35688023,1.0,0.45194491600000003,False,,5c1cdb060108690001f8fe85,,2144157,169,,evan-feature22,full_pf_b,,1
143,7772,170,,,,1,1,0.0,1.0,-1.0,0.0,,0.0-172.0,,0.0,928.385,0.0,0.75,1.0,0.75,1.0,0.283145374,1.0,0.528608005,False,,5c1cdb060108690001f8fe85,,2154890,170,,evan-feature22,full_pf_b,,0
144,7773,171,,,,1,1,0.0,0.0,-1.0,0.0,,0.0-173.0,,0.0,1103.935,0.0,0.7491416890000001,0.0,0.7423785959999999,0.0,0.29135870399999997,1.0,0.498888318,False,,5c1cdb060108690001f8fe85,,2165806,171,,evan-feature22,full_pf_b,,0
145,7774,172,,,,1,1,1.0,0.0,-1.0,0.0,,0.0-174.0,,-1.0,1146.565,1.0,0.708569387,0.0,0.717682277,0.0,0.294421699,0.0,0.493838163,False,,5c1cdb060108690001f8fe85,,2176761,172,,evan-feature22,full_pf_b,,0
146,7775,173,,,,1,1,1.0,1.0,0.0,1.0,,0.0-175.0,,1.0,1454.43,1.0,0.75,1.0,0.7383382159999999,0.0,0.356098707,1.0,0.442533405,False,,5c1cdb060108690001f8fe85,,2188021,173,,evan-feature22,full_pf_b,,0
147,7776,174,,,,2,2,0.0,1.0,0.0,1.0,,0.0-176.0,,1.0,597.53,1.0,0.744527075,1.0,0.75,0.0,0.334127506,1.0,0.393165805,False,,5c1cdb060108690001f8fe85,,2198418,174,,evan-feature22,full_pf_b,,1
148,7777,175,,,,2,2,1.0,0.0,0.0,1.0,,0.0-177.0,,0.0,530.535,1.0,0.75,0.0,0.75,1.0,0.33571021799999995,0.0,0.350393962,False,,5c1cdb060108690001f8fe85,,2208740,175,,evan-feature22,full_pf_b,,0
149,7778,176,,,,2,2,0.0,1.0,0.0,1.0,,0.0-178.0,,1.0,926.935,1.0,0.75,1.0,0.75,0.0,0.313628297,1.0,0.36349657399999996,False,,5c1cdb060108690001f8fe85,,2219483,176,,evan-feature22,full_pf_b,,0
150,7779,177,,,,2,2,0.0,1.0,-1.0,0.0,,0.0-179.0,,0.0,1197.075,1.0,0.75,1.0,0.734284182,0.0,0.262667667,1.0,0.380199119,False,,5c1cdb060108690001f8fe85,,2230483,177,,evan-feature22,full_pf_b,,0
151,7780,178,,,,2,2,1.0,1.0,0.0,1.0,,0.0-180.0,,1.0,772.11,1.0,0.75,0.0,0.75,1.0,0.25,1.0,0.394494013,False,,5c1cdb060108690001f8fe85,,2241067,178,,evan-feature22,full_pf_b,,0
152,7781,179,,,,2,2,1.0,1.0,-1.0,0.0,,0.0-181.0,,-1.0,1622.475,0.0,0.722298145,1.0,0.7357822340000001,1.0,0.25,1.0,0.319142121,False,,5c1cdb060108690001f8fe85,,2252504,179,,evan-feature22,full_pf_b,,0
153,7782,180,,,,1,1,1.0,1.0,-1.0,0.0,,0.0-182.0,,-1.0,417.69,1.0,0.73149275,1.0,0.724276446,1.0,0.305856907,0.0,0.281315057,False,,5c1cdb060108690001f8fe85,,2262736,180,,evan-feature22,full_pf_b,,1
154,7783,181,,,,1,1,1.0,1.0,0.0,1.0,,0.0-183.0,,1.0,1071.205,1.0,0.7458732690000001,1.0,0.7336382459999999,1.0,0.272571964,1.0,0.266021999,False,,5c1cdb060108690001f8fe85,,2273604,181,,evan-feature22,full_pf_b,,0
155,7784,182,,,,1,1,0.0,1.0,0.0,1.0,,0.0-184.0,,1.0,575.715,0.0,0.705579037,1.0,0.720778292,0.0,0.320238144,0.0,0.30971744,False,,5c1cdb060108690001f8fe85,,2283989,182,,evan-feature22,full_pf_b,,0
156,7785,183,,,,1,1,1.0,0.0,0.0,1.0,,0.0-185.0,,0.0,838.695,1.0,0.700425648,0.0,0.7198784009999999,1.0,0.272590393,0.0,0.304182931,False,,5c1cdb060108690001f8fe85,,2294639,183,,evan-feature22,full_pf_b,,0
157,7786,184,,,,1,1,1.0,0.0,0.0,1.0,,0.0-186.0,,0.0,595.395,1.0,0.735590785,0.0,0.722714973,0.0,0.25,0.0,0.323421091,False,,5c1cdb060108690001f8fe85,,2305039,184,,evan-feature22,full_pf_b,,0
158,7787,185,,,,1,1,1.0,1.0,0.0,1.0,,0.0-187.0,,1.0,716.475,1.0,0.724807662,1.0,0.63146213,1.0,0.36836492600000004,0.0,0.34592153299999995,False,,5c1cdb060108690001f8fe85,,2315567,185,,evan-feature22,full_pf_b,,0
159,7788,186,,,,1,1,1.0,0.0,0.0,1.0,,0.0-188.0,,0.0,1169.715,1.0,0.7352796909999999,0.0,0.555111392,0.0,0.36003922,0.0,0.31433779999999995,False,,5c1cdb060108690001f8fe85,,2326547,186,,evan-feature22,full_pf_b,,0
160,7789,187,notice,,,,,,,,,,0.0-189.0,"{""Q0"":""I felt that the mineral giving aliens were behind more diverse doors. For a long while, door g appeared to be the best door (or at least no different than j in terms of gains).""}",,75496.0,,,,,,,,,False,,5c1cdb060108690001f8fe85,,2402045,187,Q,survey-text,full_pf_b,,1
161,7790,188,track1,,[1],,,,,,,,0.0-190.0,"{""Q0"":""no""}",,8949.0,,,,,,,,,False,,5c1cdb060108690001f8fe85,,2410998,188,Q,evan-quiz,full_pf_b,,1
162,7791,189,track2,,[0],,,,,,,,0.0-191.0,"{""Q0"":""yes""}",,12810.0,,,,,,,,,False,,5c1cdb060108690001f8fe85,,2423816,189,Q,evan-quiz,full_pf_b,,1
163,7792,190,strat,,,,,,,,,,0.0-192.0,"{""Q0"":""Whenever I lost (especially after a winning/no losses) streak, I tried switching the doors. If the doors appeared to yield the same losses/profits, I stuck with door g. I don't think I did anything fancy in terms of strategy apart from trying to pay attention as the instructions said. ""}",,121906.0,,,,,,,,,False,,5c1cdb060108690001f8fe85,,2545729,190,Q,survey-text,full_pf_b,,1
