,index,Unnamed: 0,Q_name,button_pressed,choice_idxs,chosen_pos,chosen_state,chosen_state_f_1_outcome,chosen_state_f_2_outcome,f_1_reward,f_2_reward,incor_questions,internal_node_id,responses,reward_received,rt,s_1_f_1_outcome,s_1_f_1_prob,s_1_f_2_outcome,s_1_f_2_prob,s_2_f_1_outcome,s_2_f_1_prob,s_2_f_2_outcome,s_2_f_2_prob,safe_first,stimulus,subjectID,success,time_elapsed,trial_index,trial_num,trial_type,version,view_history,switching
0,45643,25,,,,2,2,0.0,0.0,-1.0,0.0,,0.0-27.0,,0.0,910.975,1.0,0.6,1.0,0.6,0.0,0.4,0.0,0.4,False,,5c506220ba50dc0001862088,,619865,25,,evan-feature22,full_pf_b,,0
1,45644,26,,,,2,2,1.0,0.0,-1.0,0.0,,0.0-28.0,,-1.0,1096.06,0.0,0.608053294,0.0,0.63424552,1.0,0.397152172,0.0,0.347069101,False,,5c506220ba50dc0001862088,,630775,26,,evan-feature22,full_pf_b,,0
2,45645,27,,,,2,2,0.0,0.0,-1.0,0.0,,0.0-29.0,,0.0,1133.765,1.0,0.642237155,1.0,0.648566321,0.0,0.389407674,0.0,0.285525717,False,,5c506220ba50dc0001862088,,641707,27,,evan-feature22,full_pf_b,,0
3,45646,28,,,,2,2,1.0,0.0,-1.0,0.0,,0.0-30.0,,-1.0,1047.475,0.0,0.661086576,1.0,0.630492543,1.0,0.399058924,0.0,0.25,False,,5c506220ba50dc0001862088,,652554,28,,evan-feature22,full_pf_b,,0
4,45647,29,,,,1,1,1.0,1.0,0.0,1.0,,0.0-31.0,,1.0,798.865,1.0,0.631324137,1.0,0.6269842929999999,0.0,0.38734784299999997,0.0,0.25,False,,5c506220ba50dc0001862088,,663168,29,,evan-feature22,full_pf_b,,1
5,45648,30,,,,1,1,0.0,1.0,0.0,1.0,,0.0-32.0,,1.0,929.675,0.0,0.6381991370000001,1.0,0.68987999,0.0,0.384107265,1.0,0.271332943,False,,5c506220ba50dc0001862088,,673920,30,,evan-feature22,full_pf_b,,0
6,45649,31,,,,1,1,1.0,1.0,-1.0,0.0,,0.0-33.0,,-1.0,1877.635,1.0,0.66034901,1.0,0.742641349,0.0,0.360225629,0.0,0.25,False,,5c506220ba50dc0001862088,,685637,31,,evan-feature22,full_pf_b,,0
7,45650,32,,,,1,1,0.0,1.0,-1.0,0.0,,0.0-34.0,,0.0,1726.14,0.0,0.638612418,1.0,0.75,0.0,0.367273939,0.0,0.25,False,,5c506220ba50dc0001862088,,697173,32,,evan-feature22,full_pf_b,,0
8,45651,33,,,,1,1,0.0,0.0,0.0,1.0,,0.0-35.0,,0.0,1412.38,0.0,0.624340629,0.0,0.75,0.0,0.425829545,0.0,0.25,False,,5c506220ba50dc0001862088,,708406,33,,evan-feature22,full_pf_b,,0
9,45652,34,,,,1,1,1.0,0.0,0.0,1.0,,0.0-36.0,,0.0,815.6450001000001,1.0,0.621999804,0.0,0.75,0.0,0.368609357,0.0,0.25,False,,5c506220ba50dc0001862088,,719023,34,,evan-feature22,full_pf_b,,0
10,45653,35,,,,1,1,1.0,0.0,-1.0,0.0,,0.0-37.0,,-1.0,540.635,1.0,0.62666403,0.0,0.75,0.0,0.311151498,0.0,0.25,False,,5c506220ba50dc0001862088,,729397,35,,evan-feature22,full_pf_b,,0
11,45654,36,,,,1,1,0.0,1.0,0.0,1.0,,0.0-38.0,,1.0,843.5350001,0.0,0.6819650009999999,1.0,0.75,1.0,0.310763048,0.0,0.25,False,,5c506220ba50dc0001862088,,740056,36,,evan-feature22,full_pf_b,,0
12,45655,37,,,,1,1,1.0,1.0,-1.0,0.0,,0.0-39.0,,-1.0,503.9,1.0,0.740626951,1.0,0.75,0.0,0.25,1.0,0.25,False,,5c506220ba50dc0001862088,,750374,37,,evan-feature22,full_pf_b,,0
13,45656,38,,,,2,2,0.0,0.0,-1.0,0.0,,0.0-40.0,,0.0,860.35,1.0,0.739599242,0.0,0.742034978,0.0,0.25397114600000004,0.0,0.25,False,,5c506220ba50dc0001862088,,761049,38,,evan-feature22,full_pf_b,,1
14,45657,39,,,,2,2,0.0,1.0,-1.0,0.0,,0.0-41.0,,0.0,679.11,1.0,0.732341315,1.0,0.72735643,0.0,0.25,1.0,0.25,False,,5c506220ba50dc0001862088,,771539,39,,evan-feature22,full_pf_b,,0
15,45658,40,,,,2,2,0.0,1.0,-1.0,0.0,,0.0-42.0,,0.0,902.095,1.0,0.7062287770000001,1.0,0.75,0.0,0.29002151,1.0,0.288256649,False,,5c506220ba50dc0001862088,,782264,40,,evan-feature22,full_pf_b,,0
16,45659,41,,,,2,2,0.0,0.0,-1.0,0.0,,0.0-43.0,,0.0,863.06,1.0,0.7086029209999999,0.0,0.75,0.0,0.274129113,0.0,0.262851608,False,,5c506220ba50dc0001862088,,792947,41,,evan-feature22,full_pf_b,,0
17,45660,42,,,,2,2,0.0,1.0,-1.0,0.0,,0.0-44.0,,0.0,835.1950001,1.0,0.669189651,1.0,0.727614338,0.0,0.298444036,1.0,0.296944518,False,,5c506220ba50dc0001862088,,803599,42,,evan-feature22,full_pf_b,,0
18,45661,43,,,,2,2,0.0,0.0,-1.0,0.0,,0.0-45.0,,0.0,640.33,1.0,0.6819912929999999,1.0,0.7179434290000001,0.0,0.265003961,0.0,0.28157921199999997,False,,5c506220ba50dc0001862088,,814050,43,,evan-feature22,full_pf_b,,0
19,45662,44,,,,1,1,1.0,1.0,0.0,1.0,,0.0-46.0,,1.0,954.07,1.0,0.665275002,1.0,0.723065271,1.0,0.260414971,0.0,0.30973870000000003,False,,5c506220ba50dc0001862088,,824835,44,,evan-feature22,full_pf_b,,1
20,45663,45,,,,1,1,1.0,1.0,-1.0,0.0,,0.0-47.0,,-1.0,2510.85,1.0,0.6660593260000001,1.0,0.728032907,1.0,0.30922817,1.0,0.338778608,False,,5c506220ba50dc0001862088,,837143,45,,evan-feature22,full_pf_b,,0
21,45664,46,,,,2,2,1.0,0.0,-1.0,0.0,,0.0-48.0,,-1.0,1804.26,1.0,0.702068785,1.0,0.6528750879999999,1.0,0.287329608,0.0,0.35789613200000003,False,,5c506220ba50dc0001862088,,848766,46,,evan-feature22,full_pf_b,,1
22,45665,47,,,,2,2,0.0,0.0,-1.0,0.0,,0.0-49.0,,0.0,1677.535,1.0,0.651939787,0.0,0.636725589,0.0,0.284834488,0.0,0.358563756,False,,5c506220ba50dc0001862088,,860255,47,,evan-feature22,full_pf_b,,0
23,45666,48,,,,1,1,1.0,0.0,0.0,1.0,,0.0-50.0,,0.0,1269.75,1.0,0.67573929,0.0,0.612550049,1.0,0.37130387600000003,0.0,0.383542402,False,,5c506220ba50dc0001862088,,871343,48,,evan-feature22,full_pf_b,,1
24,45667,49,,,,1,1,1.0,0.0,0.0,1.0,,0.0-51.0,,0.0,727.08,1.0,0.620753801,0.0,0.60513644,1.0,0.385529434,0.0,0.340361743,False,,5c506220ba50dc0001862088,,881861,49,,evan-feature22,full_pf_b,,0
25,45668,50,,,,1,1,0.0,0.0,0.0,1.0,,0.0-52.0,,0.0,916.02,0.0,0.673564893,0.0,0.672437924,1.0,0.292955382,0.0,0.337633795,False,,5c506220ba50dc0001862088,,892582,50,,evan-feature22,full_pf_b,,0
26,45669,51,,,,2,2,0.0,1.0,-1.0,0.0,,0.0-53.0,,0.0,1633.6,1.0,0.6749427,1.0,0.724197502,0.0,0.32391132100000003,1.0,0.350995264,False,,5c506220ba50dc0001862088,,904041,51,,evan-feature22,full_pf_b,,1
27,45670,52,,,,2,2,1.0,0.0,-1.0,0.0,,0.0-54.0,,-1.0,1142.1,1.0,0.6940159379999999,0.0,0.75,1.0,0.31710554399999996,0.0,0.413450341,False,,5c506220ba50dc0001862088,,914987,52,,evan-feature22,full_pf_b,,0
28,45671,53,,,,2,2,0.0,0.0,-1.0,0.0,,0.0-55.0,,0.0,1022.78,1.0,0.6916018270000001,1.0,0.69001187,0.0,0.261817804,0.0,0.40038635,False,,5c506220ba50dc0001862088,,925839,53,,evan-feature22,full_pf_b,,0
29,45672,54,,,,2,2,0.0,0.0,-1.0,0.0,,0.0-56.0,,0.0,667.46,0.0,0.641061544,1.0,0.71337992,0.0,0.277296461,0.0,0.47372791700000005,False,,5c506220ba50dc0001862088,,936306,54,,evan-feature22,full_pf_b,,0
30,45673,55,,,,2,2,0.0,1.0,-1.0,0.0,,0.0-57.0,,0.0,839.895,0.0,0.6082438520000001,0.0,0.708471106,0.0,0.28745137,1.0,0.564174476,False,,5c506220ba50dc0001862088,,946961,55,,evan-feature22,full_pf_b,,0
31,45674,56,,,,2,2,0.0,1.0,-1.0,0.0,,0.0-58.0,,0.0,915.6149998999999,1.0,0.6051112120000001,1.0,0.7118147229999999,0.0,0.272390611,1.0,0.5595149939999999,False,,5c506220ba50dc0001862088,,957678,56,,evan-feature22,full_pf_b,,0
32,45675,57,,,,2,2,0.0,1.0,-1.0,0.0,,0.0-59.0,,0.0,916.7500001,0.0,0.582420852,1.0,0.635867583,0.0,0.31089574,1.0,0.5227206520000001,False,,5c506220ba50dc0001862088,,968401,57,,evan-feature22,full_pf_b,,0
33,45676,58,,,,2,2,0.0,0.0,0.0,1.0,,0.0-60.0,,0.0,1356.16,1.0,0.623195575,1.0,0.655026044,0.0,0.25,0.0,0.560387538,False,,5c506220ba50dc0001862088,,979581,58,,evan-feature22,full_pf_b,,0
34,45677,59,,,,2,2,0.0,1.0,-1.0,0.0,,0.0-61.0,,0.0,2110.29,1.0,0.601889598,0.0,0.678198724,0.0,0.25,1.0,0.559922936,False,,5c506220ba50dc0001862088,,991506,59,,evan-feature22,full_pf_b,,0
35,45678,60,,,,2,2,0.0,0.0,-1.0,0.0,,0.0-62.0,,0.0,799.225,0.0,0.601259914,1.0,0.704681482,0.0,0.33908969299999997,0.0,0.505003715,False,,5c506220ba50dc0001862088,,1002143,60,,evan-feature22,full_pf_b,,0
36,45679,61,,,,2,2,1.0,0.0,-1.0,0.0,,0.0-63.0,,-1.0,959.805,0.0,0.59645454,1.0,0.710437172,1.0,0.327441879,0.0,0.391749613,False,,5c506220ba50dc0001862088,,1012891,61,,evan-feature22,full_pf_b,,0
37,45680,62,,,,1,1,1.0,1.0,-1.0,0.0,,0.0-64.0,,-1.0,1591.145,1.0,0.529473,1.0,0.636758527,0.0,0.301338063,0.0,0.365661481,False,,5c506220ba50dc0001862088,,1024314,62,,evan-feature22,full_pf_b,,1
38,45681,63,,,,1,1,1.0,1.0,0.0,1.0,,0.0-65.0,,1.0,1709.55,1.0,0.541657162,1.0,0.634541962,0.0,0.343535366,0.0,0.371763742,False,,5c506220ba50dc0001862088,,1035825,63,,evan-feature22,full_pf_b,,0
39,45682,64,,,,2,2,1.0,1.0,-1.0,0.0,,0.0-66.0,,-1.0,1869.725,0.0,0.5707533260000001,0.0,0.589121171,1.0,0.326428396,1.0,0.43961622899999997,False,,5c506220ba50dc0001862088,,1047507,64,,evan-feature22,full_pf_b,,1
40,45683,65,,,,1,1,0.0,0.0,-1.0,0.0,,0.0-67.0,,0.0,1304.47,0.0,0.5707533260000001,0.0,0.589121171,0.0,0.326428396,0.0,0.43961622899999997,False,,5c506220ba50dc0001862088,,1058613,65,,evan-feature22,full_pf_b,,1
41,45684,66,,,,1,1,0.0,1.0,-1.0,0.0,,0.0-68.0,,0.0,696.755,0.0,0.506271295,1.0,0.641775594,0.0,0.37149690700000004,1.0,0.404330166,False,,5c506220ba50dc0001862088,,1069140,66,,evan-feature22,full_pf_b,,0
42,45685,67,,,,1,1,1.0,0.0,0.0,1.0,,0.0-69.0,,0.0,989.5949999,1.0,0.455642565,0.0,0.623605825,0.0,0.358753011,1.0,0.346174041,False,,5c506220ba50dc0001862088,,1079931,67,,evan-feature22,full_pf_b,,0
43,45686,68,,,,2,2,0.0,1.0,0.0,1.0,,0.0-70.0,,1.0,1073.92,0.0,0.483677308,1.0,0.5904681070000001,0.0,0.402218411,1.0,0.35344697,False,,5c506220ba50dc0001862088,,1090832,68,,evan-feature22,full_pf_b,,1
44,45687,69,,,,2,2,1.0,0.0,0.0,1.0,,0.0-71.0,,0.0,677.255,1.0,0.394210977,1.0,0.558925494,1.0,0.540052017,0.0,0.35182128700000004,False,,5c506220ba50dc0001862088,,1101329,69,,evan-feature22,full_pf_b,,0
45,45688,70,,,,1,1,1.0,0.0,-1.0,0.0,,0.0-72.0,,-1.0,1804.655,1.0,0.382300414,0.0,0.577670603,0.0,0.607608448,0.0,0.378261578,False,,5c506220ba50dc0001862088,,1112934,70,,evan-feature22,full_pf_b,,1
46,45689,71,,,,2,2,1.0,0.0,-1.0,0.0,,0.0-73.0,,-1.0,646.48,0.0,0.357596762,0.0,0.5929076529999999,1.0,0.6579790010000001,0.0,0.401326777,False,,5c506220ba50dc0001862088,,1123388,71,,evan-feature22,full_pf_b,,1
47,45690,72,,,,2,2,0.0,0.0,-1.0,0.0,,0.0-74.0,,0.0,2212.8,0.0,0.362033495,1.0,0.582308608,0.0,0.649195052,0.0,0.355158505,False,,5c506220ba50dc0001862088,,1135421,72,,evan-feature22,full_pf_b,,0
48,45691,73,,,,2,2,1.0,0.0,-1.0,0.0,,0.0-75.0,,-1.0,969.77,0.0,0.369620635,1.0,0.669100864,1.0,0.706059111,0.0,0.362516241,False,,5c506220ba50dc0001862088,,1146196,73,,evan-feature22,full_pf_b,,0
49,45692,74,,,,1,1,0.0,1.0,-1.0,0.0,,0.0-76.0,,0.0,1469.825,0.0,0.41477751399999996,1.0,0.7284416779999999,1.0,0.7182656940000001,0.0,0.36228040899999997,False,,5c506220ba50dc0001862088,,1157478,74,,evan-feature22,full_pf_b,,1
50,45693,75,,,,1,1,0.0,0.0,0.0,1.0,,0.0-77.0,,0.0,424.6799999,0.0,0.37675460299999997,0.0,0.703250285,1.0,0.75,0.0,0.461979164,False,,5c506220ba50dc0001862088,,1167710,75,,evan-feature22,full_pf_b,,0
51,45694,76,,,,1,1,1.0,1.0,0.0,1.0,,0.0-78.0,,1.0,506.115,1.0,0.398716075,1.0,0.6723864890000001,1.0,0.674153818,1.0,0.519029516,False,,5c506220ba50dc0001862088,,1178031,76,,evan-feature22,full_pf_b,,0
52,45695,77,,,,1,1,0.0,0.0,-1.0,0.0,,0.0-79.0,,0.0,2179.175,0.0,0.34677856700000004,0.0,0.69057175,0.0,0.6822438540000001,1.0,0.477292237,False,,5c506220ba50dc0001862088,,1190006,77,,evan-feature22,full_pf_b,,0
53,45696,78,,,,1,1,0.0,0.0,0.0,1.0,,0.0-80.0,,0.0,1060.38,0.0,0.28580469199999997,0.0,0.68408818,1.0,0.684207565,0.0,0.49780448299999996,False,,5c506220ba50dc0001862088,,1200890,78,,evan-feature22,full_pf_b,,0
54,45698,80,,,,1,1,1.0,1.0,-1.0,0.0,,0.0-82.0,,-1.0,1356.96,1.0,0.25,1.0,0.7405808970000001,1.0,0.679614108,0.0,0.436436964,False,,5c506220ba50dc0001862088,,1216279,80,,evan-feature22,full_pf_b,,0
55,45699,81,,,,1,1,1.0,1.0,0.0,1.0,,0.0-83.0,,1.0,1070.85,1.0,0.29890393,1.0,0.730505706,1.0,0.7328203320000001,1.0,0.439256938,False,,5c506220ba50dc0001862088,,1227170,81,,evan-feature22,full_pf_b,,0
56,45700,82,,,,1,1,1.0,0.0,-1.0,0.0,,0.0-84.0,,-1.0,1858.185,1.0,0.326762398,0.0,0.7148059609999999,1.0,0.75,0.0,0.44389608799999997,False,,5c506220ba50dc0001862088,,1238864,82,,evan-feature22,full_pf_b,,0
57,45701,83,,,,1,1,1.0,1.0,-1.0,0.0,,0.0-85.0,,-1.0,691.0550001,1.0,0.295168515,1.0,0.739760854,0.0,0.719947008,0.0,0.35277284600000003,False,,5c506220ba50dc0001862088,,1249363,83,,evan-feature22,full_pf_b,,0
58,45702,84,,,,2,2,1.0,1.0,-1.0,0.0,,0.0-86.0,,-1.0,429.47,0.0,0.25,1.0,0.70781482,1.0,0.75,1.0,0.286095925,False,,5c506220ba50dc0001862088,,1259592,84,,evan-feature22,full_pf_b,,1
59,45703,85,,,,1,1,1.0,1.0,0.0,1.0,,0.0-87.0,,1.0,1064.61,1.0,0.25638190899999996,1.0,0.704088163,0.0,0.75,1.0,0.26872601399999996,False,,5c506220ba50dc0001862088,,1270471,85,,evan-feature22,full_pf_b,,1
60,45704,86,,,,1,1,1.0,0.0,0.0,1.0,,0.0-88.0,,0.0,766.085,1.0,0.271581126,0.0,0.669760107,0.0,0.733896663,1.0,0.273244572,False,,5c506220ba50dc0001862088,,1281057,86,,evan-feature22,full_pf_b,,0
61,45705,87,,,,1,1,0.0,1.0,0.0,1.0,,0.0-89.0,,1.0,482.095,0.0,0.257144401,1.0,0.600575706,1.0,0.74488122,0.0,0.25,False,,5c506220ba50dc0001862088,,1291365,87,,evan-feature22,full_pf_b,,0
62,45706,88,,,,1,1,0.0,1.0,-1.0,0.0,,0.0-90.0,,0.0,1802.94,0.0,0.25,1.0,0.616870026,0.0,0.723610234,0.0,0.25,False,,5c506220ba50dc0001862088,,1302968,88,,evan-feature22,full_pf_b,,0
63,45707,89,,,,1,1,1.0,0.0,0.0,1.0,,0.0-91.0,,0.0,736.75,1.0,0.25,0.0,0.583540187,1.0,0.7041042559999999,0.0,0.285961995,False,,5c506220ba50dc0001862088,,1313522,89,,evan-feature22,full_pf_b,,0
64,45708,90,,,,1,1,0.0,1.0,-1.0,0.0,,0.0-92.0,,0.0,768.7050001,0.0,0.27254536,1.0,0.53875765,1.0,0.693783448,0.0,0.284961652,False,,5c506220ba50dc0001862088,,1324093,90,,evan-feature22,full_pf_b,,0
65,45709,91,,,,1,1,0.0,1.0,0.0,1.0,,0.0-93.0,,1.0,699.3249999,0.0,0.25,1.0,0.548431252,1.0,0.734221895,0.0,0.279445214,False,,5c506220ba50dc0001862088,,1334611,91,,evan-feature22,full_pf_b,,0
66,45710,92,,,,1,1,0.0,1.0,-1.0,0.0,,0.0-94.0,,0.0,671.215,0.0,0.258640684,1.0,0.545878066,0.0,0.725245965,0.0,0.31487537,False,,5c506220ba50dc0001862088,,1345087,92,,evan-feature22,full_pf_b,,0
67,45711,93,,,,1,1,0.0,1.0,-1.0,0.0,,0.0-95.0,,0.0,982.16,0.0,0.251103711,1.0,0.5776290629999999,1.0,0.696320133,1.0,0.317831047,False,,5c506220ba50dc0001862088,,1355893,93,,evan-feature22,full_pf_b,,0
68,45712,94,,,,1,1,0.0,0.0,-1.0,0.0,,0.0-96.0,,0.0,989.8699999,0.0,0.276630292,0.0,0.617329858,1.0,0.73838088,0.0,0.261471582,False,,5c506220ba50dc0001862088,,1366671,94,,evan-feature22,full_pf_b,,0
69,45713,95,,,,1,1,1.0,0.0,0.0,1.0,,0.0-97.0,,0.0,1009.2,1.0,0.297716424,0.0,0.618863717,0.0,0.7402358259999999,0.0,0.262600834,False,,5c506220ba50dc0001862088,,1377505,95,,evan-feature22,full_pf_b,,0
70,45714,96,,,,1,1,0.0,0.0,-1.0,0.0,,0.0-98.0,,0.0,688.885,0.0,0.290935512,0.0,0.695370945,0.0,0.706570507,0.0,0.280030553,False,,5c506220ba50dc0001862088,,1388014,96,,evan-feature22,full_pf_b,,0
71,45715,97,,,,1,1,1.0,0.0,-1.0,0.0,,0.0-99.0,,-1.0,697.87,1.0,0.25,0.0,0.6465277079999999,0.0,0.67766682,0.0,0.25,False,,5c506220ba50dc0001862088,,1398527,97,,evan-feature22,full_pf_b,,0
72,45716,98,,,,1,1,1.0,1.0,-1.0,0.0,,0.0-100.0,,-1.0,549.19,1.0,0.26463816,1.0,0.636100213,1.0,0.646048507,0.0,0.265607101,False,,5c506220ba50dc0001862088,,1408885,98,,evan-feature22,full_pf_b,,0
73,45717,99,,,,2,2,1.0,0.0,-1.0,0.0,,0.0-101.0,,-1.0,922.4500001,0.0,0.314340707,1.0,0.667795927,1.0,0.613630805,0.0,0.25,False,,5c506220ba50dc0001862088,,1419642,99,,evan-feature22,full_pf_b,,1
74,45718,100,,,,1,1,0.0,0.0,-1.0,0.0,,0.0-102.0,,0.0,455.01,0.0,0.28685784,0.0,0.6622549529999999,0.0,0.652154117,0.0,0.25,False,,5c506220ba50dc0001862088,,1429913,100,,evan-feature22,full_pf_b,,1
75,45719,101,,,,1,1,1.0,0.0,0.0,1.0,,0.0-103.0,,0.0,639.2349998999999,1.0,0.304106554,0.0,0.631289538,0.0,0.707041942,0.0,0.29314237,False,,5c506220ba50dc0001862088,,1440354,101,,evan-feature22,full_pf_b,,0
76,45720,102,,,,1,1,0.0,1.0,0.0,1.0,,0.0-104.0,,1.0,330.785,0.0,0.304806932,1.0,0.571167718,1.0,0.680472346,0.0,0.25,False,,5c506220ba50dc0001862088,,1450482,102,,evan-feature22,full_pf_b,,0
77,45721,103,,,,1,1,0.0,0.0,0.0,1.0,,0.0-105.0,,0.0,550.8849999,0.0,0.37919861,0.0,0.5724849710000001,1.0,0.705638003,0.0,0.30179300600000003,False,,5c506220ba50dc0001862088,,1460821,103,,evan-feature22,full_pf_b,,0
78,45722,104,,,,1,1,1.0,1.0,0.0,1.0,,0.0-106.0,,1.0,631.56,1.0,0.464277969,1.0,0.554034373,0.0,0.7372627340000001,1.0,0.264699741,False,,5c506220ba50dc0001862088,,1471275,104,,evan-feature22,full_pf_b,,0
79,45723,105,,,,1,1,0.0,1.0,-1.0,0.0,,0.0-107.0,,0.0,609.9899998999999,0.0,0.465104323,1.0,0.530793115,1.0,0.75,1.0,0.31683071,False,,5c506220ba50dc0001862088,,1481708,105,,evan-feature22,full_pf_b,,0
80,45724,106,,,,1,1,0.0,0.0,0.0,1.0,,0.0-108.0,,0.0,622.42,0.0,0.465104323,0.0,0.530793115,0.0,0.75,1.0,0.31683071,False,,5c506220ba50dc0001862088,,1492138,106,,evan-feature22,full_pf_b,,0
81,45725,107,,,,1,1,1.0,1.0,0.0,1.0,,0.0-109.0,,1.0,626.5550001,1.0,0.46833986,1.0,0.570249239,1.0,0.7244472590000001,0.0,0.364114163,False,,5c506220ba50dc0001862088,,1502580,107,,evan-feature22,full_pf_b,,0
82,45726,108,,,,1,1,1.0,1.0,0.0,1.0,,0.0-110.0,,1.0,668.8549998999999,1.0,0.445444024,1.0,0.649673355,1.0,0.6845441290000001,1.0,0.300660449,False,,5c506220ba50dc0001862088,,1513061,108,,evan-feature22,full_pf_b,,0
83,45727,109,,,,1,1,1.0,0.0,0.0,1.0,,0.0-111.0,,0.0,442.9400001,1.0,0.39909721299999995,0.0,0.6715179509999999,1.0,0.742310028,0.0,0.35496088299999995,False,,5c506220ba50dc0001862088,,1523335,109,,evan-feature22,full_pf_b,,0
84,45728,110,,,,1,1,1.0,0.0,0.0,1.0,,0.0-112.0,,0.0,362.155,1.0,0.37956104799999996,0.0,0.694725302,0.0,0.7181651309999999,1.0,0.38726906299999997,False,,5c506220ba50dc0001862088,,1533517,110,,evan-feature22,full_pf_b,,0
85,45729,111,,,,1,1,1.0,1.0,0.0,1.0,,0.0-113.0,,1.0,358.505,1.0,0.404995034,1.0,0.724375412,1.0,0.6910946859999999,0.0,0.387187347,False,,5c506220ba50dc0001862088,,1543701,111,,evan-feature22,full_pf_b,,0
86,45730,112,,,,1,1,0.0,1.0,0.0,1.0,,0.0-114.0,,1.0,352.195,0.0,0.461740803,1.0,0.75,1.0,0.75,1.0,0.34872038200000005,False,,5c506220ba50dc0001862088,,1553883,112,,evan-feature22,full_pf_b,,0
87,45731,113,,,,1,1,0.0,0.0,-1.0,0.0,,0.0-115.0,,0.0,707.925,0.0,0.43821380600000004,0.0,0.738833273,1.0,0.728286963,0.0,0.399538128,False,,5c506220ba50dc0001862088,,1564408,113,,evan-feature22,full_pf_b,,0
88,45732,114,,,,1,1,1.0,1.0,0.0,1.0,,0.0-116.0,,1.0,1214.825,1.0,0.41709882,1.0,0.736666736,1.0,0.75,0.0,0.389095584,False,,5c506220ba50dc0001862088,,1575431,114,,evan-feature22,full_pf_b,,0
89,45733,115,,,,1,1,0.0,1.0,0.0,1.0,,0.0-117.0,,1.0,634.74,0.0,0.39749009799999996,1.0,0.744320029,0.0,0.75,0.0,0.363848678,False,,5c506220ba50dc0001862088,,1585889,115,,evan-feature22,full_pf_b,,0
90,45734,116,,,,1,1,0.0,1.0,-1.0,0.0,,0.0-118.0,,0.0,937.3700001,0.0,0.392653706,1.0,0.75,1.0,0.75,0.0,0.384386976,False,,5c506220ba50dc0001862088,,1596648,116,,evan-feature22,full_pf_b,,0
91,45735,117,,,,1,1,0.0,1.0,-1.0,0.0,,0.0-119.0,,0.0,814.18,0.0,0.31190902600000003,1.0,0.75,0.0,0.732413819,0.0,0.413082932,False,,5c506220ba50dc0001862088,,1607276,117,,evan-feature22,full_pf_b,,0
92,45736,118,,,,1,1,0.0,0.0,0.0,1.0,,0.0-120.0,,0.0,394.95,0.0,0.366917648,0.0,0.740073855,1.0,0.75,0.0,0.352861979,False,,5c506220ba50dc0001862088,,1617505,118,,evan-feature22,full_pf_b,,0
93,45737,119,,,,1,1,1.0,0.0,0.0,1.0,,0.0-121.0,,0.0,327.405,1.0,0.3645172,0.0,0.721770713,1.0,0.75,0.0,0.404074511,False,,5c506220ba50dc0001862088,,1627652,119,,evan-feature22,full_pf_b,,0
94,45738,120,,,,1,1,1.0,1.0,0.0,1.0,,0.0-122.0,,1.0,321.5750001,1.0,0.35205600299999995,1.0,0.68983859,0.0,0.739735447,0.0,0.366895945,False,,5c506220ba50dc0001862088,,1637777,120,,evan-feature22,full_pf_b,,0
95,45739,121,,,,1,1,1.0,1.0,0.0,1.0,,0.0-123.0,,1.0,611.06,1.0,0.40998722600000004,1.0,0.720859127,1.0,0.673854955,0.0,0.368528541,False,,5c506220ba50dc0001862088,,1648221,121,,evan-feature22,full_pf_b,,0
96,45740,122,,,,1,1,1.0,1.0,-1.0,0.0,,0.0-124.0,,-1.0,528.4600001,1.0,0.353625316,1.0,0.75,1.0,0.695605473,1.0,0.38303674200000004,False,,5c506220ba50dc0001862088,,1658559,122,,evan-feature22,full_pf_b,,0
97,45741,123,,,,1,1,1.0,0.0,0.0,1.0,,0.0-125.0,,0.0,381.32,1.0,0.359216989,0.0,0.75,1.0,0.6987915090000001,1.0,0.35169046200000004,False,,5c506220ba50dc0001862088,,1668771,123,,evan-feature22,full_pf_b,,0
98,45742,124,,,,1,1,0.0,0.0,-1.0,0.0,,0.0-126.0,,0.0,531.435,0.0,0.35834496899999996,0.0,0.75,1.0,0.707067742,0.0,0.416763636,False,,5c506220ba50dc0001862088,,1679099,124,,evan-feature22,full_pf_b,,0
99,45743,125,,,,1,1,1.0,1.0,-1.0,0.0,,0.0-127.0,,-1.0,447.07,1.0,0.38741613799999997,1.0,0.7177369570000001,1.0,0.734902455,1.0,0.49438664299999996,False,,5c506220ba50dc0001862088,,1689354,125,,evan-feature22,full_pf_b,,0
100,45744,126,,,,1,1,0.0,0.0,0.0,1.0,,0.0-128.0,,0.0,721.91,0.0,0.405255252,0.0,0.7300466640000001,1.0,0.7027748070000001,1.0,0.504359668,False,,5c506220ba50dc0001862088,,1699873,126,,evan-feature22,full_pf_b,,0
101,45745,127,,,,2,2,1.0,0.0,0.0,1.0,,0.0-129.0,,0.0,339.005,0.0,0.40697073,1.0,0.7260142190000001,1.0,0.724461982,0.0,0.522779179,False,,5c506220ba50dc0001862088,,1710041,127,,evan-feature22,full_pf_b,,1
102,45746,128,,,,1,1,1.0,1.0,0.0,1.0,,0.0-130.0,,1.0,316.58,1.0,0.43906215299999996,1.0,0.7252802340000001,1.0,0.719079934,0.0,0.5712990579999999,False,,5c506220ba50dc0001862088,,1720169,128,,evan-feature22,full_pf_b,,1
103,45747,129,,,,1,1,0.0,1.0,0.0,1.0,,0.0-131.0,,1.0,355.68,0.0,0.4076705,1.0,0.73280499,0.0,0.681313127,1.0,0.523891346,False,,5c506220ba50dc0001862088,,1730349,129,,evan-feature22,full_pf_b,,0
104,45748,130,,,,1,1,0.0,1.0,0.0,1.0,,0.0-132.0,,1.0,296.64,0.0,0.399102911,1.0,0.730498344,1.0,0.661080239,0.0,0.46742603,False,,5c506220ba50dc0001862088,,1740467,130,,evan-feature22,full_pf_b,,0
105,45749,131,,,,1,1,0.0,1.0,-1.0,0.0,,0.0-133.0,,0.0,421.72,0.0,0.356477282,1.0,0.712296395,0.0,0.641812684,0.0,0.44868414,False,,5c506220ba50dc0001862088,,1750716,131,,evan-feature22,full_pf_b,,0
106,45750,132,,,,1,1,0.0,1.0,0.0,1.0,,0.0-134.0,,1.0,638.82,0.0,0.462760722,1.0,0.692349322,1.0,0.700947931,1.0,0.394680266,False,,5c506220ba50dc0001862088,,1761165,132,,evan-feature22,full_pf_b,,0
107,45751,133,,,,1,1,0.0,1.0,0.0,1.0,,0.0-135.0,,1.0,746.915,0.0,0.422306413,1.0,0.718375916,1.0,0.706340917,1.0,0.367787185,False,,5c506220ba50dc0001862088,,1771753,133,,evan-feature22,full_pf_b,,0
108,45753,135,,,,1,1,1.0,1.0,0.0,1.0,,0.0-137.0,,1.0,1378.85,1.0,0.4582233,1.0,0.643834117,1.0,0.75,1.0,0.39615823299999997,False,,5c506220ba50dc0001862088,,2052266,135,,evan-feature22,full_pf_b,,0
109,45754,136,,,,1,1,0.0,1.0,0.0,1.0,,0.0-138.0,,1.0,706.01,0.0,0.43813437899999996,1.0,0.651283804,1.0,0.729674191,1.0,0.37711048,False,,5c506220ba50dc0001862088,,2062791,136,,evan-feature22,full_pf_b,,0
110,45755,137,,,,1,1,1.0,1.0,0.0,1.0,,0.0-139.0,,1.0,344.745,1.0,0.471199094,1.0,0.6470010979999999,0.0,0.715008097,0.0,0.410656191,False,,5c506220ba50dc0001862088,,2072948,137,,evan-feature22,full_pf_b,,0
111,45756,138,,,,1,1,1.0,1.0,-1.0,0.0,,0.0-140.0,,-1.0,1511.885,1.0,0.42486406,1.0,0.629771829,1.0,0.6550939960000001,1.0,0.459093873,False,,5c506220ba50dc0001862088,,2084260,138,,evan-feature22,full_pf_b,,0
112,45757,139,,,,1,1,1.0,1.0,-1.0,0.0,,0.0-141.0,,-1.0,452.525,1.0,0.4803197,1.0,0.645842715,1.0,0.6421749920000001,0.0,0.443092151,False,,5c506220ba50dc0001862088,,2094526,139,,evan-feature22,full_pf_b,,0
113,45758,140,,,,1,1,0.0,0.0,-1.0,0.0,,0.0-142.0,,0.0,741.455,0.0,0.521848997,0.0,0.735801074,1.0,0.6691348460000001,1.0,0.45259351600000003,False,,5c506220ba50dc0001862088,,2105086,140,,evan-feature22,full_pf_b,,0
114,45759,141,,,,1,1,0.0,0.0,0.0,1.0,,0.0-143.0,,0.0,701.205,0.0,0.49565621299999996,0.0,0.742400847,0.0,0.661512553,0.0,0.483110831,False,,5c506220ba50dc0001862088,,2115585,141,,evan-feature22,full_pf_b,,0
115,45760,142,,,,1,1,0.0,0.0,-1.0,0.0,,0.0-144.0,,0.0,642.015,0.0,0.521564361,0.0,0.731078632,1.0,0.6774886809999999,0.0,0.483263956,False,,5c506220ba50dc0001862088,,2126053,142,,evan-feature22,full_pf_b,,0
116,45761,143,,,,1,1,1.0,1.0,-1.0,0.0,,0.0-145.0,,-1.0,880.64,1.0,0.558893102,1.0,0.719810023,1.0,0.67461031,0.0,0.499349834,False,,5c506220ba50dc0001862088,,2136759,143,,evan-feature22,full_pf_b,,0
117,45762,144,,,,1,1,1.0,1.0,0.0,1.0,,0.0-146.0,,1.0,601.1999999,1.0,0.611031046,1.0,0.75,1.0,0.688072995,1.0,0.5321422729999999,False,,5c506220ba50dc0001862088,,2147192,144,,evan-feature22,full_pf_b,,0
118,45763,145,,,,1,1,1.0,1.0,-1.0,0.0,,0.0-147.0,,-1.0,763.6900001,1.0,0.633223941,1.0,0.713567728,1.0,0.75,0.0,0.48185314700000004,False,,5c506220ba50dc0001862088,,2157761,145,,evan-feature22,full_pf_b,,0
119,45764,146,,,,1,1,0.0,0.0,-1.0,0.0,,0.0-148.0,,0.0,285.65,0.0,0.664001694,0.0,0.705509768,1.0,0.75,1.0,0.500211065,False,,5c506220ba50dc0001862088,,2167849,146,,evan-feature22,full_pf_b,,0
120,45765,147,,,,1,1,0.0,1.0,0.0,1.0,,0.0-149.0,,1.0,566.7099999,0.0,0.664001694,1.0,0.705509768,1.0,0.75,1.0,0.500211065,False,,5c506220ba50dc0001862088,,2178222,147,,evan-feature22,full_pf_b,,0
121,45766,148,,,,1,1,1.0,1.0,0.0,1.0,,0.0-150.0,,1.0,466.275,1.0,0.696508041,1.0,0.71066027,1.0,0.717028709,0.0,0.49792991,False,,5c506220ba50dc0001862088,,2188498,148,,evan-feature22,full_pf_b,,0
122,45767,149,,,,1,1,1.0,1.0,-1.0,0.0,,0.0-151.0,,-1.0,648.835,1.0,0.699883272,1.0,0.75,1.0,0.713543895,1.0,0.496962643,False,,5c506220ba50dc0001862088,,2198951,149,,evan-feature22,full_pf_b,,0
123,45768,150,,,,1,1,1.0,1.0,0.0,1.0,,0.0-152.0,,1.0,576.9550001,1.0,0.741163419,1.0,0.75,1.0,0.64691024,1.0,0.513858197,False,,5c506220ba50dc0001862088,,2209334,150,,evan-feature22,full_pf_b,,0
124,45769,151,,,,1,1,0.0,1.0,-1.0,0.0,,0.0-153.0,,0.0,1138.35,0.0,0.75,1.0,0.70816558,1.0,0.594499079,0.0,0.48502124,False,,5c506220ba50dc0001862088,,2220266,151,,evan-feature22,full_pf_b,,0
125,45770,152,,,,1,1,0.0,1.0,0.0,1.0,,0.0-154.0,,1.0,851.485,0.0,0.75,1.0,0.721848901,1.0,0.62197249,1.0,0.48263586399999997,False,,5c506220ba50dc0001862088,,2230932,152,,evan-feature22,full_pf_b,,0
126,45771,153,,,,1,1,1.0,1.0,-1.0,0.0,,0.0-155.0,,-1.0,746.07,1.0,0.75,1.0,0.74813071,0.0,0.584357161,1.0,0.411477782,False,,5c506220ba50dc0001862088,,2241492,153,,evan-feature22,full_pf_b,,0
127,45772,154,,,,2,2,0.0,1.0,0.0,1.0,,0.0-156.0,,1.0,606.2650001000001,1.0,0.75,1.0,0.75,0.0,0.52287236,1.0,0.488290656,False,,5c506220ba50dc0001862088,,2251940,154,,evan-feature22,full_pf_b,,1
128,45773,155,,,,2,2,0.0,1.0,0.0,1.0,,0.0-157.0,,1.0,406.6499999,1.0,0.75,0.0,0.75,0.0,0.544321581,1.0,0.53143059,False,,5c506220ba50dc0001862088,,2262159,155,,evan-feature22,full_pf_b,,0
129,45774,156,,,,2,2,0.0,0.0,0.0,1.0,,0.0-158.0,,0.0,373.24,1.0,0.726754564,1.0,0.75,0.0,0.5129306370000001,0.0,0.530592445,False,,5c506220ba50dc0001862088,,2272338,156,,evan-feature22,full_pf_b,,0
130,45775,157,,,,1,1,0.0,1.0,-1.0,0.0,,0.0-159.0,,0.0,1623.22,0.0,0.75,1.0,0.7392590729999999,1.0,0.479875835,0.0,0.547007051,False,,5c506220ba50dc0001862088,,2283790,157,,evan-feature22,full_pf_b,,1
131,45776,158,,,,1,1,0.0,1.0,-1.0,0.0,,0.0-160.0,,0.0,804.9549999,0.0,0.75,1.0,0.7393376979999999,1.0,0.546045419,0.0,0.541267353,False,,5c506220ba50dc0001862088,,2294402,158,,evan-feature22,full_pf_b,,0
132,45777,159,,,,1,1,1.0,0.0,-1.0,0.0,,0.0-161.0,,-1.0,941.0999999,1.0,0.75,0.0,0.75,0.0,0.485725895,0.0,0.527625395,False,,5c506220ba50dc0001862088,,2305163,159,,evan-feature22,full_pf_b,,0
133,45778,160,,,,1,1,1.0,1.0,0.0,1.0,,0.0-162.0,,1.0,907.0799999,1.0,0.75,1.0,0.725087974,0.0,0.488603595,1.0,0.504019206,False,,5c506220ba50dc0001862088,,2315880,160,,evan-feature22,full_pf_b,,0
134,45779,161,,,,1,1,0.0,1.0,0.0,1.0,,0.0-163.0,,1.0,335.45499989999996,0.0,0.745504295,1.0,0.75,0.0,0.452379914,1.0,0.50131194,False,,5c506220ba50dc0001862088,,2326012,161,,evan-feature22,full_pf_b,,0
135,45780,162,,,,1,1,0.0,1.0,0.0,1.0,,0.0-164.0,,1.0,571.9450001,0.0,0.728513874,1.0,0.75,0.0,0.44125567200000004,1.0,0.531454591,False,,5c506220ba50dc0001862088,,2336419,162,,evan-feature22,full_pf_b,,0
136,45781,163,,,,1,1,1.0,1.0,-1.0,0.0,,0.0-165.0,,-1.0,901.705,1.0,0.73790804,1.0,0.75,0.0,0.413036656,0.0,0.524619035,False,,5c506220ba50dc0001862088,,2347145,163,,evan-feature22,full_pf_b,,0
137,45782,164,,,,2,2,1.0,0.0,0.0,1.0,,0.0-166.0,,0.0,289.235,1.0,0.7080961309999999,0.0,0.708666865,1.0,0.431915581,0.0,0.481819489,False,,5c506220ba50dc0001862088,,2357243,164,,evan-feature22,full_pf_b,,1
138,45783,165,,,,1,1,1.0,1.0,0.0,1.0,,0.0-167.0,,1.0,471.245,1.0,0.721378003,1.0,0.71605913,0.0,0.36642387,1.0,0.5036739929999999,False,,5c506220ba50dc0001862088,,2367539,165,,evan-feature22,full_pf_b,,1
139,45784,166,,,,1,1,1.0,1.0,0.0,1.0,,0.0-168.0,,1.0,968.73,1.0,0.7340618959999999,1.0,0.699323252,0.0,0.35298046299999997,0.0,0.511241692,False,,5c506220ba50dc0001862088,,2378335,166,,evan-feature22,full_pf_b,,0
140,45785,167,,,,1,1,1.0,1.0,-1.0,0.0,,0.0-169.0,,-1.0,838.4400001,1.0,0.75,1.0,0.70412698,0.0,0.380734814,0.0,0.529580116,False,,5c506220ba50dc0001862088,,2388978,167,,evan-feature22,full_pf_b,,0
141,45786,168,,,,1,1,1.0,0.0,0.0,1.0,,0.0-170.0,,0.0,514.765,1.0,0.7436654909999999,0.0,0.711182751,0.0,0.41125331,1.0,0.49554405,False,,5c506220ba50dc0001862088,,2399311,168,,evan-feature22,full_pf_b,,0
142,45787,169,,,,2,2,1.0,0.0,0.0,1.0,,0.0-171.0,,0.0,451.075,1.0,0.731607915,1.0,0.651774583,1.0,0.35688023,0.0,0.45194491600000003,False,,5c506220ba50dc0001862088,,2409563,169,,evan-feature22,full_pf_b,,1
143,45788,170,,,,1,1,0.0,1.0,-1.0,0.0,,0.0-172.0,,0.0,672.515,0.0,0.75,1.0,0.75,1.0,0.283145374,0.0,0.528608005,False,,5c506220ba50dc0001862088,,2420045,170,,evan-feature22,full_pf_b,,1
144,45789,171,,,,1,1,1.0,1.0,-1.0,0.0,,0.0-173.0,,-1.0,810.4950001,1.0,0.7491416890000001,1.0,0.7423785959999999,0.0,0.29135870399999997,1.0,0.498888318,False,,5c506220ba50dc0001862088,,2430675,171,,evan-feature22,full_pf_b,,0
145,45790,172,,,,2,2,1.0,1.0,-1.0,0.0,,0.0-174.0,,-1.0,1672.56,1.0,0.708569387,0.0,0.717682277,1.0,0.294421699,1.0,0.493838163,False,,5c506220ba50dc0001862088,,2442174,172,,evan-feature22,full_pf_b,,1
146,45791,173,,,,1,1,0.0,1.0,0.0,1.0,,0.0-175.0,,1.0,515.1450001000001,0.0,0.75,1.0,0.7383382159999999,0.0,0.356098707,0.0,0.442533405,False,,5c506220ba50dc0001862088,,2452501,173,,evan-feature22,full_pf_b,,1
147,45792,174,,,,1,1,0.0,1.0,0.0,1.0,,0.0-176.0,,1.0,675.465,0.0,0.744527075,1.0,0.75,1.0,0.334127506,0.0,0.393165805,False,,5c506220ba50dc0001862088,,2462972,174,,evan-feature22,full_pf_b,,0
148,45793,175,,,,1,1,0.0,1.0,0.0,1.0,,0.0-177.0,,1.0,319.61,0.0,0.75,1.0,0.75,0.0,0.33571021799999995,1.0,0.350393962,False,,5c506220ba50dc0001862088,,2473088,175,,evan-feature22,full_pf_b,,0
149,45794,176,,,,1,1,1.0,1.0,0.0,1.0,,0.0-178.0,,1.0,343.86,1.0,0.75,1.0,0.75,0.0,0.313628297,0.0,0.36349657399999996,False,,5c506220ba50dc0001862088,,2483258,176,,evan-feature22,full_pf_b,,0
150,45795,177,,,,1,1,1.0,1.0,-1.0,0.0,,0.0-179.0,,-1.0,1075.17,1.0,0.75,1.0,0.734284182,0.0,0.262667667,0.0,0.380199119,False,,5c506220ba50dc0001862088,,2494143,177,,evan-feature22,full_pf_b,,0
151,45796,178,,,,1,1,0.0,1.0,0.0,1.0,,0.0-180.0,,1.0,527.8800001,0.0,0.75,1.0,0.75,0.0,0.25,0.0,0.394494013,False,,5c506220ba50dc0001862088,,2504489,178,,evan-feature22,full_pf_b,,0
152,45797,179,,,,1,1,1.0,1.0,-1.0,0.0,,0.0-181.0,,-1.0,1026.47,1.0,0.722298145,1.0,0.7357822340000001,1.0,0.25,0.0,0.319142121,False,,5c506220ba50dc0001862088,,2515347,179,,evan-feature22,full_pf_b,,0
153,45798,180,,,,1,1,0.0,1.0,-1.0,0.0,,0.0-182.0,,0.0,916.5800001,0.0,0.73149275,1.0,0.724276446,1.0,0.305856907,0.0,0.281315057,False,,5c506220ba50dc0001862088,,2526077,180,,evan-feature22,full_pf_b,,0
154,45799,181,,,,1,1,1.0,1.0,0.0,1.0,,0.0-183.0,,1.0,1258.06,1.0,0.7458732690000001,1.0,0.7336382459999999,1.0,0.272571964,0.0,0.266021999,False,,5c506220ba50dc0001862088,,2537124,181,,evan-feature22,full_pf_b,,0
155,45800,182,,,,1,1,1.0,1.0,0.0,1.0,,0.0-184.0,,1.0,365.69,1.0,0.705579037,1.0,0.720778292,1.0,0.320238144,0.0,0.30971744,False,,5c506220ba50dc0001862088,,2547298,182,,evan-feature22,full_pf_b,,0
156,45801,183,,,,1,1,1.0,1.0,0.0,1.0,,0.0-185.0,,1.0,450.74,1.0,0.700425648,1.0,0.7198784009999999,0.0,0.272590393,1.0,0.304182931,False,,5c506220ba50dc0001862088,,2557551,183,,evan-feature22,full_pf_b,,0
157,45802,184,,,,1,1,1.0,1.0,0.0,1.0,,0.0-186.0,,1.0,373.9349999,1.0,0.735590785,1.0,0.722714973,1.0,0.25,0.0,0.323421091,False,,5c506220ba50dc0001862088,,2567732,184,,evan-feature22,full_pf_b,,0
158,45803,185,,,,1,1,1.0,0.0,0.0,1.0,,0.0-187.0,,0.0,432.805,1.0,0.724807662,0.0,0.63146213,0.0,0.36836492600000004,0.0,0.34592153299999995,False,,5c506220ba50dc0001862088,,2577970,185,,evan-feature22,full_pf_b,,0
159,45804,186,,,,1,1,0.0,1.0,0.0,1.0,,0.0-188.0,,1.0,1953.97,0.0,0.7352796909999999,1.0,0.555111392,0.0,0.36003922,0.0,0.31433779999999995,False,,5c506220ba50dc0001862088,,2589734,186,,evan-feature22,full_pf_b,,0
160,45805,187,notice,,,,,,,,,,0.0-189.0,"{""Q0"":""During the first half the right side door felt like it had better luck. But during the second half the left side door felt like it had better luck.""}",,86995.0,,,,,,,,,False,,5c506220ba50dc0001862088,,2676730,187,Q,survey-text,full_pf_b,,1
161,45806,188,track1,,[0],,,,,,,,0.0-190.0,"{""Q0"":""yes""}",,6078.0,,,,,,,,,False,,5c506220ba50dc0001862088,,2682811,188,Q,evan-quiz,full_pf_b,,1
162,45807,189,track2,,[2],,,,,,,,0.0-191.0,"{""Q0"":""N/A""}",,18087.0,,,,,,,,,False,,5c506220ba50dc0001862088,,2700901,189,Q,evan-quiz,full_pf_b,,1
163,45808,190,strat,,,,,,,,,,0.0-192.0,"{""Q0"":""I tested each door to see which one gave me better results, and then I stuck with that door until I noticed the other door was looking better than the one I was using.""}",,157624.0,,,,,,,,,False,,5c506220ba50dc0001862088,,2858528,190,Q,survey-text,full_pf_b,,1
