,index,Unnamed: 0,Q_name,button_pressed,choice_idxs,chosen_pos,chosen_state,chosen_state_f_1_outcome,chosen_state_f_2_outcome,f_1_reward,f_2_reward,incor_questions,internal_node_id,responses,reward_received,rt,s_1_f_1_outcome,s_1_f_1_prob,s_1_f_2_outcome,s_1_f_2_prob,s_2_f_1_outcome,s_2_f_1_prob,s_2_f_2_outcome,s_2_f_2_prob,safe_first,stimulus,subjectID,success,time_elapsed,trial_index,trial_num,trial_type,version,view_history,switching
0,22491,25,,,,1,1,1.0,0.0,0.0,-1.0,,0.0-27.0,,0.0,1272.345,1.0,0.6,0.0,0.6,0.0,0.4,0.0,0.4,False,,5a048d21df3fa800015c33a1,,649439,25,,evan-feature22,full_pf_a,,0
1,22492,26,,,,1,1,0.0,1.0,0.0,-1.0,,0.0-28.0,,-1.0,1653.645,0.0,0.608053294,1.0,0.63424552,0.0,0.397152172,0.0,0.347069101,False,,5a048d21df3fa800015c33a1,,660894,26,,evan-feature22,full_pf_a,,0
2,22493,27,,,,1,1,1.0,0.0,0.0,-1.0,,0.0-29.0,,0.0,745.265,1.0,0.642237155,0.0,0.648566321,1.0,0.389407674,0.0,0.285525717,False,,5a048d21df3fa800015c33a1,,671419,27,,evan-feature22,full_pf_a,,0
3,22494,28,,,,2,2,0.0,0.0,0.0,-1.0,,0.0-30.0,,0.0,1277.59,1.0,0.661086576,1.0,0.630492543,0.0,0.399058924,0.0,0.25,False,,5a048d21df3fa800015c33a1,,682497,28,,evan-feature22,full_pf_a,,1
4,22495,29,,,,1,1,1.0,0.0,0.0,-1.0,,0.0-31.0,,0.0,612.8850002,1.0,0.631324137,0.0,0.6269842929999999,1.0,0.38734784299999997,1.0,0.25,False,,5a048d21df3fa800015c33a1,,692907,29,,evan-feature22,full_pf_a,,1
5,22496,30,,,,1,1,1.0,1.0,0.0,-1.0,,0.0-32.0,,-1.0,3227.4,1.0,0.6381991370000001,1.0,0.68987999,1.0,0.384107265,0.0,0.271332943,False,,5a048d21df3fa800015c33a1,,705932,30,,evan-feature22,full_pf_a,,0
6,22497,31,,,,1,1,1.0,1.0,0.0,-1.0,,0.0-33.0,,-1.0,616.0900001,1.0,0.66034901,1.0,0.742641349,0.0,0.360225629,1.0,0.25,False,,5a048d21df3fa800015c33a1,,716345,31,,evan-feature22,full_pf_a,,0
7,22498,32,,,,2,2,0.0,0.0,1.0,0.0,,0.0-34.0,,0.0,562.4350002,1.0,0.638612418,0.0,0.75,0.0,0.367273939,0.0,0.25,False,,5a048d21df3fa800015c33a1,,726695,32,,evan-feature22,full_pf_a,,1
8,22499,33,,,,2,2,1.0,0.0,0.0,-1.0,,0.0-35.0,,0.0,1971.085,1.0,0.624340629,1.0,0.75,1.0,0.425829545,0.0,0.25,False,,5a048d21df3fa800015c33a1,,738459,33,,evan-feature22,full_pf_a,,0
9,22500,34,,,,2,2,0.0,0.0,0.0,-1.0,,0.0-36.0,,0.0,566.755,0.0,0.621999804,1.0,0.75,0.0,0.368609357,0.0,0.25,False,,5a048d21df3fa800015c33a1,,748820,34,,evan-feature22,full_pf_a,,0
10,22501,35,,,,2,2,0.0,0.0,1.0,0.0,,0.0-37.0,,0.0,623.0350002,0.0,0.62666403,0.0,0.75,0.0,0.311151498,0.0,0.25,False,,5a048d21df3fa800015c33a1,,759233,35,,evan-feature22,full_pf_a,,0
11,22502,36,,,,2,2,0.0,0.0,1.0,0.0,,0.0-38.0,,0.0,825.1299998,1.0,0.6819650009999999,1.0,0.75,0.0,0.310763048,0.0,0.25,False,,5a048d21df3fa800015c33a1,,769859,36,,evan-feature22,full_pf_a,,0
12,22503,37,,,,2,2,0.0,0.0,0.0,-1.0,,0.0-39.0,,0.0,1082.59,0.0,0.740626951,1.0,0.75,0.0,0.25,0.0,0.25,False,,5a048d21df3fa800015c33a1,,780740,37,,evan-feature22,full_pf_a,,0
13,22504,38,,,,2,2,0.0,1.0,0.0,-1.0,,0.0-40.0,,-1.0,930.565,1.0,0.739599242,1.0,0.742034978,0.0,0.25397114600000004,1.0,0.25,False,,5a048d21df3fa800015c33a1,,791473,38,,evan-feature22,full_pf_a,,0
14,22505,39,,,,2,2,0.0,1.0,0.0,-1.0,,0.0-41.0,,-1.0,463.29000030000003,1.0,0.732341315,1.0,0.72735643,0.0,0.25,1.0,0.25,False,,5a048d21df3fa800015c33a1,,801744,39,,evan-feature22,full_pf_a,,0
15,22506,40,,,,1,1,0.0,0.0,0.0,-1.0,,0.0-42.0,,0.0,571.0849999,0.0,0.7062287770000001,0.0,0.75,1.0,0.29002151,0.0,0.288256649,False,,5a048d21df3fa800015c33a1,,812104,40,,evan-feature22,full_pf_a,,1
16,22507,41,,,,2,2,1.0,0.0,1.0,0.0,,0.0-43.0,,1.0,1351.565,0.0,0.7086029209999999,1.0,0.75,1.0,0.274129113,0.0,0.262851608,False,,5a048d21df3fa800015c33a1,,823251,41,,evan-feature22,full_pf_a,,1
17,22508,42,,,,2,2,0.0,0.0,0.0,-1.0,,0.0-44.0,,0.0,544.5849998,1.0,0.669189651,1.0,0.727614338,0.0,0.298444036,0.0,0.296944518,False,,5a048d21df3fa800015c33a1,,833592,42,,evan-feature22,full_pf_a,,0
18,22509,43,,,,2,2,0.0,0.0,1.0,0.0,,0.0-45.0,,0.0,511.50500030000006,0.0,0.6819912929999999,1.0,0.7179434290000001,0.0,0.265003961,0.0,0.28157921199999997,False,,5a048d21df3fa800015c33a1,,843894,43,,evan-feature22,full_pf_a,,0
19,22510,44,,,,2,2,0.0,0.0,1.0,0.0,,0.0-46.0,,0.0,478.54499979999997,1.0,0.665275002,1.0,0.723065271,0.0,0.260414971,0.0,0.30973870000000003,False,,5a048d21df3fa800015c33a1,,854167,44,,evan-feature22,full_pf_a,,0
20,22511,45,,,,2,2,1.0,0.0,0.0,-1.0,,0.0-47.0,,0.0,808.2750002,1.0,0.6660593260000001,0.0,0.728032907,1.0,0.30922817,0.0,0.338778608,False,,5a048d21df3fa800015c33a1,,864769,45,,evan-feature22,full_pf_a,,0
21,22512,46,,,,2,2,0.0,1.0,0.0,-1.0,,0.0-48.0,,-1.0,566.47,1.0,0.702068785,1.0,0.6528750879999999,0.0,0.287329608,1.0,0.35789613200000003,False,,5a048d21df3fa800015c33a1,,875134,46,,evan-feature22,full_pf_a,,0
22,22513,47,,,,2,2,0.0,0.0,0.0,-1.0,,0.0-49.0,,0.0,633.1000002000001,1.0,0.651939787,0.0,0.636725589,0.0,0.284834488,0.0,0.358563756,False,,5a048d21df3fa800015c33a1,,885561,47,,evan-feature22,full_pf_a,,0
23,22514,48,,,,2,2,1.0,0.0,0.0,-1.0,,0.0-50.0,,0.0,869.4700002999998,1.0,0.67573929,0.0,0.612550049,1.0,0.37130387600000003,0.0,0.383542402,False,,5a048d21df3fa800015c33a1,,896207,48,,evan-feature22,full_pf_a,,0
24,22515,49,,,,2,2,0.0,1.0,0.0,-1.0,,0.0-51.0,,-1.0,367.54,1.0,0.620753801,1.0,0.60513644,0.0,0.385529434,1.0,0.340361743,False,,5a048d21df3fa800015c33a1,,906366,49,,evan-feature22,full_pf_a,,0
25,22516,50,,,,2,2,1.0,0.0,1.0,0.0,,0.0-52.0,,1.0,1084.74,1.0,0.673564893,1.0,0.672437924,1.0,0.292955382,0.0,0.337633795,False,,5a048d21df3fa800015c33a1,,917247,50,,evan-feature22,full_pf_a,,0
26,22517,51,,,,2,2,0.0,0.0,0.0,-1.0,,0.0-53.0,,0.0,719.2350002000001,1.0,0.6749427,1.0,0.724197502,0.0,0.32391132100000003,0.0,0.350995264,False,,5a048d21df3fa800015c33a1,,927755,51,,evan-feature22,full_pf_a,,0
27,22518,52,,,,2,2,0.0,0.0,0.0,-1.0,,0.0-54.0,,0.0,338.4949998,0.0,0.6940159379999999,1.0,0.75,0.0,0.31710554399999996,0.0,0.413450341,False,,5a048d21df3fa800015c33a1,,937896,52,,evan-feature22,full_pf_a,,0
28,22519,53,,,,2,2,0.0,1.0,0.0,-1.0,,0.0-55.0,,-1.0,570.4450002,0.0,0.6916018270000001,0.0,0.69001187,0.0,0.261817804,1.0,0.40038635,False,,5a048d21df3fa800015c33a1,,948263,53,,evan-feature22,full_pf_a,,0
29,22520,54,,,,2,2,0.0,0.0,0.0,-1.0,,0.0-56.0,,0.0,849.9249998,1.0,0.641061544,1.0,0.71337992,0.0,0.277296461,0.0,0.47372791700000005,False,,5a048d21df3fa800015c33a1,,958909,54,,evan-feature22,full_pf_a,,0
30,22521,55,,,,2,2,1.0,1.0,0.0,-1.0,,0.0-57.0,,-1.0,599.3849998,1.0,0.6082438520000001,0.0,0.708471106,1.0,0.28745137,1.0,0.564174476,False,,5a048d21df3fa800015c33a1,,969305,55,,evan-feature22,full_pf_a,,0
31,22522,56,,,,1,1,1.0,1.0,1.0,0.0,,0.0-58.0,,1.0,445.88,1.0,0.6051112120000001,1.0,0.7118147229999999,0.0,0.272390611,1.0,0.5595149939999999,False,,5a048d21df3fa800015c33a1,,979537,56,,evan-feature22,full_pf_a,,1
32,22523,57,,,,1,1,1.0,1.0,1.0,0.0,,0.0-59.0,,1.0,579.5700001,1.0,0.582420852,1.0,0.635867583,0.0,0.31089574,0.0,0.5227206520000001,False,,5a048d21df3fa800015c33a1,,989920,57,,evan-feature22,full_pf_a,,0
33,22524,58,,,,1,1,0.0,1.0,1.0,0.0,,0.0-60.0,,0.0,462.2900002,0.0,0.623195575,1.0,0.655026044,0.0,0.25,0.0,0.560387538,False,,5a048d21df3fa800015c33a1,,1000164,58,,evan-feature22,full_pf_a,,0
34,22525,59,,,,1,1,1.0,1.0,0.0,-1.0,,0.0-61.0,,-1.0,320.95499989999996,1.0,0.601889598,1.0,0.678198724,0.0,0.25,1.0,0.559922936,False,,5a048d21df3fa800015c33a1,,1010268,59,,evan-feature22,full_pf_a,,0
35,22526,60,,,,1,1,1.0,1.0,1.0,0.0,,0.0-62.0,,1.0,789.3699999,1.0,0.601259914,1.0,0.704681482,0.0,0.33908969299999997,0.0,0.505003715,False,,5a048d21df3fa800015c33a1,,1020862,60,,evan-feature22,full_pf_a,,0
36,22527,61,,,,1,1,1.0,1.0,1.0,0.0,,0.0-63.0,,1.0,641.5399997000001,1.0,0.59645454,1.0,0.710437172,0.0,0.327441879,0.0,0.391749613,False,,5a048d21df3fa800015c33a1,,1031294,61,,evan-feature22,full_pf_a,,0
37,22528,62,,,,2,2,0.0,0.0,0.0,-1.0,,0.0-64.0,,0.0,966.1750002,1.0,0.529473,1.0,0.636758527,0.0,0.301338063,0.0,0.365661481,False,,5a048d21df3fa800015c33a1,,1042044,62,,evan-feature22,full_pf_a,,1
38,22529,63,,,,1,1,1.0,1.0,1.0,0.0,,0.0-65.0,,1.0,952.1700004,1.0,0.541657162,1.0,0.634541962,0.0,0.343535366,0.0,0.371763742,False,,5a048d21df3fa800015c33a1,,1052793,63,,evan-feature22,full_pf_a,,1
39,22530,64,,,,1,1,0.0,0.0,1.0,0.0,,0.0-66.0,,0.0,624.0999997,0.0,0.5707533260000001,0.0,0.589121171,0.0,0.326428396,0.0,0.43961622899999997,False,,5a048d21df3fa800015c33a1,,1063220,64,,evan-feature22,full_pf_a,,0
40,22531,65,,,,2,2,1.0,0.0,0.0,-1.0,,0.0-67.0,,0.0,902.6450002999999,0.0,0.5707533260000001,0.0,0.589121171,1.0,0.326428396,0.0,0.43961622899999997,False,,5a048d21df3fa800015c33a1,,1073913,65,,evan-feature22,full_pf_a,,1
41,22532,66,,,,2,2,1.0,0.0,0.0,-1.0,,0.0-68.0,,0.0,766.4949996,1.0,0.506271295,0.0,0.641775594,1.0,0.37149690700000004,0.0,0.404330166,False,,5a048d21df3fa800015c33a1,,1084466,66,,evan-feature22,full_pf_a,,0
42,22533,67,,,,1,1,1.0,1.0,1.0,0.0,,0.0-69.0,,1.0,812.3699999,1.0,0.455642565,1.0,0.623605825,0.0,0.358753011,0.0,0.346174041,False,,5a048d21df3fa800015c33a1,,1095076,67,,evan-feature22,full_pf_a,,1
43,22534,68,,,,2,2,0.0,0.0,0.0,-1.0,,0.0-70.0,,0.0,760.1800002,0.0,0.483677308,0.0,0.5904681070000001,0.0,0.402218411,0.0,0.35344697,False,,5a048d21df3fa800015c33a1,,1105622,68,,evan-feature22,full_pf_a,,1
44,22535,69,,,,1,1,1.0,1.0,1.0,0.0,,0.0-71.0,,1.0,609.6100002000001,1.0,0.394210977,1.0,0.558925494,0.0,0.540052017,1.0,0.35182128700000004,False,,5a048d21df3fa800015c33a1,,1116032,69,,evan-feature22,full_pf_a,,1
45,22536,70,,,,2,2,0.0,0.0,0.0,-1.0,,0.0-72.0,,0.0,684.8599998999999,1.0,0.382300414,0.0,0.577670603,0.0,0.607608448,0.0,0.378261578,False,,5a048d21df3fa800015c33a1,,1126501,70,,evan-feature22,full_pf_a,,1
46,22537,71,,,,1,1,0.0,0.0,1.0,0.0,,0.0-73.0,,0.0,814.3349998,0.0,0.357596762,0.0,0.5929076529999999,0.0,0.6579790010000001,0.0,0.401326777,False,,5a048d21df3fa800015c33a1,,1137105,71,,evan-feature22,full_pf_a,,1
47,22538,72,,,,2,2,1.0,0.0,0.0,-1.0,,0.0-74.0,,0.0,744.3650002,0.0,0.362033495,0.0,0.582308608,1.0,0.649195052,0.0,0.355158505,False,,5a048d21df3fa800015c33a1,,1147643,72,,evan-feature22,full_pf_a,,1
48,22539,73,,,,2,2,1.0,0.0,0.0,-1.0,,0.0-75.0,,0.0,1191.185,1.0,0.369620635,1.0,0.669100864,1.0,0.706059111,0.0,0.362516241,False,,5a048d21df3fa800015c33a1,,1158619,73,,evan-feature22,full_pf_a,,0
49,22540,74,,,,2,2,0.0,0.0,0.0,-1.0,,0.0-76.0,,0.0,788.1549997000001,0.0,0.41477751399999996,1.0,0.7284416779999999,0.0,0.7182656940000001,0.0,0.36228040899999997,False,,5a048d21df3fa800015c33a1,,1169203,74,,evan-feature22,full_pf_a,,0
50,22541,75,,,,1,1,0.0,1.0,1.0,0.0,,0.0-77.0,,0.0,576.0600003,0.0,0.37675460299999997,1.0,0.703250285,0.0,0.75,1.0,0.461979164,False,,5a048d21df3fa800015c33a1,,1179584,75,,evan-feature22,full_pf_a,,1
51,22542,76,,,,1,1,1.0,1.0,1.0,0.0,,0.0-78.0,,1.0,502.665,1.0,0.398716075,1.0,0.6723864890000001,1.0,0.674153818,0.0,0.519029516,False,,5a048d21df3fa800015c33a1,,1189900,76,,evan-feature22,full_pf_a,,0
52,22543,77,,,,2,2,1.0,0.0,1.0,0.0,,0.0-79.0,,1.0,1270.235,0.0,0.34677856700000004,0.0,0.69057175,1.0,0.6822438540000001,0.0,0.477292237,False,,5a048d21df3fa800015c33a1,,1200966,77,,evan-feature22,full_pf_a,,1
53,22544,78,,,,2,2,1.0,0.0,0.0,-1.0,,0.0-80.0,,0.0,1186.955,0.0,0.28580469199999997,1.0,0.68408818,1.0,0.684207565,0.0,0.49780448299999996,False,,5a048d21df3fa800015c33a1,,1211952,78,,evan-feature22,full_pf_a,,0
54,22546,80,,,,2,2,1.0,0.0,0.0,-1.0,,0.0-82.0,,0.0,1193.715,0.0,0.25,1.0,0.7405808970000001,1.0,0.679614108,0.0,0.436436964,False,,5a048d21df3fa800015c33a1,,1225140,80,,evan-feature22,full_pf_a,,0
55,22547,81,,,,2,2,1.0,1.0,0.0,-1.0,,0.0-83.0,,-1.0,666.8799999,0.0,0.29890393,1.0,0.730505706,1.0,0.7328203320000001,1.0,0.439256938,False,,5a048d21df3fa800015c33a1,,1235604,81,,evan-feature22,full_pf_a,,0
56,22548,82,,,,1,1,0.0,1.0,1.0,0.0,,0.0-84.0,,0.0,904.4499998,0.0,0.326762398,1.0,0.7148059609999999,1.0,0.75,0.0,0.44389608799999997,False,,5a048d21df3fa800015c33a1,,1246303,82,,evan-feature22,full_pf_a,,1
57,22549,83,,,,1,1,0.0,1.0,0.0,-1.0,,0.0-85.0,,-1.0,2296.73,0.0,0.295168515,1.0,0.739760854,1.0,0.719947008,0.0,0.35277284600000003,False,,5a048d21df3fa800015c33a1,,1258407,83,,evan-feature22,full_pf_a,,0
58,22550,84,,,,2,2,1.0,0.0,0.0,-1.0,,0.0-86.0,,0.0,866.6300001,0.0,0.25,1.0,0.70781482,1.0,0.75,0.0,0.286095925,False,,5a048d21df3fa800015c33a1,,1269060,84,,evan-feature22,full_pf_a,,1
59,22551,85,,,,2,2,1.0,1.0,0.0,-1.0,,0.0-87.0,,-1.0,697.6600001,0.0,0.25638190899999996,0.0,0.704088163,1.0,0.75,1.0,0.26872601399999996,False,,5a048d21df3fa800015c33a1,,1279565,85,,evan-feature22,full_pf_a,,0
60,22552,86,,,,2,2,1.0,0.0,1.0,0.0,,0.0-88.0,,1.0,1306.65,0.0,0.271581126,1.0,0.669760107,1.0,0.733896663,0.0,0.273244572,False,,5a048d21df3fa800015c33a1,,1290664,86,,evan-feature22,full_pf_a,,0
61,22553,87,,,,1,1,0.0,1.0,0.0,-1.0,,0.0-89.0,,-1.0,1475.525,0.0,0.257144401,1.0,0.600575706,1.0,0.74488122,1.0,0.25,False,,5a048d21df3fa800015c33a1,,1301939,87,,evan-feature22,full_pf_a,,1
62,22554,88,,,,2,2,1.0,0.0,0.0,-1.0,,0.0-90.0,,0.0,1607.855,1.0,0.25,1.0,0.616870026,1.0,0.723610234,0.0,0.25,False,,5a048d21df3fa800015c33a1,,1313361,88,,evan-feature22,full_pf_a,,1
63,22555,89,,,,2,2,1.0,0.0,1.0,0.0,,0.0-91.0,,1.0,2349.385,0.0,0.25,0.0,0.583540187,1.0,0.7041042559999999,0.0,0.285961995,False,,5a048d21df3fa800015c33a1,,1325505,89,,evan-feature22,full_pf_a,,0
64,22556,90,,,,2,2,1.0,0.0,1.0,0.0,,0.0-92.0,,1.0,553.2549997000001,0.0,0.27254536,1.0,0.53875765,1.0,0.693783448,0.0,0.284961652,False,,5a048d21df3fa800015c33a1,,1335852,90,,evan-feature22,full_pf_a,,0
65,22557,91,,,,2,2,0.0,0.0,1.0,0.0,,0.0-93.0,,0.0,566.4949999,1.0,0.25,1.0,0.548431252,0.0,0.734221895,0.0,0.279445214,False,,5a048d21df3fa800015c33a1,,1346235,91,,evan-feature22,full_pf_a,,0
66,22558,92,,,,2,2,1.0,0.0,0.0,-1.0,,0.0-94.0,,0.0,1250.74,0.0,0.258640684,0.0,0.545878066,1.0,0.725245965,0.0,0.31487537,False,,5a048d21df3fa800015c33a1,,1357298,92,,evan-feature22,full_pf_a,,0
67,22559,93,,,,2,2,1.0,1.0,0.0,-1.0,,0.0-95.0,,-1.0,731.59,0.0,0.251103711,1.0,0.5776290629999999,1.0,0.696320133,1.0,0.317831047,False,,5a048d21df3fa800015c33a1,,1367827,93,,evan-feature22,full_pf_a,,0
68,22560,94,,,,2,2,1.0,1.0,0.0,-1.0,,0.0-96.0,,-1.0,374.1250001,0.0,0.276630292,0.0,0.617329858,1.0,0.73838088,1.0,0.261471582,False,,5a048d21df3fa800015c33a1,,1378009,94,,evan-feature22,full_pf_a,,0
69,22561,95,,,,1,1,0.0,1.0,0.0,-1.0,,0.0-97.0,,-1.0,453.0150001,0.0,0.297716424,1.0,0.618863717,1.0,0.7402358259999999,0.0,0.262600834,False,,5a048d21df3fa800015c33a1,,1388268,95,,evan-feature22,full_pf_a,,1
70,22562,96,,,,2,2,1.0,0.0,1.0,0.0,,0.0-98.0,,1.0,1727.91,1.0,0.290935512,1.0,0.695370945,1.0,0.706570507,0.0,0.280030553,False,,5a048d21df3fa800015c33a1,,1399808,96,,evan-feature22,full_pf_a,,1
71,22563,97,,,,2,2,0.0,1.0,0.0,-1.0,,0.0-99.0,,-1.0,1891.63,0.0,0.25,1.0,0.6465277079999999,0.0,0.67766682,1.0,0.25,False,,5a048d21df3fa800015c33a1,,1411509,97,,evan-feature22,full_pf_a,,0
72,22564,98,,,,2,2,1.0,0.0,1.0,0.0,,0.0-100.0,,1.0,746.76,0.0,0.26463816,1.0,0.636100213,1.0,0.646048507,0.0,0.265607101,False,,5a048d21df3fa800015c33a1,,1422049,98,,evan-feature22,full_pf_a,,0
73,22565,99,,,,2,2,0.0,0.0,1.0,0.0,,0.0-101.0,,0.0,1356.365,1.0,0.314340707,1.0,0.667795927,0.0,0.613630805,0.0,0.25,False,,5a048d21df3fa800015c33a1,,1433196,99,,evan-feature22,full_pf_a,,0
74,22566,100,,,,2,2,1.0,1.0,0.0,-1.0,,0.0-102.0,,-1.0,829.0049997000001,0.0,0.28685784,1.0,0.6622549529999999,1.0,0.652154117,1.0,0.25,False,,5a048d21df3fa800015c33a1,,1443818,100,,evan-feature22,full_pf_a,,0
75,22567,101,,,,2,2,0.0,0.0,0.0,-1.0,,0.0-103.0,,0.0,746.4950001,0.0,0.304106554,0.0,0.631289538,0.0,0.707041942,0.0,0.29314237,False,,5a048d21df3fa800015c33a1,,1454357,101,,evan-feature22,full_pf_a,,0
76,22568,102,,,,2,2,1.0,0.0,0.0,-1.0,,0.0-104.0,,0.0,803.9800002999999,0.0,0.304806932,1.0,0.571167718,1.0,0.680472346,0.0,0.25,False,,5a048d21df3fa800015c33a1,,1464974,102,,evan-feature22,full_pf_a,,0
77,22569,103,,,,2,2,0.0,0.0,0.0,-1.0,,0.0-105.0,,0.0,561.2399997,0.0,0.37919861,1.0,0.5724849710000001,0.0,0.705638003,0.0,0.30179300600000003,False,,5a048d21df3fa800015c33a1,,1475329,103,,evan-feature22,full_pf_a,,0
78,22570,104,,,,2,2,1.0,0.0,0.0,-1.0,,0.0-106.0,,0.0,630.0850002999999,0.0,0.464277969,0.0,0.554034373,1.0,0.7372627340000001,0.0,0.264699741,False,,5a048d21df3fa800015c33a1,,1485758,104,,evan-feature22,full_pf_a,,0
79,22571,105,,,,2,2,1.0,0.0,0.0,-1.0,,0.0-107.0,,0.0,649.2699999,0.0,0.465104323,0.0,0.530793115,1.0,0.75,0.0,0.31683071,False,,5a048d21df3fa800015c33a1,,1496198,105,,evan-feature22,full_pf_a,,0
80,22572,106,,,,2,2,1.0,0.0,1.0,0.0,,0.0-108.0,,1.0,639.37,1.0,0.465104323,1.0,0.530793115,1.0,0.75,0.0,0.31683071,False,,5a048d21df3fa800015c33a1,,1506636,106,,evan-feature22,full_pf_a,,0
81,22573,107,,,,2,2,1.0,0.0,1.0,0.0,,0.0-109.0,,1.0,634.8349997,0.0,0.46833986,0.0,0.570249239,1.0,0.7244472590000001,0.0,0.364114163,False,,5a048d21df3fa800015c33a1,,1517063,107,,evan-feature22,full_pf_a,,0
82,22574,108,,,,2,2,0.0,0.0,1.0,0.0,,0.0-110.0,,0.0,878.1650001,0.0,0.445444024,0.0,0.649673355,0.0,0.6845441290000001,0.0,0.300660449,False,,5a048d21df3fa800015c33a1,,1527726,108,,evan-feature22,full_pf_a,,0
83,22575,109,,,,2,2,0.0,0.0,1.0,0.0,,0.0-111.0,,0.0,516.295,0.0,0.39909721299999995,1.0,0.6715179509999999,0.0,0.742310028,0.0,0.35496088299999995,False,,5a048d21df3fa800015c33a1,,1538034,109,,evan-feature22,full_pf_a,,0
84,22576,110,,,,2,2,1.0,1.0,0.0,-1.0,,0.0-112.0,,-1.0,1139.145,1.0,0.37956104799999996,0.0,0.694725302,1.0,0.7181651309999999,1.0,0.38726906299999997,False,,5a048d21df3fa800015c33a1,,1548973,110,,evan-feature22,full_pf_a,,0
85,22577,111,,,,1,1,0.0,1.0,0.0,-1.0,,0.0-113.0,,-1.0,742.9050002,0.0,0.404995034,1.0,0.724375412,1.0,0.6910946859999999,1.0,0.387187347,False,,5a048d21df3fa800015c33a1,,1559520,111,,evan-feature22,full_pf_a,,1
86,22578,112,,,,2,2,1.0,0.0,1.0,0.0,,0.0-114.0,,1.0,899.6599995999999,1.0,0.461740803,1.0,0.75,1.0,0.75,0.0,0.34872038200000005,False,,5a048d21df3fa800015c33a1,,1570222,112,,evan-feature22,full_pf_a,,1
87,22579,113,,,,2,2,1.0,1.0,1.0,0.0,,0.0-115.0,,1.0,470.17000010000004,0.0,0.43821380600000004,1.0,0.738833273,1.0,0.728286963,1.0,0.399538128,False,,5a048d21df3fa800015c33a1,,1580492,113,,evan-feature22,full_pf_a,,0
88,22580,114,,,,2,2,1.0,1.0,0.0,-1.0,,0.0-116.0,,-1.0,620.745,0.0,0.41709882,0.0,0.736666736,1.0,0.75,1.0,0.389095584,False,,5a048d21df3fa800015c33a1,,1590907,114,,evan-feature22,full_pf_a,,0
89,22581,115,,,,2,2,1.0,0.0,0.0,-1.0,,0.0-117.0,,0.0,729.3249997,1.0,0.39749009799999996,1.0,0.744320029,1.0,0.75,0.0,0.363848678,False,,5a048d21df3fa800015c33a1,,1601428,115,,evan-feature22,full_pf_a,,0
90,22582,116,,,,2,2,1.0,1.0,1.0,0.0,,0.0-118.0,,1.0,1038.08,0.0,0.392653706,1.0,0.75,1.0,0.75,1.0,0.384386976,False,,5a048d21df3fa800015c33a1,,1612266,116,,evan-feature22,full_pf_a,,0
91,22583,117,,,,2,2,1.0,0.0,0.0,-1.0,,0.0-119.0,,0.0,1524.035,1.0,0.31190902600000003,0.0,0.75,1.0,0.732413819,0.0,0.413082932,False,,5a048d21df3fa800015c33a1,,1623595,117,,evan-feature22,full_pf_a,,0
92,22584,118,,,,2,2,1.0,1.0,1.0,0.0,,0.0-120.0,,1.0,545.7049999,0.0,0.366917648,1.0,0.740073855,1.0,0.75,1.0,0.352861979,False,,5a048d21df3fa800015c33a1,,1633930,118,,evan-feature22,full_pf_a,,0
93,22585,119,,,,2,2,1.0,1.0,1.0,0.0,,0.0-121.0,,1.0,518.5150001000001,1.0,0.3645172,0.0,0.721770713,1.0,0.75,1.0,0.404074511,False,,5a048d21df3fa800015c33a1,,1644245,119,,evan-feature22,full_pf_a,,0
94,22586,120,,,,2,2,1.0,0.0,1.0,0.0,,0.0-122.0,,1.0,621.0500002,0.0,0.35205600299999995,1.0,0.68983859,1.0,0.739735447,0.0,0.366895945,False,,5a048d21df3fa800015c33a1,,1654661,120,,evan-feature22,full_pf_a,,0
95,22587,121,,,,2,2,1.0,0.0,1.0,0.0,,0.0-123.0,,1.0,442.13000030000006,0.0,0.40998722600000004,0.0,0.720859127,1.0,0.673854955,0.0,0.368528541,False,,5a048d21df3fa800015c33a1,,1664900,121,,evan-feature22,full_pf_a,,0
96,22588,122,,,,2,2,0.0,0.0,1.0,0.0,,0.0-124.0,,0.0,401.9399998,1.0,0.353625316,1.0,0.75,0.0,0.695605473,0.0,0.38303674200000004,False,,5a048d21df3fa800015c33a1,,1675089,122,,evan-feature22,full_pf_a,,0
97,22589,123,,,,2,2,1.0,0.0,1.0,0.0,,0.0-125.0,,1.0,510.365,1.0,0.359216989,0.0,0.75,1.0,0.6987915090000001,0.0,0.35169046200000004,False,,5a048d21df3fa800015c33a1,,1685389,123,,evan-feature22,full_pf_a,,0
98,22590,124,,,,2,2,1.0,1.0,1.0,0.0,,0.0-126.0,,1.0,799.805,0.0,0.35834496899999996,1.0,0.75,1.0,0.707067742,1.0,0.416763636,False,,5a048d21df3fa800015c33a1,,1695995,124,,evan-feature22,full_pf_a,,0
99,22591,125,,,,2,2,1.0,0.0,0.0,-1.0,,0.0-127.0,,0.0,865.1049998999999,0.0,0.38741613799999997,0.0,0.7177369570000001,1.0,0.734902455,0.0,0.49438664299999996,False,,5a048d21df3fa800015c33a1,,1706657,125,,evan-feature22,full_pf_a,,0
100,22592,126,,,,2,2,0.0,1.0,1.0,0.0,,0.0-128.0,,0.0,642.1649996,1.0,0.405255252,0.0,0.7300466640000001,0.0,0.7027748070000001,1.0,0.504359668,False,,5a048d21df3fa800015c33a1,,1717101,126,,evan-feature22,full_pf_a,,0
101,22593,127,,,,2,2,0.0,0.0,1.0,0.0,,0.0-129.0,,0.0,595.6850001,1.0,0.40697073,0.0,0.7260142190000001,0.0,0.724461982,0.0,0.522779179,False,,5a048d21df3fa800015c33a1,,1727501,127,,evan-feature22,full_pf_a,,0
102,22594,128,,,,1,1,1.0,1.0,1.0,0.0,,0.0-130.0,,1.0,729.8750002,1.0,0.43906215299999996,1.0,0.7252802340000001,0.0,0.719079934,0.0,0.5712990579999999,False,,5a048d21df3fa800015c33a1,,1738040,128,,evan-feature22,full_pf_a,,1
103,22595,129,,,,2,2,1.0,1.0,0.0,-1.0,,0.0-131.0,,-1.0,2172.96,0.0,0.4076705,1.0,0.73280499,1.0,0.681313127,1.0,0.523891346,False,,5a048d21df3fa800015c33a1,,1750023,129,,evan-feature22,full_pf_a,,1
104,22596,130,,,,2,2,0.0,0.0,0.0,-1.0,,0.0-132.0,,0.0,616.3499998,0.0,0.399102911,0.0,0.730498344,0.0,0.661080239,0.0,0.46742603,False,,5a048d21df3fa800015c33a1,,1760456,130,,evan-feature22,full_pf_a,,0
105,22597,131,,,,2,2,0.0,0.0,0.0,-1.0,,0.0-133.0,,0.0,877.1250001,0.0,0.356477282,1.0,0.712296395,0.0,0.641812684,0.0,0.44868414,False,,5a048d21df3fa800015c33a1,,1771126,131,,evan-feature22,full_pf_a,,0
106,22598,132,,,,2,2,0.0,1.0,1.0,0.0,,0.0-134.0,,0.0,1767.11,1.0,0.462760722,1.0,0.692349322,0.0,0.700947931,1.0,0.394680266,False,,5a048d21df3fa800015c33a1,,1782696,132,,evan-feature22,full_pf_a,,0
107,22599,133,,,,1,1,1.0,1.0,1.0,0.0,,0.0-135.0,,1.0,463.8499999,1.0,0.422306413,1.0,0.718375916,0.0,0.706340917,0.0,0.367787185,False,,5a048d21df3fa800015c33a1,,1792957,133,,evan-feature22,full_pf_a,,1
108,22601,135,,,,1,1,0.0,1.0,1.0,0.0,,0.0-137.0,,0.0,583.8600001,0.0,0.4582233,1.0,0.643834117,1.0,0.75,1.0,0.39615823299999997,False,,5a048d21df3fa800015c33a1,,1805741,135,,evan-feature22,full_pf_a,,0
109,22602,136,,,,1,1,1.0,1.0,1.0,0.0,,0.0-138.0,,1.0,606.5150001000001,1.0,0.43813437899999996,1.0,0.651283804,1.0,0.729674191,0.0,0.37711048,False,,5a048d21df3fa800015c33a1,,1816143,136,,evan-feature22,full_pf_a,,0
110,22603,137,,,,1,1,1.0,0.0,1.0,0.0,,0.0-139.0,,1.0,533.1650003999999,1.0,0.471199094,0.0,0.6470010979999999,1.0,0.715008097,0.0,0.410656191,False,,5a048d21df3fa800015c33a1,,1826486,137,,evan-feature22,full_pf_a,,0
111,22604,138,,,,1,1,1.0,0.0,1.0,0.0,,0.0-140.0,,1.0,473.9299999,1.0,0.42486406,0.0,0.629771829,1.0,0.6550939960000001,1.0,0.459093873,False,,5a048d21df3fa800015c33a1,,1836762,138,,evan-feature22,full_pf_a,,0
112,22605,139,,,,1,1,0.0,1.0,1.0,0.0,,0.0-141.0,,0.0,532.685,0.0,0.4803197,1.0,0.645842715,0.0,0.6421749920000001,1.0,0.443092151,False,,5a048d21df3fa800015c33a1,,1847086,139,,evan-feature22,full_pf_a,,0
113,22606,140,,,,1,1,1.0,0.0,0.0,-1.0,,0.0-142.0,,0.0,382.125,1.0,0.521848997,0.0,0.735801074,1.0,0.6691348460000001,0.0,0.45259351600000003,False,,5a048d21df3fa800015c33a1,,1857270,140,,evan-feature22,full_pf_a,,0
114,22607,141,,,,1,1,1.0,0.0,1.0,0.0,,0.0-143.0,,1.0,489.22499969999996,1.0,0.49565621299999996,0.0,0.742400847,1.0,0.661512553,1.0,0.483110831,False,,5a048d21df3fa800015c33a1,,1867569,141,,evan-feature22,full_pf_a,,0
115,22608,142,,,,1,1,0.0,1.0,1.0,0.0,,0.0-144.0,,0.0,914.6799999,0.0,0.521564361,1.0,0.731078632,1.0,0.6774886809999999,0.0,0.483263956,False,,5a048d21df3fa800015c33a1,,1878274,142,,evan-feature22,full_pf_a,,0
116,22609,143,,,,2,2,1.0,1.0,1.0,0.0,,0.0-145.0,,1.0,519.3049996,1.0,0.558893102,1.0,0.719810023,1.0,0.67461031,1.0,0.499349834,False,,5a048d21df3fa800015c33a1,,1888582,143,,evan-feature22,full_pf_a,,1
117,22610,144,,,,2,2,1.0,0.0,1.0,0.0,,0.0-146.0,,1.0,584.95,1.0,0.611031046,1.0,0.75,1.0,0.688072995,0.0,0.5321422729999999,False,,5a048d21df3fa800015c33a1,,1898974,144,,evan-feature22,full_pf_a,,0
118,22611,145,,,,2,2,1.0,0.0,0.0,-1.0,,0.0-147.0,,0.0,1242.065,1.0,0.633223941,1.0,0.713567728,1.0,0.75,0.0,0.48185314700000004,False,,5a048d21df3fa800015c33a1,,1910024,145,,evan-feature22,full_pf_a,,0
119,22612,146,,,,2,2,1.0,0.0,1.0,0.0,,0.0-148.0,,1.0,661.6349998,0.0,0.664001694,1.0,0.705509768,1.0,0.75,0.0,0.500211065,False,,5a048d21df3fa800015c33a1,,1920488,146,,evan-feature22,full_pf_a,,0
120,22613,147,,,,2,2,1.0,1.0,1.0,0.0,,0.0-149.0,,1.0,969.0650002999998,1.0,0.664001694,0.0,0.705509768,1.0,0.75,1.0,0.500211065,False,,5a048d21df3fa800015c33a1,,1931253,147,,evan-feature22,full_pf_a,,0
121,22614,148,,,,2,2,1.0,1.0,1.0,0.0,,0.0-150.0,,1.0,816.135,1.0,0.696508041,1.0,0.71066027,1.0,0.717028709,1.0,0.49792991,False,,5a048d21df3fa800015c33a1,,1941870,148,,evan-feature22,full_pf_a,,0
122,22615,149,,,,1,1,1.0,0.0,0.0,-1.0,,0.0-151.0,,0.0,649.1,1.0,0.699883272,0.0,0.75,0.0,0.713543895,0.0,0.496962643,False,,5a048d21df3fa800015c33a1,,1952314,149,,evan-feature22,full_pf_a,,1
123,22616,150,,,,1,1,1.0,0.0,0.0,-1.0,,0.0-152.0,,0.0,722.7249998,1.0,0.741163419,0.0,0.75,0.0,0.64691024,0.0,0.513858197,False,,5a048d21df3fa800015c33a1,,1962837,150,,evan-feature22,full_pf_a,,0
124,22617,151,,,,1,1,1.0,1.0,0.0,-1.0,,0.0-153.0,,-1.0,510.7249999,1.0,0.75,1.0,0.70816558,1.0,0.594499079,1.0,0.48502124,False,,5a048d21df3fa800015c33a1,,1973129,151,,evan-feature22,full_pf_a,,0
125,22618,152,,,,1,1,1.0,1.0,1.0,0.0,,0.0-154.0,,1.0,1437.445,1.0,0.75,1.0,0.721848901,1.0,0.62197249,1.0,0.48263586399999997,False,,5a048d21df3fa800015c33a1,,1984357,152,,evan-feature22,full_pf_a,,0
126,22619,153,,,,1,1,1.0,1.0,1.0,0.0,,0.0-155.0,,1.0,398.2300004,1.0,0.75,1.0,0.74813071,1.0,0.584357161,0.0,0.411477782,False,,5a048d21df3fa800015c33a1,,1994554,153,,evan-feature22,full_pf_a,,0
127,22620,154,,,,2,2,0.0,0.0,1.0,0.0,,0.0-156.0,,0.0,768.0700002,0.0,0.75,0.0,0.75,0.0,0.52287236,0.0,0.488290656,False,,5a048d21df3fa800015c33a1,,2005112,154,,evan-feature22,full_pf_a,,1
128,22621,155,,,,2,2,1.0,1.0,1.0,0.0,,0.0-157.0,,1.0,691.5150001000001,1.0,0.75,1.0,0.75,1.0,0.544321581,1.0,0.53143059,False,,5a048d21df3fa800015c33a1,,2015602,155,,evan-feature22,full_pf_a,,0
129,22622,156,,,,2,2,1.0,0.0,1.0,0.0,,0.0-158.0,,1.0,542.8849999,1.0,0.726754564,1.0,0.75,1.0,0.5129306370000001,0.0,0.530592445,False,,5a048d21df3fa800015c33a1,,2025947,156,,evan-feature22,full_pf_a,,0
130,22623,157,,,,2,2,0.0,0.0,0.0,-1.0,,0.0-159.0,,0.0,563.2750001,1.0,0.75,1.0,0.7392590729999999,0.0,0.479875835,0.0,0.547007051,False,,5a048d21df3fa800015c33a1,,2036302,157,,evan-feature22,full_pf_a,,0
131,22624,158,,,,2,2,1.0,1.0,0.0,-1.0,,0.0-160.0,,-1.0,538.2850002,0.0,0.75,1.0,0.7393376979999999,1.0,0.546045419,1.0,0.541267353,False,,5a048d21df3fa800015c33a1,,2046644,158,,evan-feature22,full_pf_a,,0
132,22625,159,,,,2,2,0.0,0.0,1.0,0.0,,0.0-161.0,,0.0,759.3199997,1.0,0.75,0.0,0.75,0.0,0.485725895,0.0,0.527625395,False,,5a048d21df3fa800015c33a1,,2057194,159,,evan-feature22,full_pf_a,,0
133,22626,160,,,,2,2,0.0,0.0,0.0,-1.0,,0.0-162.0,,0.0,878.395,1.0,0.75,0.0,0.725087974,0.0,0.488603595,0.0,0.504019206,False,,5a048d21df3fa800015c33a1,,2067868,160,,evan-feature22,full_pf_a,,0
134,22627,161,,,,1,1,1.0,1.0,1.0,0.0,,0.0-163.0,,1.0,1165.985,1.0,0.745504295,1.0,0.75,1.0,0.452379914,1.0,0.50131194,False,,5a048d21df3fa800015c33a1,,2078827,161,,evan-feature22,full_pf_a,,1
135,22628,162,,,,2,2,0.0,1.0,0.0,-1.0,,0.0-164.0,,-1.0,1147.73,1.0,0.728513874,1.0,0.75,0.0,0.44125567200000004,1.0,0.531454591,False,,5a048d21df3fa800015c33a1,,2089765,162,,evan-feature22,full_pf_a,,1
136,22629,163,,,,1,1,1.0,1.0,1.0,0.0,,0.0-165.0,,1.0,1977.335,1.0,0.73790804,1.0,0.75,1.0,0.413036656,0.0,0.524619035,False,,5a048d21df3fa800015c33a1,,2101529,163,,evan-feature22,full_pf_a,,1
137,22630,164,,,,1,1,0.0,1.0,1.0,0.0,,0.0-166.0,,0.0,847.97,0.0,0.7080961309999999,1.0,0.708666865,1.0,0.431915581,1.0,0.481819489,False,,5a048d21df3fa800015c33a1,,2112169,164,,evan-feature22,full_pf_a,,0
138,22631,165,,,,2,2,1.0,0.0,1.0,0.0,,0.0-167.0,,1.0,504.49999979999996,0.0,0.721378003,1.0,0.71605913,1.0,0.36642387,0.0,0.5036739929999999,False,,5a048d21df3fa800015c33a1,,2122466,165,,evan-feature22,full_pf_a,,1
139,22632,166,,,,2,2,0.0,1.0,0.0,-1.0,,0.0-168.0,,-1.0,1606.63,0.0,0.7340618959999999,1.0,0.699323252,0.0,0.35298046299999997,1.0,0.511241692,False,,5a048d21df3fa800015c33a1,,2133881,166,,evan-feature22,full_pf_a,,0
140,22633,167,,,,2,2,0.0,0.0,0.0,-1.0,,0.0-169.0,,0.0,518.925,1.0,0.75,0.0,0.70412698,0.0,0.380734814,0.0,0.529580116,False,,5a048d21df3fa800015c33a1,,2144181,167,,evan-feature22,full_pf_a,,0
141,22634,168,,,,2,2,0.0,1.0,0.0,-1.0,,0.0-170.0,,-1.0,731.3000001,1.0,0.7436654909999999,1.0,0.711182751,0.0,0.41125331,1.0,0.49554405,False,,5a048d21df3fa800015c33a1,,2154723,168,,evan-feature22,full_pf_a,,0
142,22635,169,,,,1,1,0.0,0.0,1.0,0.0,,0.0-171.0,,0.0,1199.345,0.0,0.731607915,0.0,0.651774583,0.0,0.35688023,1.0,0.45194491600000003,False,,5a048d21df3fa800015c33a1,,2165717,169,,evan-feature22,full_pf_a,,1
143,22636,170,,,,1,1,0.0,1.0,0.0,-1.0,,0.0-172.0,,-1.0,1885.255,0.0,0.75,1.0,0.75,1.0,0.283145374,1.0,0.528608005,False,,5a048d21df3fa800015c33a1,,2177406,170,,evan-feature22,full_pf_a,,0
144,22637,171,,,,2,2,0.0,1.0,1.0,0.0,,0.0-173.0,,0.0,767.215,0.0,0.7491416890000001,1.0,0.7423785959999999,0.0,0.29135870399999997,1.0,0.498888318,False,,5a048d21df3fa800015c33a1,,2187957,171,,evan-feature22,full_pf_a,,1
145,22638,172,,,,1,1,1.0,1.0,0.0,-1.0,,0.0-174.0,,-1.0,1224.405,1.0,0.708569387,1.0,0.717682277,0.0,0.294421699,0.0,0.493838163,False,,5a048d21df3fa800015c33a1,,2198963,172,,evan-feature22,full_pf_a,,1
146,22639,173,,,,1,1,1.0,0.0,1.0,0.0,,0.0-175.0,,1.0,1129.79,1.0,0.75,0.0,0.7383382159999999,1.0,0.356098707,0.0,0.442533405,False,,5a048d21df3fa800015c33a1,,2209880,173,,evan-feature22,full_pf_a,,0
147,22640,174,,,,1,1,1.0,1.0,1.0,0.0,,0.0-176.0,,1.0,687.9199999,1.0,0.744527075,1.0,0.75,0.0,0.334127506,1.0,0.393165805,False,,5a048d21df3fa800015c33a1,,2220367,174,,evan-feature22,full_pf_a,,0
148,22641,175,,,,1,1,1.0,0.0,1.0,0.0,,0.0-177.0,,1.0,535.075,1.0,0.75,0.0,0.75,0.0,0.33571021799999995,1.0,0.350393962,False,,5a048d21df3fa800015c33a1,,2230702,175,,evan-feature22,full_pf_a,,0
149,22642,176,,,,1,1,1.0,1.0,0.0,-1.0,,0.0-178.0,,-1.0,1183.91,1.0,0.75,1.0,0.75,0.0,0.313628297,1.0,0.36349657399999996,False,,5a048d21df3fa800015c33a1,,2241671,176,,evan-feature22,full_pf_a,,0
150,22643,177,,,,1,1,0.0,1.0,1.0,0.0,,0.0-179.0,,0.0,544.485,0.0,0.75,1.0,0.734284182,0.0,0.262667667,0.0,0.380199119,False,,5a048d21df3fa800015c33a1,,2252008,177,,evan-feature22,full_pf_a,,0
151,22644,178,,,,1,1,0.0,1.0,1.0,0.0,,0.0-180.0,,0.0,611.5349997000001,0.0,0.75,1.0,0.75,1.0,0.25,1.0,0.394494013,False,,5a048d21df3fa800015c33a1,,2262402,178,,evan-feature22,full_pf_a,,0
152,22645,179,,,,2,2,1.0,0.0,1.0,0.0,,0.0-181.0,,1.0,532.865,0.0,0.722298145,1.0,0.7357822340000001,1.0,0.25,0.0,0.319142121,False,,5a048d21df3fa800015c33a1,,2272740,179,,evan-feature22,full_pf_a,,1
153,22646,180,,,,2,2,1.0,0.0,1.0,0.0,,0.0-182.0,,1.0,1432.985,1.0,0.73149275,1.0,0.724276446,1.0,0.305856907,0.0,0.281315057,False,,5a048d21df3fa800015c33a1,,2283982,180,,evan-feature22,full_pf_a,,0
154,22647,181,,,,2,2,0.0,1.0,1.0,0.0,,0.0-183.0,,0.0,640.3199998,1.0,0.7458732690000001,0.0,0.7336382459999999,0.0,0.272571964,1.0,0.266021999,False,,5a048d21df3fa800015c33a1,,2294435,181,,evan-feature22,full_pf_a,,0
155,22648,182,,,,2,2,0.0,0.0,0.0,-1.0,,0.0-184.0,,0.0,2352.325,1.0,0.705579037,0.0,0.720778292,0.0,0.320238144,0.0,0.30971744,False,,5a048d21df3fa800015c33a1,,2306596,182,,evan-feature22,full_pf_a,,0
156,22649,183,,,,2,2,1.0,0.0,0.0,-1.0,,0.0-185.0,,0.0,569.8350002000001,1.0,0.700425648,1.0,0.7198784009999999,1.0,0.272590393,0.0,0.304182931,False,,5a048d21df3fa800015c33a1,,2316976,183,,evan-feature22,full_pf_a,,0
157,22650,184,,,,2,2,0.0,1.0,0.0,-1.0,,0.0-186.0,,-1.0,498.15499969999996,1.0,0.735590785,0.0,0.722714973,0.0,0.25,1.0,0.323421091,False,,5a048d21df3fa800015c33a1,,2327297,184,,evan-feature22,full_pf_a,,0
158,22651,185,,,,1,1,1.0,1.0,0.0,-1.0,,0.0-187.0,,-1.0,631.2000002,1.0,0.724807662,1.0,0.63146213,0.0,0.36836492600000004,0.0,0.34592153299999995,False,,5a048d21df3fa800015c33a1,,2337740,185,,evan-feature22,full_pf_a,,1
159,22652,186,,,,2,2,0.0,0.0,1.0,0.0,,0.0-188.0,,0.0,494.29500010000004,1.0,0.7352796909999999,1.0,0.555111392,0.0,0.36003922,0.0,0.31433779999999995,False,,5a048d21df3fa800015c33a1,,2348047,186,,evan-feature22,full_pf_a,,1
160,22653,187,notice,,,,,,,,,,0.0-189.0,"{""Q0"":""No""}",,8415.0,,,,,,,,,False,,5a048d21df3fa800015c33a1,,2356470,187,Q,survey-text,full_pf_a,,1
161,22654,188,track1,,[1],,,,,,,,0.0-190.0,"{""Q0"":""no""}",,4807.0,,,,,,,,,False,,5a048d21df3fa800015c33a1,,2361285,188,Q,evan-quiz,full_pf_a,,1
162,22655,189,track2,,[1],,,,,,,,0.0-191.0,"{""Q0"":""no""}",,10578.0,,,,,,,,,False,,5a048d21df3fa800015c33a1,,2371867,189,Q,evan-quiz,full_pf_a,,1
163,22656,190,strat,,,,,,,,,,0.0-192.0,"{""Q0"":""tried to follow the frequency of individual appearances & combinations""}",,47164.0,,,,,,,,,False,,5a048d21df3fa800015c33a1,,2419037,190,Q,survey-text,full_pf_a,,1
