,index,Unnamed: 0,Q_name,button_pressed,choice_idxs,chosen_pos,chosen_state,chosen_state_f_1_outcome,chosen_state_f_2_outcome,f_1_reward,f_2_reward,incor_questions,internal_node_id,responses,reward_received,rt,s_1_f_1_outcome,s_1_f_1_prob,s_1_f_2_outcome,s_1_f_2_prob,s_2_f_1_outcome,s_2_f_1_prob,s_2_f_2_outcome,s_2_f_2_prob,safe_first,stimulus,subjectID,success,time_elapsed,trial_index,trial_num,trial_type,version,view_history,switching
0,25974,25,,,,1,1,0.0,1.0,0.0,1.0,,0.0-27.0,,1.0,1924.835,0.0,0.6,1.0,0.6,1.0,0.4,0.0,0.4,True,,5f4d4f3a2059689f1a2c33db,,515560,25,,evan-feature22,full_rf_b,,0
1,25975,26,,,,1,1,0.0,1.0,0.0,1.0,,0.0-28.0,,1.0,710.8649998,0.0,0.608053294,1.0,0.63424552,0.0,0.397152172,1.0,0.347069101,True,,5f4d4f3a2059689f1a2c33db,,526030,26,,evan-feature22,full_rf_b,,0
2,25976,27,,,,1,1,0.0,1.0,0.0,1.0,,0.0-29.0,,1.0,1170.565,0.0,0.642237155,1.0,0.648566321,0.0,0.389407674,0.0,0.285525717,True,,5f4d4f3a2059689f1a2c33db,,536959,27,,evan-feature22,full_rf_b,,0
3,25977,28,,,,1,1,0.0,1.0,0.0,1.0,,0.0-30.0,,1.0,687.0650002,0.0,0.661086576,1.0,0.630492543,1.0,0.399058924,0.0,0.25,True,,5f4d4f3a2059689f1a2c33db,,547406,28,,evan-feature22,full_rf_b,,0
4,25978,29,,,,1,1,1.0,0.0,0.0,1.0,,0.0-31.0,,0.0,909.0450001,1.0,0.631324137,0.0,0.6269842929999999,0.0,0.38734784299999997,1.0,0.25,True,,5f4d4f3a2059689f1a2c33db,,558072,29,,evan-feature22,full_rf_b,,0
5,25979,30,,,,1,1,0.0,1.0,0.0,1.0,,0.0-32.0,,1.0,704.8049998,0.0,0.6381991370000001,1.0,0.68987999,0.0,0.384107265,0.0,0.271332943,True,,5f4d4f3a2059689f1a2c33db,,568538,30,,evan-feature22,full_rf_b,,0
6,25980,31,,,,2,2,1.0,0.0,0.0,1.0,,0.0-33.0,,0.0,556.8550001,1.0,0.66034901,1.0,0.742641349,1.0,0.360225629,0.0,0.25,True,,5f4d4f3a2059689f1a2c33db,,578854,31,,evan-feature22,full_rf_b,,1
7,25981,32,,,,1,1,1.0,1.0,-1.0,0.0,,0.0-34.0,,-1.0,1373.045,1.0,0.638612418,1.0,0.75,0.0,0.367273939,1.0,0.25,True,,5f4d4f3a2059689f1a2c33db,,589986,32,,evan-feature22,full_rf_b,,1
8,25982,33,,,,1,1,1.0,1.0,0.0,1.0,,0.0-35.0,,1.0,1092.595,1.0,0.624340629,1.0,0.75,0.0,0.425829545,0.0,0.25,True,,5f4d4f3a2059689f1a2c33db,,600838,33,,evan-feature22,full_rf_b,,0
9,25983,34,,,,1,1,1.0,0.0,0.0,1.0,,0.0-36.0,,0.0,899.1100001,1.0,0.621999804,0.0,0.75,0.0,0.368609357,0.0,0.25,True,,5f4d4f3a2059689f1a2c33db,,611495,34,,evan-feature22,full_rf_b,,0
10,25984,35,,,,1,1,1.0,0.0,-1.0,0.0,,0.0-37.0,,-1.0,1915.755,1.0,0.62666403,0.0,0.75,0.0,0.311151498,0.0,0.25,True,,5f4d4f3a2059689f1a2c33db,,623169,35,,evan-feature22,full_rf_b,,0
11,25985,36,,,,2,2,0.0,0.0,-1.0,0.0,,0.0-38.0,,0.0,1213.66,1.0,0.6819650009999999,1.0,0.75,0.0,0.310763048,0.0,0.25,True,,5f4d4f3a2059689f1a2c33db,,634143,36,,evan-feature22,full_rf_b,,1
12,25986,37,,,,1,1,1.0,0.0,0.0,1.0,,0.0-39.0,,0.0,705.7449999,1.0,0.740626951,0.0,0.75,1.0,0.25,0.0,0.25,True,,5f4d4f3a2059689f1a2c33db,,644608,37,,evan-feature22,full_rf_b,,1
13,25987,38,,,,1,1,1.0,1.0,0.0,1.0,,0.0-40.0,,1.0,1432.74,1.0,0.739599242,1.0,0.742034978,0.0,0.25397114600000004,1.0,0.25,True,,5f4d4f3a2059689f1a2c33db,,655800,38,,evan-feature22,full_rf_b,,0
14,25988,39,,,,1,1,1.0,1.0,0.0,1.0,,0.0-41.0,,1.0,846.2399998999999,1.0,0.732341315,1.0,0.72735643,1.0,0.25,0.0,0.25,True,,5f4d4f3a2059689f1a2c33db,,666404,39,,evan-feature22,full_rf_b,,0
15,25989,40,,,,1,1,1.0,1.0,0.0,1.0,,0.0-42.0,,1.0,720.4849998999999,1.0,0.7062287770000001,1.0,0.75,0.0,0.29002151,0.0,0.288256649,True,,5f4d4f3a2059689f1a2c33db,,676882,40,,evan-feature22,full_rf_b,,0
16,25990,41,,,,1,1,1.0,0.0,-1.0,0.0,,0.0-43.0,,-1.0,1599.53,1.0,0.7086029209999999,0.0,0.75,0.0,0.274129113,0.0,0.262851608,True,,5f4d4f3a2059689f1a2c33db,,688241,41,,evan-feature22,full_rf_b,,0
17,25991,42,,,,1,1,0.0,1.0,0.0,1.0,,0.0-44.0,,1.0,786.605,0.0,0.669189651,1.0,0.727614338,1.0,0.298444036,0.0,0.296944518,True,,5f4d4f3a2059689f1a2c33db,,698788,42,,evan-feature22,full_rf_b,,0
18,25992,43,,,,2,2,0.0,0.0,-1.0,0.0,,0.0-45.0,,0.0,777.4750004,1.0,0.6819912929999999,1.0,0.7179434290000001,0.0,0.265003961,0.0,0.28157921199999997,True,,5f4d4f3a2059689f1a2c33db,,709323,43,,evan-feature22,full_rf_b,,1
19,25993,44,,,,2,2,0.0,0.0,-1.0,0.0,,0.0-46.0,,0.0,822.5199999,1.0,0.665275002,0.0,0.723065271,0.0,0.260414971,0.0,0.30973870000000003,True,,5f4d4f3a2059689f1a2c33db,,719905,44,,evan-feature22,full_rf_b,,0
20,25994,45,,,,1,1,1.0,1.0,0.0,1.0,,0.0-47.0,,1.0,734.9149999,1.0,0.6660593260000001,1.0,0.728032907,1.0,0.30922817,0.0,0.338778608,True,,5f4d4f3a2059689f1a2c33db,,730400,45,,evan-feature22,full_rf_b,,1
21,25995,46,,,,1,1,1.0,0.0,0.0,1.0,,0.0-48.0,,0.0,1043.32,1.0,0.702068785,0.0,0.6528750879999999,0.0,0.287329608,1.0,0.35789613200000003,True,,5f4d4f3a2059689f1a2c33db,,741229,46,,evan-feature22,full_rf_b,,0
22,25996,47,,,,2,2,1.0,0.0,0.0,1.0,,0.0-49.0,,0.0,2024.695,1.0,0.651939787,1.0,0.636725589,1.0,0.284834488,0.0,0.358563756,True,,5f4d4f3a2059689f1a2c33db,,753029,47,,evan-feature22,full_rf_b,,1
23,25997,48,,,,2,2,0.0,1.0,0.0,1.0,,0.0-50.0,,1.0,2037.535,0.0,0.67573929,1.0,0.612550049,0.0,0.37130387600000003,1.0,0.383542402,True,,5f4d4f3a2059689f1a2c33db,,764854,48,,evan-feature22,full_rf_b,,0
24,25998,49,,,,2,2,0.0,0.0,0.0,1.0,,0.0-51.0,,0.0,1054.68,1.0,0.620753801,0.0,0.60513644,0.0,0.385529434,0.0,0.340361743,True,,5f4d4f3a2059689f1a2c33db,,775713,49,,evan-feature22,full_rf_b,,0
25,25999,50,,,,2,2,0.0,1.0,-1.0,0.0,,0.0-52.0,,0.0,685.61,1.0,0.673564893,1.0,0.672437924,0.0,0.292955382,1.0,0.337633795,True,,5f4d4f3a2059689f1a2c33db,,786181,50,,evan-feature22,full_rf_b,,0
26,26000,51,,,,1,1,1.0,1.0,0.0,1.0,,0.0-53.0,,1.0,1202.565,1.0,0.6749427,1.0,0.724197502,0.0,0.32391132100000003,0.0,0.350995264,True,,5f4d4f3a2059689f1a2c33db,,797153,51,,evan-feature22,full_rf_b,,1
27,26001,52,,,,1,1,1.0,1.0,0.0,1.0,,0.0-54.0,,1.0,739.54,1.0,0.6940159379999999,1.0,0.75,1.0,0.31710554399999996,1.0,0.413450341,True,,5f4d4f3a2059689f1a2c33db,,807684,52,,evan-feature22,full_rf_b,,0
28,26002,53,,,,1,1,1.0,0.0,0.0,1.0,,0.0-55.0,,0.0,781.0799996000001,1.0,0.6916018270000001,0.0,0.69001187,1.0,0.261817804,0.0,0.40038635,True,,5f4d4f3a2059689f1a2c33db,,818275,53,,evan-feature22,full_rf_b,,0
29,26003,54,,,,2,2,0.0,1.0,0.0,1.0,,0.0-56.0,,1.0,855.4699998,1.0,0.641061544,1.0,0.71337992,0.0,0.277296461,1.0,0.47372791700000005,True,,5f4d4f3a2059689f1a2c33db,,828917,54,,evan-feature22,full_rf_b,,1
30,26004,55,,,,2,2,0.0,0.0,0.0,1.0,,0.0-57.0,,0.0,1044.56,0.0,0.6082438520000001,0.0,0.708471106,0.0,0.28745137,0.0,0.564174476,True,,5f4d4f3a2059689f1a2c33db,,839745,55,,evan-feature22,full_rf_b,,0
31,26005,56,,,,2,2,0.0,0.0,-1.0,0.0,,0.0-58.0,,0.0,828.5699999,1.0,0.6051112120000001,0.0,0.7118147229999999,0.0,0.272390611,0.0,0.5595149939999999,True,,5f4d4f3a2059689f1a2c33db,,850371,56,,evan-feature22,full_rf_b,,0
32,26006,57,,,,2,2,0.0,1.0,-1.0,0.0,,0.0-59.0,,0.0,548.9449999,0.0,0.582420852,1.0,0.635867583,0.0,0.31089574,1.0,0.5227206520000001,True,,5f4d4f3a2059689f1a2c33db,,860704,57,,evan-feature22,full_rf_b,,0
33,26007,58,,,,2,2,0.0,1.0,-1.0,0.0,,0.0-60.0,,0.0,636.6149997,0.0,0.623195575,1.0,0.655026044,0.0,0.25,1.0,0.560387538,True,,5f4d4f3a2059689f1a2c33db,,871168,58,,evan-feature22,full_rf_b,,0
34,26008,59,,,,1,1,1.0,1.0,0.0,1.0,,0.0-61.0,,1.0,969.755,1.0,0.601889598,1.0,0.678198724,0.0,0.25,1.0,0.559922936,True,,5f4d4f3a2059689f1a2c33db,,881980,59,,evan-feature22,full_rf_b,,1
35,26009,60,,,,2,2,0.0,1.0,-1.0,0.0,,0.0-62.0,,0.0,797.52,1.0,0.601259914,1.0,0.704681482,0.0,0.33908969299999997,1.0,0.505003715,True,,5f4d4f3a2059689f1a2c33db,,892543,60,,evan-feature22,full_rf_b,,1
36,26010,61,,,,2,2,0.0,0.0,-1.0,0.0,,0.0-63.0,,0.0,764.2000001,1.0,0.59645454,0.0,0.710437172,0.0,0.327441879,0.0,0.391749613,True,,5f4d4f3a2059689f1a2c33db,,903105,61,,evan-feature22,full_rf_b,,0
37,26011,62,,,,1,1,1.0,1.0,0.0,1.0,,0.0-64.0,,1.0,586.385,1.0,0.529473,1.0,0.636758527,1.0,0.301338063,0.0,0.365661481,True,,5f4d4f3a2059689f1a2c33db,,913480,62,,evan-feature22,full_rf_b,,1
38,26012,63,,,,2,2,0.0,1.0,-1.0,0.0,,0.0-65.0,,0.0,566.9,1.0,0.541657162,0.0,0.634541962,0.0,0.343535366,1.0,0.371763742,True,,5f4d4f3a2059689f1a2c33db,,923855,63,,evan-feature22,full_rf_b,,1
39,26013,64,,,,2,2,0.0,0.0,-1.0,0.0,,0.0-66.0,,0.0,676.3200001,0.0,0.5707533260000001,1.0,0.589121171,0.0,0.326428396,0.0,0.43961622899999997,True,,5f4d4f3a2059689f1a2c33db,,934306,64,,evan-feature22,full_rf_b,,0
40,26014,65,,,,1,1,1.0,1.0,0.0,1.0,,0.0-67.0,,1.0,678.9550004,1.0,0.5707533260000001,1.0,0.589121171,1.0,0.326428396,1.0,0.43961622899999997,True,,5f4d4f3a2059689f1a2c33db,,944792,65,,evan-feature22,full_rf_b,,1
41,26015,66,,,,1,1,0.0,1.0,0.0,1.0,,0.0-68.0,,1.0,750.1949999,0.0,0.506271295,1.0,0.641775594,0.0,0.37149690700000004,1.0,0.404330166,True,,5f4d4f3a2059689f1a2c33db,,955323,66,,evan-feature22,full_rf_b,,0
42,26016,67,,,,2,2,0.0,0.0,-1.0,0.0,,0.0-69.0,,0.0,1519.8,1.0,0.455642565,0.0,0.623605825,0.0,0.358753011,0.0,0.346174041,True,,5f4d4f3a2059689f1a2c33db,,966635,67,,evan-feature22,full_rf_b,,1
43,26017,68,,,,1,1,0.0,1.0,0.0,1.0,,0.0-70.0,,1.0,1122.555,0.0,0.483677308,1.0,0.5904681070000001,0.0,0.402218411,0.0,0.35344697,True,,5f4d4f3a2059689f1a2c33db,,977573,68,,evan-feature22,full_rf_b,,1
44,26018,69,,,,2,2,0.0,0.0,-1.0,0.0,,0.0-71.0,,0.0,1092.77,0.0,0.394210977,0.0,0.558925494,0.0,0.540052017,0.0,0.35182128700000004,True,,5f4d4f3a2059689f1a2c33db,,988463,69,,evan-feature22,full_rf_b,,1
45,26019,70,,,,1,1,0.0,1.0,0.0,1.0,,0.0-72.0,,1.0,1077.095,0.0,0.382300414,1.0,0.577670603,0.0,0.607608448,1.0,0.378261578,True,,5f4d4f3a2059689f1a2c33db,,999322,70,,evan-feature22,full_rf_b,,1
46,26020,71,,,,2,2,1.0,0.0,-1.0,0.0,,0.0-73.0,,-1.0,850.4949999,0.0,0.357596762,1.0,0.5929076529999999,1.0,0.6579790010000001,0.0,0.401326777,True,,5f4d4f3a2059689f1a2c33db,,1009962,71,,evan-feature22,full_rf_b,,1
47,26021,72,,,,1,1,0.0,0.0,0.0,1.0,,0.0-74.0,,0.0,1341.49,0.0,0.362033495,0.0,0.582308608,0.0,0.649195052,0.0,0.355158505,True,,5f4d4f3a2059689f1a2c33db,,1021089,72,,evan-feature22,full_rf_b,,1
48,26022,73,,,,2,2,1.0,1.0,0.0,1.0,,0.0-75.0,,1.0,1289.215,0.0,0.369620635,1.0,0.669100864,1.0,0.706059111,1.0,0.362516241,True,,5f4d4f3a2059689f1a2c33db,,1032166,73,,evan-feature22,full_rf_b,,1
49,26023,74,,,,2,2,1.0,0.0,0.0,1.0,,0.0-76.0,,0.0,1103.455,0.0,0.41477751399999996,0.0,0.7284416779999999,1.0,0.7182656940000001,0.0,0.36228040899999997,True,,5f4d4f3a2059689f1a2c33db,,1043072,74,,evan-feature22,full_rf_b,,0
50,26024,75,,,,1,1,1.0,0.0,-1.0,0.0,,0.0-77.0,,-1.0,1553.915,1.0,0.37675460299999997,0.0,0.703250285,1.0,0.75,1.0,0.461979164,True,,5f4d4f3a2059689f1a2c33db,,1054416,75,,evan-feature22,full_rf_b,,1
51,26025,76,,,,1,1,1.0,1.0,-1.0,0.0,,0.0-78.0,,-1.0,1651.21,1.0,0.398716075,1.0,0.6723864890000001,1.0,0.674153818,1.0,0.519029516,True,,5f4d4f3a2059689f1a2c33db,,1065868,76,,evan-feature22,full_rf_b,,0
52,26026,77,,,,2,2,0.0,0.0,-1.0,0.0,,0.0-79.0,,0.0,979.5949999,1.0,0.34677856700000004,1.0,0.69057175,0.0,0.6822438540000001,0.0,0.477292237,True,,5f4d4f3a2059689f1a2c33db,,1076651,77,,evan-feature22,full_rf_b,,1
53,26027,78,,,,2,2,1.0,0.0,0.0,1.0,,0.0-80.0,,0.0,1079.065,0.0,0.28580469199999997,1.0,0.68408818,1.0,0.684207565,0.0,0.49780448299999996,True,,5f4d4f3a2059689f1a2c33db,,1087542,78,,evan-feature22,full_rf_b,,0
54,26029,80,,,,1,1,0.0,1.0,0.0,1.0,,0.0-82.0,,1.0,987.3349997000001,0.0,0.25,1.0,0.7405808970000001,1.0,0.679614108,0.0,0.436436964,True,,5f4d4f3a2059689f1a2c33db,,1185526,80,,evan-feature22,full_rf_b,,1
55,26030,81,,,,1,1,1.0,1.0,0.0,1.0,,0.0-83.0,,1.0,570.8699999,1.0,0.29890393,1.0,0.730505706,1.0,0.7328203320000001,0.0,0.439256938,True,,5f4d4f3a2059689f1a2c33db,,1195869,81,,evan-feature22,full_rf_b,,0
56,26031,82,,,,2,2,1.0,1.0,-1.0,0.0,,0.0-84.0,,-1.0,951.2699995999999,0.0,0.326762398,0.0,0.7148059609999999,1.0,0.75,1.0,0.44389608799999997,True,,5f4d4f3a2059689f1a2c33db,,1206592,82,,evan-feature22,full_rf_b,,1
57,26032,83,,,,1,1,0.0,1.0,0.0,1.0,,0.0-85.0,,1.0,1087.66,0.0,0.295168515,1.0,0.739760854,0.0,0.719947008,0.0,0.35277284600000003,True,,5f4d4f3a2059689f1a2c33db,,1217493,83,,evan-feature22,full_rf_b,,1
58,26033,84,,,,1,1,0.0,0.0,0.0,1.0,,0.0-86.0,,0.0,1041.25,0.0,0.25,0.0,0.70781482,1.0,0.75,0.0,0.286095925,True,,5f4d4f3a2059689f1a2c33db,,1228338,84,,evan-feature22,full_rf_b,,0
59,26034,85,,,,1,1,1.0,1.0,0.0,1.0,,0.0-87.0,,1.0,1052.99,1.0,0.25638190899999996,1.0,0.704088163,1.0,0.75,0.0,0.26872601399999996,True,,5f4d4f3a2059689f1a2c33db,,1239170,85,,evan-feature22,full_rf_b,,0
60,26035,86,,,,1,1,1.0,1.0,-1.0,0.0,,0.0-88.0,,-1.0,1650.975,1.0,0.271581126,1.0,0.669760107,0.0,0.733896663,0.0,0.273244572,True,,5f4d4f3a2059689f1a2c33db,,1250619,86,,evan-feature22,full_rf_b,,0
61,26036,87,,,,1,1,0.0,1.0,0.0,1.0,,0.0-89.0,,1.0,832.5100001000001,0.0,0.257144401,1.0,0.600575706,1.0,0.74488122,0.0,0.25,True,,5f4d4f3a2059689f1a2c33db,,1261245,87,,evan-feature22,full_rf_b,,0
62,26037,88,,,,1,1,0.0,1.0,0.0,1.0,,0.0-90.0,,1.0,686.9899998,0.0,0.25,1.0,0.616870026,1.0,0.723610234,1.0,0.25,True,,5f4d4f3a2059689f1a2c33db,,1271701,88,,evan-feature22,full_rf_b,,0
63,26038,89,,,,2,2,1.0,0.0,-1.0,0.0,,0.0-91.0,,-1.0,980.8650002999999,0.0,0.25,0.0,0.583540187,1.0,0.7041042559999999,0.0,0.285961995,True,,5f4d4f3a2059689f1a2c33db,,1282479,89,,evan-feature22,full_rf_b,,1
64,26039,90,,,,2,2,1.0,0.0,-1.0,0.0,,0.0-92.0,,-1.0,1211.76,0.0,0.27254536,1.0,0.53875765,1.0,0.693783448,0.0,0.284961652,True,,5f4d4f3a2059689f1a2c33db,,1293479,90,,evan-feature22,full_rf_b,,0
65,26040,91,,,,1,1,0.0,1.0,-1.0,0.0,,0.0-93.0,,0.0,1078.595,0.0,0.25,1.0,0.548431252,1.0,0.734221895,0.0,0.279445214,True,,5f4d4f3a2059689f1a2c33db,,1304354,91,,evan-feature22,full_rf_b,,1
66,26041,92,,,,1,1,1.0,1.0,0.0,1.0,,0.0-94.0,,1.0,936.7300002000001,1.0,0.258640684,1.0,0.545878066,1.0,0.725245965,0.0,0.31487537,True,,5f4d4f3a2059689f1a2c33db,,1315088,92,,evan-feature22,full_rf_b,,0
67,26042,93,,,,1,1,0.0,1.0,0.0,1.0,,0.0-95.0,,1.0,931.8200001,0.0,0.251103711,1.0,0.5776290629999999,1.0,0.696320133,0.0,0.317831047,True,,5f4d4f3a2059689f1a2c33db,,1325807,93,,evan-feature22,full_rf_b,,0
68,26043,94,,,,2,2,1.0,1.0,0.0,1.0,,0.0-96.0,,1.0,848.9549998,0.0,0.276630292,0.0,0.617329858,1.0,0.73838088,1.0,0.261471582,True,,5f4d4f3a2059689f1a2c33db,,1336463,94,,evan-feature22,full_rf_b,,1
69,26044,95,,,,1,1,0.0,0.0,0.0,1.0,,0.0-97.0,,0.0,836.3649998999999,0.0,0.297716424,0.0,0.618863717,1.0,0.7402358259999999,1.0,0.262600834,True,,5f4d4f3a2059689f1a2c33db,,1347073,95,,evan-feature22,full_rf_b,,1
70,26045,96,,,,1,1,1.0,0.0,-1.0,0.0,,0.0-98.0,,-1.0,785.6100001,1.0,0.290935512,0.0,0.695370945,1.0,0.706570507,0.0,0.280030553,True,,5f4d4f3a2059689f1a2c33db,,1357628,96,,evan-feature22,full_rf_b,,0
71,26046,97,,,,1,1,0.0,0.0,0.0,1.0,,0.0-99.0,,0.0,1130.055,0.0,0.25,0.0,0.6465277079999999,1.0,0.67766682,1.0,0.25,True,,5f4d4f3a2059689f1a2c33db,,1368557,97,,evan-feature22,full_rf_b,,0
72,26047,98,,,,1,1,0.0,0.0,-1.0,0.0,,0.0-100.0,,0.0,859.3700002,0.0,0.26463816,0.0,0.636100213,1.0,0.646048507,0.0,0.265607101,True,,5f4d4f3a2059689f1a2c33db,,1379214,98,,evan-feature22,full_rf_b,,0
73,26048,99,,,,1,1,0.0,1.0,-1.0,0.0,,0.0-101.0,,0.0,1049.435,0.0,0.314340707,1.0,0.667795927,0.0,0.613630805,1.0,0.25,True,,5f4d4f3a2059689f1a2c33db,,1390072,99,,evan-feature22,full_rf_b,,0
74,26049,100,,,,1,1,0.0,1.0,0.0,1.0,,0.0-102.0,,1.0,1054.64,0.0,0.28685784,1.0,0.6622549529999999,1.0,0.652154117,0.0,0.25,True,,5f4d4f3a2059689f1a2c33db,,1400903,100,,evan-feature22,full_rf_b,,0
75,26050,101,,,,1,1,1.0,0.0,0.0,1.0,,0.0-103.0,,0.0,823.51,1.0,0.304106554,0.0,0.631289538,0.0,0.707041942,0.0,0.29314237,True,,5f4d4f3a2059689f1a2c33db,,1411525,101,,evan-feature22,full_rf_b,,0
76,26051,102,,,,1,1,1.0,0.0,0.0,1.0,,0.0-104.0,,0.0,1433.98,1.0,0.304806932,0.0,0.571167718,1.0,0.680472346,0.0,0.25,True,,5f4d4f3a2059689f1a2c33db,,1422735,102,,evan-feature22,full_rf_b,,0
77,26052,103,,,,1,1,1.0,1.0,0.0,1.0,,0.0-105.0,,1.0,1023.095,1.0,0.37919861,1.0,0.5724849710000001,1.0,0.705638003,1.0,0.30179300600000003,True,,5f4d4f3a2059689f1a2c33db,,1433572,103,,evan-feature22,full_rf_b,,0
78,26053,104,,,,1,1,1.0,0.0,0.0,1.0,,0.0-106.0,,0.0,743.915,1.0,0.464277969,0.0,0.554034373,1.0,0.7372627340000001,1.0,0.264699741,True,,5f4d4f3a2059689f1a2c33db,,1444104,104,,evan-feature22,full_rf_b,,0
79,26054,105,,,,2,2,1.0,0.0,0.0,1.0,,0.0-107.0,,0.0,903.2600001000001,0.0,0.465104323,0.0,0.530793115,1.0,0.75,0.0,0.31683071,True,,5f4d4f3a2059689f1a2c33db,,1454823,105,,evan-feature22,full_rf_b,,1
80,26055,106,,,,1,1,1.0,0.0,-1.0,0.0,,0.0-108.0,,-1.0,1172.335,1.0,0.465104323,0.0,0.530793115,0.0,0.75,1.0,0.31683071,True,,5f4d4f3a2059689f1a2c33db,,1465791,106,,evan-feature22,full_rf_b,,1
81,26056,107,,,,2,2,1.0,0.0,-1.0,0.0,,0.0-109.0,,-1.0,403.9250002,1.0,0.46833986,1.0,0.570249239,1.0,0.7244472590000001,0.0,0.364114163,True,,5f4d4f3a2059689f1a2c33db,,1475982,107,,evan-feature22,full_rf_b,,1
82,26057,108,,,,2,2,1.0,1.0,-1.0,0.0,,0.0-110.0,,-1.0,906.6400002,0.0,0.445444024,1.0,0.649673355,1.0,0.6845441290000001,1.0,0.300660449,True,,5f4d4f3a2059689f1a2c33db,,1486682,108,,evan-feature22,full_rf_b,,0
83,26058,109,,,,2,2,1.0,1.0,-1.0,0.0,,0.0-111.0,,-1.0,994.835,1.0,0.39909721299999995,0.0,0.6715179509999999,1.0,0.742310028,1.0,0.35496088299999995,True,,5f4d4f3a2059689f1a2c33db,,1497479,109,,evan-feature22,full_rf_b,,0
84,26059,110,,,,1,1,0.0,0.0,0.0,1.0,,0.0-112.0,,0.0,1286.4,0.0,0.37956104799999996,0.0,0.694725302,1.0,0.7181651309999999,1.0,0.38726906299999997,True,,5f4d4f3a2059689f1a2c33db,,1508556,110,,evan-feature22,full_rf_b,,1
85,26060,111,,,,1,1,1.0,0.0,0.0,1.0,,0.0-113.0,,0.0,428.665,1.0,0.404995034,0.0,0.724375412,0.0,0.6910946859999999,1.0,0.387187347,True,,5f4d4f3a2059689f1a2c33db,,1518775,111,,evan-feature22,full_rf_b,,0
86,26061,112,,,,1,1,1.0,1.0,-1.0,0.0,,0.0-114.0,,-1.0,1323.3,1.0,0.461740803,1.0,0.75,1.0,0.75,0.0,0.34872038200000005,True,,5f4d4f3a2059689f1a2c33db,,1529884,112,,evan-feature22,full_rf_b,,0
87,26062,113,,,,1,1,0.0,1.0,-1.0,0.0,,0.0-115.0,,0.0,729.94,0.0,0.43821380600000004,1.0,0.738833273,0.0,0.728286963,0.0,0.399538128,True,,5f4d4f3a2059689f1a2c33db,,1540416,113,,evan-feature22,full_rf_b,,0
88,26063,114,,,,1,1,1.0,0.0,0.0,1.0,,0.0-116.0,,0.0,1112.875,1.0,0.41709882,0.0,0.736666736,1.0,0.75,1.0,0.389095584,True,,5f4d4f3a2059689f1a2c33db,,1551323,114,,evan-feature22,full_rf_b,,0
89,26064,115,,,,2,2,0.0,0.0,0.0,1.0,,0.0-117.0,,0.0,755.2499999,0.0,0.39749009799999996,1.0,0.744320029,0.0,0.75,0.0,0.363848678,True,,5f4d4f3a2059689f1a2c33db,,1561870,115,,evan-feature22,full_rf_b,,1
90,26065,116,,,,1,1,1.0,1.0,-1.0,0.0,,0.0-118.0,,-1.0,1061.51,1.0,0.392653706,1.0,0.75,1.0,0.75,1.0,0.384386976,True,,5f4d4f3a2059689f1a2c33db,,1572745,116,,evan-feature22,full_rf_b,,1
91,26066,117,,,,1,1,1.0,1.0,0.0,1.0,,0.0-119.0,,1.0,1220.81,1.0,0.31190902600000003,1.0,0.75,1.0,0.732413819,0.0,0.413082932,True,,5f4d4f3a2059689f1a2c33db,,1583775,117,,evan-feature22,full_rf_b,,0
92,26067,118,,,,1,1,1.0,1.0,-1.0,0.0,,0.0-120.0,,-1.0,1023.84,1.0,0.366917648,1.0,0.740073855,1.0,0.75,0.0,0.352861979,True,,5f4d4f3a2059689f1a2c33db,,1594620,118,,evan-feature22,full_rf_b,,0
93,26068,119,,,,1,1,0.0,1.0,-1.0,0.0,,0.0-121.0,,0.0,739.1950004,0.0,0.3645172,1.0,0.721770713,1.0,0.75,1.0,0.404074511,True,,5f4d4f3a2059689f1a2c33db,,1605135,119,,evan-feature22,full_rf_b,,0
94,26069,120,,,,1,1,0.0,1.0,-1.0,0.0,,0.0-122.0,,0.0,929.3200001,0.0,0.35205600299999995,1.0,0.68983859,1.0,0.739735447,1.0,0.366895945,True,,5f4d4f3a2059689f1a2c33db,,1615885,120,,evan-feature22,full_rf_b,,0
95,26070,121,,,,1,1,0.0,0.0,-1.0,0.0,,0.0-123.0,,0.0,766.725,0.0,0.40998722600000004,0.0,0.720859127,1.0,0.673854955,0.0,0.368528541,True,,5f4d4f3a2059689f1a2c33db,,1626464,121,,evan-feature22,full_rf_b,,0
96,26071,122,,,,1,1,0.0,0.0,-1.0,0.0,,0.0-124.0,,0.0,754.5500002,0.0,0.353625316,0.0,0.75,1.0,0.695605473,0.0,0.38303674200000004,True,,5f4d4f3a2059689f1a2c33db,,1637011,122,,evan-feature22,full_rf_b,,0
97,26072,123,,,,1,1,1.0,0.0,-1.0,0.0,,0.0-125.0,,-1.0,931.6199999,1.0,0.359216989,0.0,0.75,1.0,0.6987915090000001,0.0,0.35169046200000004,True,,5f4d4f3a2059689f1a2c33db,,1647744,123,,evan-feature22,full_rf_b,,0
98,26073,124,,,,1,1,0.0,1.0,-1.0,0.0,,0.0-126.0,,0.0,1613.79,0.0,0.35834496899999996,1.0,0.75,1.0,0.707067742,0.0,0.416763636,True,,5f4d4f3a2059689f1a2c33db,,1659136,124,,evan-feature22,full_rf_b,,0
99,26074,125,,,,1,1,0.0,1.0,0.0,1.0,,0.0-127.0,,1.0,1525.595,0.0,0.38741613799999997,1.0,0.7177369570000001,1.0,0.734902455,1.0,0.49438664299999996,True,,5f4d4f3a2059689f1a2c33db,,1670464,125,,evan-feature22,full_rf_b,,0
100,26075,126,,,,1,1,0.0,1.0,-1.0,0.0,,0.0-128.0,,0.0,868.485,0.0,0.405255252,1.0,0.7300466640000001,1.0,0.7027748070000001,1.0,0.504359668,True,,5f4d4f3a2059689f1a2c33db,,1681136,126,,evan-feature22,full_rf_b,,0
101,26076,127,,,,1,1,0.0,1.0,-1.0,0.0,,0.0-129.0,,0.0,918.0400004,0.0,0.40697073,1.0,0.7260142190000001,1.0,0.724461982,0.0,0.522779179,True,,5f4d4f3a2059689f1a2c33db,,1691854,127,,evan-feature22,full_rf_b,,0
102,26077,128,,,,1,1,0.0,1.0,-1.0,0.0,,0.0-130.0,,0.0,881.18,0.0,0.43906215299999996,1.0,0.7252802340000001,1.0,0.719079934,1.0,0.5712990579999999,True,,5f4d4f3a2059689f1a2c33db,,1702542,128,,evan-feature22,full_rf_b,,0
103,26078,129,,,,1,1,1.0,1.0,0.0,1.0,,0.0-131.0,,1.0,957.345,1.0,0.4076705,1.0,0.73280499,1.0,0.681313127,0.0,0.523891346,True,,5f4d4f3a2059689f1a2c33db,,1713307,129,,evan-feature22,full_rf_b,,0
104,26079,130,,,,1,1,1.0,1.0,0.0,1.0,,0.0-132.0,,1.0,433.26999989999996,1.0,0.399102911,1.0,0.730498344,1.0,0.661080239,1.0,0.46742603,True,,5f4d4f3a2059689f1a2c33db,,1723540,130,,evan-feature22,full_rf_b,,0
105,26080,131,,,,1,1,0.0,1.0,0.0,1.0,,0.0-133.0,,1.0,891.5749998,0.0,0.356477282,1.0,0.712296395,0.0,0.641812684,0.0,0.44868414,True,,5f4d4f3a2059689f1a2c33db,,1734228,131,,evan-feature22,full_rf_b,,0
106,26081,132,,,,1,1,0.0,1.0,-1.0,0.0,,0.0-134.0,,0.0,997.9900001,0.0,0.462760722,1.0,0.692349322,0.0,0.700947931,1.0,0.394680266,True,,5f4d4f3a2059689f1a2c33db,,1744997,132,,evan-feature22,full_rf_b,,0
107,26082,133,,,,1,1,0.0,0.0,-1.0,0.0,,0.0-135.0,,0.0,966.9600002999998,0.0,0.422306413,0.0,0.718375916,1.0,0.706340917,0.0,0.367787185,True,,5f4d4f3a2059689f1a2c33db,,1755759,133,,evan-feature22,full_rf_b,,0
108,26084,135,,,,1,1,1.0,1.0,-1.0,0.0,,0.0-137.0,,-1.0,925.7999999,1.0,0.4582233,1.0,0.643834117,1.0,0.75,1.0,0.39615823299999997,True,,5f4d4f3a2059689f1a2c33db,,1769041,135,,evan-feature22,full_rf_b,,0
109,26085,136,,,,1,1,0.0,0.0,-1.0,0.0,,0.0-138.0,,0.0,885.1399999,0.0,0.43813437899999996,0.0,0.651283804,1.0,0.729674191,1.0,0.37711048,True,,5f4d4f3a2059689f1a2c33db,,1779714,136,,evan-feature22,full_rf_b,,0
110,26086,137,,,,1,1,0.0,0.0,-1.0,0.0,,0.0-139.0,,0.0,871.4399999,0.0,0.471199094,0.0,0.6470010979999999,1.0,0.715008097,0.0,0.410656191,True,,5f4d4f3a2059689f1a2c33db,,1790401,137,,evan-feature22,full_rf_b,,0
111,26087,138,,,,1,1,1.0,0.0,-1.0,0.0,,0.0-140.0,,-1.0,712.4300003,1.0,0.42486406,0.0,0.629771829,1.0,0.6550939960000001,1.0,0.459093873,True,,5f4d4f3a2059689f1a2c33db,,1800901,138,,evan-feature22,full_rf_b,,0
112,26088,139,,,,1,1,0.0,1.0,-1.0,0.0,,0.0-141.0,,0.0,833.935,0.0,0.4803197,1.0,0.645842715,1.0,0.6421749920000001,0.0,0.443092151,True,,5f4d4f3a2059689f1a2c33db,,1811525,139,,evan-feature22,full_rf_b,,0
113,26089,140,,,,1,1,1.0,1.0,0.0,1.0,,0.0-142.0,,1.0,1042.84,1.0,0.521848997,1.0,0.735801074,0.0,0.6691348460000001,1.0,0.45259351600000003,True,,5f4d4f3a2059689f1a2c33db,,1822369,140,,evan-feature22,full_rf_b,,0
114,26090,141,,,,1,1,1.0,0.0,-1.0,0.0,,0.0-143.0,,-1.0,932.5049999,1.0,0.49565621299999996,0.0,0.742400847,0.0,0.661512553,1.0,0.483110831,True,,5f4d4f3a2059689f1a2c33db,,1833104,141,,evan-feature22,full_rf_b,,0
115,26091,142,,,,2,2,0.0,1.0,-1.0,0.0,,0.0-144.0,,0.0,887.5350002,0.0,0.521564361,1.0,0.731078632,0.0,0.6774886809999999,1.0,0.483263956,True,,5f4d4f3a2059689f1a2c33db,,1843776,142,,evan-feature22,full_rf_b,,1
116,26092,143,,,,2,2,1.0,1.0,-1.0,0.0,,0.0-145.0,,-1.0,850.2400001,0.0,0.558893102,1.0,0.719810023,1.0,0.67461031,1.0,0.499349834,True,,5f4d4f3a2059689f1a2c33db,,1854386,143,,evan-feature22,full_rf_b,,0
117,26093,144,,,,1,1,1.0,1.0,-1.0,0.0,,0.0-146.0,,-1.0,1111.63,1.0,0.611031046,1.0,0.75,1.0,0.688072995,1.0,0.5321422729999999,True,,5f4d4f3a2059689f1a2c33db,,1865307,144,,evan-feature22,full_rf_b,,1
118,26094,145,,,,1,1,1.0,1.0,0.0,1.0,,0.0-147.0,,1.0,913.1649997999999,1.0,0.633223941,1.0,0.713567728,0.0,0.75,1.0,0.48185314700000004,True,,5f4d4f3a2059689f1a2c33db,,1876026,145,,evan-feature22,full_rf_b,,0
119,26095,146,,,,1,1,1.0,0.0,-1.0,0.0,,0.0-148.0,,-1.0,958.3049999,1.0,0.664001694,0.0,0.705509768,1.0,0.75,1.0,0.500211065,True,,5f4d4f3a2059689f1a2c33db,,1886761,146,,evan-feature22,full_rf_b,,0
120,26096,147,,,,1,1,1.0,1.0,-1.0,0.0,,0.0-149.0,,-1.0,1124.11,1.0,0.664001694,1.0,0.705509768,1.0,0.75,0.0,0.500211065,True,,5f4d4f3a2059689f1a2c33db,,1897692,147,,evan-feature22,full_rf_b,,0
121,26097,148,,,,2,2,0.0,1.0,-1.0,0.0,,0.0-150.0,,0.0,897.4049999,1.0,0.696508041,1.0,0.71066027,0.0,0.717028709,1.0,0.49792991,True,,5f4d4f3a2059689f1a2c33db,,1908386,148,,evan-feature22,full_rf_b,,1
122,26098,149,,,,1,1,1.0,0.0,0.0,1.0,,0.0-151.0,,0.0,1298.645,1.0,0.699883272,0.0,0.75,1.0,0.713543895,1.0,0.496962643,True,,5f4d4f3a2059689f1a2c33db,,1919495,149,,evan-feature22,full_rf_b,,1
123,26099,150,,,,2,2,1.0,1.0,0.0,1.0,,0.0-152.0,,1.0,916.3849995999999,1.0,0.741163419,1.0,0.75,1.0,0.64691024,1.0,0.513858197,True,,5f4d4f3a2059689f1a2c33db,,1930202,150,,evan-feature22,full_rf_b,,1
124,26100,151,,,,2,2,1.0,0.0,0.0,1.0,,0.0-153.0,,0.0,788.5100003,0.0,0.75,1.0,0.70816558,1.0,0.594499079,0.0,0.48502124,True,,5f4d4f3a2059689f1a2c33db,,1940823,151,,evan-feature22,full_rf_b,,0
125,26101,152,,,,2,2,1.0,0.0,-1.0,0.0,,0.0-154.0,,-1.0,901.4949999,0.0,0.75,1.0,0.721848901,1.0,0.62197249,0.0,0.48263586399999997,True,,5f4d4f3a2059689f1a2c33db,,1951511,152,,evan-feature22,full_rf_b,,0
126,26102,153,,,,1,1,1.0,0.0,-1.0,0.0,,0.0-155.0,,-1.0,806.0949999,1.0,0.75,0.0,0.74813071,0.0,0.584357161,0.0,0.411477782,True,,5f4d4f3a2059689f1a2c33db,,1962087,153,,evan-feature22,full_rf_b,,1
127,26103,154,,,,1,1,0.0,0.0,-1.0,0.0,,0.0-156.0,,0.0,914.415,0.0,0.75,0.0,0.75,0.0,0.52287236,1.0,0.488290656,True,,5f4d4f3a2059689f1a2c33db,,1972792,154,,evan-feature22,full_rf_b,,0
128,26104,155,,,,2,2,0.0,0.0,-1.0,0.0,,0.0-157.0,,0.0,875.5350001,1.0,0.75,1.0,0.75,0.0,0.544321581,0.0,0.53143059,True,,5f4d4f3a2059689f1a2c33db,,1983479,155,,evan-feature22,full_rf_b,,1
129,26105,156,,,,1,1,1.0,0.0,-1.0,0.0,,0.0-158.0,,-1.0,1011.815,1.0,0.726754564,0.0,0.75,1.0,0.5129306370000001,0.0,0.530592445,True,,5f4d4f3a2059689f1a2c33db,,1994291,156,,evan-feature22,full_rf_b,,1
130,26106,157,,,,1,1,1.0,1.0,0.0,1.0,,0.0-159.0,,1.0,923.5399999,1.0,0.75,1.0,0.7392590729999999,1.0,0.479875835,1.0,0.547007051,True,,5f4d4f3a2059689f1a2c33db,,2004995,157,,evan-feature22,full_rf_b,,0
131,26107,158,,,,1,1,1.0,1.0,0.0,1.0,,0.0-160.0,,1.0,967.195,1.0,0.75,1.0,0.7393376979999999,1.0,0.546045419,0.0,0.541267353,True,,5f4d4f3a2059689f1a2c33db,,2015739,158,,evan-feature22,full_rf_b,,0
132,26108,159,,,,2,2,1.0,1.0,-1.0,0.0,,0.0-161.0,,-1.0,830.1499997999999,1.0,0.75,1.0,0.75,1.0,0.485725895,1.0,0.527625395,True,,5f4d4f3a2059689f1a2c33db,,2026400,159,,evan-feature22,full_rf_b,,1
133,26109,160,,,,1,1,0.0,1.0,0.0,1.0,,0.0-162.0,,1.0,372.26499989999996,0.0,0.75,1.0,0.725087974,1.0,0.488603595,0.0,0.504019206,True,,5f4d4f3a2059689f1a2c33db,,2036557,160,,evan-feature22,full_rf_b,,1
134,26110,161,,,,2,2,0.0,0.0,-1.0,0.0,,0.0-163.0,,0.0,989.18,1.0,0.745504295,1.0,0.75,0.0,0.452379914,0.0,0.50131194,True,,5f4d4f3a2059689f1a2c33db,,2047323,161,,evan-feature22,full_rf_b,,1
135,26111,162,,,,1,1,1.0,1.0,0.0,1.0,,0.0-164.0,,1.0,714.5099998,1.0,0.728513874,1.0,0.75,1.0,0.44125567200000004,0.0,0.531454591,True,,5f4d4f3a2059689f1a2c33db,,2057838,162,,evan-feature22,full_rf_b,,1
136,26112,163,,,,2,2,0.0,0.0,-1.0,0.0,,0.0-165.0,,0.0,1138.5,1.0,0.73790804,1.0,0.75,0.0,0.413036656,0.0,0.524619035,True,,5f4d4f3a2059689f1a2c33db,,2068760,163,,evan-feature22,full_rf_b,,1
137,26113,164,,,,1,1,1.0,1.0,-1.0,0.0,,0.0-166.0,,-1.0,820.5650002,1.0,0.7080961309999999,1.0,0.708666865,0.0,0.431915581,1.0,0.481819489,True,,5f4d4f3a2059689f1a2c33db,,2079399,164,,evan-feature22,full_rf_b,,1
138,26114,165,,,,2,2,1.0,1.0,-1.0,0.0,,0.0-167.0,,-1.0,1847.805,1.0,0.721378003,1.0,0.71605913,1.0,0.36642387,1.0,0.5036739929999999,True,,5f4d4f3a2059689f1a2c33db,,2091042,165,,evan-feature22,full_rf_b,,1
139,26115,166,,,,1,1,1.0,1.0,0.0,1.0,,0.0-168.0,,1.0,903.8849999,1.0,0.7340618959999999,1.0,0.699323252,1.0,0.35298046299999997,1.0,0.511241692,True,,5f4d4f3a2059689f1a2c33db,,2101720,166,,evan-feature22,full_rf_b,,1
140,26116,167,,,,2,2,0.0,1.0,0.0,1.0,,0.0-169.0,,1.0,983.9349999,1.0,0.75,1.0,0.70412698,0.0,0.380734814,1.0,0.529580116,True,,5f4d4f3a2059689f1a2c33db,,2112494,167,,evan-feature22,full_rf_b,,1
141,26117,168,,,,1,1,1.0,1.0,0.0,1.0,,0.0-170.0,,1.0,1296.275,1.0,0.7436654909999999,1.0,0.711182751,0.0,0.41125331,0.0,0.49554405,True,,5f4d4f3a2059689f1a2c33db,,2123572,168,,evan-feature22,full_rf_b,,1
142,26118,169,,,,2,2,0.0,1.0,-1.0,0.0,,0.0-171.0,,0.0,1461.63,1.0,0.731607915,1.0,0.651774583,0.0,0.35688023,1.0,0.45194491600000003,True,,5f4d4f3a2059689f1a2c33db,,2134840,169,,evan-feature22,full_rf_b,,1
143,26119,170,,,,1,1,1.0,1.0,0.0,1.0,,0.0-172.0,,1.0,1170.02,1.0,0.75,1.0,0.75,0.0,0.283145374,0.0,0.528608005,True,,5f4d4f3a2059689f1a2c33db,,2145838,170,,evan-feature22,full_rf_b,,1
144,26120,171,,,,2,2,0.0,1.0,-1.0,0.0,,0.0-173.0,,0.0,1004.25,1.0,0.7491416890000001,1.0,0.7423785959999999,0.0,0.29135870399999997,1.0,0.498888318,True,,5f4d4f3a2059689f1a2c33db,,2156630,171,,evan-feature22,full_rf_b,,1
145,26121,172,,,,1,1,1.0,1.0,0.0,1.0,,0.0-174.0,,1.0,1010.025,1.0,0.708569387,1.0,0.717682277,0.0,0.294421699,1.0,0.493838163,True,,5f4d4f3a2059689f1a2c33db,,2167447,172,,evan-feature22,full_rf_b,,1
146,26122,173,,,,2,2,0.0,0.0,-1.0,0.0,,0.0-175.0,,0.0,1035.83,0.0,0.75,1.0,0.7383382159999999,0.0,0.356098707,0.0,0.442533405,True,,5f4d4f3a2059689f1a2c33db,,2178276,173,,evan-feature22,full_rf_b,,1
147,26123,174,,,,2,2,0.0,1.0,-1.0,0.0,,0.0-176.0,,0.0,881.4250002999999,1.0,0.744527075,1.0,0.75,0.0,0.334127506,1.0,0.393165805,True,,5f4d4f3a2059689f1a2c33db,,2188949,174,,evan-feature22,full_rf_b,,0
148,26124,175,,,,2,2,0.0,0.0,-1.0,0.0,,0.0-177.0,,0.0,956.1900002999998,0.0,0.75,1.0,0.75,0.0,0.33571021799999995,0.0,0.350393962,True,,5f4d4f3a2059689f1a2c33db,,2199720,175,,evan-feature22,full_rf_b,,0
149,26125,176,,,,1,1,0.0,1.0,0.0,1.0,,0.0-178.0,,1.0,907.375,0.0,0.75,1.0,0.75,1.0,0.313628297,1.0,0.36349657399999996,True,,5f4d4f3a2059689f1a2c33db,,2210433,176,,evan-feature22,full_rf_b,,1
150,26126,177,,,,2,2,0.0,1.0,-1.0,0.0,,0.0-179.0,,0.0,787.5350001,1.0,0.75,1.0,0.734284182,0.0,0.262667667,1.0,0.380199119,True,,5f4d4f3a2059689f1a2c33db,,2220995,177,,evan-feature22,full_rf_b,,1
151,26127,178,,,,2,2,0.0,0.0,-1.0,0.0,,0.0-180.0,,0.0,726.3250002,0.0,0.75,1.0,0.75,0.0,0.25,0.0,0.394494013,True,,5f4d4f3a2059689f1a2c33db,,2231525,178,,evan-feature22,full_rf_b,,0
152,26128,179,,,,2,2,0.0,0.0,-1.0,0.0,,0.0-181.0,,0.0,863.655,1.0,0.722298145,1.0,0.7357822340000001,0.0,0.25,0.0,0.319142121,True,,5f4d4f3a2059689f1a2c33db,,2242181,179,,evan-feature22,full_rf_b,,0
153,26129,180,,,,2,2,0.0,0.0,-1.0,0.0,,0.0-182.0,,0.0,732.1199998,1.0,0.73149275,1.0,0.724276446,0.0,0.305856907,0.0,0.281315057,True,,5f4d4f3a2059689f1a2c33db,,2252714,180,,evan-feature22,full_rf_b,,0
154,26130,181,,,,2,2,1.0,0.0,-1.0,0.0,,0.0-183.0,,-1.0,777.3599997,1.0,0.7458732690000001,0.0,0.7336382459999999,1.0,0.272571964,0.0,0.266021999,True,,5f4d4f3a2059689f1a2c33db,,2263277,181,,evan-feature22,full_rf_b,,0
155,26131,182,,,,1,1,1.0,0.0,0.0,1.0,,0.0-184.0,,0.0,906.2550002999999,1.0,0.705579037,0.0,0.720778292,0.0,0.320238144,0.0,0.30971744,True,,5f4d4f3a2059689f1a2c33db,,2273978,182,,evan-feature22,full_rf_b,,1
156,26132,183,,,,1,1,1.0,1.0,0.0,1.0,,0.0-185.0,,1.0,930.865,1.0,0.700425648,1.0,0.7198784009999999,1.0,0.272590393,0.0,0.304182931,True,,5f4d4f3a2059689f1a2c33db,,2284698,183,,evan-feature22,full_rf_b,,0
157,26133,184,,,,1,1,1.0,0.0,0.0,1.0,,0.0-186.0,,0.0,929.3750002999999,1.0,0.735590785,0.0,0.722714973,1.0,0.25,0.0,0.323421091,True,,5f4d4f3a2059689f1a2c33db,,2295401,184,,evan-feature22,full_rf_b,,0
158,26134,185,,,,1,1,0.0,1.0,0.0,1.0,,0.0-187.0,,1.0,865.7800001,0.0,0.724807662,1.0,0.63146213,0.0,0.36836492600000004,0.0,0.34592153299999995,True,,5f4d4f3a2059689f1a2c33db,,2306043,185,,evan-feature22,full_rf_b,,0
159,26135,186,,,,2,2,0.0,1.0,-1.0,0.0,,0.0-188.0,,0.0,866.2199997000001,1.0,0.7352796909999999,0.0,0.555111392,0.0,0.36003922,1.0,0.31433779999999995,True,,5f4d4f3a2059689f1a2c33db,,2316700,186,,evan-feature22,full_rf_b,,1
160,26136,187,notice,,,,,,,,,,0.0-189.0,"{""Q0"":""Nothing different noticed""}",,23819.0,,,,,,,,,True,,5f4d4f3a2059689f1a2c33db,,2340520,187,Q,survey-text,full_rf_b,,1
161,26137,188,track1,,[0],,,,,,,,0.0-190.0,"{""Q0"":""yes""}",,3742.0,,,,,,,,,True,,5f4d4f3a2059689f1a2c33db,,2344264,188,Q,evan-quiz,full_rf_b,,1
162,26138,189,track2,,[2],,,,,,,,0.0-191.0,"{""Q0"":""N/A""}",,9146.0,,,,,,,,,True,,5f4d4f3a2059689f1a2c33db,,2353411,189,Q,evan-quiz,full_rf_b,,1
163,26139,190,strat,,,,,,,,,,0.0-192.0,"{""Q0"":""I would predominantly look at where the gold alien would occur most when the value was -1. This allowed me to have an idea of which side to pick.""}",,42835.0,,,,,,,,,True,,5f4d4f3a2059689f1a2c33db,,2396248,190,Q,survey-text,full_rf_b,,1
