,index,Unnamed: 0,Q_name,button_pressed,choice_idxs,chosen_pos,chosen_state,chosen_state_f_1_outcome,chosen_state_f_2_outcome,f_1_reward,f_2_reward,incor_questions,internal_node_id,responses,reward_received,rt,s_1_f_1_outcome,s_1_f_1_prob,s_1_f_2_outcome,s_1_f_2_prob,s_2_f_1_outcome,s_2_f_1_prob,s_2_f_2_outcome,s_2_f_2_prob,safe_first,stimulus,subjectID,success,time_elapsed,trial_index,trial_num,trial_type,version,view_history,switching
0,12632,25,,,,SLOW,SLOW,,,0.0,1.0,,0.0-27.0,,-3.0,,0.0,0.6,1.0,0.6,1.0,0.4,0.0,0.4,True,,57acee52bfa77b0001bf31d4,,540748,25,,evan-feature22,full_rf_b,,0
1,12633,26,,,,2,2,0.0,0.0,0.0,1.0,,0.0-28.0,,0.0,800.855,1.0,0.608053294,1.0,0.63424552,0.0,0.397152172,0.0,0.347069101,True,,57acee52bfa77b0001bf31d4,,551320,26,,evan-feature22,full_rf_b,,1
2,12634,27,,,,1,1,1.0,1.0,0.0,1.0,,0.0-29.0,,1.0,29.795,1.0,0.642237155,1.0,0.648566321,1.0,0.389407674,0.0,0.285525717,True,,57acee52bfa77b0001bf31d4,,561131,27,,evan-feature22,full_rf_b,,1
3,12635,28,,,,2,2,0.0,1.0,0.0,1.0,,0.0-30.0,,1.0,1509.71,0.0,0.661086576,1.0,0.630492543,0.0,0.399058924,1.0,0.25,True,,57acee52bfa77b0001bf31d4,,572421,28,,evan-feature22,full_rf_b,,1
4,12636,29,,,,2,2,0.0,0.0,0.0,1.0,,0.0-31.0,,0.0,1142.82,1.0,0.631324137,1.0,0.6269842929999999,0.0,0.38734784299999997,0.0,0.25,True,,57acee52bfa77b0001bf31d4,,583353,29,,evan-feature22,full_rf_b,,0
5,12637,30,,,,1,1,1.0,0.0,0.0,1.0,,0.0-32.0,,0.0,956.835,1.0,0.6381991370000001,0.0,0.68987999,0.0,0.384107265,1.0,0.271332943,True,,57acee52bfa77b0001bf31d4,,594092,30,,evan-feature22,full_rf_b,,1
6,12638,31,,,,2,2,1.0,0.0,0.0,1.0,,0.0-33.0,,0.0,847.955,0.0,0.66034901,1.0,0.742641349,1.0,0.360225629,0.0,0.25,True,,57acee52bfa77b0001bf31d4,,604720,31,,evan-feature22,full_rf_b,,1
7,12639,32,,,,2,2,0.0,0.0,-1.0,0.0,,0.0-34.0,,0.0,2438.865,1.0,0.638612418,1.0,0.75,0.0,0.367273939,0.0,0.25,True,,57acee52bfa77b0001bf31d4,,616940,32,,evan-feature22,full_rf_b,,0
8,12640,33,,,,2,2,0.0,0.0,0.0,1.0,,0.0-35.0,,0.0,2164.96,1.0,0.624340629,1.0,0.75,0.0,0.425829545,0.0,0.25,True,,57acee52bfa77b0001bf31d4,,628890,33,,evan-feature22,full_rf_b,,0
9,12641,34,,,,1,1,0.0,0.0,0.0,1.0,,0.0-36.0,,0.0,1880.925,0.0,0.621999804,0.0,0.75,0.0,0.368609357,0.0,0.25,True,,57acee52bfa77b0001bf31d4,,640552,34,,evan-feature22,full_rf_b,,1
10,12642,35,,,,2,2,1.0,0.0,-1.0,0.0,,0.0-37.0,,-1.0,2864.82,0.0,0.62666403,1.0,0.75,1.0,0.311151498,0.0,0.25,True,,57acee52bfa77b0001bf31d4,,653203,35,,evan-feature22,full_rf_b,,1
11,12643,36,,,,1,1,0.0,1.0,-1.0,0.0,,0.0-38.0,,0.0,2252.1,0.0,0.6819650009999999,1.0,0.75,0.0,0.310763048,1.0,0.25,True,,57acee52bfa77b0001bf31d4,,665240,36,,evan-feature22,full_rf_b,,1
12,12644,37,,,,1,1,1.0,1.0,0.0,1.0,,0.0-39.0,,1.0,1925.585,1.0,0.740626951,1.0,0.75,0.0,0.25,0.0,0.25,True,,57acee52bfa77b0001bf31d4,,676948,37,,evan-feature22,full_rf_b,,0
13,12645,38,,,,1,1,1.0,1.0,0.0,1.0,,0.0-40.0,,1.0,1041.455,1.0,0.739599242,1.0,0.742034978,0.0,0.25397114600000004,0.0,0.25,True,,57acee52bfa77b0001bf31d4,,687771,38,,evan-feature22,full_rf_b,,0
14,12646,39,,,,1,1,1.0,1.0,0.0,1.0,,0.0-41.0,,1.0,920.375,1.0,0.732341315,1.0,0.72735643,0.0,0.25,1.0,0.25,True,,57acee52bfa77b0001bf31d4,,698466,39,,evan-feature22,full_rf_b,,0
15,12647,40,,,,1,1,1.0,0.0,0.0,1.0,,0.0-42.0,,0.0,934.065,1.0,0.7062287770000001,0.0,0.75,0.0,0.29002151,1.0,0.288256649,True,,57acee52bfa77b0001bf31d4,,709185,40,,evan-feature22,full_rf_b,,0
16,12648,41,,,,2,2,1.0,0.0,-1.0,0.0,,0.0-43.0,,-1.0,1675.19,1.0,0.7086029209999999,1.0,0.75,1.0,0.274129113,0.0,0.262851608,True,,57acee52bfa77b0001bf31d4,,720649,41,,evan-feature22,full_rf_b,,1
17,12649,42,,,,1,1,0.0,1.0,0.0,1.0,,0.0-44.0,,1.0,1597.005,0.0,0.669189651,1.0,0.727614338,1.0,0.298444036,0.0,0.296944518,True,,57acee52bfa77b0001bf31d4,,732032,42,,evan-feature22,full_rf_b,,1
18,12650,43,,,,1,1,1.0,1.0,-1.0,0.0,,0.0-45.0,,-1.0,1677.635,1.0,0.6819912929999999,1.0,0.7179434290000001,1.0,0.265003961,0.0,0.28157921199999997,True,,57acee52bfa77b0001bf31d4,,743497,43,,evan-feature22,full_rf_b,,0
19,12651,44,,,,1,1,0.0,1.0,-1.0,0.0,,0.0-46.0,,0.0,2149.085,0.0,0.665275002,1.0,0.723065271,0.0,0.260414971,0.0,0.30973870000000003,True,,57acee52bfa77b0001bf31d4,,755431,44,,evan-feature22,full_rf_b,,0
20,12652,45,,,,1,1,1.0,0.0,0.0,1.0,,0.0-47.0,,0.0,1981.915,1.0,0.6660593260000001,0.0,0.728032907,0.0,0.30922817,1.0,0.338778608,True,,57acee52bfa77b0001bf31d4,,767194,45,,evan-feature22,full_rf_b,,0
21,12653,46,,,,2,2,0.0,0.0,0.0,1.0,,0.0-48.0,,0.0,738.33,0.0,0.702068785,0.0,0.6528750879999999,0.0,0.287329608,0.0,0.35789613200000003,True,,57acee52bfa77b0001bf31d4,,777710,46,,evan-feature22,full_rf_b,,1
22,12654,47,,,,2,2,0.0,0.0,0.0,1.0,,0.0-49.0,,0.0,1157.885,0.0,0.651939787,1.0,0.636725589,0.0,0.284834488,0.0,0.358563756,True,,57acee52bfa77b0001bf31d4,,788656,47,,evan-feature22,full_rf_b,,0
23,12655,48,,,,1,1,1.0,1.0,0.0,1.0,,0.0-50.0,,1.0,855.745,1.0,0.67573929,1.0,0.612550049,1.0,0.37130387600000003,0.0,0.383542402,True,,57acee52bfa77b0001bf31d4,,799297,48,,evan-feature22,full_rf_b,,1
24,12656,49,,,,1,1,0.0,0.0,0.0,1.0,,0.0-51.0,,0.0,1091.65,0.0,0.620753801,0.0,0.60513644,0.0,0.385529434,0.0,0.340361743,True,,57acee52bfa77b0001bf31d4,,810166,49,,evan-feature22,full_rf_b,,0
25,12657,50,,,,2,2,0.0,1.0,-1.0,0.0,,0.0-52.0,,0.0,2935.845,0.0,0.673564893,0.0,0.672437924,0.0,0.292955382,1.0,0.337633795,True,,57acee52bfa77b0001bf31d4,,822884,50,,evan-feature22,full_rf_b,,1
26,12658,51,,,,2,2,0.0,0.0,0.0,1.0,,0.0-53.0,,0.0,2066.75,0.0,0.6749427,0.0,0.724197502,0.0,0.32391132100000003,0.0,0.350995264,True,,57acee52bfa77b0001bf31d4,,834732,51,,evan-feature22,full_rf_b,,0
27,12659,52,,,,2,2,0.0,1.0,0.0,1.0,,0.0-54.0,,1.0,1499.49,1.0,0.6940159379999999,1.0,0.75,0.0,0.31710554399999996,1.0,0.413450341,True,,57acee52bfa77b0001bf31d4,,846019,52,,evan-feature22,full_rf_b,,0
28,12660,53,,,,2,2,0.0,1.0,0.0,1.0,,0.0-55.0,,1.0,1901.28,1.0,0.6916018270000001,1.0,0.69001187,0.0,0.261817804,1.0,0.40038635,True,,57acee52bfa77b0001bf31d4,,857699,53,,evan-feature22,full_rf_b,,0
29,12661,54,,,,2,2,1.0,1.0,0.0,1.0,,0.0-56.0,,1.0,1610.41,0.0,0.641061544,0.0,0.71337992,1.0,0.277296461,1.0,0.47372791700000005,True,,57acee52bfa77b0001bf31d4,,869089,54,,evan-feature22,full_rf_b,,0
30,12662,55,,,,2,2,0.0,1.0,0.0,1.0,,0.0-57.0,,1.0,2029.305,0.0,0.6082438520000001,0.0,0.708471106,0.0,0.28745137,1.0,0.564174476,True,,57acee52bfa77b0001bf31d4,,880909,55,,evan-feature22,full_rf_b,,0
31,12663,56,,,,1,1,1.0,1.0,-1.0,0.0,,0.0-58.0,,-1.0,1863.96,1.0,0.6051112120000001,1.0,0.7118147229999999,0.0,0.272390611,1.0,0.5595149939999999,True,,57acee52bfa77b0001bf31d4,,892550,56,,evan-feature22,full_rf_b,,1
32,12664,57,,,,2,2,1.0,0.0,-1.0,0.0,,0.0-59.0,,-1.0,1181.06,0.0,0.582420852,1.0,0.635867583,1.0,0.31089574,0.0,0.5227206520000001,True,,57acee52bfa77b0001bf31d4,,903517,57,,evan-feature22,full_rf_b,,1
33,12665,58,,,,1,1,1.0,0.0,-1.0,0.0,,0.0-60.0,,-1.0,1409.59,1.0,0.623195575,0.0,0.655026044,1.0,0.25,1.0,0.560387538,True,,57acee52bfa77b0001bf31d4,,914704,58,,evan-feature22,full_rf_b,,1
34,12666,59,,,,1,1,1.0,1.0,0.0,1.0,,0.0-61.0,,1.0,1830.315,1.0,0.601889598,1.0,0.678198724,0.0,0.25,1.0,0.559922936,True,,57acee52bfa77b0001bf31d4,,926314,59,,evan-feature22,full_rf_b,,0
35,12667,60,,,,2,2,1.0,0.0,-1.0,0.0,,0.0-62.0,,-1.0,1212.645,1.0,0.601259914,1.0,0.704681482,1.0,0.33908969299999997,0.0,0.505003715,True,,57acee52bfa77b0001bf31d4,,937306,60,,evan-feature22,full_rf_b,,1
36,12668,61,,,,1,1,0.0,1.0,-1.0,0.0,,0.0-63.0,,0.0,2340.12,0.0,0.59645454,1.0,0.710437172,0.0,0.327441879,1.0,0.391749613,True,,57acee52bfa77b0001bf31d4,,949429,61,,evan-feature22,full_rf_b,,1
37,12669,62,,,,1,1,1.0,0.0,0.0,1.0,,0.0-64.0,,0.0,1239.06,1.0,0.529473,0.0,0.636758527,1.0,0.301338063,0.0,0.365661481,True,,57acee52bfa77b0001bf31d4,,960456,62,,evan-feature22,full_rf_b,,0
38,12670,63,,,,1,1,0.0,0.0,-1.0,0.0,,0.0-65.0,,0.0,1652.5,0.0,0.541657162,0.0,0.634541962,0.0,0.343535366,0.0,0.371763742,True,,57acee52bfa77b0001bf31d4,,971884,63,,evan-feature22,full_rf_b,,0
39,12671,64,,,,1,1,1.0,1.0,-1.0,0.0,,0.0-66.0,,-1.0,889.875,1.0,0.5707533260000001,1.0,0.589121171,1.0,0.326428396,1.0,0.43961622899999997,True,,57acee52bfa77b0001bf31d4,,982560,64,,evan-feature22,full_rf_b,,0
40,12672,65,,,,1,1,0.0,0.0,0.0,1.0,,0.0-67.0,,0.0,1238.36,0.0,0.5707533260000001,0.0,0.589121171,0.0,0.326428396,1.0,0.43961622899999997,True,,57acee52bfa77b0001bf31d4,,993583,65,,evan-feature22,full_rf_b,,0
41,12673,66,,,,2,2,1.0,1.0,0.0,1.0,,0.0-68.0,,1.0,680.27,0.0,0.506271295,1.0,0.641775594,1.0,0.37149690700000004,1.0,0.404330166,True,,57acee52bfa77b0001bf31d4,,1004044,66,,evan-feature22,full_rf_b,,1
42,12674,67,,,,1,1,0.0,1.0,-1.0,0.0,,0.0-69.0,,0.0,1141.135,0.0,0.455642565,1.0,0.623605825,1.0,0.358753011,0.0,0.346174041,True,,57acee52bfa77b0001bf31d4,,1014967,67,,evan-feature22,full_rf_b,,1
43,12675,68,,,,1,1,1.0,0.0,0.0,1.0,,0.0-70.0,,0.0,1896.185,1.0,0.483677308,0.0,0.5904681070000001,0.0,0.402218411,0.0,0.35344697,True,,57acee52bfa77b0001bf31d4,,1026647,68,,evan-feature22,full_rf_b,,0
44,12676,69,,,,1,1,1.0,0.0,-1.0,0.0,,0.0-71.0,,-1.0,3207.555,1.0,0.394210977,0.0,0.558925494,1.0,0.540052017,1.0,0.35182128700000004,True,,57acee52bfa77b0001bf31d4,,1039646,69,,evan-feature22,full_rf_b,,0
45,12677,70,,,,2,2,0.0,1.0,0.0,1.0,,0.0-72.0,,1.0,1078.74,0.0,0.382300414,0.0,0.577670603,0.0,0.607608448,1.0,0.378261578,True,,57acee52bfa77b0001bf31d4,,1050514,70,,evan-feature22,full_rf_b,,1
46,12678,71,,,,2,2,0.0,0.0,-1.0,0.0,,0.0-73.0,,0.0,1394.995,0.0,0.357596762,1.0,0.5929076529999999,0.0,0.6579790010000001,0.0,0.401326777,True,,57acee52bfa77b0001bf31d4,,1061687,71,,evan-feature22,full_rf_b,,0
47,12679,72,,,,1,1,0.0,0.0,0.0,1.0,,0.0-74.0,,0.0,933.425,0.0,0.362033495,0.0,0.582308608,1.0,0.649195052,1.0,0.355158505,True,,57acee52bfa77b0001bf31d4,,1072402,72,,evan-feature22,full_rf_b,,1
48,12680,73,,,,2,2,1.0,1.0,0.0,1.0,,0.0-75.0,,1.0,835.535,1.0,0.369620635,1.0,0.669100864,1.0,0.706059111,1.0,0.362516241,True,,57acee52bfa77b0001bf31d4,,1083026,73,,evan-feature22,full_rf_b,,1
49,12681,74,,,,1,1,0.0,1.0,0.0,1.0,,0.0-76.0,,1.0,1832.585,0.0,0.41477751399999996,1.0,0.7284416779999999,0.0,0.7182656940000001,1.0,0.36228040899999997,True,,57acee52bfa77b0001bf31d4,,1094642,74,,evan-feature22,full_rf_b,,1
50,12682,75,,,,1,1,0.0,1.0,-1.0,0.0,,0.0-77.0,,0.0,2097.22,0.0,0.37675460299999997,1.0,0.703250285,0.0,0.75,0.0,0.461979164,True,,57acee52bfa77b0001bf31d4,,1106528,75,,evan-feature22,full_rf_b,,0
51,12683,76,,,,2,2,1.0,0.0,-1.0,0.0,,0.0-78.0,,-1.0,878.67,0.0,0.398716075,1.0,0.6723864890000001,1.0,0.674153818,0.0,0.519029516,True,,57acee52bfa77b0001bf31d4,,1117193,76,,evan-feature22,full_rf_b,,1
52,12684,77,,,,1,1,1.0,1.0,-1.0,0.0,,0.0-79.0,,-1.0,1149.745,1.0,0.34677856700000004,1.0,0.69057175,1.0,0.6822438540000001,0.0,0.477292237,True,,57acee52bfa77b0001bf31d4,,1128118,77,,evan-feature22,full_rf_b,,1
53,12685,78,,,,1,1,0.0,1.0,0.0,1.0,,0.0-80.0,,1.0,1189.845,0.0,0.28580469199999997,1.0,0.68408818,1.0,0.684207565,0.0,0.49780448299999996,True,,57acee52bfa77b0001bf31d4,,1139095,78,,evan-feature22,full_rf_b,,0
54,12687,80,,,,1,1,1.0,0.0,0.0,1.0,,0.0-82.0,,0.0,1782.01,1.0,0.25,0.0,0.7405808970000001,0.0,0.679614108,0.0,0.436436964,True,,57acee52bfa77b0001bf31d4,,1153346,80,,evan-feature22,full_rf_b,,0
55,12688,81,,,,1,1,1.0,1.0,0.0,1.0,,0.0-83.0,,1.0,1622.65,1.0,0.29890393,1.0,0.730505706,0.0,0.7328203320000001,1.0,0.439256938,True,,57acee52bfa77b0001bf31d4,,1164759,81,,evan-feature22,full_rf_b,,0
56,12689,82,,,,2,2,1.0,0.0,-1.0,0.0,,0.0-84.0,,-1.0,1954.78,0.0,0.326762398,1.0,0.7148059609999999,1.0,0.75,0.0,0.44389608799999997,True,,57acee52bfa77b0001bf31d4,,1176503,82,,evan-feature22,full_rf_b,,1
57,12690,83,,,,2,2,1.0,1.0,0.0,1.0,,0.0-85.0,,1.0,3125.98,1.0,0.295168515,1.0,0.739760854,1.0,0.719947008,1.0,0.35277284600000003,True,,57acee52bfa77b0001bf31d4,,1189422,83,,evan-feature22,full_rf_b,,0
58,12691,84,,,,2,2,1.0,1.0,0.0,1.0,,0.0-86.0,,1.0,1536.135,0.0,0.25,0.0,0.70781482,1.0,0.75,1.0,0.286095925,True,,57acee52bfa77b0001bf31d4,,1200745,84,,evan-feature22,full_rf_b,,0
59,12692,85,,,,2,2,1.0,0.0,0.0,1.0,,0.0-87.0,,0.0,1095.73,0.0,0.25638190899999996,1.0,0.704088163,1.0,0.75,0.0,0.26872601399999996,True,,57acee52bfa77b0001bf31d4,,1211619,85,,evan-feature22,full_rf_b,,0
60,12693,86,,,,1,1,0.0,1.0,-1.0,0.0,,0.0-88.0,,0.0,2401.99,0.0,0.271581126,1.0,0.669760107,1.0,0.733896663,0.0,0.273244572,True,,57acee52bfa77b0001bf31d4,,1223806,86,,evan-feature22,full_rf_b,,1
61,12694,87,,,,1,1,0.0,1.0,0.0,1.0,,0.0-89.0,,1.0,1329.06,0.0,0.257144401,1.0,0.600575706,1.0,0.74488122,0.0,0.25,True,,57acee52bfa77b0001bf31d4,,1234925,87,,evan-feature22,full_rf_b,,0
62,12695,88,,,,1,1,1.0,0.0,0.0,1.0,,0.0-90.0,,0.0,898.15,1.0,0.25,0.0,0.616870026,1.0,0.723610234,0.0,0.25,True,,57acee52bfa77b0001bf31d4,,1245605,88,,evan-feature22,full_rf_b,,0
63,12696,89,,,,2,2,1.0,1.0,-1.0,0.0,,0.0-91.0,,-1.0,1841.375,1.0,0.25,1.0,0.583540187,1.0,0.7041042559999999,1.0,0.285961995,True,,57acee52bfa77b0001bf31d4,,1257230,89,,evan-feature22,full_rf_b,,1
64,12697,90,,,,1,1,0.0,0.0,-1.0,0.0,,0.0-92.0,,0.0,1702.9,0.0,0.27254536,0.0,0.53875765,0.0,0.693783448,0.0,0.284961652,True,,57acee52bfa77b0001bf31d4,,1268716,90,,evan-feature22,full_rf_b,,1
65,12698,91,,,,1,1,0.0,0.0,-1.0,0.0,,0.0-93.0,,0.0,1825.175,0.0,0.25,0.0,0.548431252,1.0,0.734221895,0.0,0.279445214,True,,57acee52bfa77b0001bf31d4,,1280331,91,,evan-feature22,full_rf_b,,0
66,12699,92,,,,1,1,0.0,0.0,0.0,1.0,,0.0-94.0,,0.0,1348.595,0.0,0.258640684,0.0,0.545878066,1.0,0.725245965,1.0,0.31487537,True,,57acee52bfa77b0001bf31d4,,1291469,92,,evan-feature22,full_rf_b,,0
67,12700,93,,,,2,2,1.0,1.0,0.0,1.0,,0.0-95.0,,1.0,2004.27,1.0,0.251103711,1.0,0.5776290629999999,1.0,0.696320133,1.0,0.317831047,True,,57acee52bfa77b0001bf31d4,,1303257,93,,evan-feature22,full_rf_b,,1
68,12701,94,,,,1,1,1.0,1.0,0.0,1.0,,0.0-96.0,,1.0,1241.775,1.0,0.276630292,1.0,0.617329858,1.0,0.73838088,1.0,0.261471582,True,,57acee52bfa77b0001bf31d4,,1314283,94,,evan-feature22,full_rf_b,,1
69,12702,95,,,,1,1,1.0,0.0,0.0,1.0,,0.0-97.0,,0.0,1788.105,1.0,0.297716424,0.0,0.618863717,1.0,0.7402358259999999,0.0,0.262600834,True,,57acee52bfa77b0001bf31d4,,1325850,95,,evan-feature22,full_rf_b,,0
70,12703,96,,,,2,2,1.0,0.0,-1.0,0.0,,0.0-98.0,,-1.0,2442.64,0.0,0.290935512,1.0,0.695370945,1.0,0.706570507,0.0,0.280030553,True,,57acee52bfa77b0001bf31d4,,1338076,96,,evan-feature22,full_rf_b,,1
71,12704,97,,,,1,1,0.0,1.0,0.0,1.0,,0.0-99.0,,1.0,989.115,0.0,0.25,1.0,0.6465277079999999,0.0,0.67766682,0.0,0.25,True,,57acee52bfa77b0001bf31d4,,1348845,97,,evan-feature22,full_rf_b,,1
72,12705,98,,,,1,1,0.0,0.0,-1.0,0.0,,0.0-100.0,,0.0,1582.01,0.0,0.26463816,0.0,0.636100213,1.0,0.646048507,1.0,0.265607101,True,,57acee52bfa77b0001bf31d4,,1360213,98,,evan-feature22,full_rf_b,,0
73,12706,99,,,,1,1,0.0,0.0,-1.0,0.0,,0.0-101.0,,0.0,1611.71,0.0,0.314340707,0.0,0.667795927,0.0,0.613630805,0.0,0.25,True,,57acee52bfa77b0001bf31d4,,1371612,99,,evan-feature22,full_rf_b,,0
74,12707,100,,,,1,1,0.0,0.0,0.0,1.0,,0.0-102.0,,0.0,1822.735,0.0,0.28685784,0.0,0.6622549529999999,0.0,0.652154117,0.0,0.25,True,,57acee52bfa77b0001bf31d4,,1383218,100,,evan-feature22,full_rf_b,,0
75,12708,101,,,,1,1,1.0,1.0,0.0,1.0,,0.0-103.0,,1.0,1109.085,1.0,0.304106554,1.0,0.631289538,0.0,0.707041942,0.0,0.29314237,True,,57acee52bfa77b0001bf31d4,,1394108,101,,evan-feature22,full_rf_b,,0
76,12709,102,,,,1,1,1.0,1.0,0.0,1.0,,0.0-104.0,,1.0,848.035,1.0,0.304806932,1.0,0.571167718,1.0,0.680472346,0.0,0.25,True,,57acee52bfa77b0001bf31d4,,1404739,102,,evan-feature22,full_rf_b,,0
77,12710,103,,,,2,2,1.0,0.0,0.0,1.0,,0.0-105.0,,0.0,2086.325,1.0,0.37919861,0.0,0.5724849710000001,1.0,0.705638003,0.0,0.30179300600000003,True,,57acee52bfa77b0001bf31d4,,1416615,103,,evan-feature22,full_rf_b,,1
78,12711,104,,,,1,1,0.0,1.0,0.0,1.0,,0.0-106.0,,1.0,1460.225,0.0,0.464277969,1.0,0.554034373,1.0,0.7372627340000001,0.0,0.264699741,True,,57acee52bfa77b0001bf31d4,,1427867,104,,evan-feature22,full_rf_b,,1
79,12712,105,,,,1,1,1.0,1.0,0.0,1.0,,0.0-107.0,,1.0,911.345,1.0,0.465104323,1.0,0.530793115,0.0,0.75,0.0,0.31683071,True,,57acee52bfa77b0001bf31d4,,1438554,105,,evan-feature22,full_rf_b,,0
80,12713,106,,,,2,2,0.0,1.0,-1.0,0.0,,0.0-108.0,,0.0,1821.335,0.0,0.465104323,1.0,0.530793115,0.0,0.75,1.0,0.31683071,True,,57acee52bfa77b0001bf31d4,,1450151,106,,evan-feature22,full_rf_b,,1
81,12714,107,,,,1,1,1.0,1.0,-1.0,0.0,,0.0-109.0,,-1.0,2269.185,1.0,0.46833986,1.0,0.570249239,1.0,0.7244472590000001,0.0,0.364114163,True,,57acee52bfa77b0001bf31d4,,1462208,107,,evan-feature22,full_rf_b,,1
82,12715,108,,,,1,1,1.0,1.0,-1.0,0.0,,0.0-110.0,,-1.0,1328.79,1.0,0.445444024,1.0,0.649673355,1.0,0.6845441290000001,1.0,0.300660449,True,,57acee52bfa77b0001bf31d4,,1473320,108,,evan-feature22,full_rf_b,,0
83,12716,109,,,,1,1,1.0,0.0,-1.0,0.0,,0.0-111.0,,-1.0,1320.825,1.0,0.39909721299999995,0.0,0.6715179509999999,1.0,0.742310028,0.0,0.35496088299999995,True,,57acee52bfa77b0001bf31d4,,1484420,109,,evan-feature22,full_rf_b,,0
84,12717,110,,,,1,1,0.0,1.0,0.0,1.0,,0.0-112.0,,1.0,1880.015,0.0,0.37956104799999996,1.0,0.694725302,0.0,0.7181651309999999,1.0,0.38726906299999997,True,,57acee52bfa77b0001bf31d4,,1496078,110,,evan-feature22,full_rf_b,,0
85,12718,111,,,,1,1,0.0,1.0,0.0,1.0,,0.0-113.0,,1.0,985.89,0.0,0.404995034,1.0,0.724375412,1.0,0.6910946859999999,1.0,0.387187347,True,,57acee52bfa77b0001bf31d4,,1506853,111,,evan-feature22,full_rf_b,,0
86,12719,112,,,,2,2,1.0,0.0,-1.0,0.0,,0.0-114.0,,-1.0,1204.19,0.0,0.461740803,1.0,0.75,1.0,0.75,0.0,0.34872038200000005,True,,57acee52bfa77b0001bf31d4,,1517843,112,,evan-feature22,full_rf_b,,1
87,12720,113,,,,1,1,0.0,1.0,-1.0,0.0,,0.0-115.0,,0.0,1169.61,0.0,0.43821380600000004,1.0,0.738833273,0.0,0.728286963,1.0,0.399538128,True,,57acee52bfa77b0001bf31d4,,1528792,113,,evan-feature22,full_rf_b,,1
88,12721,114,,,,1,1,1.0,1.0,0.0,1.0,,0.0-116.0,,1.0,1087.415,1.0,0.41709882,1.0,0.736666736,1.0,0.75,1.0,0.389095584,True,,57acee52bfa77b0001bf31d4,,1539663,114,,evan-feature22,full_rf_b,,0
89,12722,115,,,,1,1,1.0,0.0,0.0,1.0,,0.0-117.0,,0.0,1026.7,1.0,0.39749009799999996,0.0,0.744320029,1.0,0.75,0.0,0.363848678,True,,57acee52bfa77b0001bf31d4,,1550475,115,,evan-feature22,full_rf_b,,0
90,12723,116,,,,1,1,1.0,1.0,-1.0,0.0,,0.0-118.0,,-1.0,1870.545,1.0,0.392653706,1.0,0.75,0.0,0.75,1.0,0.384386976,True,,57acee52bfa77b0001bf31d4,,1562129,116,,evan-feature22,full_rf_b,,0
91,12724,117,,,,2,2,1.0,1.0,0.0,1.0,,0.0-119.0,,1.0,846.35,0.0,0.31190902600000003,1.0,0.75,1.0,0.732413819,1.0,0.413082932,True,,57acee52bfa77b0001bf31d4,,1572752,117,,evan-feature22,full_rf_b,,1
92,12725,118,,,,1,1,0.0,1.0,-1.0,0.0,,0.0-120.0,,0.0,2610.645,0.0,0.366917648,1.0,0.740073855,1.0,0.75,1.0,0.352861979,True,,57acee52bfa77b0001bf31d4,,1585143,118,,evan-feature22,full_rf_b,,1
93,12726,119,,,,1,1,0.0,0.0,-1.0,0.0,,0.0-121.0,,0.0,1260.34,0.0,0.3645172,0.0,0.721770713,1.0,0.75,1.0,0.404074511,True,,57acee52bfa77b0001bf31d4,,1596179,119,,evan-feature22,full_rf_b,,0
94,12727,120,,,,1,1,1.0,1.0,-1.0,0.0,,0.0-122.0,,-1.0,1065.27,1.0,0.35205600299999995,1.0,0.68983859,1.0,0.739735447,0.0,0.366895945,True,,57acee52bfa77b0001bf31d4,,1607033,120,,evan-feature22,full_rf_b,,0
95,12728,121,,,,1,1,0.0,1.0,-1.0,0.0,,0.0-123.0,,0.0,1214.5,0.0,0.40998722600000004,1.0,0.720859127,1.0,0.673854955,0.0,0.368528541,True,,57acee52bfa77b0001bf31d4,,1618030,121,,evan-feature22,full_rf_b,,0
96,12729,122,,,,1,1,0.0,1.0,-1.0,0.0,,0.0-124.0,,0.0,2006.42,0.0,0.353625316,1.0,0.75,1.0,0.695605473,1.0,0.38303674200000004,True,,57acee52bfa77b0001bf31d4,,1629818,122,,evan-feature22,full_rf_b,,0
97,12730,123,,,,1,1,0.0,0.0,-1.0,0.0,,0.0-125.0,,0.0,1379.625,0.0,0.359216989,0.0,0.75,1.0,0.6987915090000001,0.0,0.35169046200000004,True,,57acee52bfa77b0001bf31d4,,1640980,123,,evan-feature22,full_rf_b,,0
98,12731,124,,,,1,1,1.0,0.0,-1.0,0.0,,0.0-126.0,,-1.0,1073.24,1.0,0.35834496899999996,0.0,0.75,1.0,0.707067742,0.0,0.416763636,True,,57acee52bfa77b0001bf31d4,,1651840,124,,evan-feature22,full_rf_b,,0
99,12732,125,,,,1,1,0.0,1.0,0.0,1.0,,0.0-127.0,,1.0,1429.915,0.0,0.38741613799999997,1.0,0.7177369570000001,1.0,0.734902455,0.0,0.49438664299999996,True,,57acee52bfa77b0001bf31d4,,1663056,125,,evan-feature22,full_rf_b,,0
100,12733,126,,,,1,1,0.0,1.0,-1.0,0.0,,0.0-128.0,,0.0,1587.81,0.0,0.405255252,1.0,0.7300466640000001,1.0,0.7027748070000001,1.0,0.504359668,True,,57acee52bfa77b0001bf31d4,,1674426,126,,evan-feature22,full_rf_b,,0
101,12734,127,,,,1,1,0.0,1.0,-1.0,0.0,,0.0-129.0,,0.0,1036.6,0.0,0.40697073,1.0,0.7260142190000001,1.0,0.724461982,0.0,0.522779179,True,,57acee52bfa77b0001bf31d4,,1685255,127,,evan-feature22,full_rf_b,,0
102,12735,128,,,,1,1,1.0,1.0,-1.0,0.0,,0.0-130.0,,-1.0,1090.56,1.0,0.43906215299999996,1.0,0.7252802340000001,0.0,0.719079934,0.0,0.5712990579999999,True,,57acee52bfa77b0001bf31d4,,1696131,128,,evan-feature22,full_rf_b,,0
103,12736,129,,,,1,1,0.0,1.0,0.0,1.0,,0.0-131.0,,1.0,1688.97,0.0,0.4076705,1.0,0.73280499,1.0,0.681313127,1.0,0.523891346,True,,57acee52bfa77b0001bf31d4,,1707604,129,,evan-feature22,full_rf_b,,0
104,12737,130,,,,2,2,1.0,0.0,0.0,1.0,,0.0-132.0,,0.0,1549.93,0.0,0.399102911,1.0,0.730498344,1.0,0.661080239,0.0,0.46742603,True,,57acee52bfa77b0001bf31d4,,1718926,130,,evan-feature22,full_rf_b,,1
105,12738,131,,,,1,1,1.0,0.0,0.0,1.0,,0.0-133.0,,0.0,667.06,1.0,0.356477282,0.0,0.712296395,0.0,0.641812684,0.0,0.44868414,True,,57acee52bfa77b0001bf31d4,,1729369,131,,evan-feature22,full_rf_b,,1
106,12739,132,,,,1,1,1.0,1.0,-1.0,0.0,,0.0-134.0,,-1.0,2673.935,1.0,0.462760722,1.0,0.692349322,1.0,0.700947931,1.0,0.394680266,True,,57acee52bfa77b0001bf31d4,,1741829,132,,evan-feature22,full_rf_b,,0
107,12740,133,,,,1,1,0.0,1.0,-1.0,0.0,,0.0-135.0,,0.0,1029.035,0.0,0.422306413,1.0,0.718375916,1.0,0.706340917,0.0,0.367787185,True,,57acee52bfa77b0001bf31d4,,1752641,133,,evan-feature22,full_rf_b,,0
108,12742,135,,,,1,1,1.0,1.0,-1.0,0.0,,0.0-137.0,,-1.0,2219.77,1.0,0.4582233,1.0,0.643834117,0.0,0.75,0.0,0.39615823299999997,True,,57acee52bfa77b0001bf31d4,,1767172,135,,evan-feature22,full_rf_b,,0
109,12743,136,,,,2,2,1.0,1.0,-1.0,0.0,,0.0-138.0,,-1.0,1681.58,0.0,0.43813437899999996,0.0,0.651283804,1.0,0.729674191,1.0,0.37711048,True,,57acee52bfa77b0001bf31d4,,1778636,136,,evan-feature22,full_rf_b,,1
110,12744,137,,,,1,1,1.0,0.0,-1.0,0.0,,0.0-139.0,,-1.0,1186.545,1.0,0.471199094,0.0,0.6470010979999999,1.0,0.715008097,1.0,0.410656191,True,,57acee52bfa77b0001bf31d4,,1789612,137,,evan-feature22,full_rf_b,,1
111,12745,138,,,,2,2,1.0,1.0,-1.0,0.0,,0.0-140.0,,-1.0,1762.22,1.0,0.42486406,0.0,0.629771829,1.0,0.6550939960000001,1.0,0.459093873,True,,57acee52bfa77b0001bf31d4,,1801158,138,,evan-feature22,full_rf_b,,1
112,12746,139,,,,1,1,1.0,0.0,-1.0,0.0,,0.0-141.0,,-1.0,1096.665,1.0,0.4803197,0.0,0.645842715,0.0,0.6421749920000001,1.0,0.443092151,True,,57acee52bfa77b0001bf31d4,,1812042,139,,evan-feature22,full_rf_b,,1
113,12747,140,,,,2,2,0.0,1.0,0.0,1.0,,0.0-142.0,,1.0,855.68,0.0,0.521848997,1.0,0.735801074,0.0,0.6691348460000001,1.0,0.45259351600000003,True,,57acee52bfa77b0001bf31d4,,1822679,140,,evan-feature22,full_rf_b,,1
114,12748,141,,,,2,2,1.0,0.0,-1.0,0.0,,0.0-143.0,,-1.0,1603.155,1.0,0.49565621299999996,1.0,0.742400847,1.0,0.661512553,0.0,0.483110831,True,,57acee52bfa77b0001bf31d4,,1834063,141,,evan-feature22,full_rf_b,,0
115,12749,142,,,,1,1,0.0,1.0,-1.0,0.0,,0.0-144.0,,0.0,1109.125,0.0,0.521564361,1.0,0.731078632,1.0,0.6774886809999999,0.0,0.483263956,True,,57acee52bfa77b0001bf31d4,,1844961,142,,evan-feature22,full_rf_b,,1
116,12750,143,,,,1,1,0.0,1.0,-1.0,0.0,,0.0-145.0,,0.0,1061.11,0.0,0.558893102,1.0,0.719810023,1.0,0.67461031,1.0,0.499349834,True,,57acee52bfa77b0001bf31d4,,1855799,143,,evan-feature22,full_rf_b,,0
117,12751,144,,,,1,1,0.0,0.0,-1.0,0.0,,0.0-146.0,,0.0,921.17,0.0,0.611031046,0.0,0.75,1.0,0.688072995,0.0,0.5321422729999999,True,,57acee52bfa77b0001bf31d4,,1866498,144,,evan-feature22,full_rf_b,,0
118,12752,145,,,,1,1,1.0,0.0,0.0,1.0,,0.0-147.0,,0.0,1367.68,1.0,0.633223941,0.0,0.713567728,1.0,0.75,0.0,0.48185314700000004,True,,57acee52bfa77b0001bf31d4,,1877642,145,,evan-feature22,full_rf_b,,0
119,12753,146,,,,1,1,1.0,0.0,-1.0,0.0,,0.0-148.0,,-1.0,2474.6,1.0,0.664001694,0.0,0.705509768,1.0,0.75,0.0,0.500211065,True,,57acee52bfa77b0001bf31d4,,1889903,146,,evan-feature22,full_rf_b,,0
120,12754,147,,,,2,2,0.0,0.0,-1.0,0.0,,0.0-149.0,,0.0,1914.24,0.0,0.664001694,1.0,0.705509768,0.0,0.75,0.0,0.500211065,True,,57acee52bfa77b0001bf31d4,,1901606,147,,evan-feature22,full_rf_b,,1
121,12755,148,,,,2,2,0.0,0.0,-1.0,0.0,,0.0-150.0,,0.0,1109.97,1.0,0.696508041,0.0,0.71066027,0.0,0.717028709,0.0,0.49792991,True,,57acee52bfa77b0001bf31d4,,1912504,148,,evan-feature22,full_rf_b,,0
122,12756,149,,,,1,1,1.0,1.0,0.0,1.0,,0.0-151.0,,1.0,1396.23,1.0,0.699883272,1.0,0.75,0.0,0.713543895,1.0,0.496962643,True,,57acee52bfa77b0001bf31d4,,1923688,149,,evan-feature22,full_rf_b,,1
123,12757,150,,,,1,1,1.0,1.0,0.0,1.0,,0.0-152.0,,1.0,1039.65,1.0,0.741163419,1.0,0.75,0.0,0.64691024,1.0,0.513858197,True,,57acee52bfa77b0001bf31d4,,1934507,150,,evan-feature22,full_rf_b,,0
124,12758,151,,,,1,1,1.0,1.0,0.0,1.0,,0.0-153.0,,1.0,1151.39,1.0,0.75,1.0,0.70816558,0.0,0.594499079,1.0,0.48502124,True,,57acee52bfa77b0001bf31d4,,1945443,151,,evan-feature22,full_rf_b,,0
125,12759,152,,,,2,2,1.0,1.0,-1.0,0.0,,0.0-154.0,,-1.0,1768.605,0.0,0.75,1.0,0.721848901,1.0,0.62197249,1.0,0.48263586399999997,True,,57acee52bfa77b0001bf31d4,,1956999,152,,evan-feature22,full_rf_b,,1
126,12760,153,,,,1,1,1.0,1.0,-1.0,0.0,,0.0-155.0,,-1.0,630.355,1.0,0.75,1.0,0.74813071,1.0,0.584357161,1.0,0.411477782,True,,57acee52bfa77b0001bf31d4,,1967411,153,,evan-feature22,full_rf_b,,1
127,12761,154,,,,1,1,1.0,1.0,-1.0,0.0,,0.0-156.0,,-1.0,728.59,1.0,0.75,1.0,0.75,0.0,0.52287236,1.0,0.488290656,True,,57acee52bfa77b0001bf31d4,,1977923,154,,evan-feature22,full_rf_b,,0
128,12762,155,,,,2,2,1.0,1.0,-1.0,0.0,,0.0-157.0,,-1.0,1317.74,1.0,0.75,1.0,0.75,1.0,0.544321581,1.0,0.53143059,True,,57acee52bfa77b0001bf31d4,,1989026,155,,evan-feature22,full_rf_b,,1
129,12763,156,,,,1,1,1.0,1.0,-1.0,0.0,,0.0-158.0,,-1.0,1062.52,1.0,0.726754564,1.0,0.75,1.0,0.5129306370000001,1.0,0.530592445,True,,57acee52bfa77b0001bf31d4,,1999870,156,,evan-feature22,full_rf_b,,1
130,12764,157,,,,2,2,1.0,1.0,0.0,1.0,,0.0-159.0,,1.0,760.44,1.0,0.75,1.0,0.7392590729999999,1.0,0.479875835,1.0,0.547007051,True,,57acee52bfa77b0001bf31d4,,2010403,157,,evan-feature22,full_rf_b,,1
131,12765,158,,,,2,2,0.0,0.0,0.0,1.0,,0.0-160.0,,0.0,854.64,1.0,0.75,1.0,0.7393376979999999,0.0,0.546045419,0.0,0.541267353,True,,57acee52bfa77b0001bf31d4,,2021049,158,,evan-feature22,full_rf_b,,0
132,12766,159,,,,2,2,1.0,0.0,-1.0,0.0,,0.0-161.0,,-1.0,1280.66,1.0,0.75,1.0,0.75,1.0,0.485725895,0.0,0.527625395,True,,57acee52bfa77b0001bf31d4,,2032119,159,,evan-feature22,full_rf_b,,0
133,12767,160,,,,2,2,1.0,0.0,0.0,1.0,,0.0-162.0,,0.0,1022.3,0.0,0.75,0.0,0.725087974,1.0,0.488603595,0.0,0.504019206,True,,57acee52bfa77b0001bf31d4,,2042922,160,,evan-feature22,full_rf_b,,0
134,12768,161,,,,1,1,0.0,1.0,-1.0,0.0,,0.0-163.0,,0.0,2188.24,0.0,0.745504295,1.0,0.75,1.0,0.452379914,0.0,0.50131194,True,,57acee52bfa77b0001bf31d4,,2054900,161,,evan-feature22,full_rf_b,,1
135,12769,162,,,,1,1,1.0,1.0,0.0,1.0,,0.0-164.0,,1.0,2192.22,1.0,0.728513874,1.0,0.75,0.0,0.44125567200000004,0.0,0.531454591,True,,57acee52bfa77b0001bf31d4,,2066880,162,,evan-feature22,full_rf_b,,0
136,12770,163,,,,2,2,0.0,0.0,-1.0,0.0,,0.0-165.0,,0.0,1866.7,1.0,0.73790804,0.0,0.75,0.0,0.413036656,0.0,0.524619035,True,,57acee52bfa77b0001bf31d4,,2078535,163,,evan-feature22,full_rf_b,,1
137,12771,164,,,,2,2,0.0,0.0,-1.0,0.0,,0.0-166.0,,0.0,866.26,1.0,0.7080961309999999,0.0,0.708666865,0.0,0.431915581,0.0,0.481819489,True,,57acee52bfa77b0001bf31d4,,2089186,164,,evan-feature22,full_rf_b,,0
138,12772,165,,,,2,2,0.0,1.0,-1.0,0.0,,0.0-167.0,,0.0,1419.905,1.0,0.721378003,1.0,0.71605913,0.0,0.36642387,1.0,0.5036739929999999,True,,57acee52bfa77b0001bf31d4,,2100388,165,,evan-feature22,full_rf_b,,0
139,12773,166,,,,2,2,0.0,0.0,0.0,1.0,,0.0-168.0,,0.0,1625.2,0.0,0.7340618959999999,1.0,0.699323252,0.0,0.35298046299999997,0.0,0.511241692,True,,57acee52bfa77b0001bf31d4,,2111803,166,,evan-feature22,full_rf_b,,0
140,12774,167,,,,1,1,1.0,0.0,0.0,1.0,,0.0-169.0,,0.0,831.255,1.0,0.75,0.0,0.70412698,1.0,0.380734814,1.0,0.529580116,True,,57acee52bfa77b0001bf31d4,,2122422,167,,evan-feature22,full_rf_b,,1
141,12775,168,,,,1,1,1.0,1.0,0.0,1.0,,0.0-170.0,,1.0,912.665,1.0,0.7436654909999999,1.0,0.711182751,0.0,0.41125331,0.0,0.49554405,True,,57acee52bfa77b0001bf31d4,,2133112,168,,evan-feature22,full_rf_b,,0
142,12776,169,,,,2,2,0.0,0.0,-1.0,0.0,,0.0-171.0,,0.0,1043.235,1.0,0.731607915,0.0,0.651774583,0.0,0.35688023,0.0,0.45194491600000003,True,,57acee52bfa77b0001bf31d4,,2143940,169,,evan-feature22,full_rf_b,,1
143,12777,170,,,,1,1,1.0,1.0,0.0,1.0,,0.0-172.0,,1.0,1352.275,1.0,0.75,1.0,0.75,0.0,0.283145374,1.0,0.528608005,True,,57acee52bfa77b0001bf31d4,,2155081,170,,evan-feature22,full_rf_b,,1
144,12778,171,,,,2,2,1.0,0.0,-1.0,0.0,,0.0-173.0,,-1.0,1450.2,1.0,0.7491416890000001,1.0,0.7423785959999999,1.0,0.29135870399999997,0.0,0.498888318,True,,57acee52bfa77b0001bf31d4,,2166313,171,,evan-feature22,full_rf_b,,1
145,12779,172,,,,1,1,1.0,0.0,0.0,1.0,,0.0-174.0,,0.0,1660.09,1.0,0.708569387,0.0,0.717682277,0.0,0.294421699,1.0,0.493838163,True,,57acee52bfa77b0001bf31d4,,2177760,172,,evan-feature22,full_rf_b,,1
146,12780,173,,,,2,2,1.0,1.0,-1.0,0.0,,0.0-175.0,,-1.0,1271.5,0.0,0.75,0.0,0.7383382159999999,1.0,0.356098707,1.0,0.442533405,True,,57acee52bfa77b0001bf31d4,,2188821,173,,evan-feature22,full_rf_b,,1
147,12781,174,,,,1,1,0.0,1.0,-1.0,0.0,,0.0-176.0,,0.0,1787.91,0.0,0.744527075,1.0,0.75,1.0,0.334127506,1.0,0.393165805,True,,57acee52bfa77b0001bf31d4,,2200387,174,,evan-feature22,full_rf_b,,1
148,12782,175,,,,1,1,1.0,0.0,-1.0,0.0,,0.0-177.0,,-1.0,1426.41,1.0,0.75,0.0,0.75,0.0,0.33571021799999995,1.0,0.350393962,True,,57acee52bfa77b0001bf31d4,,2211599,175,,evan-feature22,full_rf_b,,0
149,12783,176,,,,2,2,0.0,0.0,0.0,1.0,,0.0-178.0,,0.0,1598.8,1.0,0.75,0.0,0.75,0.0,0.313628297,0.0,0.36349657399999996,True,,57acee52bfa77b0001bf31d4,,2222983,176,,evan-feature22,full_rf_b,,1
150,12784,177,,,,2,2,1.0,1.0,-1.0,0.0,,0.0-179.0,,-1.0,1375.325,1.0,0.75,1.0,0.734284182,1.0,0.262667667,1.0,0.380199119,True,,57acee52bfa77b0001bf31d4,,2234145,177,,evan-feature22,full_rf_b,,0
151,12785,178,,,,2,2,0.0,1.0,-1.0,0.0,,0.0-180.0,,0.0,2350.58,1.0,0.75,0.0,0.75,0.0,0.25,1.0,0.394494013,True,,57acee52bfa77b0001bf31d4,,2246277,178,,evan-feature22,full_rf_b,,0
152,12786,179,,,,2,2,0.0,0.0,-1.0,0.0,,0.0-181.0,,0.0,1650.48,1.0,0.722298145,1.0,0.7357822340000001,0.0,0.25,0.0,0.319142121,True,,57acee52bfa77b0001bf31d4,,2257700,179,,evan-feature22,full_rf_b,,0
153,12787,180,,,,2,2,1.0,0.0,-1.0,0.0,,0.0-182.0,,-1.0,1161.37,1.0,0.73149275,1.0,0.724276446,1.0,0.305856907,0.0,0.281315057,True,,57acee52bfa77b0001bf31d4,,2268649,180,,evan-feature22,full_rf_b,,0
154,12788,181,,,,2,2,0.0,1.0,-1.0,0.0,,0.0-183.0,,0.0,2409.075,1.0,0.7458732690000001,1.0,0.7336382459999999,0.0,0.272571964,1.0,0.266021999,True,,57acee52bfa77b0001bf31d4,,2280843,181,,evan-feature22,full_rf_b,,0
155,12789,182,,,,2,2,0.0,0.0,0.0,1.0,,0.0-184.0,,0.0,1678.255,0.0,0.705579037,1.0,0.720778292,0.0,0.320238144,0.0,0.30971744,True,,57acee52bfa77b0001bf31d4,,2292308,182,,evan-feature22,full_rf_b,,0
156,12790,183,,,,1,1,0.0,1.0,0.0,1.0,,0.0-185.0,,1.0,697.88,0.0,0.700425648,1.0,0.7198784009999999,0.0,0.272590393,0.0,0.304182931,True,,57acee52bfa77b0001bf31d4,,2302788,183,,evan-feature22,full_rf_b,,1
157,12791,184,,,,1,1,0.0,1.0,0.0,1.0,,0.0-186.0,,1.0,864.17,0.0,0.735590785,1.0,0.722714973,0.0,0.25,1.0,0.323421091,True,,57acee52bfa77b0001bf31d4,,2313432,184,,evan-feature22,full_rf_b,,0
158,12792,185,,,,1,1,1.0,1.0,0.0,1.0,,0.0-187.0,,1.0,994.745,1.0,0.724807662,1.0,0.63146213,1.0,0.36836492600000004,1.0,0.34592153299999995,True,,57acee52bfa77b0001bf31d4,,2324214,185,,evan-feature22,full_rf_b,,0
159,12793,186,,,,1,1,1.0,1.0,-1.0,0.0,,0.0-188.0,,-1.0,1760.41,1.0,0.7352796909999999,1.0,0.555111392,1.0,0.36003922,0.0,0.31433779999999995,True,,57acee52bfa77b0001bf31d4,,2335748,186,,evan-feature22,full_rf_b,,0
160,12794,187,notice,,,,,,,,,,0.0-189.0,"{""Q0"":""no""}",,9407.0,,,,,,,,,True,,57acee52bfa77b0001bf31d4,,2345157,187,Q,survey-text,full_rf_b,,1
161,12795,188,track1,,[1],,,,,,,,0.0-190.0,"{""Q0"":""no""}",,5542.0,,,,,,,,,True,,57acee52bfa77b0001bf31d4,,2350705,188,Q,evan-quiz,full_rf_b,,1
162,12796,189,track2,,[1],,,,,,,,0.0-191.0,"{""Q0"":""no""}",,12472.0,,,,,,,,,True,,57acee52bfa77b0001bf31d4,,2363180,189,Q,evan-quiz,full_rf_b,,1
163,12797,190,strat,,,,,,,,,,0.0-192.0,"{""Q0"":""intuition- i just relaxed and guessed""}",,18379.0,,,,,,,,,True,,57acee52bfa77b0001bf31d4,,2381562,190,Q,survey-text,full_rf_b,,1
