,index,Unnamed: 0,Q_name,button_pressed,choice_idxs,chosen_pos,chosen_state,chosen_state_f_1_outcome,chosen_state_f_2_outcome,f_1_reward,f_2_reward,incor_questions,internal_node_id,responses,reward_received,rt,s_1_f_1_outcome,s_1_f_1_prob,s_1_f_2_outcome,s_1_f_2_prob,s_2_f_1_outcome,s_2_f_1_prob,s_2_f_2_outcome,s_2_f_2_prob,safe_first,stimulus,subjectID,success,time_elapsed,trial_index,trial_num,trial_type,version,view_history,switching
0,26547,25,,,,1,1,0.0,0.0,-1.0,0.0,,0.0-27.0,,0.0,1223.43,0.0,0.6,0.0,0.6,0.0,0.4,1.0,0.4,False,,5ea000d6e849b0000814e9d5,,837027,25,,evan-feature22,full_pf_b,,0
1,26548,26,,,,1,1,0.0,0.0,-1.0,0.0,,0.0-28.0,,0.0,1366.425,0.0,0.608053294,0.0,0.63424552,0.0,0.397152172,0.0,0.347069101,False,,5ea000d6e849b0000814e9d5,,848235,26,,evan-feature22,full_pf_b,,0
2,26549,27,,,,2,2,0.0,0.0,-1.0,0.0,,0.0-29.0,,0.0,1071.58,0.0,0.642237155,1.0,0.648566321,0.0,0.389407674,0.0,0.285525717,False,,5ea000d6e849b0000814e9d5,,859126,27,,evan-feature22,full_pf_b,,1
3,26550,28,,,,1,1,1.0,1.0,-1.0,0.0,,0.0-30.0,,-1.0,929.165,1.0,0.661086576,1.0,0.630492543,0.0,0.399058924,0.0,0.25,False,,5ea000d6e849b0000814e9d5,,869864,28,,evan-feature22,full_pf_b,,1
4,26551,29,,,,2,2,0.0,0.0,0.0,1.0,,0.0-31.0,,0.0,1106.63,1.0,0.631324137,1.0,0.6269842929999999,0.0,0.38734784299999997,0.0,0.25,False,,5ea000d6e849b0000814e9d5,,880783,29,,evan-feature22,full_pf_b,,1
5,26552,30,,,,1,1,1.0,0.0,0.0,1.0,,0.0-32.0,,0.0,789.27,1.0,0.6381991370000001,0.0,0.68987999,0.0,0.384107265,0.0,0.271332943,False,,5ea000d6e849b0000814e9d5,,891391,30,,evan-feature22,full_pf_b,,1
6,26553,31,,,,1,1,1.0,0.0,-1.0,0.0,,0.0-33.0,,-1.0,1349.88,1.0,0.66034901,0.0,0.742641349,1.0,0.360225629,0.0,0.25,False,,5ea000d6e849b0000814e9d5,,902593,31,,evan-feature22,full_pf_b,,0
7,26554,32,,,,1,1,1.0,0.0,-1.0,0.0,,0.0-34.0,,-1.0,1260.565,1.0,0.638612418,0.0,0.75,0.0,0.367273939,1.0,0.25,False,,5ea000d6e849b0000814e9d5,,913698,32,,evan-feature22,full_pf_b,,0
8,26555,33,,,,2,2,0.0,1.0,0.0,1.0,,0.0-35.0,,1.0,681.815,1.0,0.624340629,1.0,0.75,0.0,0.425829545,1.0,0.25,False,,5ea000d6e849b0000814e9d5,,924231,33,,evan-feature22,full_pf_b,,1
9,26556,34,,,,2,2,0.0,0.0,0.0,1.0,,0.0-36.0,,0.0,887.76,1.0,0.621999804,1.0,0.75,0.0,0.368609357,0.0,0.25,False,,5ea000d6e849b0000814e9d5,,934952,34,,evan-feature22,full_pf_b,,0
10,26557,35,,,,2,2,0.0,1.0,-1.0,0.0,,0.0-37.0,,0.0,1075.65,1.0,0.62666403,1.0,0.75,0.0,0.311151498,1.0,0.25,False,,5ea000d6e849b0000814e9d5,,945865,35,,evan-feature22,full_pf_b,,0
11,26558,36,,,,2,2,0.0,0.0,0.0,1.0,,0.0-38.0,,0.0,1212.68,1.0,0.6819650009999999,1.0,0.75,0.0,0.310763048,0.0,0.25,False,,5ea000d6e849b0000814e9d5,,956910,36,,evan-feature22,full_pf_b,,0
12,26559,37,,,,1,1,1.0,1.0,-1.0,0.0,,0.0-39.0,,-1.0,1325.73,1.0,0.740626951,1.0,0.75,0.0,0.25,1.0,0.25,False,,5ea000d6e849b0000814e9d5,,968067,37,,evan-feature22,full_pf_b,,1
13,26560,38,,,,2,2,0.0,1.0,-1.0,0.0,,0.0-40.0,,0.0,1068.11,1.0,0.739599242,1.0,0.742034978,0.0,0.25397114600000004,1.0,0.25,False,,5ea000d6e849b0000814e9d5,,978968,38,,evan-feature22,full_pf_b,,1
14,26561,39,,,,2,2,0.0,1.0,-1.0,0.0,,0.0-41.0,,0.0,1041.395,1.0,0.732341315,0.0,0.72735643,0.0,0.25,1.0,0.25,False,,5ea000d6e849b0000814e9d5,,989830,39,,evan-feature22,full_pf_b,,0
15,26562,40,,,,2,2,1.0,0.0,-1.0,0.0,,0.0-42.0,,-1.0,867.345,1.0,0.7062287770000001,1.0,0.75,1.0,0.29002151,0.0,0.288256649,False,,5ea000d6e849b0000814e9d5,,1000509,40,,evan-feature22,full_pf_b,,0
16,26563,41,,,,1,1,1.0,1.0,-1.0,0.0,,0.0-43.0,,-1.0,1208.3,1.0,0.7086029209999999,1.0,0.75,0.0,0.274129113,1.0,0.262851608,False,,5ea000d6e849b0000814e9d5,,1011556,41,,evan-feature22,full_pf_b,,1
17,26564,42,,,,2,2,0.0,0.0,-1.0,0.0,,0.0-44.0,,0.0,1009.99,0.0,0.669189651,1.0,0.727614338,0.0,0.298444036,0.0,0.296944518,False,,5ea000d6e849b0000814e9d5,,1022403,42,,evan-feature22,full_pf_b,,1
18,26565,43,,,,1,1,1.0,0.0,-1.0,0.0,,0.0-45.0,,-1.0,1544.43,1.0,0.6819912929999999,0.0,0.7179434290000001,0.0,0.265003961,1.0,0.28157921199999997,False,,5ea000d6e849b0000814e9d5,,1033792,43,,evan-feature22,full_pf_b,,1
19,26566,44,,,,2,2,0.0,0.0,0.0,1.0,,0.0-46.0,,0.0,1484.46,0.0,0.665275002,1.0,0.723065271,0.0,0.260414971,0.0,0.30973870000000003,False,,5ea000d6e849b0000814e9d5,,1045109,44,,evan-feature22,full_pf_b,,1
20,26567,45,,,,1,1,0.0,1.0,-1.0,0.0,,0.0-47.0,,0.0,860.405,0.0,0.6660593260000001,1.0,0.728032907,1.0,0.30922817,0.0,0.338778608,False,,5ea000d6e849b0000814e9d5,,1055789,45,,evan-feature22,full_pf_b,,1
21,26568,46,,,,1,1,1.0,1.0,-1.0,0.0,,0.0-48.0,,-1.0,1106.295,1.0,0.702068785,1.0,0.6528750879999999,1.0,0.287329608,1.0,0.35789613200000003,False,,5ea000d6e849b0000814e9d5,,1066717,46,,evan-feature22,full_pf_b,,0
22,26569,47,,,,1,1,1.0,1.0,-1.0,0.0,,0.0-49.0,,-1.0,1014.565,1.0,0.651939787,1.0,0.636725589,0.0,0.284834488,0.0,0.358563756,False,,5ea000d6e849b0000814e9d5,,1077556,47,,evan-feature22,full_pf_b,,0
23,26570,48,,,,1,1,0.0,1.0,0.0,1.0,,0.0-50.0,,1.0,1717.3,0.0,0.67573929,1.0,0.612550049,0.0,0.37130387600000003,0.0,0.383542402,False,,5ea000d6e849b0000814e9d5,,1089090,48,,evan-feature22,full_pf_b,,0
24,26571,49,,,,1,1,1.0,1.0,0.0,1.0,,0.0-51.0,,1.0,980.375,1.0,0.620753801,1.0,0.60513644,1.0,0.385529434,0.0,0.340361743,False,,5ea000d6e849b0000814e9d5,,1099897,49,,evan-feature22,full_pf_b,,0
25,26572,50,,,,1,1,0.0,1.0,0.0,1.0,,0.0-52.0,,1.0,757.165,0.0,0.673564893,1.0,0.672437924,1.0,0.292955382,0.0,0.337633795,False,,5ea000d6e849b0000814e9d5,,1110468,50,,evan-feature22,full_pf_b,,0
26,26573,51,,,,1,1,1.0,1.0,-1.0,0.0,,0.0-53.0,,-1.0,1004.2,1.0,0.6749427,1.0,0.724197502,0.0,0.32391132100000003,0.0,0.350995264,False,,5ea000d6e849b0000814e9d5,,1121292,51,,evan-feature22,full_pf_b,,0
27,26574,52,,,,2,2,0.0,0.0,-1.0,0.0,,0.0-54.0,,0.0,1322.675,0.0,0.6940159379999999,1.0,0.75,0.0,0.31710554399999996,0.0,0.413450341,False,,5ea000d6e849b0000814e9d5,,1132422,52,,evan-feature22,full_pf_b,,1
28,26575,53,,,,2,2,0.0,1.0,-1.0,0.0,,0.0-55.0,,0.0,1800.01,1.0,0.6916018270000001,0.0,0.69001187,0.0,0.261817804,1.0,0.40038635,False,,5ea000d6e849b0000814e9d5,,1144057,53,,evan-feature22,full_pf_b,,0
29,26576,54,,,,2,2,1.0,1.0,-1.0,0.0,,0.0-56.0,,-1.0,1203.265,1.0,0.641061544,0.0,0.71337992,1.0,0.277296461,1.0,0.47372791700000005,False,,5ea000d6e849b0000814e9d5,,1155093,54,,evan-feature22,full_pf_b,,0
30,26577,55,,,,2,2,0.0,1.0,-1.0,0.0,,0.0-57.0,,0.0,1126.895,0.0,0.6082438520000001,1.0,0.708471106,0.0,0.28745137,1.0,0.564174476,False,,5ea000d6e849b0000814e9d5,,1166044,55,,evan-feature22,full_pf_b,,0
31,26578,56,,,,1,1,1.0,1.0,-1.0,0.0,,0.0-58.0,,-1.0,994.44,1.0,0.6051112120000001,1.0,0.7118147229999999,1.0,0.272390611,0.0,0.5595149939999999,False,,5ea000d6e849b0000814e9d5,,1176876,56,,evan-feature22,full_pf_b,,1
32,26579,57,,,,1,1,1.0,0.0,-1.0,0.0,,0.0-59.0,,-1.0,1092.265,1.0,0.582420852,0.0,0.635867583,0.0,0.31089574,0.0,0.5227206520000001,False,,5ea000d6e849b0000814e9d5,,1187808,57,,evan-feature22,full_pf_b,,0
33,26580,58,,,,2,2,1.0,1.0,0.0,1.0,,0.0-60.0,,1.0,1311.795,1.0,0.623195575,1.0,0.655026044,1.0,0.25,1.0,0.560387538,False,,5ea000d6e849b0000814e9d5,,1198946,58,,evan-feature22,full_pf_b,,1
34,26581,59,,,,2,2,0.0,1.0,-1.0,0.0,,0.0-61.0,,0.0,1037.095,1.0,0.601889598,0.0,0.678198724,0.0,0.25,1.0,0.559922936,False,,5ea000d6e849b0000814e9d5,,1209808,59,,evan-feature22,full_pf_b,,0
35,26582,60,,,,2,2,1.0,0.0,-1.0,0.0,,0.0-62.0,,-1.0,1103.8,1.0,0.601259914,0.0,0.704681482,1.0,0.33908969299999997,0.0,0.505003715,False,,5ea000d6e849b0000814e9d5,,1220748,60,,evan-feature22,full_pf_b,,0
36,26583,61,,,,1,1,1.0,1.0,-1.0,0.0,,0.0-63.0,,-1.0,822.56,1.0,0.59645454,1.0,0.710437172,1.0,0.327441879,0.0,0.391749613,False,,5ea000d6e849b0000814e9d5,,1231418,61,,evan-feature22,full_pf_b,,1
37,26584,62,,,,1,1,0.0,1.0,-1.0,0.0,,0.0-64.0,,0.0,699.98,0.0,0.529473,1.0,0.636758527,1.0,0.301338063,0.0,0.365661481,False,,5ea000d6e849b0000814e9d5,,1241967,62,,evan-feature22,full_pf_b,,0
38,26585,63,,,,1,1,0.0,0.0,0.0,1.0,,0.0-65.0,,0.0,992.37,0.0,0.541657162,0.0,0.634541962,0.0,0.343535366,0.0,0.371763742,False,,5ea000d6e849b0000814e9d5,,1252786,63,,evan-feature22,full_pf_b,,0
39,26586,64,,,,1,1,1.0,1.0,-1.0,0.0,,0.0-66.0,,-1.0,883.295,1.0,0.5707533260000001,1.0,0.589121171,0.0,0.326428396,0.0,0.43961622899999997,False,,5ea000d6e849b0000814e9d5,,1263479,64,,evan-feature22,full_pf_b,,0
40,26587,65,,,,1,1,1.0,1.0,-1.0,0.0,,0.0-67.0,,-1.0,661.54,1.0,0.5707533260000001,1.0,0.589121171,0.0,0.326428396,0.0,0.43961622899999997,False,,5ea000d6e849b0000814e9d5,,1273969,65,,evan-feature22,full_pf_b,,0
41,26588,66,,,,2,2,1.0,0.0,-1.0,0.0,,0.0-68.0,,-1.0,1294.145,0.0,0.506271295,1.0,0.641775594,1.0,0.37149690700000004,0.0,0.404330166,False,,5ea000d6e849b0000814e9d5,,1285089,66,,evan-feature22,full_pf_b,,1
42,26589,67,,,,1,1,0.0,1.0,0.0,1.0,,0.0-69.0,,1.0,991.43,0.0,0.455642565,1.0,0.623605825,1.0,0.358753011,1.0,0.346174041,False,,5ea000d6e849b0000814e9d5,,1295909,67,,evan-feature22,full_pf_b,,1
43,26590,68,,,,1,1,1.0,1.0,0.0,1.0,,0.0-70.0,,1.0,840.745,1.0,0.483677308,1.0,0.5904681070000001,0.0,0.402218411,1.0,0.35344697,False,,5ea000d6e849b0000814e9d5,,1306562,68,,evan-feature22,full_pf_b,,0
44,26591,69,,,,1,1,0.0,0.0,0.0,1.0,,0.0-71.0,,0.0,763.435,0.0,0.394210977,0.0,0.558925494,1.0,0.540052017,1.0,0.35182128700000004,False,,5ea000d6e849b0000814e9d5,,1317155,69,,evan-feature22,full_pf_b,,0
45,26592,70,,,,2,2,1.0,0.0,-1.0,0.0,,0.0-72.0,,-1.0,752.59,0.0,0.382300414,1.0,0.577670603,1.0,0.607608448,0.0,0.378261578,False,,5ea000d6e849b0000814e9d5,,1327721,70,,evan-feature22,full_pf_b,,1
46,26593,71,,,,1,1,0.0,1.0,-1.0,0.0,,0.0-73.0,,0.0,1051.635,0.0,0.357596762,1.0,0.5929076529999999,1.0,0.6579790010000001,0.0,0.401326777,False,,5ea000d6e849b0000814e9d5,,1338607,71,,evan-feature22,full_pf_b,,1
47,26594,72,,,,1,1,1.0,1.0,-1.0,0.0,,0.0-74.0,,-1.0,1186.945,1.0,0.362033495,1.0,0.582308608,1.0,0.649195052,0.0,0.355158505,False,,5ea000d6e849b0000814e9d5,,1349642,72,,evan-feature22,full_pf_b,,0
48,26595,73,,,,1,1,0.0,1.0,-1.0,0.0,,0.0-75.0,,0.0,1016.325,0.0,0.369620635,1.0,0.669100864,1.0,0.706059111,0.0,0.362516241,False,,5ea000d6e849b0000814e9d5,,1360478,73,,evan-feature22,full_pf_b,,0
49,26596,74,,,,1,1,0.0,1.0,-1.0,0.0,,0.0-76.0,,0.0,817.95,0.0,0.41477751399999996,1.0,0.7284416779999999,0.0,0.7182656940000001,1.0,0.36228040899999997,False,,5ea000d6e849b0000814e9d5,,1371088,74,,evan-feature22,full_pf_b,,0
50,26597,75,,,,1,1,0.0,1.0,0.0,1.0,,0.0-77.0,,1.0,1142.56,0.0,0.37675460299999997,1.0,0.703250285,1.0,0.75,1.0,0.461979164,False,,5ea000d6e849b0000814e9d5,,1382074,75,,evan-feature22,full_pf_b,,0
51,26598,76,,,,1,1,1.0,1.0,0.0,1.0,,0.0-78.0,,1.0,844.095,1.0,0.398716075,1.0,0.6723864890000001,0.0,0.674153818,1.0,0.519029516,False,,5ea000d6e849b0000814e9d5,,1392760,76,,evan-feature22,full_pf_b,,0
52,26599,77,,,,1,1,0.0,1.0,-1.0,0.0,,0.0-79.0,,0.0,1431.755,0.0,0.34677856700000004,1.0,0.69057175,0.0,0.6822438540000001,1.0,0.477292237,False,,5ea000d6e849b0000814e9d5,,1404029,77,,evan-feature22,full_pf_b,,0
53,26600,78,,,,1,1,0.0,1.0,0.0,1.0,,0.0-80.0,,1.0,817.52,0.0,0.28580469199999997,1.0,0.68408818,1.0,0.684207565,1.0,0.49780448299999996,False,,5ea000d6e849b0000814e9d5,,1414685,78,,evan-feature22,full_pf_b,,0
54,26602,80,,,,1,1,0.0,1.0,-1.0,0.0,,0.0-82.0,,0.0,1732.485,0.0,0.25,1.0,0.7405808970000001,0.0,0.679614108,1.0,0.436436964,False,,5ea000d6e849b0000814e9d5,,1430760,80,,evan-feature22,full_pf_b,,0
55,26603,81,,,,1,1,0.0,0.0,0.0,1.0,,0.0-83.0,,0.0,1560.845,0.0,0.29890393,0.0,0.730505706,0.0,0.7328203320000001,1.0,0.439256938,False,,5ea000d6e849b0000814e9d5,,1442142,81,,evan-feature22,full_pf_b,,0
56,26604,82,,,,2,2,1.0,1.0,-1.0,0.0,,0.0-84.0,,-1.0,1727.095,1.0,0.326762398,0.0,0.7148059609999999,1.0,0.75,1.0,0.44389608799999997,False,,5ea000d6e849b0000814e9d5,,1453691,82,,evan-feature22,full_pf_b,,1
57,26605,83,,,,2,2,0.0,0.0,-1.0,0.0,,0.0-85.0,,0.0,662.21,0.0,0.295168515,0.0,0.739760854,0.0,0.719947008,0.0,0.35277284600000003,False,,5ea000d6e849b0000814e9d5,,1464168,83,,evan-feature22,full_pf_b,,0
58,26606,84,,,,2,2,1.0,0.0,-1.0,0.0,,0.0-86.0,,-1.0,1150.435,1.0,0.25,1.0,0.70781482,1.0,0.75,0.0,0.286095925,False,,5ea000d6e849b0000814e9d5,,1475151,84,,evan-feature22,full_pf_b,,0
59,26607,85,,,,1,1,0.0,0.0,0.0,1.0,,0.0-87.0,,0.0,1084.525,0.0,0.25638190899999996,0.0,0.704088163,1.0,0.75,0.0,0.26872601399999996,False,,5ea000d6e849b0000814e9d5,,1486063,85,,evan-feature22,full_pf_b,,1
60,26608,86,,,,1,1,1.0,0.0,0.0,1.0,,0.0-88.0,,0.0,651.005,1.0,0.271581126,0.0,0.669760107,1.0,0.733896663,0.0,0.273244572,False,,5ea000d6e849b0000814e9d5,,1496528,86,,evan-feature22,full_pf_b,,0
61,26609,87,,,,1,1,1.0,1.0,0.0,1.0,,0.0-89.0,,1.0,852.17,1.0,0.257144401,1.0,0.600575706,1.0,0.74488122,0.0,0.25,False,,5ea000d6e849b0000814e9d5,,1507197,87,,evan-feature22,full_pf_b,,0
62,26610,88,,,,1,1,0.0,1.0,-1.0,0.0,,0.0-90.0,,0.0,1914.0,0.0,0.25,1.0,0.616870026,0.0,0.723610234,0.0,0.25,False,,5ea000d6e849b0000814e9d5,,1518931,88,,evan-feature22,full_pf_b,,0
63,26611,89,,,,1,1,0.0,1.0,0.0,1.0,,0.0-91.0,,1.0,1084.965,0.0,0.25,1.0,0.583540187,1.0,0.7041042559999999,0.0,0.285961995,False,,5ea000d6e849b0000814e9d5,,1529833,89,,evan-feature22,full_pf_b,,0
64,26612,90,,,,1,1,0.0,1.0,-1.0,0.0,,0.0-92.0,,0.0,1375.79,0.0,0.27254536,1.0,0.53875765,1.0,0.693783448,0.0,0.284961652,False,,5ea000d6e849b0000814e9d5,,1541024,90,,evan-feature22,full_pf_b,,0
65,26613,91,,,,1,1,0.0,0.0,0.0,1.0,,0.0-93.0,,0.0,838.255,0.0,0.25,0.0,0.548431252,0.0,0.734221895,0.0,0.279445214,False,,5ea000d6e849b0000814e9d5,,1551671,91,,evan-feature22,full_pf_b,,0
66,26614,92,,,,1,1,1.0,1.0,-1.0,0.0,,0.0-94.0,,-1.0,731.65,1.0,0.258640684,1.0,0.545878066,1.0,0.725245965,0.0,0.31487537,False,,5ea000d6e849b0000814e9d5,,1562235,92,,evan-feature22,full_pf_b,,0
67,26615,93,,,,1,1,1.0,1.0,-1.0,0.0,,0.0-95.0,,-1.0,1033.435,1.0,0.251103711,1.0,0.5776290629999999,1.0,0.696320133,0.0,0.317831047,False,,5ea000d6e849b0000814e9d5,,1573100,93,,evan-feature22,full_pf_b,,0
68,26616,94,,,,1,1,1.0,1.0,-1.0,0.0,,0.0-96.0,,-1.0,1002.805,1.0,0.276630292,1.0,0.617329858,1.0,0.73838088,0.0,0.261471582,False,,5ea000d6e849b0000814e9d5,,1583935,94,,evan-feature22,full_pf_b,,0
69,26617,95,,,,1,1,0.0,1.0,0.0,1.0,,0.0-97.0,,1.0,1186.555,0.0,0.297716424,1.0,0.618863717,1.0,0.7402358259999999,0.0,0.262600834,False,,5ea000d6e849b0000814e9d5,,1594960,95,,evan-feature22,full_pf_b,,0
70,26618,96,,,,1,1,0.0,0.0,-1.0,0.0,,0.0-98.0,,0.0,785.065,0.0,0.290935512,0.0,0.695370945,1.0,0.706570507,0.0,0.280030553,False,,5ea000d6e849b0000814e9d5,,1605567,96,,evan-feature22,full_pf_b,,0
71,26619,97,,,,1,1,0.0,1.0,-1.0,0.0,,0.0-99.0,,0.0,914.66,0.0,0.25,1.0,0.6465277079999999,0.0,0.67766682,0.0,0.25,False,,5ea000d6e849b0000814e9d5,,1616319,97,,evan-feature22,full_pf_b,,0
72,26620,98,,,,1,1,1.0,1.0,-1.0,0.0,,0.0-100.0,,-1.0,1161.205,1.0,0.26463816,1.0,0.636100213,1.0,0.646048507,0.0,0.265607101,False,,5ea000d6e849b0000814e9d5,,1627302,98,,evan-feature22,full_pf_b,,0
73,26621,99,,,,1,1,0.0,1.0,-1.0,0.0,,0.0-101.0,,0.0,864.28,0.0,0.314340707,1.0,0.667795927,1.0,0.613630805,1.0,0.25,False,,5ea000d6e849b0000814e9d5,,1638012,99,,evan-feature22,full_pf_b,,0
74,26622,100,,,,1,1,0.0,1.0,-1.0,0.0,,0.0-102.0,,0.0,955.31,0.0,0.28685784,1.0,0.6622549529999999,1.0,0.652154117,0.0,0.25,False,,5ea000d6e849b0000814e9d5,,1648779,100,,evan-feature22,full_pf_b,,0
75,26623,101,,,,1,1,0.0,1.0,0.0,1.0,,0.0-103.0,,1.0,899.12,0.0,0.304106554,1.0,0.631289538,1.0,0.707041942,0.0,0.29314237,False,,5ea000d6e849b0000814e9d5,,1659496,101,,evan-feature22,full_pf_b,,0
76,26624,102,,,,1,1,0.0,0.0,0.0,1.0,,0.0-104.0,,0.0,822.2,0.0,0.304806932,0.0,0.571167718,0.0,0.680472346,0.0,0.25,False,,5ea000d6e849b0000814e9d5,,1670115,102,,evan-feature22,full_pf_b,,0
77,26625,103,,,,1,1,1.0,1.0,0.0,1.0,,0.0-105.0,,1.0,663.44,1.0,0.37919861,1.0,0.5724849710000001,0.0,0.705638003,1.0,0.30179300600000003,False,,5ea000d6e849b0000814e9d5,,1680615,103,,evan-feature22,full_pf_b,,0
78,26626,104,,,,1,1,0.0,1.0,0.0,1.0,,0.0-106.0,,1.0,840.125,0.0,0.464277969,1.0,0.554034373,0.0,0.7372627340000001,0.0,0.264699741,False,,5ea000d6e849b0000814e9d5,,1691282,104,,evan-feature22,full_pf_b,,0
79,26627,105,,,,1,1,1.0,0.0,-1.0,0.0,,0.0-107.0,,-1.0,1352.395,1.0,0.465104323,0.0,0.530793115,1.0,0.75,0.0,0.31683071,False,,5ea000d6e849b0000814e9d5,,1702468,105,,evan-feature22,full_pf_b,,0
80,26628,106,,,,1,1,0.0,0.0,0.0,1.0,,0.0-108.0,,0.0,1220.545,0.0,0.465104323,0.0,0.530793115,1.0,0.75,0.0,0.31683071,False,,5ea000d6e849b0000814e9d5,,1713505,106,,evan-feature22,full_pf_b,,0
81,26629,107,,,,1,1,0.0,1.0,0.0,1.0,,0.0-109.0,,1.0,949.66,0.0,0.46833986,1.0,0.570249239,1.0,0.7244472590000001,0.0,0.364114163,False,,5ea000d6e849b0000814e9d5,,1724273,107,,evan-feature22,full_pf_b,,0
82,26630,108,,,,1,1,0.0,1.0,0.0,1.0,,0.0-110.0,,1.0,758.875,0.0,0.445444024,1.0,0.649673355,1.0,0.6845441290000001,0.0,0.300660449,False,,5ea000d6e849b0000814e9d5,,1734851,108,,evan-feature22,full_pf_b,,0
83,26631,109,,,,1,1,0.0,1.0,0.0,1.0,,0.0-111.0,,1.0,849.87,0.0,0.39909721299999995,1.0,0.6715179509999999,0.0,0.742310028,1.0,0.35496088299999995,False,,5ea000d6e849b0000814e9d5,,1745520,109,,evan-feature22,full_pf_b,,0
84,26632,110,,,,1,1,0.0,1.0,0.0,1.0,,0.0-112.0,,1.0,616.84,0.0,0.37956104799999996,1.0,0.694725302,1.0,0.7181651309999999,0.0,0.38726906299999997,False,,5ea000d6e849b0000814e9d5,,1755952,110,,evan-feature22,full_pf_b,,0
85,26633,111,,,,1,1,1.0,1.0,0.0,1.0,,0.0-113.0,,1.0,822.75,1.0,0.404995034,1.0,0.724375412,0.0,0.6910946859999999,1.0,0.387187347,False,,5ea000d6e849b0000814e9d5,,1766615,111,,evan-feature22,full_pf_b,,0
86,26634,112,,,,1,1,0.0,1.0,0.0,1.0,,0.0-114.0,,1.0,687.765,0.0,0.461740803,1.0,0.75,1.0,0.75,0.0,0.34872038200000005,False,,5ea000d6e849b0000814e9d5,,1777151,112,,evan-feature22,full_pf_b,,0
87,26635,113,,,,1,1,0.0,1.0,-1.0,0.0,,0.0-115.0,,0.0,816.85,0.0,0.43821380600000004,1.0,0.738833273,0.0,0.728286963,1.0,0.399538128,False,,5ea000d6e849b0000814e9d5,,1787802,113,,evan-feature22,full_pf_b,,0
88,26636,114,,,,1,1,0.0,0.0,0.0,1.0,,0.0-116.0,,0.0,676.525,0.0,0.41709882,0.0,0.736666736,1.0,0.75,1.0,0.389095584,False,,5ea000d6e849b0000814e9d5,,1798300,114,,evan-feature22,full_pf_b,,0
89,26637,115,,,,1,1,0.0,1.0,0.0,1.0,,0.0-117.0,,1.0,732.645,0.0,0.39749009799999996,1.0,0.744320029,1.0,0.75,0.0,0.363848678,False,,5ea000d6e849b0000814e9d5,,1808859,115,,evan-feature22,full_pf_b,,0
90,26638,116,,,,1,1,1.0,0.0,-1.0,0.0,,0.0-118.0,,-1.0,982.67,1.0,0.392653706,0.0,0.75,1.0,0.75,0.0,0.384386976,False,,5ea000d6e849b0000814e9d5,,1819661,116,,evan-feature22,full_pf_b,,0
91,26639,117,,,,1,1,1.0,1.0,-1.0,0.0,,0.0-119.0,,-1.0,1764.315,1.0,0.31190902600000003,1.0,0.75,1.0,0.732413819,0.0,0.413082932,False,,5ea000d6e849b0000814e9d5,,1831253,117,,evan-feature22,full_pf_b,,0
92,26640,118,,,,1,1,0.0,1.0,0.0,1.0,,0.0-120.0,,1.0,645.295,0.0,0.366917648,1.0,0.740073855,1.0,0.75,1.0,0.352861979,False,,5ea000d6e849b0000814e9d5,,1841747,118,,evan-feature22,full_pf_b,,0
93,26641,119,,,,1,1,0.0,0.0,0.0,1.0,,0.0-121.0,,0.0,527.86,0.0,0.3645172,0.0,0.721770713,0.0,0.75,1.0,0.404074511,False,,5ea000d6e849b0000814e9d5,,1852076,119,,evan-feature22,full_pf_b,,0
94,26642,120,,,,1,1,0.0,0.0,0.0,1.0,,0.0-122.0,,0.0,913.855,0.0,0.35205600299999995,0.0,0.68983859,1.0,0.739735447,1.0,0.366895945,False,,5ea000d6e849b0000814e9d5,,1862810,120,,evan-feature22,full_pf_b,,0
95,26643,121,,,,2,2,1.0,0.0,0.0,1.0,,0.0-123.0,,0.0,1833.255,0.0,0.40998722600000004,0.0,0.720859127,1.0,0.673854955,0.0,0.368528541,False,,5ea000d6e849b0000814e9d5,,1874446,121,,evan-feature22,full_pf_b,,1
96,26644,122,,,,2,2,0.0,1.0,-1.0,0.0,,0.0-124.0,,0.0,1527.235,0.0,0.353625316,1.0,0.75,0.0,0.695605473,1.0,0.38303674200000004,False,,5ea000d6e849b0000814e9d5,,1885814,122,,evan-feature22,full_pf_b,,0
97,26645,123,,,,2,2,1.0,0.0,0.0,1.0,,0.0-125.0,,0.0,810.705,1.0,0.359216989,1.0,0.75,1.0,0.6987915090000001,0.0,0.35169046200000004,False,,5ea000d6e849b0000814e9d5,,1896450,123,,evan-feature22,full_pf_b,,0
98,26646,124,,,,2,2,1.0,0.0,-1.0,0.0,,0.0-126.0,,-1.0,2060.085,0.0,0.35834496899999996,1.0,0.75,1.0,0.707067742,0.0,0.416763636,False,,5ea000d6e849b0000814e9d5,,1908324,124,,evan-feature22,full_pf_b,,0
99,26647,125,,,,1,1,0.0,1.0,-1.0,0.0,,0.0-127.0,,0.0,697.01,0.0,0.38741613799999997,1.0,0.7177369570000001,0.0,0.734902455,0.0,0.49438664299999996,False,,5ea000d6e849b0000814e9d5,,1918851,125,,evan-feature22,full_pf_b,,1
100,26648,126,,,,1,1,0.0,1.0,0.0,1.0,,0.0-128.0,,1.0,1109.885,0.0,0.405255252,1.0,0.7300466640000001,0.0,0.7027748070000001,0.0,0.504359668,False,,5ea000d6e849b0000814e9d5,,1929799,126,,evan-feature22,full_pf_b,,0
101,26649,127,,,,1,1,1.0,1.0,0.0,1.0,,0.0-129.0,,1.0,810.515,1.0,0.40697073,1.0,0.7260142190000001,1.0,0.724461982,0.0,0.522779179,False,,5ea000d6e849b0000814e9d5,,1940447,127,,evan-feature22,full_pf_b,,0
102,26650,128,,,,1,1,0.0,0.0,0.0,1.0,,0.0-130.0,,0.0,687.075,0.0,0.43906215299999996,0.0,0.7252802340000001,1.0,0.719079934,0.0,0.5712990579999999,False,,5ea000d6e849b0000814e9d5,,1950964,128,,evan-feature22,full_pf_b,,0
103,26651,129,,,,1,1,1.0,1.0,0.0,1.0,,0.0-131.0,,1.0,869.69,1.0,0.4076705,1.0,0.73280499,1.0,0.681313127,1.0,0.523891346,False,,5ea000d6e849b0000814e9d5,,1961669,129,,evan-feature22,full_pf_b,,0
104,26652,130,,,,1,1,0.0,0.0,0.0,1.0,,0.0-132.0,,0.0,799.835,0.0,0.399102911,0.0,0.730498344,1.0,0.661080239,1.0,0.46742603,False,,5ea000d6e849b0000814e9d5,,1972285,130,,evan-feature22,full_pf_b,,0
105,26653,131,,,,1,1,1.0,1.0,-1.0,0.0,,0.0-133.0,,-1.0,978.76,1.0,0.356477282,1.0,0.712296395,0.0,0.641812684,1.0,0.44868414,False,,5ea000d6e849b0000814e9d5,,1983089,131,,evan-feature22,full_pf_b,,0
106,26654,132,,,,1,1,0.0,1.0,0.0,1.0,,0.0-134.0,,1.0,1288.28,0.0,0.462760722,1.0,0.692349322,1.0,0.700947931,0.0,0.394680266,False,,5ea000d6e849b0000814e9d5,,1994207,132,,evan-feature22,full_pf_b,,0
107,26655,133,,,,1,1,0.0,1.0,0.0,1.0,,0.0-135.0,,1.0,632.44,0.0,0.422306413,1.0,0.718375916,1.0,0.706340917,0.0,0.367787185,False,,5ea000d6e849b0000814e9d5,,2004653,133,,evan-feature22,full_pf_b,,0
108,26657,135,,,,1,1,0.0,1.0,0.0,1.0,,0.0-137.0,,1.0,1458.735,0.0,0.4582233,1.0,0.643834117,1.0,0.75,1.0,0.39615823299999997,False,,5ea000d6e849b0000814e9d5,,2018128,135,,evan-feature22,full_pf_b,,0
109,26658,136,,,,1,1,1.0,0.0,0.0,1.0,,0.0-138.0,,0.0,701.34,1.0,0.43813437899999996,0.0,0.651283804,0.0,0.729674191,0.0,0.37711048,False,,5ea000d6e849b0000814e9d5,,2028672,136,,evan-feature22,full_pf_b,,0
110,26659,137,,,,1,1,1.0,0.0,0.0,1.0,,0.0-139.0,,0.0,956.7,1.0,0.471199094,0.0,0.6470010979999999,0.0,0.715008097,1.0,0.410656191,False,,5ea000d6e849b0000814e9d5,,2039442,137,,evan-feature22,full_pf_b,,0
111,26660,138,,,,2,2,1.0,1.0,-1.0,0.0,,0.0-140.0,,-1.0,2201.89,0.0,0.42486406,1.0,0.629771829,1.0,0.6550939960000001,1.0,0.459093873,False,,5ea000d6e849b0000814e9d5,,2051463,138,,evan-feature22,full_pf_b,,1
112,26661,139,,,,1,1,0.0,1.0,-1.0,0.0,,0.0-141.0,,0.0,913.36,0.0,0.4803197,1.0,0.645842715,0.0,0.6421749920000001,0.0,0.443092151,False,,5ea000d6e849b0000814e9d5,,2062172,139,,evan-feature22,full_pf_b,,1
113,26662,140,,,,1,1,0.0,1.0,-1.0,0.0,,0.0-142.0,,0.0,772.57,0.0,0.521848997,1.0,0.735801074,0.0,0.6691348460000001,0.0,0.45259351600000003,False,,5ea000d6e849b0000814e9d5,,2072767,140,,evan-feature22,full_pf_b,,0
114,26663,141,,,,1,1,0.0,0.0,0.0,1.0,,0.0-143.0,,0.0,693.05,0.0,0.49565621299999996,0.0,0.742400847,1.0,0.661512553,1.0,0.483110831,False,,5ea000d6e849b0000814e9d5,,2083285,141,,evan-feature22,full_pf_b,,0
115,26664,142,,,,1,1,1.0,0.0,-1.0,0.0,,0.0-144.0,,-1.0,968.95,1.0,0.521564361,0.0,0.731078632,1.0,0.6774886809999999,1.0,0.483263956,False,,5ea000d6e849b0000814e9d5,,2094069,142,,evan-feature22,full_pf_b,,0
116,26665,143,,,,1,1,1.0,1.0,-1.0,0.0,,0.0-145.0,,-1.0,1072.68,1.0,0.558893102,1.0,0.719810023,1.0,0.67461031,0.0,0.499349834,False,,5ea000d6e849b0000814e9d5,,2104978,143,,evan-feature22,full_pf_b,,0
117,26666,144,,,,1,1,1.0,1.0,0.0,1.0,,0.0-146.0,,1.0,488.95,1.0,0.611031046,1.0,0.75,1.0,0.688072995,1.0,0.5321422729999999,False,,5ea000d6e849b0000814e9d5,,2115314,144,,evan-feature22,full_pf_b,,0
118,26667,145,,,,1,1,1.0,1.0,-1.0,0.0,,0.0-147.0,,-1.0,1042.405,1.0,0.633223941,1.0,0.713567728,1.0,0.75,1.0,0.48185314700000004,False,,5ea000d6e849b0000814e9d5,,2126193,145,,evan-feature22,full_pf_b,,0
119,26668,146,,,,1,1,1.0,1.0,-1.0,0.0,,0.0-148.0,,-1.0,927.295,1.0,0.664001694,1.0,0.705509768,0.0,0.75,0.0,0.500211065,False,,5ea000d6e849b0000814e9d5,,2136934,146,,evan-feature22,full_pf_b,,0
120,26669,147,,,,1,1,1.0,1.0,0.0,1.0,,0.0-149.0,,1.0,809.965,1.0,0.664001694,1.0,0.705509768,1.0,0.75,1.0,0.500211065,False,,5ea000d6e849b0000814e9d5,,2147593,147,,evan-feature22,full_pf_b,,0
121,26670,148,,,,1,1,1.0,1.0,0.0,1.0,,0.0-150.0,,1.0,652.76,1.0,0.696508041,1.0,0.71066027,1.0,0.717028709,1.0,0.49792991,False,,5ea000d6e849b0000814e9d5,,2158077,148,,evan-feature22,full_pf_b,,0
122,26671,149,,,,1,1,1.0,1.0,-1.0,0.0,,0.0-151.0,,-1.0,1280.54,1.0,0.699883272,1.0,0.75,0.0,0.713543895,1.0,0.496962643,False,,5ea000d6e849b0000814e9d5,,2169192,149,,evan-feature22,full_pf_b,,0
123,26672,150,,,,1,1,1.0,1.0,0.0,1.0,,0.0-152.0,,1.0,746.29,1.0,0.741163419,1.0,0.75,1.0,0.64691024,0.0,0.513858197,False,,5ea000d6e849b0000814e9d5,,2179781,150,,evan-feature22,full_pf_b,,0
124,26673,151,,,,1,1,1.0,1.0,-1.0,0.0,,0.0-153.0,,-1.0,1518.71,1.0,0.75,1.0,0.70816558,0.0,0.594499079,0.0,0.48502124,False,,5ea000d6e849b0000814e9d5,,2191120,151,,evan-feature22,full_pf_b,,0
125,26674,152,,,,1,1,0.0,0.0,0.0,1.0,,0.0-154.0,,0.0,759.41,0.0,0.75,0.0,0.721848901,0.0,0.62197249,1.0,0.48263586399999997,False,,5ea000d6e849b0000814e9d5,,2201699,152,,evan-feature22,full_pf_b,,0
126,26675,153,,,,2,2,0.0,0.0,-1.0,0.0,,0.0-155.0,,0.0,981.21,1.0,0.75,1.0,0.74813071,0.0,0.584357161,0.0,0.411477782,False,,5ea000d6e849b0000814e9d5,,2212495,153,,evan-feature22,full_pf_b,,1
127,26676,154,,,,2,2,0.0,0.0,0.0,1.0,,0.0-156.0,,0.0,1820.315,1.0,0.75,0.0,0.75,0.0,0.52287236,0.0,0.488290656,False,,5ea000d6e849b0000814e9d5,,2224145,154,,evan-feature22,full_pf_b,,0
128,26677,155,,,,2,2,1.0,1.0,0.0,1.0,,0.0-157.0,,1.0,783.635,0.0,0.75,0.0,0.75,1.0,0.544321581,1.0,0.53143059,False,,5ea000d6e849b0000814e9d5,,2234765,155,,evan-feature22,full_pf_b,,0
129,26678,156,,,,2,2,0.0,0.0,0.0,1.0,,0.0-158.0,,0.0,660.55,1.0,0.726754564,1.0,0.75,0.0,0.5129306370000001,0.0,0.530592445,False,,5ea000d6e849b0000814e9d5,,2245224,156,,evan-feature22,full_pf_b,,0
130,26679,157,,,,2,2,0.0,1.0,-1.0,0.0,,0.0-159.0,,0.0,1000.265,1.0,0.75,1.0,0.7392590729999999,0.0,0.479875835,1.0,0.547007051,False,,5ea000d6e849b0000814e9d5,,2256069,157,,evan-feature22,full_pf_b,,0
131,26680,158,,,,2,2,0.0,1.0,-1.0,0.0,,0.0-160.0,,0.0,1628.78,1.0,0.75,1.0,0.7393376979999999,0.0,0.546045419,1.0,0.541267353,False,,5ea000d6e849b0000814e9d5,,2267547,158,,evan-feature22,full_pf_b,,0
132,26681,159,,,,2,2,1.0,1.0,-1.0,0.0,,0.0-161.0,,-1.0,552.495,1.0,0.75,0.0,0.75,1.0,0.485725895,1.0,0.527625395,False,,5ea000d6e849b0000814e9d5,,2277933,159,,evan-feature22,full_pf_b,,0
133,26682,160,,,,2,2,1.0,0.0,0.0,1.0,,0.0-162.0,,0.0,796.905,1.0,0.75,1.0,0.725087974,1.0,0.488603595,0.0,0.504019206,False,,5ea000d6e849b0000814e9d5,,2288534,160,,evan-feature22,full_pf_b,,0
134,26683,161,,,,1,1,0.0,1.0,0.0,1.0,,0.0-163.0,,1.0,1351.075,0.0,0.745504295,1.0,0.75,1.0,0.452379914,1.0,0.50131194,False,,5ea000d6e849b0000814e9d5,,2299700,161,,evan-feature22,full_pf_b,,1
135,26684,162,,,,1,1,0.0,1.0,0.0,1.0,,0.0-164.0,,1.0,633.38,0.0,0.728513874,1.0,0.75,0.0,0.44125567200000004,0.0,0.531454591,False,,5ea000d6e849b0000814e9d5,,2310138,162,,evan-feature22,full_pf_b,,0
136,26685,163,,,,1,1,1.0,1.0,-1.0,0.0,,0.0-165.0,,-1.0,837.725,1.0,0.73790804,1.0,0.75,1.0,0.413036656,1.0,0.524619035,False,,5ea000d6e849b0000814e9d5,,2320791,163,,evan-feature22,full_pf_b,,0
137,26686,164,,,,1,1,0.0,1.0,0.0,1.0,,0.0-166.0,,1.0,768.94,0.0,0.7080961309999999,1.0,0.708666865,1.0,0.431915581,1.0,0.481819489,False,,5ea000d6e849b0000814e9d5,,2331355,164,,evan-feature22,full_pf_b,,0
138,26687,165,,,,1,1,1.0,1.0,0.0,1.0,,0.0-167.0,,1.0,583.12,1.0,0.721378003,1.0,0.71605913,0.0,0.36642387,0.0,0.5036739929999999,False,,5ea000d6e849b0000814e9d5,,2341774,165,,evan-feature22,full_pf_b,,0
139,26688,166,,,,1,1,1.0,1.0,0.0,1.0,,0.0-168.0,,1.0,802.08,1.0,0.7340618959999999,1.0,0.699323252,0.0,0.35298046299999997,0.0,0.511241692,False,,5ea000d6e849b0000814e9d5,,2352377,166,,evan-feature22,full_pf_b,,0
140,26689,167,,,,1,1,1.0,1.0,-1.0,0.0,,0.0-169.0,,-1.0,529.965,1.0,0.75,1.0,0.70412698,0.0,0.380734814,1.0,0.529580116,False,,5ea000d6e849b0000814e9d5,,2362728,167,,evan-feature22,full_pf_b,,0
141,26690,168,,,,1,1,1.0,0.0,0.0,1.0,,0.0-170.0,,0.0,722.075,1.0,0.7436654909999999,0.0,0.711182751,0.0,0.41125331,0.0,0.49554405,False,,5ea000d6e849b0000814e9d5,,2373277,168,,evan-feature22,full_pf_b,,0
142,26691,169,,,,1,1,1.0,1.0,0.0,1.0,,0.0-171.0,,1.0,581.975,1.0,0.731607915,1.0,0.651774583,0.0,0.35688023,1.0,0.45194491600000003,False,,5ea000d6e849b0000814e9d5,,2383681,169,,evan-feature22,full_pf_b,,0
143,26692,170,,,,1,1,0.0,0.0,-1.0,0.0,,0.0-172.0,,0.0,987.25,0.0,0.75,0.0,0.75,0.0,0.283145374,0.0,0.528608005,False,,5ea000d6e849b0000814e9d5,,2394479,170,,evan-feature22,full_pf_b,,0
144,26693,171,,,,1,1,1.0,1.0,-1.0,0.0,,0.0-173.0,,-1.0,650.485,1.0,0.7491416890000001,1.0,0.7423785959999999,0.0,0.29135870399999997,0.0,0.498888318,False,,5ea000d6e849b0000814e9d5,,2404960,171,,evan-feature22,full_pf_b,,0
145,26694,172,,,,1,1,1.0,1.0,-1.0,0.0,,0.0-174.0,,-1.0,984.795,1.0,0.708569387,1.0,0.717682277,0.0,0.294421699,0.0,0.493838163,False,,5ea000d6e849b0000814e9d5,,2415751,172,,evan-feature22,full_pf_b,,0
146,26695,173,,,,1,1,1.0,1.0,0.0,1.0,,0.0-175.0,,1.0,604.58,1.0,0.75,1.0,0.7383382159999999,0.0,0.356098707,0.0,0.442533405,False,,5ea000d6e849b0000814e9d5,,2426186,173,,evan-feature22,full_pf_b,,0
147,26696,174,,,,1,1,1.0,0.0,0.0,1.0,,0.0-176.0,,0.0,609.325,1.0,0.744527075,0.0,0.75,0.0,0.334127506,0.0,0.393165805,False,,5ea000d6e849b0000814e9d5,,2436633,174,,evan-feature22,full_pf_b,,0
148,26697,175,,,,1,1,1.0,0.0,0.0,1.0,,0.0-177.0,,0.0,611.735,1.0,0.75,0.0,0.75,1.0,0.33571021799999995,1.0,0.350393962,False,,5ea000d6e849b0000814e9d5,,2447059,175,,evan-feature22,full_pf_b,,0
149,26698,176,,,,1,1,1.0,0.0,0.0,1.0,,0.0-178.0,,0.0,521.33,1.0,0.75,0.0,0.75,0.0,0.313628297,0.0,0.36349657399999996,False,,5ea000d6e849b0000814e9d5,,2457385,176,,evan-feature22,full_pf_b,,0
150,26699,177,,,,2,2,0.0,0.0,-1.0,0.0,,0.0-179.0,,0.0,921.455,1.0,0.75,0.0,0.734284182,0.0,0.262667667,0.0,0.380199119,False,,5ea000d6e849b0000814e9d5,,2468143,177,,evan-feature22,full_pf_b,,1
151,26700,178,,,,1,1,1.0,1.0,0.0,1.0,,0.0-180.0,,1.0,603.405,1.0,0.75,1.0,0.75,1.0,0.25,0.0,0.394494013,False,,5ea000d6e849b0000814e9d5,,2478598,178,,evan-feature22,full_pf_b,,1
152,26701,179,,,,2,2,0.0,0.0,-1.0,0.0,,0.0-181.0,,0.0,635.74,1.0,0.722298145,0.0,0.7357822340000001,0.0,0.25,0.0,0.319142121,False,,5ea000d6e849b0000814e9d5,,2489052,179,,evan-feature22,full_pf_b,,1
153,26702,180,,,,2,2,0.0,0.0,-1.0,0.0,,0.0-182.0,,0.0,717.075,1.0,0.73149275,1.0,0.724276446,0.0,0.305856907,0.0,0.281315057,False,,5ea000d6e849b0000814e9d5,,2499571,180,,evan-feature22,full_pf_b,,0
154,26703,181,,,,1,1,0.0,1.0,0.0,1.0,,0.0-183.0,,1.0,870.42,0.0,0.7458732690000001,1.0,0.7336382459999999,1.0,0.272571964,0.0,0.266021999,False,,5ea000d6e849b0000814e9d5,,2510267,181,,evan-feature22,full_pf_b,,1
155,26704,182,,,,1,1,1.0,0.0,0.0,1.0,,0.0-184.0,,0.0,835.955,1.0,0.705579037,0.0,0.720778292,0.0,0.320238144,1.0,0.30971744,False,,5ea000d6e849b0000814e9d5,,2520894,182,,evan-feature22,full_pf_b,,0
156,26705,183,,,,1,1,1.0,1.0,0.0,1.0,,0.0-185.0,,1.0,753.835,1.0,0.700425648,1.0,0.7198784009999999,0.0,0.272590393,0.0,0.304182931,False,,5ea000d6e849b0000814e9d5,,2531489,183,,evan-feature22,full_pf_b,,0
157,26706,184,,,,1,1,1.0,0.0,0.0,1.0,,0.0-186.0,,0.0,611.775,1.0,0.735590785,0.0,0.722714973,0.0,0.25,0.0,0.323421091,False,,5ea000d6e849b0000814e9d5,,2541920,184,,evan-feature22,full_pf_b,,0
158,26707,185,,,,1,1,1.0,1.0,0.0,1.0,,0.0-187.0,,1.0,647.94,1.0,0.724807662,1.0,0.63146213,0.0,0.36836492600000004,0.0,0.34592153299999995,False,,5ea000d6e849b0000814e9d5,,2552417,185,,evan-feature22,full_pf_b,,0
159,26708,186,,,,1,1,1.0,1.0,0.0,1.0,,0.0-188.0,,1.0,674.33,1.0,0.7352796909999999,1.0,0.555111392,0.0,0.36003922,0.0,0.31433779999999995,False,,5ea000d6e849b0000814e9d5,,2562922,186,,evan-feature22,full_pf_b,,0
160,26709,187,notice,,,,,,,,,,0.0-189.0,"{""Q0"":""the values for each colour set seemed to fit more to the location of the colour aliens""}",,56457.0,,,,,,,,,False,,5ea000d6e849b0000814e9d5,,2619383,187,Q,survey-text,full_pf_b,,1
161,26710,188,track1,,[1],,,,,,,,0.0-190.0,"{""Q0"":""no""}",,6156.0,,,,,,,,,False,,5ea000d6e849b0000814e9d5,,2625560,188,Q,evan-quiz,full_pf_b,,1
162,26711,189,track2,,[1],,,,,,,,0.0-191.0,"{""Q0"":""no""}",,9263.0,,,,,,,,,False,,5ea000d6e849b0000814e9d5,,2634831,189,Q,evan-quiz,full_pf_b,,1
163,26712,190,strat,,,,,,,,,,0.0-192.0,"{""Q0"":""looking at the colour amount per alien pattern. ""}",,38899.0,,,,,,,,,False,,5ea000d6e849b0000814e9d5,,2673743,190,Q,survey-text,full_pf_b,,1
