,index,Unnamed: 0,Q_name,button_pressed,choice_idxs,chosen_pos,chosen_state,chosen_state_f_1_outcome,chosen_state_f_2_outcome,f_1_reward,f_2_reward,incor_questions,internal_node_id,responses,reward_received,rt,s_1_f_1_outcome,s_1_f_1_prob,s_1_f_2_outcome,s_1_f_2_prob,s_2_f_1_outcome,s_2_f_1_prob,s_2_f_2_outcome,s_2_f_2_prob,safe_first,stimulus,subjectID,success,time_elapsed,trial_index,trial_num,trial_type,version,view_history,switching
0,8979,25,,,,2,2,1.0,0.0,-1.0,0.0,,0.0-27.0,,-1.0,1606.3,0.0,0.6,1.0,0.6,1.0,0.4,0.0,0.4,False,,5e58436ebdccf5057ddd9190,,611068,25,,evan-feature22,full_pf_b,,0
1,8980,26,,,,1,1,0.0,0.0,-1.0,0.0,,0.0-28.0,,0.0,1481.9,0.0,0.608053294,0.0,0.63424552,1.0,0.397152172,0.0,0.347069101,False,,5e58436ebdccf5057ddd9190,,622396,26,,evan-feature22,full_pf_b,,1
2,8981,27,,,,1,1,1.0,0.0,-1.0,0.0,,0.0-29.0,,-1.0,1272.4,1.0,0.642237155,0.0,0.648566321,0.0,0.389407674,0.0,0.285525717,False,,5e58436ebdccf5057ddd9190,,633482,27,,evan-feature22,full_pf_b,,0
3,8982,28,,,,2,2,0.0,1.0,-1.0,0.0,,0.0-30.0,,0.0,1246.0,0.0,0.661086576,1.0,0.630492543,0.0,0.399058924,1.0,0.25,False,,5e58436ebdccf5057ddd9190,,644598,28,,evan-feature22,full_pf_b,,1
4,8983,29,,,,1,1,1.0,1.0,0.0,1.0,,0.0-31.0,,1.0,1729.5,1.0,0.631324137,1.0,0.6269842929999999,0.0,0.38734784299999997,1.0,0.25,False,,5e58436ebdccf5057ddd9190,,656215,29,,evan-feature22,full_pf_b,,1
5,8984,30,,,,2,2,0.0,0.0,0.0,1.0,,0.0-32.0,,0.0,1467.2,1.0,0.6381991370000001,1.0,0.68987999,0.0,0.384107265,0.0,0.271332943,False,,5e58436ebdccf5057ddd9190,,667548,30,,evan-feature22,full_pf_b,,1
6,8985,31,,,,2,2,1.0,0.0,-1.0,0.0,,0.0-33.0,,-1.0,1230.2,1.0,0.66034901,1.0,0.742641349,1.0,0.360225629,0.0,0.25,False,,5e58436ebdccf5057ddd9190,,678626,31,,evan-feature22,full_pf_b,,0
7,8986,32,,,,1,1,1.0,1.0,-1.0,0.0,,0.0-34.0,,-1.0,2429.6,1.0,0.638612418,1.0,0.75,1.0,0.367273939,1.0,0.25,False,,5e58436ebdccf5057ddd9190,,690910,32,,evan-feature22,full_pf_b,,1
8,8987,33,,,,2,2,0.0,0.0,0.0,1.0,,0.0-35.0,,0.0,1172.5,0.0,0.624340629,1.0,0.75,0.0,0.425829545,0.0,0.25,False,,5e58436ebdccf5057ddd9190,,701926,33,,evan-feature22,full_pf_b,,1
9,8988,34,,,,1,1,0.0,1.0,0.0,1.0,,0.0-36.0,,1.0,1207.9,0.0,0.621999804,1.0,0.75,0.0,0.368609357,0.0,0.25,False,,5e58436ebdccf5057ddd9190,,713036,34,,evan-feature22,full_pf_b,,1
10,8989,35,,,,1,1,1.0,1.0,-1.0,0.0,,0.0-37.0,,-1.0,1578.6,1.0,0.62666403,1.0,0.75,0.0,0.311151498,0.0,0.25,False,,5e58436ebdccf5057ddd9190,,724463,35,,evan-feature22,full_pf_b,,0
11,8990,36,,,,2,2,0.0,0.0,0.0,1.0,,0.0-38.0,,0.0,2037.7,1.0,0.6819650009999999,1.0,0.75,0.0,0.310763048,0.0,0.25,False,,5e58436ebdccf5057ddd9190,,736311,36,,evan-feature22,full_pf_b,,1
12,8991,37,,,,2,2,0.0,0.0,-1.0,0.0,,0.0-39.0,,0.0,1396.7,1.0,0.740626951,1.0,0.75,0.0,0.25,0.0,0.25,False,,5e58436ebdccf5057ddd9190,,747566,37,,evan-feature22,full_pf_b,,0
13,8992,38,,,,2,2,1.0,0.0,-1.0,0.0,,0.0-40.0,,-1.0,1290.8,0.0,0.739599242,1.0,0.742034978,1.0,0.25397114600000004,0.0,0.25,False,,5e58436ebdccf5057ddd9190,,758685,38,,evan-feature22,full_pf_b,,0
14,8993,39,,,,1,1,1.0,0.0,-1.0,0.0,,0.0-41.0,,-1.0,1125.8,1.0,0.732341315,0.0,0.72735643,0.0,0.25,0.0,0.25,False,,5e58436ebdccf5057ddd9190,,769678,39,,evan-feature22,full_pf_b,,1
15,8994,40,,,,2,2,0.0,0.0,-1.0,0.0,,0.0-42.0,,0.0,897.3,0.0,0.7062287770000001,1.0,0.75,0.0,0.29002151,0.0,0.288256649,False,,5e58436ebdccf5057ddd9190,,780440,40,,evan-feature22,full_pf_b,,1
16,8995,41,,,,1,1,1.0,0.0,-1.0,0.0,,0.0-43.0,,-1.0,2054.8,1.0,0.7086029209999999,0.0,0.75,0.0,0.274129113,0.0,0.262851608,False,,5e58436ebdccf5057ddd9190,,792356,41,,evan-feature22,full_pf_b,,1
17,8996,42,,,,2,2,0.0,1.0,-1.0,0.0,,0.0-44.0,,0.0,882.4,1.0,0.669189651,1.0,0.727614338,0.0,0.298444036,1.0,0.296944518,False,,5e58436ebdccf5057ddd9190,,803106,42,,evan-feature22,full_pf_b,,1
18,8997,43,,,,2,2,0.0,0.0,-1.0,0.0,,0.0-45.0,,0.0,2336.5,0.0,0.6819912929999999,1.0,0.7179434290000001,0.0,0.265003961,0.0,0.28157921199999997,False,,5e58436ebdccf5057ddd9190,,815317,43,,evan-feature22,full_pf_b,,0
19,8998,44,,,,1,1,1.0,0.0,0.0,1.0,,0.0-46.0,,0.0,844.7,1.0,0.665275002,0.0,0.723065271,0.0,0.260414971,0.0,0.30973870000000003,False,,5e58436ebdccf5057ddd9190,,826005,44,,evan-feature22,full_pf_b,,1
20,8999,45,,,,2,2,0.0,0.0,-1.0,0.0,,0.0-47.0,,0.0,787.9,1.0,0.6660593260000001,1.0,0.728032907,0.0,0.30922817,0.0,0.338778608,False,,5e58436ebdccf5057ddd9190,,836674,45,,evan-feature22,full_pf_b,,1
21,9000,46,,,,2,2,1.0,1.0,-1.0,0.0,,0.0-48.0,,-1.0,1739.4,1.0,0.702068785,1.0,0.6528750879999999,1.0,0.287329608,1.0,0.35789613200000003,False,,5e58436ebdccf5057ddd9190,,848276,46,,evan-feature22,full_pf_b,,0
22,9001,47,,,,1,1,0.0,0.0,-1.0,0.0,,0.0-49.0,,0.0,1846.2,0.0,0.651939787,0.0,0.636725589,1.0,0.284834488,0.0,0.358563756,False,,5e58436ebdccf5057ddd9190,,859981,47,,evan-feature22,full_pf_b,,1
23,9002,48,,,,1,1,1.0,0.0,0.0,1.0,,0.0-50.0,,0.0,2559.8,1.0,0.67573929,0.0,0.612550049,0.0,0.37130387600000003,0.0,0.383542402,False,,5e58436ebdccf5057ddd9190,,872388,48,,evan-feature22,full_pf_b,,0
24,9003,49,,,,2,2,0.0,0.0,0.0,1.0,,0.0-51.0,,0.0,1345.0,1.0,0.620753801,1.0,0.60513644,0.0,0.385529434,0.0,0.340361743,False,,5e58436ebdccf5057ddd9190,,883572,49,,evan-feature22,full_pf_b,,1
25,9004,50,,,,1,1,1.0,1.0,0.0,1.0,,0.0-52.0,,1.0,1527.7,1.0,0.673564893,1.0,0.672437924,0.0,0.292955382,1.0,0.337633795,False,,5e58436ebdccf5057ddd9190,,894985,50,,evan-feature22,full_pf_b,,1
26,9005,51,,,,2,2,0.0,0.0,-1.0,0.0,,0.0-53.0,,0.0,2215.7,1.0,0.6749427,1.0,0.724197502,0.0,0.32391132100000003,0.0,0.350995264,False,,5e58436ebdccf5057ddd9190,,907088,51,,evan-feature22,full_pf_b,,1
27,9006,52,,,,2,2,1.0,1.0,-1.0,0.0,,0.0-54.0,,-1.0,755.8,1.0,0.6940159379999999,1.0,0.75,1.0,0.31710554399999996,1.0,0.413450341,False,,5e58436ebdccf5057ddd9190,,917740,52,,evan-feature22,full_pf_b,,0
28,9007,53,,,,1,1,1.0,1.0,-1.0,0.0,,0.0-55.0,,-1.0,1197.6,1.0,0.6916018270000001,1.0,0.69001187,1.0,0.261817804,0.0,0.40038635,False,,5e58436ebdccf5057ddd9190,,928778,53,,evan-feature22,full_pf_b,,1
29,9008,54,,,,2,2,0.0,1.0,-1.0,0.0,,0.0-56.0,,0.0,618.8,1.0,0.641061544,1.0,0.71337992,0.0,0.277296461,1.0,0.47372791700000005,False,,5e58436ebdccf5057ddd9190,,939294,54,,evan-feature22,full_pf_b,,1
30,9009,55,,,,2,2,0.0,1.0,-1.0,0.0,,0.0-57.0,,0.0,1254.4,1.0,0.6082438520000001,1.0,0.708471106,0.0,0.28745137,1.0,0.564174476,False,,5e58436ebdccf5057ddd9190,,950435,55,,evan-feature22,full_pf_b,,0
31,9010,56,,,,2,2,0.0,1.0,-1.0,0.0,,0.0-58.0,,0.0,745.5,1.0,0.6051112120000001,1.0,0.7118147229999999,0.0,0.272390611,1.0,0.5595149939999999,False,,5e58436ebdccf5057ddd9190,,961009,56,,evan-feature22,full_pf_b,,0
32,9011,57,,,,2,2,1.0,1.0,-1.0,0.0,,0.0-59.0,,-1.0,966.3,1.0,0.582420852,1.0,0.635867583,1.0,0.31089574,1.0,0.5227206520000001,False,,5e58436ebdccf5057ddd9190,,971819,57,,evan-feature22,full_pf_b,,0
33,9012,58,,,,1,1,1.0,0.0,0.0,1.0,,0.0-60.0,,0.0,1587.0,1.0,0.623195575,0.0,0.655026044,0.0,0.25,1.0,0.560387538,False,,5e58436ebdccf5057ddd9190,,983256,58,,evan-feature22,full_pf_b,,1
34,9013,59,,,,1,1,0.0,1.0,-1.0,0.0,,0.0-61.0,,0.0,905.0,0.0,0.601889598,1.0,0.678198724,1.0,0.25,1.0,0.559922936,False,,5e58436ebdccf5057ddd9190,,993998,59,,evan-feature22,full_pf_b,,0
35,9014,60,,,,2,2,0.0,0.0,-1.0,0.0,,0.0-62.0,,0.0,996.8,1.0,0.601259914,1.0,0.704681482,0.0,0.33908969299999997,0.0,0.505003715,False,,5e58436ebdccf5057ddd9190,,1004810,60,,evan-feature22,full_pf_b,,1
36,9015,61,,,,2,2,0.0,1.0,-1.0,0.0,,0.0-63.0,,0.0,1277.8,1.0,0.59645454,0.0,0.710437172,0.0,0.327441879,1.0,0.391749613,False,,5e58436ebdccf5057ddd9190,,1015971,61,,evan-feature22,full_pf_b,,0
37,9016,62,,,,2,2,1.0,0.0,-1.0,0.0,,0.0-64.0,,-1.0,834.3,1.0,0.529473,1.0,0.636758527,1.0,0.301338063,0.0,0.365661481,False,,5e58436ebdccf5057ddd9190,,1026666,62,,evan-feature22,full_pf_b,,0
38,9017,63,,,,1,1,0.0,0.0,0.0,1.0,,0.0-65.0,,0.0,1559.3,0.0,0.541657162,0.0,0.634541962,1.0,0.343535366,0.0,0.371763742,False,,5e58436ebdccf5057ddd9190,,1038098,63,,evan-feature22,full_pf_b,,1
39,9018,64,,,,2,2,0.0,0.0,-1.0,0.0,,0.0-66.0,,0.0,1206.2,1.0,0.5707533260000001,1.0,0.589121171,0.0,0.326428396,0.0,0.43961622899999997,False,,5e58436ebdccf5057ddd9190,,1049171,64,,evan-feature22,full_pf_b,,1
40,9019,65,,,,2,2,1.0,1.0,-1.0,0.0,,0.0-67.0,,-1.0,1113.8,1.0,0.5707533260000001,0.0,0.589121171,1.0,0.326428396,1.0,0.43961622899999997,False,,5e58436ebdccf5057ddd9190,,1060162,65,,evan-feature22,full_pf_b,,0
41,9020,66,,,,1,1,0.0,0.0,-1.0,0.0,,0.0-68.0,,0.0,1306.1,0.0,0.506271295,0.0,0.641775594,1.0,0.37149690700000004,0.0,0.404330166,False,,5e58436ebdccf5057ddd9190,,1071328,66,,evan-feature22,full_pf_b,,1
42,9021,67,,,,2,2,0.0,0.0,0.0,1.0,,0.0-69.0,,0.0,1503.7,1.0,0.455642565,1.0,0.623605825,0.0,0.358753011,0.0,0.346174041,False,,5e58436ebdccf5057ddd9190,,1082681,67,,evan-feature22,full_pf_b,,1
43,9022,68,,,,1,1,0.0,0.0,0.0,1.0,,0.0-70.0,,0.0,1274.7,0.0,0.483677308,0.0,0.5904681070000001,0.0,0.402218411,0.0,0.35344697,False,,5e58436ebdccf5057ddd9190,,1093793,68,,evan-feature22,full_pf_b,,1
44,9023,69,,,,2,2,0.0,0.0,0.0,1.0,,0.0-71.0,,0.0,1524.7,1.0,0.394210977,0.0,0.558925494,0.0,0.540052017,0.0,0.35182128700000004,False,,5e58436ebdccf5057ddd9190,,1105197,69,,evan-feature22,full_pf_b,,1
45,9024,70,,,,2,2,1.0,0.0,-1.0,0.0,,0.0-72.0,,-1.0,1227.7,1.0,0.382300414,0.0,0.577670603,1.0,0.607608448,0.0,0.378261578,False,,5e58436ebdccf5057ddd9190,,1116271,70,,evan-feature22,full_pf_b,,0
46,9025,71,,,,2,2,1.0,1.0,-1.0,0.0,,0.0-73.0,,-1.0,745.7,0.0,0.357596762,1.0,0.5929076529999999,1.0,0.6579790010000001,1.0,0.401326777,False,,5e58436ebdccf5057ddd9190,,1126851,71,,evan-feature22,full_pf_b,,0
47,9026,72,,,,1,1,0.0,1.0,-1.0,0.0,,0.0-74.0,,0.0,730.8,0.0,0.362033495,1.0,0.582308608,0.0,0.649195052,0.0,0.355158505,False,,5e58436ebdccf5057ddd9190,,1137468,72,,evan-feature22,full_pf_b,,1
48,9027,73,,,,1,1,1.0,0.0,-1.0,0.0,,0.0-75.0,,-1.0,917.4,1.0,0.369620635,0.0,0.669100864,0.0,0.706059111,0.0,0.362516241,False,,5e58436ebdccf5057ddd9190,,1148261,73,,evan-feature22,full_pf_b,,0
49,9028,74,,,,2,2,1.0,1.0,-1.0,0.0,,0.0-76.0,,-1.0,766.1,0.0,0.41477751399999996,1.0,0.7284416779999999,1.0,0.7182656940000001,1.0,0.36228040899999997,False,,5e58436ebdccf5057ddd9190,,1158905,74,,evan-feature22,full_pf_b,,1
50,9029,75,,,,1,1,0.0,0.0,0.0,1.0,,0.0-77.0,,0.0,1321.5,0.0,0.37675460299999997,0.0,0.703250285,0.0,0.75,1.0,0.461979164,False,,5e58436ebdccf5057ddd9190,,1170142,75,,evan-feature22,full_pf_b,,1
51,9030,76,,,,2,2,1.0,1.0,0.0,1.0,,0.0-78.0,,1.0,618.4,0.0,0.398716075,1.0,0.6723864890000001,1.0,0.674153818,1.0,0.519029516,False,,5e58436ebdccf5057ddd9190,,1180615,76,,evan-feature22,full_pf_b,,1
52,9031,77,,,,1,1,1.0,1.0,-1.0,0.0,,0.0-79.0,,-1.0,1520.0,1.0,0.34677856700000004,1.0,0.69057175,0.0,0.6822438540000001,0.0,0.477292237,False,,5e58436ebdccf5057ddd9190,,1191996,77,,evan-feature22,full_pf_b,,1
53,9032,78,,,,2,2,1.0,1.0,0.0,1.0,,0.0-80.0,,1.0,887.8,1.0,0.28580469199999997,1.0,0.68408818,1.0,0.684207565,1.0,0.49780448299999996,False,,5e58436ebdccf5057ddd9190,,1202745,78,,evan-feature22,full_pf_b,,1
54,9034,80,,,,1,1,0.0,1.0,-1.0,0.0,,0.0-82.0,,0.0,1765.9,0.0,0.25,1.0,0.7405808970000001,1.0,0.679614108,0.0,0.436436964,False,,5e58436ebdccf5057ddd9190,,1218970,80,,evan-feature22,full_pf_b,,1
55,9035,81,,,,1,1,0.0,0.0,0.0,1.0,,0.0-83.0,,0.0,2005.7,0.0,0.29890393,0.0,0.730505706,1.0,0.7328203320000001,1.0,0.439256938,False,,5e58436ebdccf5057ddd9190,,1230821,81,,evan-feature22,full_pf_b,,0
56,9036,82,,,,1,1,1.0,1.0,-1.0,0.0,,0.0-84.0,,-1.0,2105.7,1.0,0.326762398,1.0,0.7148059609999999,0.0,0.75,0.0,0.44389608799999997,False,,5e58436ebdccf5057ddd9190,,1242792,82,,evan-feature22,full_pf_b,,0
57,9037,83,,,,2,2,1.0,0.0,-1.0,0.0,,0.0-85.0,,-1.0,911.4,0.0,0.295168515,0.0,0.739760854,1.0,0.719947008,0.0,0.35277284600000003,False,,5e58436ebdccf5057ddd9190,,1253548,83,,evan-feature22,full_pf_b,,1
58,9038,84,,,,1,1,0.0,1.0,-1.0,0.0,,0.0-86.0,,0.0,987.1,0.0,0.25,1.0,0.70781482,0.0,0.75,1.0,0.286095925,False,,5e58436ebdccf5057ddd9190,,1264403,84,,evan-feature22,full_pf_b,,1
59,9039,85,,,,1,1,0.0,1.0,0.0,1.0,,0.0-87.0,,1.0,1074.5,0.0,0.25638190899999996,1.0,0.704088163,1.0,0.75,0.0,0.26872601399999996,False,,5e58436ebdccf5057ddd9190,,1275353,85,,evan-feature22,full_pf_b,,0
60,9040,86,,,,1,1,0.0,1.0,0.0,1.0,,0.0-88.0,,1.0,981.9,0.0,0.271581126,1.0,0.669760107,1.0,0.733896663,1.0,0.273244572,False,,5e58436ebdccf5057ddd9190,,1286216,86,,evan-feature22,full_pf_b,,0
61,9041,87,,,,1,1,1.0,1.0,0.0,1.0,,0.0-89.0,,1.0,866.7,1.0,0.257144401,1.0,0.600575706,0.0,0.74488122,0.0,0.25,False,,5e58436ebdccf5057ddd9190,,1296941,87,,evan-feature22,full_pf_b,,0
62,9042,88,,,,2,2,0.0,1.0,-1.0,0.0,,0.0-90.0,,0.0,987.6,0.0,0.25,0.0,0.616870026,0.0,0.723610234,1.0,0.25,False,,5e58436ebdccf5057ddd9190,,1307764,88,,evan-feature22,full_pf_b,,1
63,9043,89,,,,1,1,0.0,1.0,0.0,1.0,,0.0-91.0,,1.0,1193.7,0.0,0.25,1.0,0.583540187,1.0,0.7041042559999999,0.0,0.285961995,False,,5e58436ebdccf5057ddd9190,,1318817,89,,evan-feature22,full_pf_b,,1
64,9044,90,,,,2,2,0.0,1.0,-1.0,0.0,,0.0-92.0,,0.0,1022.6,0.0,0.27254536,0.0,0.53875765,0.0,0.693783448,1.0,0.284961652,False,,5e58436ebdccf5057ddd9190,,1329719,90,,evan-feature22,full_pf_b,,1
65,9045,91,,,,1,1,1.0,1.0,0.0,1.0,,0.0-93.0,,1.0,1151.5,1.0,0.25,1.0,0.548431252,1.0,0.734221895,0.0,0.279445214,False,,5e58436ebdccf5057ddd9190,,1340717,91,,evan-feature22,full_pf_b,,1
66,9046,92,,,,1,1,1.0,1.0,-1.0,0.0,,0.0-94.0,,-1.0,1421.2,1.0,0.258640684,1.0,0.545878066,1.0,0.725245965,1.0,0.31487537,False,,5e58436ebdccf5057ddd9190,,1351996,92,,evan-feature22,full_pf_b,,0
67,9047,93,,,,2,2,0.0,0.0,-1.0,0.0,,0.0-95.0,,0.0,1384.3,1.0,0.251103711,1.0,0.5776290629999999,0.0,0.696320133,0.0,0.317831047,False,,5e58436ebdccf5057ddd9190,,1363251,93,,evan-feature22,full_pf_b,,1
68,9048,94,,,,2,2,0.0,1.0,-1.0,0.0,,0.0-96.0,,0.0,1053.4,0.0,0.276630292,0.0,0.617329858,0.0,0.73838088,1.0,0.261471582,False,,5e58436ebdccf5057ddd9190,,1374118,94,,evan-feature22,full_pf_b,,0
69,9049,95,,,,1,1,1.0,1.0,0.0,1.0,,0.0-97.0,,1.0,1285.4,1.0,0.297716424,1.0,0.618863717,1.0,0.7402358259999999,1.0,0.262600834,False,,5e58436ebdccf5057ddd9190,,1385281,95,,evan-feature22,full_pf_b,,1
70,9050,96,,,,2,2,0.0,0.0,-1.0,0.0,,0.0-98.0,,0.0,1035.0,0.0,0.290935512,1.0,0.695370945,0.0,0.706570507,0.0,0.280030553,False,,5e58436ebdccf5057ddd9190,,1396168,96,,evan-feature22,full_pf_b,,1
71,9051,97,,,,1,1,0.0,1.0,-1.0,0.0,,0.0-99.0,,0.0,910.4,0.0,0.25,1.0,0.6465277079999999,0.0,0.67766682,0.0,0.25,False,,5e58436ebdccf5057ddd9190,,1406936,97,,evan-feature22,full_pf_b,,1
72,9052,98,,,,2,2,0.0,0.0,-1.0,0.0,,0.0-100.0,,0.0,1016.9,0.0,0.26463816,1.0,0.636100213,0.0,0.646048507,0.0,0.265607101,False,,5e58436ebdccf5057ddd9190,,1417769,98,,evan-feature22,full_pf_b,,1
73,9053,99,,,,2,2,0.0,1.0,-1.0,0.0,,0.0-101.0,,0.0,1056.3,0.0,0.314340707,0.0,0.667795927,0.0,0.613630805,1.0,0.25,False,,5e58436ebdccf5057ddd9190,,1428673,99,,evan-feature22,full_pf_b,,0
74,9054,100,,,,2,2,0.0,1.0,-1.0,0.0,,0.0-102.0,,0.0,960.9,1.0,0.28685784,1.0,0.6622549529999999,0.0,0.652154117,1.0,0.25,False,,5e58436ebdccf5057ddd9190,,1439490,100,,evan-feature22,full_pf_b,,0
75,9055,101,,,,1,1,0.0,1.0,0.0,1.0,,0.0-103.0,,1.0,1129.7,0.0,0.304106554,1.0,0.631289538,1.0,0.707041942,1.0,0.29314237,False,,5e58436ebdccf5057ddd9190,,1450461,101,,evan-feature22,full_pf_b,,1
76,9056,102,,,,1,1,0.0,0.0,0.0,1.0,,0.0-104.0,,0.0,994.5,0.0,0.304806932,0.0,0.571167718,1.0,0.680472346,1.0,0.25,False,,5e58436ebdccf5057ddd9190,,1461317,102,,evan-feature22,full_pf_b,,0
77,9057,103,,,,1,1,1.0,0.0,0.0,1.0,,0.0-105.0,,0.0,1103.3,1.0,0.37919861,0.0,0.5724849710000001,1.0,0.705638003,0.0,0.30179300600000003,False,,5e58436ebdccf5057ddd9190,,1472297,103,,evan-feature22,full_pf_b,,0
78,9058,104,,,,1,1,0.0,1.0,0.0,1.0,,0.0-106.0,,1.0,1608.8,0.0,0.464277969,1.0,0.554034373,1.0,0.7372627340000001,0.0,0.264699741,False,,5e58436ebdccf5057ddd9190,,1483770,104,,evan-feature22,full_pf_b,,0
79,9059,105,,,,2,2,1.0,1.0,-1.0,0.0,,0.0-107.0,,-1.0,1014.4,0.0,0.465104323,1.0,0.530793115,1.0,0.75,1.0,0.31683071,False,,5e58436ebdccf5057ddd9190,,1494653,105,,evan-feature22,full_pf_b,,1
80,9060,106,,,,1,1,1.0,1.0,0.0,1.0,,0.0-108.0,,1.0,1079.0,1.0,0.465104323,1.0,0.530793115,1.0,0.75,0.0,0.31683071,False,,5e58436ebdccf5057ddd9190,,1505593,106,,evan-feature22,full_pf_b,,1
81,9061,107,,,,1,1,0.0,0.0,0.0,1.0,,0.0-109.0,,0.0,928.5,0.0,0.46833986,0.0,0.570249239,0.0,0.7244472590000001,1.0,0.364114163,False,,5e58436ebdccf5057ddd9190,,1516374,107,,evan-feature22,full_pf_b,,0
82,9062,108,,,,1,1,1.0,0.0,0.0,1.0,,0.0-110.0,,0.0,990.7,1.0,0.445444024,0.0,0.649673355,0.0,0.6845441290000001,1.0,0.300660449,False,,5e58436ebdccf5057ddd9190,,1527199,108,,evan-feature22,full_pf_b,,0
83,9063,109,,,,2,2,1.0,0.0,0.0,1.0,,0.0-111.0,,0.0,725.9,0.0,0.39909721299999995,1.0,0.6715179509999999,1.0,0.742310028,0.0,0.35496088299999995,False,,5e58436ebdccf5057ddd9190,,1537778,109,,evan-feature22,full_pf_b,,1
84,9064,110,,,,1,1,0.0,1.0,0.0,1.0,,0.0-112.0,,1.0,707.7,0.0,0.37956104799999996,1.0,0.694725302,1.0,0.7181651309999999,0.0,0.38726906299999997,False,,5e58436ebdccf5057ddd9190,,1548357,110,,evan-feature22,full_pf_b,,1
85,9065,111,,,,1,1,1.0,0.0,0.0,1.0,,0.0-113.0,,0.0,647.7,1.0,0.404995034,0.0,0.724375412,0.0,0.6910946859999999,1.0,0.387187347,False,,5e58436ebdccf5057ddd9190,,1558853,111,,evan-feature22,full_pf_b,,0
86,9066,112,,,,2,2,0.0,0.0,0.0,1.0,,0.0-114.0,,0.0,1151.6,1.0,0.461740803,1.0,0.75,0.0,0.75,0.0,0.34872038200000005,False,,5e58436ebdccf5057ddd9190,,1569842,112,,evan-feature22,full_pf_b,,1
87,9067,113,,,,2,2,0.0,1.0,-1.0,0.0,,0.0-115.0,,0.0,1305.4,0.0,0.43821380600000004,1.0,0.738833273,0.0,0.728286963,1.0,0.399538128,False,,5e58436ebdccf5057ddd9190,,1581037,113,,evan-feature22,full_pf_b,,0
88,9068,114,,,,2,2,1.0,1.0,0.0,1.0,,0.0-116.0,,1.0,630.8,0.0,0.41709882,1.0,0.736666736,1.0,0.75,1.0,0.389095584,False,,5e58436ebdccf5057ddd9190,,1591532,114,,evan-feature22,full_pf_b,,0
89,9069,115,,,,2,2,0.0,0.0,0.0,1.0,,0.0-117.0,,0.0,683.8,0.0,0.39749009799999996,1.0,0.744320029,0.0,0.75,0.0,0.363848678,False,,5e58436ebdccf5057ddd9190,,1602084,115,,evan-feature22,full_pf_b,,0
90,9070,116,,,,1,1,0.0,0.0,-1.0,0.0,,0.0-118.0,,0.0,1336.1,0.0,0.392653706,0.0,0.75,0.0,0.75,0.0,0.384386976,False,,5e58436ebdccf5057ddd9190,,1613275,116,,evan-feature22,full_pf_b,,1
91,9071,117,,,,1,1,0.0,1.0,-1.0,0.0,,0.0-119.0,,0.0,1029.4,0.0,0.31190902600000003,1.0,0.75,1.0,0.732413819,0.0,0.413082932,False,,5e58436ebdccf5057ddd9190,,1624125,117,,evan-feature22,full_pf_b,,0
92,9072,118,,,,1,1,0.0,0.0,0.0,1.0,,0.0-120.0,,0.0,1298.4,0.0,0.366917648,0.0,0.740073855,1.0,0.75,0.0,0.352861979,False,,5e58436ebdccf5057ddd9190,,1635319,118,,evan-feature22,full_pf_b,,0
93,9073,119,,,,1,1,0.0,1.0,0.0,1.0,,0.0-121.0,,1.0,1103.3,0.0,0.3645172,1.0,0.721770713,1.0,0.75,1.0,0.404074511,False,,5e58436ebdccf5057ddd9190,,1646237,119,,evan-feature22,full_pf_b,,0
94,9074,120,,,,1,1,1.0,1.0,0.0,1.0,,0.0-122.0,,1.0,906.3,1.0,0.35205600299999995,1.0,0.68983859,1.0,0.739735447,0.0,0.366895945,False,,5e58436ebdccf5057ddd9190,,1657023,120,,evan-feature22,full_pf_b,,0
95,9075,121,,,,1,1,0.0,1.0,0.0,1.0,,0.0-123.0,,1.0,1616.1,0.0,0.40998722600000004,1.0,0.720859127,1.0,0.673854955,1.0,0.368528541,False,,5e58436ebdccf5057ddd9190,,1668498,121,,evan-feature22,full_pf_b,,0
96,9076,122,,,,2,2,1.0,0.0,-1.0,0.0,,0.0-124.0,,-1.0,1391.8,1.0,0.353625316,1.0,0.75,1.0,0.695605473,0.0,0.38303674200000004,False,,5e58436ebdccf5057ddd9190,,1679744,122,,evan-feature22,full_pf_b,,1
97,9077,123,,,,1,1,1.0,1.0,0.0,1.0,,0.0-125.0,,1.0,1470.4,1.0,0.359216989,1.0,0.75,1.0,0.6987915090000001,0.0,0.35169046200000004,False,,5e58436ebdccf5057ddd9190,,1691072,123,,evan-feature22,full_pf_b,,1
98,9078,124,,,,2,2,1.0,0.0,-1.0,0.0,,0.0-126.0,,-1.0,928.3,0.0,0.35834496899999996,1.0,0.75,1.0,0.707067742,0.0,0.416763636,False,,5e58436ebdccf5057ddd9190,,1701906,124,,evan-feature22,full_pf_b,,1
99,9079,125,,,,1,1,0.0,1.0,-1.0,0.0,,0.0-127.0,,0.0,802.8,0.0,0.38741613799999997,1.0,0.7177369570000001,1.0,0.734902455,0.0,0.49438664299999996,False,,5e58436ebdccf5057ddd9190,,1712593,125,,evan-feature22,full_pf_b,,1
100,9080,126,,,,1,1,0.0,0.0,0.0,1.0,,0.0-128.0,,0.0,865.9,0.0,0.405255252,0.0,0.7300466640000001,0.0,0.7027748070000001,1.0,0.504359668,False,,5e58436ebdccf5057ddd9190,,1723329,126,,evan-feature22,full_pf_b,,0
101,9081,127,,,,1,1,1.0,0.0,0.0,1.0,,0.0-129.0,,0.0,634.3,1.0,0.40697073,0.0,0.7260142190000001,0.0,0.724461982,1.0,0.522779179,False,,5e58436ebdccf5057ddd9190,,1733821,127,,evan-feature22,full_pf_b,,0
102,9082,128,,,,2,2,1.0,1.0,0.0,1.0,,0.0-130.0,,1.0,671.9,0.0,0.43906215299999996,1.0,0.7252802340000001,1.0,0.719079934,1.0,0.5712990579999999,False,,5e58436ebdccf5057ddd9190,,1744344,128,,evan-feature22,full_pf_b,,1
103,9083,129,,,,2,2,0.0,1.0,0.0,1.0,,0.0-131.0,,1.0,716.1,1.0,0.4076705,1.0,0.73280499,0.0,0.681313127,1.0,0.523891346,False,,5e58436ebdccf5057ddd9190,,1754886,129,,evan-feature22,full_pf_b,,0
104,9084,130,,,,2,2,1.0,1.0,0.0,1.0,,0.0-132.0,,1.0,928.5,1.0,0.399102911,1.0,0.730498344,1.0,0.661080239,1.0,0.46742603,False,,5e58436ebdccf5057ddd9190,,1765625,130,,evan-feature22,full_pf_b,,0
105,9085,131,,,,1,1,0.0,1.0,-1.0,0.0,,0.0-133.0,,0.0,1881.4,0.0,0.356477282,1.0,0.712296395,0.0,0.641812684,1.0,0.44868414,False,,5e58436ebdccf5057ddd9190,,1777353,131,,evan-feature22,full_pf_b,,1
106,9086,132,,,,2,2,1.0,1.0,0.0,1.0,,0.0-134.0,,1.0,582.4,0.0,0.462760722,1.0,0.692349322,1.0,0.700947931,1.0,0.394680266,False,,5e58436ebdccf5057ddd9190,,1787801,132,,evan-feature22,full_pf_b,,1
107,9087,133,,,,2,2,0.0,0.0,0.0,1.0,,0.0-135.0,,0.0,558.1,0.0,0.422306413,1.0,0.718375916,0.0,0.706340917,0.0,0.367787185,False,,5e58436ebdccf5057ddd9190,,1798220,133,,evan-feature22,full_pf_b,,0
108,9089,135,,,,2,2,0.0,1.0,0.0,1.0,,0.0-137.0,,1.0,1061.0,1.0,0.4582233,1.0,0.643834117,0.0,0.75,1.0,0.39615823299999997,False,,5e58436ebdccf5057ddd9190,,1812213,135,,evan-feature22,full_pf_b,,0
109,9090,136,,,,2,2,0.0,0.0,0.0,1.0,,0.0-138.0,,0.0,828.0,0.0,0.43813437899999996,0.0,0.651283804,0.0,0.729674191,0.0,0.37711048,False,,5e58436ebdccf5057ddd9190,,1822878,136,,evan-feature22,full_pf_b,,0
110,9091,137,,,,2,2,1.0,0.0,0.0,1.0,,0.0-139.0,,0.0,954.9,1.0,0.471199094,1.0,0.6470010979999999,1.0,0.715008097,0.0,0.410656191,False,,5e58436ebdccf5057ddd9190,,1833723,137,,evan-feature22,full_pf_b,,0
111,9092,138,,,,1,1,0.0,1.0,-1.0,0.0,,0.0-140.0,,0.0,1039.7,0.0,0.42486406,1.0,0.629771829,0.0,0.6550939960000001,1.0,0.459093873,False,,5e58436ebdccf5057ddd9190,,1844639,138,,evan-feature22,full_pf_b,,1
112,9093,139,,,,2,2,0.0,0.0,-1.0,0.0,,0.0-141.0,,0.0,1129.9,1.0,0.4803197,0.0,0.645842715,0.0,0.6421749920000001,0.0,0.443092151,False,,5e58436ebdccf5057ddd9190,,1855595,139,,evan-feature22,full_pf_b,,1
113,9094,140,,,,2,2,1.0,0.0,-1.0,0.0,,0.0-142.0,,-1.0,1422.0,1.0,0.521848997,1.0,0.735801074,1.0,0.6691348460000001,0.0,0.45259351600000003,False,,5e58436ebdccf5057ddd9190,,1866905,140,,evan-feature22,full_pf_b,,0
114,9095,141,,,,1,1,0.0,1.0,0.0,1.0,,0.0-143.0,,1.0,893.3,0.0,0.49565621299999996,1.0,0.742400847,1.0,0.661512553,1.0,0.483110831,False,,5e58436ebdccf5057ddd9190,,1877622,141,,evan-feature22,full_pf_b,,1
115,9096,142,,,,1,1,0.0,1.0,-1.0,0.0,,0.0-144.0,,0.0,1490.4,0.0,0.521564361,1.0,0.731078632,1.0,0.6774886809999999,0.0,0.483263956,False,,5e58436ebdccf5057ddd9190,,1888937,142,,evan-feature22,full_pf_b,,0
116,9097,143,,,,1,1,0.0,1.0,-1.0,0.0,,0.0-145.0,,0.0,1278.6,0.0,0.558893102,1.0,0.719810023,0.0,0.67461031,1.0,0.499349834,False,,5e58436ebdccf5057ddd9190,,1900059,143,,evan-feature22,full_pf_b,,0
117,9098,144,,,,1,1,1.0,0.0,0.0,1.0,,0.0-146.0,,0.0,1323.0,1.0,0.611031046,0.0,0.75,1.0,0.688072995,0.0,0.5321422729999999,False,,5e58436ebdccf5057ddd9190,,1911233,144,,evan-feature22,full_pf_b,,0
118,9099,145,,,,2,2,1.0,0.0,-1.0,0.0,,0.0-147.0,,-1.0,1577.9,1.0,0.633223941,1.0,0.713567728,1.0,0.75,0.0,0.48185314700000004,False,,5e58436ebdccf5057ddd9190,,1922653,145,,evan-feature22,full_pf_b,,1
119,9100,146,,,,2,2,0.0,0.0,-1.0,0.0,,0.0-148.0,,0.0,1948.5,0.0,0.664001694,1.0,0.705509768,0.0,0.75,0.0,0.500211065,False,,5e58436ebdccf5057ddd9190,,1934458,146,,evan-feature22,full_pf_b,,0
120,9101,147,,,,1,1,1.0,1.0,0.0,1.0,,0.0-149.0,,1.0,1134.3,1.0,0.664001694,1.0,0.705509768,1.0,0.75,0.0,0.500211065,False,,5e58436ebdccf5057ddd9190,,1945445,147,,evan-feature22,full_pf_b,,1
121,9102,148,,,,1,1,0.0,1.0,0.0,1.0,,0.0-150.0,,1.0,850.9,0.0,0.696508041,1.0,0.71066027,1.0,0.717028709,1.0,0.49792991,False,,5e58436ebdccf5057ddd9190,,1956171,148,,evan-feature22,full_pf_b,,0
122,9103,149,,,,2,2,0.0,1.0,-1.0,0.0,,0.0-151.0,,0.0,1648.2,0.0,0.699883272,1.0,0.75,0.0,0.713543895,1.0,0.496962643,False,,5e58436ebdccf5057ddd9190,,1967647,149,,evan-feature22,full_pf_b,,1
123,9104,150,,,,1,1,1.0,1.0,0.0,1.0,,0.0-152.0,,1.0,939.5,1.0,0.741163419,1.0,0.75,0.0,0.64691024,0.0,0.513858197,False,,5e58436ebdccf5057ddd9190,,1978445,150,,evan-feature22,full_pf_b,,1
124,9105,151,,,,2,2,0.0,1.0,-1.0,0.0,,0.0-153.0,,0.0,740.9,1.0,0.75,1.0,0.70816558,0.0,0.594499079,1.0,0.48502124,False,,5e58436ebdccf5057ddd9190,,1989052,151,,evan-feature22,full_pf_b,,1
125,9106,152,,,,1,1,0.0,1.0,0.0,1.0,,0.0-154.0,,1.0,476.0,0.0,0.75,1.0,0.721848901,0.0,0.62197249,1.0,0.48263586399999997,False,,5e58436ebdccf5057ddd9190,,1999369,152,,evan-feature22,full_pf_b,,1
126,9107,153,,,,1,1,0.0,1.0,-1.0,0.0,,0.0-155.0,,0.0,1730.1,0.0,0.75,1.0,0.74813071,1.0,0.584357161,0.0,0.411477782,False,,5e58436ebdccf5057ddd9190,,2010899,153,,evan-feature22,full_pf_b,,0
127,9108,154,,,,1,1,1.0,1.0,0.0,1.0,,0.0-156.0,,1.0,1059.4,1.0,0.75,1.0,0.75,1.0,0.52287236,1.0,0.488290656,False,,5e58436ebdccf5057ddd9190,,2021799,154,,evan-feature22,full_pf_b,,0
128,9109,155,,,,1,1,1.0,1.0,0.0,1.0,,0.0-157.0,,1.0,687.6,1.0,0.75,1.0,0.75,1.0,0.544321581,1.0,0.53143059,False,,5e58436ebdccf5057ddd9190,,2032346,155,,evan-feature22,full_pf_b,,0
129,9110,156,,,,1,1,1.0,1.0,0.0,1.0,,0.0-158.0,,1.0,834.9,1.0,0.726754564,1.0,0.75,1.0,0.5129306370000001,0.0,0.530592445,False,,5e58436ebdccf5057ddd9190,,2043032,156,,evan-feature22,full_pf_b,,0
130,9111,157,,,,1,1,1.0,1.0,-1.0,0.0,,0.0-159.0,,-1.0,1247.5,1.0,0.75,1.0,0.7392590729999999,0.0,0.479875835,1.0,0.547007051,False,,5e58436ebdccf5057ddd9190,,2054170,157,,evan-feature22,full_pf_b,,0
131,9112,158,,,,2,2,0.0,0.0,-1.0,0.0,,0.0-160.0,,0.0,805.7,0.0,0.75,1.0,0.7393376979999999,0.0,0.546045419,0.0,0.541267353,False,,5e58436ebdccf5057ddd9190,,2064825,158,,evan-feature22,full_pf_b,,1
132,9113,159,,,,1,1,1.0,1.0,-1.0,0.0,,0.0-161.0,,-1.0,749.1,1.0,0.75,1.0,0.75,0.0,0.485725895,0.0,0.527625395,False,,5e58436ebdccf5057ddd9190,,2075391,159,,evan-feature22,full_pf_b,,1
133,9114,160,,,,1,1,1.0,1.0,0.0,1.0,,0.0-162.0,,1.0,1644.8,1.0,0.75,1.0,0.725087974,0.0,0.488603595,0.0,0.504019206,False,,5e58436ebdccf5057ddd9190,,2086882,160,,evan-feature22,full_pf_b,,0
134,9115,161,,,,1,1,1.0,0.0,0.0,1.0,,0.0-163.0,,0.0,737.7,1.0,0.745504295,0.0,0.75,1.0,0.452379914,0.0,0.50131194,False,,5e58436ebdccf5057ddd9190,,2097468,161,,evan-feature22,full_pf_b,,0
135,9116,162,,,,1,1,1.0,1.0,0.0,1.0,,0.0-164.0,,1.0,712.8,1.0,0.728513874,1.0,0.75,0.0,0.44125567200000004,1.0,0.531454591,False,,5e58436ebdccf5057ddd9190,,2108037,162,,evan-feature22,full_pf_b,,0
136,9117,163,,,,2,2,0.0,1.0,-1.0,0.0,,0.0-165.0,,0.0,1945.5,0.0,0.73790804,1.0,0.75,0.0,0.413036656,1.0,0.524619035,False,,5e58436ebdccf5057ddd9190,,2119840,163,,evan-feature22,full_pf_b,,1
137,9118,164,,,,2,2,0.0,1.0,0.0,1.0,,0.0-166.0,,1.0,770.9,1.0,0.7080961309999999,0.0,0.708666865,0.0,0.431915581,1.0,0.481819489,False,,5e58436ebdccf5057ddd9190,,2130472,164,,evan-feature22,full_pf_b,,0
138,9119,165,,,,2,2,0.0,1.0,0.0,1.0,,0.0-167.0,,1.0,766.1,1.0,0.721378003,1.0,0.71605913,0.0,0.36642387,1.0,0.5036739929999999,False,,5e58436ebdccf5057ddd9190,,2141063,165,,evan-feature22,full_pf_b,,0
139,9120,166,,,,2,2,1.0,0.0,0.0,1.0,,0.0-168.0,,0.0,716.0,1.0,0.7340618959999999,1.0,0.699323252,1.0,0.35298046299999997,0.0,0.511241692,False,,5e58436ebdccf5057ddd9190,,2151624,166,,evan-feature22,full_pf_b,,0
140,9121,167,,,,2,2,0.0,1.0,-1.0,0.0,,0.0-169.0,,0.0,2264.6,0.0,0.75,0.0,0.70412698,0.0,0.380734814,1.0,0.529580116,False,,5e58436ebdccf5057ddd9190,,2163757,167,,evan-feature22,full_pf_b,,0
141,9122,168,,,,1,1,1.0,0.0,0.0,1.0,,0.0-170.0,,0.0,1335.9,1.0,0.7436654909999999,0.0,0.711182751,1.0,0.41125331,1.0,0.49554405,False,,5e58436ebdccf5057ddd9190,,2174960,168,,evan-feature22,full_pf_b,,1
142,9123,169,,,,2,2,1.0,0.0,0.0,1.0,,0.0-171.0,,0.0,426.9,0.0,0.731607915,0.0,0.651774583,1.0,0.35688023,0.0,0.45194491600000003,False,,5e58436ebdccf5057ddd9190,,2185241,169,,evan-feature22,full_pf_b,,1
143,9124,170,,,,2,2,1.0,1.0,-1.0,0.0,,0.0-172.0,,-1.0,1983.5,1.0,0.75,1.0,0.75,1.0,0.283145374,1.0,0.528608005,False,,5e58436ebdccf5057ddd9190,,2197078,170,,evan-feature22,full_pf_b,,0
144,9125,171,,,,1,1,1.0,0.0,-1.0,0.0,,0.0-173.0,,-1.0,1507.6,1.0,0.7491416890000001,0.0,0.7423785959999999,0.0,0.29135870399999997,1.0,0.498888318,False,,5e58436ebdccf5057ddd9190,,2208427,171,,evan-feature22,full_pf_b,,1
145,9126,172,,,,2,2,0.0,0.0,-1.0,0.0,,0.0-174.0,,0.0,828.1,1.0,0.708569387,1.0,0.717682277,0.0,0.294421699,0.0,0.493838163,False,,5e58436ebdccf5057ddd9190,,2219092,172,,evan-feature22,full_pf_b,,1
146,9127,173,,,,1,1,1.0,1.0,0.0,1.0,,0.0-175.0,,1.0,1169.5,1.0,0.75,1.0,0.7383382159999999,1.0,0.356098707,0.0,0.442533405,False,,5e58436ebdccf5057ddd9190,,2230103,173,,evan-feature22,full_pf_b,,1
147,9128,174,,,,1,1,1.0,0.0,0.0,1.0,,0.0-176.0,,0.0,723.8,1.0,0.744527075,0.0,0.75,1.0,0.334127506,0.0,0.393165805,False,,5e58436ebdccf5057ddd9190,,2240697,174,,evan-feature22,full_pf_b,,0
148,9129,175,,,,1,1,1.0,1.0,0.0,1.0,,0.0-177.0,,1.0,725.1,1.0,0.75,1.0,0.75,1.0,0.33571021799999995,0.0,0.350393962,False,,5e58436ebdccf5057ddd9190,,2251269,175,,evan-feature22,full_pf_b,,0
149,9130,176,,,,1,1,0.0,1.0,0.0,1.0,,0.0-178.0,,1.0,875.9,0.0,0.75,1.0,0.75,0.0,0.313628297,0.0,0.36349657399999996,False,,5e58436ebdccf5057ddd9190,,2262005,176,,evan-feature22,full_pf_b,,0
150,9131,177,,,,1,1,0.0,1.0,-1.0,0.0,,0.0-179.0,,0.0,1526.9,0.0,0.75,1.0,0.734284182,1.0,0.262667667,1.0,0.380199119,False,,5e58436ebdccf5057ddd9190,,2273397,177,,evan-feature22,full_pf_b,,0
151,9132,178,,,,1,1,1.0,1.0,0.0,1.0,,0.0-180.0,,1.0,767.4,1.0,0.75,1.0,0.75,0.0,0.25,0.0,0.394494013,False,,5e58436ebdccf5057ddd9190,,2283990,178,,evan-feature22,full_pf_b,,0
152,9133,179,,,,1,1,0.0,1.0,-1.0,0.0,,0.0-181.0,,0.0,1873.3,0.0,0.722298145,1.0,0.7357822340000001,1.0,0.25,0.0,0.319142121,False,,5e58436ebdccf5057ddd9190,,2295737,179,,evan-feature22,full_pf_b,,0
153,9134,180,,,,1,1,1.0,1.0,-1.0,0.0,,0.0-182.0,,-1.0,1384.3,1.0,0.73149275,1.0,0.724276446,1.0,0.305856907,0.0,0.281315057,False,,5e58436ebdccf5057ddd9190,,2306984,180,,evan-feature22,full_pf_b,,0
154,9135,181,,,,1,1,0.0,1.0,0.0,1.0,,0.0-183.0,,1.0,1183.1,0.0,0.7458732690000001,1.0,0.7336382459999999,0.0,0.272571964,0.0,0.266021999,False,,5e58436ebdccf5057ddd9190,,2318009,181,,evan-feature22,full_pf_b,,0
155,9136,182,,,,1,1,1.0,0.0,0.0,1.0,,0.0-184.0,,0.0,671.5,1.0,0.705579037,0.0,0.720778292,1.0,0.320238144,0.0,0.30971744,False,,5e58436ebdccf5057ddd9190,,2328523,182,,evan-feature22,full_pf_b,,0
156,9137,183,,,,1,1,1.0,0.0,0.0,1.0,,0.0-185.0,,0.0,1210.5,1.0,0.700425648,0.0,0.7198784009999999,0.0,0.272590393,0.0,0.304182931,False,,5e58436ebdccf5057ddd9190,,2339604,183,,evan-feature22,full_pf_b,,0
157,9138,184,,,,1,1,1.0,0.0,0.0,1.0,,0.0-186.0,,0.0,902.0,1.0,0.735590785,0.0,0.722714973,0.0,0.25,1.0,0.323421091,False,,5e58436ebdccf5057ddd9190,,2350371,184,,evan-feature22,full_pf_b,,0
158,9139,185,,,,1,1,1.0,1.0,0.0,1.0,,0.0-187.0,,1.0,1889.1,1.0,0.724807662,1.0,0.63146213,1.0,0.36836492600000004,1.0,0.34592153299999995,False,,5e58436ebdccf5057ddd9190,,2362145,185,,evan-feature22,full_pf_b,,0
159,9140,186,,,,1,1,0.0,1.0,0.0,1.0,,0.0-188.0,,1.0,621.5,0.0,0.7352796909999999,1.0,0.555111392,0.0,0.36003922,1.0,0.31433779999999995,False,,5e58436ebdccf5057ddd9190,,2372633,186,,evan-feature22,full_pf_b,,0
160,9141,187,notice,,,,,,,,,,0.0-189.0,"{""Q0"":""I played three sections, not two halves??""}",,72461.0,,,,,,,,,False,,5e58436ebdccf5057ddd9190,,2445097,187,Q,survey-text,full_pf_b,,1
161,9142,188,track1,,[1],,,,,,,,0.0-190.0,"{""Q0"":""no""}",,2911.0,,,,,,,,,False,,5e58436ebdccf5057ddd9190,,2448017,188,Q,evan-quiz,full_pf_b,,1
162,9143,189,track2,,[1],,,,,,,,0.0-191.0,"{""Q0"":""no""}",,10388.0,,,,,,,,,False,,5e58436ebdccf5057ddd9190,,2458410,189,Q,evan-quiz,full_pf_b,,1
163,9144,190,strat,,,,,,,,,,0.0-192.0,"{""Q0"":""I tried to remember where each colour appeared the most often""}",,50297.0,,,,,,,,,False,,5e58436ebdccf5057ddd9190,,2508714,190,Q,survey-text,full_pf_b,,1
