,index,Unnamed: 0,Q_name,button_pressed,choice_idxs,chosen_pos,chosen_state,chosen_state_f_1_outcome,chosen_state_f_2_outcome,f_1_reward,f_2_reward,incor_questions,internal_node_id,responses,reward_received,rt,s_1_f_1_outcome,s_1_f_1_prob,s_1_f_2_outcome,s_1_f_2_prob,s_2_f_1_outcome,s_2_f_1_prob,s_2_f_2_outcome,s_2_f_2_prob,safe_first,stimulus,subjectID,success,time_elapsed,trial_index,trial_num,trial_type,version,view_history,switching
0,17107,35,,,,2,2,0.0,0.0,0.0,1.0,,0.0-27.0,,0.0,1956.395,1.0,0.6,1.0,0.6,0.0,0.4,0.0,0.4,True,,5ecce8a716aee0016eab83cd,,515493,35,,evan-feature22,full_rf_b,,0
1,17108,36,,,,1,1,0.0,1.0,0.0,1.0,,0.0-28.0,,1.0,542.3000001,0.0,0.608053294,1.0,0.63424552,0.0,0.397152172,0.0,0.347069101,True,,5ecce8a716aee0016eab83cd,,525877,36,,evan-feature22,full_rf_b,,1
2,17109,37,,,,2,2,0.0,0.0,0.0,1.0,,0.0-29.0,,0.0,537.5999999,0.0,0.642237155,0.0,0.648566321,0.0,0.389407674,0.0,0.285525717,True,,5ecce8a716aee0016eab83cd,,536254,37,,evan-feature22,full_rf_b,,1
3,17110,38,,,,1,1,0.0,1.0,0.0,1.0,,0.0-30.0,,1.0,413.3300001,0.0,0.661086576,1.0,0.630492543,0.0,0.399058924,0.0,0.25,True,,5ecce8a716aee0016eab83cd,,546484,38,,evan-feature22,full_rf_b,,1
4,17111,39,,,,2,2,0.0,0.0,0.0,1.0,,0.0-31.0,,0.0,549.6650001,0.0,0.631324137,1.0,0.6269842929999999,0.0,0.38734784299999997,0.0,0.25,True,,5ecce8a716aee0016eab83cd,,556869,39,,evan-feature22,full_rf_b,,1
5,17112,40,,,,1,1,0.0,0.0,0.0,1.0,,0.0-32.0,,0.0,306.48,0.0,0.6381991370000001,0.0,0.68987999,0.0,0.384107265,0.0,0.271332943,True,,5ecce8a716aee0016eab83cd,,567000,40,,evan-feature22,full_rf_b,,1
6,17113,41,,,,1,1,1.0,1.0,0.0,1.0,,0.0-33.0,,1.0,331.515,1.0,0.66034901,1.0,0.742641349,1.0,0.360225629,0.0,0.25,True,,5ecce8a716aee0016eab83cd,,577154,41,,evan-feature22,full_rf_b,,0
7,17114,42,,,,1,1,1.0,0.0,-1.0,0.0,,0.0-34.0,,-1.0,1204.935,1.0,0.638612418,0.0,0.75,0.0,0.367273939,1.0,0.25,True,,5ecce8a716aee0016eab83cd,,588195,42,,evan-feature22,full_rf_b,,0
8,17115,43,,,,2,2,1.0,0.0,0.0,1.0,,0.0-35.0,,0.0,311.5050001,1.0,0.624340629,1.0,0.75,1.0,0.425829545,0.0,0.25,True,,5ecce8a716aee0016eab83cd,,598328,43,,evan-feature22,full_rf_b,,1
9,17116,44,,,,2,2,0.0,0.0,0.0,1.0,,0.0-36.0,,0.0,1213.26,1.0,0.621999804,1.0,0.75,0.0,0.368609357,0.0,0.25,True,,5ecce8a716aee0016eab83cd,,609375,44,,evan-feature22,full_rf_b,,0
10,17117,45,,,,2,2,1.0,1.0,-1.0,0.0,,0.0-37.0,,-1.0,385.16500010000004,1.0,0.62666403,1.0,0.75,1.0,0.311151498,1.0,0.25,True,,5ecce8a716aee0016eab83cd,,619591,45,,evan-feature22,full_rf_b,,0
11,17118,46,,,,1,1,1.0,1.0,-1.0,0.0,,0.0-38.0,,-1.0,837.5300001,1.0,0.6819650009999999,1.0,0.75,0.0,0.310763048,1.0,0.25,True,,5ecce8a716aee0016eab83cd,,630274,46,,evan-feature22,full_rf_b,,1
12,17119,47,,,,2,2,0.0,1.0,0.0,1.0,,0.0-39.0,,1.0,667.6950001,1.0,0.740626951,1.0,0.75,0.0,0.25,1.0,0.25,True,,5ecce8a716aee0016eab83cd,,640787,47,,evan-feature22,full_rf_b,,1
13,17120,48,,,,2,2,1.0,0.0,0.0,1.0,,0.0-40.0,,0.0,2145.15,1.0,0.739599242,1.0,0.742034978,1.0,0.25397114600000004,0.0,0.25,True,,5ecce8a716aee0016eab83cd,,652753,48,,evan-feature22,full_rf_b,,0
14,17121,49,,,,2,2,0.0,0.0,0.0,1.0,,0.0-41.0,,0.0,572.6650001,1.0,0.732341315,1.0,0.72735643,0.0,0.25,0.0,0.25,True,,5ecce8a716aee0016eab83cd,,663169,49,,evan-feature22,full_rf_b,,0
15,17122,50,,,,2,2,0.0,1.0,0.0,1.0,,0.0-42.0,,1.0,737.1199999,1.0,0.7062287770000001,0.0,0.75,0.0,0.29002151,1.0,0.288256649,True,,5ecce8a716aee0016eab83cd,,673799,50,,evan-feature22,full_rf_b,,0
16,17123,51,,,,1,1,0.0,1.0,-1.0,0.0,,0.0-43.0,,0.0,325.5449999,0.0,0.7086029209999999,1.0,0.75,1.0,0.274129113,0.0,0.262851608,True,,5ecce8a716aee0016eab83cd,,683945,51,,evan-feature22,full_rf_b,,1
17,17124,52,,,,1,1,1.0,1.0,0.0,1.0,,0.0-44.0,,1.0,931.295,1.0,0.669189651,1.0,0.727614338,0.0,0.298444036,0.0,0.296944518,True,,5ecce8a716aee0016eab83cd,,694729,52,,evan-feature22,full_rf_b,,0
18,17125,53,,,,1,1,1.0,1.0,-1.0,0.0,,0.0-45.0,,-1.0,454.135,1.0,0.6819912929999999,1.0,0.7179434290000001,0.0,0.265003961,0.0,0.28157921199999997,True,,5ecce8a716aee0016eab83cd,,705010,53,,evan-feature22,full_rf_b,,0
19,17126,54,,,,1,1,1.0,0.0,-1.0,0.0,,0.0-46.0,,-1.0,977.405,1.0,0.665275002,0.0,0.723065271,0.0,0.260414971,0.0,0.30973870000000003,True,,5ecce8a716aee0016eab83cd,,715809,54,,evan-feature22,full_rf_b,,0
20,17127,55,,,,2,2,1.0,0.0,0.0,1.0,,0.0-47.0,,0.0,397.36500010000003,1.0,0.6660593260000001,1.0,0.728032907,1.0,0.30922817,0.0,0.338778608,True,,5ecce8a716aee0016eab83cd,,726040,55,,evan-feature22,full_rf_b,,1
21,17128,56,,,,2,2,0.0,0.0,0.0,1.0,,0.0-48.0,,0.0,360.0499998,0.0,0.702068785,0.0,0.6528750879999999,0.0,0.287329608,0.0,0.35789613200000003,True,,5ecce8a716aee0016eab83cd,,736207,56,,evan-feature22,full_rf_b,,0
22,17129,57,,,,2,2,0.0,1.0,0.0,1.0,,0.0-49.0,,1.0,554.8699999,1.0,0.651939787,1.0,0.636725589,0.0,0.284834488,1.0,0.358563756,True,,5ecce8a716aee0016eab83cd,,746606,57,,evan-feature22,full_rf_b,,0
23,17130,58,,,,2,2,0.0,1.0,0.0,1.0,,0.0-50.0,,1.0,566.7700002,0.0,0.67573929,1.0,0.612550049,0.0,0.37130387600000003,1.0,0.383542402,True,,5ecce8a716aee0016eab83cd,,757017,58,,evan-feature22,full_rf_b,,0
24,17131,59,,,,2,2,0.0,0.0,0.0,1.0,,0.0-51.0,,0.0,549.6399999,1.0,0.620753801,0.0,0.60513644,0.0,0.385529434,0.0,0.340361743,True,,5ecce8a716aee0016eab83cd,,767375,59,,evan-feature22,full_rf_b,,0
25,17132,60,,,,SLOW,SLOW,,,-1.0,0.0,,0.0-52.0,,-3.0,,0.0,0.673564893,1.0,0.672437924,0.0,0.292955382,0.0,0.337633795,True,,5ecce8a716aee0016eab83cd,,773213,60,,evan-feature22,full_rf_b,,1
26,17133,61,,,,1,1,1.0,1.0,0.0,1.0,,0.0-53.0,,1.0,580.0600001,1.0,0.6749427,1.0,0.724197502,0.0,0.32391132100000003,1.0,0.350995264,True,,5ecce8a716aee0016eab83cd,,783615,61,,evan-feature22,full_rf_b,,1
27,17134,62,,,,1,1,1.0,1.0,0.0,1.0,,0.0-54.0,,1.0,426.4849999,1.0,0.6940159379999999,1.0,0.75,0.0,0.31710554399999996,0.0,0.413450341,True,,5ecce8a716aee0016eab83cd,,793880,62,,evan-feature22,full_rf_b,,0
28,17135,63,,,,2,2,0.0,0.0,0.0,1.0,,0.0-55.0,,0.0,982.1550001,1.0,0.6916018270000001,1.0,0.69001187,0.0,0.261817804,0.0,0.40038635,True,,5ecce8a716aee0016eab83cd,,804676,63,,evan-feature22,full_rf_b,,1
29,17136,64,,,,1,1,0.0,1.0,0.0,1.0,,0.0-56.0,,1.0,492.5599999,0.0,0.641061544,1.0,0.71337992,0.0,0.277296461,1.0,0.47372791700000005,True,,5ecce8a716aee0016eab83cd,,814985,64,,evan-feature22,full_rf_b,,1
30,17137,65,,,,1,1,1.0,0.0,0.0,1.0,,0.0-57.0,,0.0,508.405,1.0,0.6082438520000001,0.0,0.708471106,0.0,0.28745137,1.0,0.564174476,True,,5ecce8a716aee0016eab83cd,,825323,65,,evan-feature22,full_rf_b,,0
31,17138,66,,,,SLOW,SLOW,,,-1.0,0.0,,0.0-58.0,,-3.0,,1.0,0.6051112120000001,1.0,0.7118147229999999,0.0,0.272390611,1.0,0.5595149939999999,True,,5ecce8a716aee0016eab83cd,,831152,66,,evan-feature22,full_rf_b,,1
32,17139,67,,,,1,1,1.0,1.0,-1.0,0.0,,0.0-59.0,,-1.0,1268.685,1.0,0.582420852,1.0,0.635867583,0.0,0.31089574,1.0,0.5227206520000001,True,,5ecce8a716aee0016eab83cd,,842271,67,,evan-feature22,full_rf_b,,1
33,17140,68,,,,2,2,0.0,1.0,-1.0,0.0,,0.0-60.0,,0.0,275.6750002,1.0,0.623195575,0.0,0.655026044,0.0,0.25,1.0,0.560387538,True,,5ecce8a716aee0016eab83cd,,852369,68,,evan-feature22,full_rf_b,,1
34,17141,69,,,,2,2,0.0,1.0,0.0,1.0,,0.0-61.0,,1.0,293.7799999,1.0,0.601889598,1.0,0.678198724,0.0,0.25,1.0,0.559922936,True,,5ecce8a716aee0016eab83cd,,862513,69,,evan-feature22,full_rf_b,,0
35,17142,70,,,,2,2,0.0,1.0,-1.0,0.0,,0.0-62.0,,0.0,825.7549999,1.0,0.601259914,1.0,0.704681482,0.0,0.33908969299999997,1.0,0.505003715,True,,5ecce8a716aee0016eab83cd,,873151,70,,evan-feature22,full_rf_b,,0
36,17143,71,,,,1,1,1.0,0.0,-1.0,0.0,,0.0-63.0,,-1.0,239.935,1.0,0.59645454,0.0,0.710437172,0.0,0.327441879,0.0,0.391749613,True,,5ecce8a716aee0016eab83cd,,883216,71,,evan-feature22,full_rf_b,,1
37,17144,72,,,,1,1,0.0,1.0,0.0,1.0,,0.0-64.0,,1.0,551.6649999,0.0,0.529473,1.0,0.636758527,0.0,0.301338063,1.0,0.365661481,True,,5ecce8a716aee0016eab83cd,,893597,72,,evan-feature22,full_rf_b,,0
38,17145,73,,,,1,1,1.0,0.0,-1.0,0.0,,0.0-65.0,,-1.0,321.455,1.0,0.541657162,0.0,0.634541962,0.0,0.343535366,0.0,0.371763742,True,,5ecce8a716aee0016eab83cd,,903748,73,,evan-feature22,full_rf_b,,0
39,17146,74,,,,2,2,1.0,0.0,-1.0,0.0,,0.0-66.0,,-1.0,381.725,1.0,0.5707533260000001,0.0,0.589121171,1.0,0.326428396,0.0,0.43961622899999997,True,,5ecce8a716aee0016eab83cd,,913944,74,,evan-feature22,full_rf_b,,1
40,17147,75,,,,1,1,0.0,1.0,0.0,1.0,,0.0-67.0,,1.0,442.52,0.0,0.5707533260000001,1.0,0.589121171,0.0,0.326428396,1.0,0.43961622899999997,True,,5ecce8a716aee0016eab83cd,,924224,75,,evan-feature22,full_rf_b,,1
41,17148,76,,,,1,1,0.0,1.0,0.0,1.0,,0.0-68.0,,1.0,1183.275,0.0,0.506271295,1.0,0.641775594,1.0,0.37149690700000004,0.0,0.404330166,True,,5ecce8a716aee0016eab83cd,,935216,76,,evan-feature22,full_rf_b,,0
42,17149,77,,,,2,2,0.0,0.0,-1.0,0.0,,0.0-69.0,,0.0,1615.315,1.0,0.455642565,0.0,0.623605825,0.0,0.358753011,0.0,0.346174041,True,,5ecce8a716aee0016eab83cd,,946637,77,,evan-feature22,full_rf_b,,1
43,17150,78,,,,1,1,1.0,1.0,0.0,1.0,,0.0-70.0,,1.0,392.86,1.0,0.483677308,1.0,0.5904681070000001,1.0,0.402218411,0.0,0.35344697,True,,5ecce8a716aee0016eab83cd,,956852,78,,evan-feature22,full_rf_b,,1
44,17151,79,,,,2,2,0.0,0.0,-1.0,0.0,,0.0-71.0,,0.0,458.4050002,0.0,0.394210977,0.0,0.558925494,0.0,0.540052017,0.0,0.35182128700000004,True,,5ecce8a716aee0016eab83cd,,967121,79,,evan-feature22,full_rf_b,,1
45,17152,80,,,,2,2,0.0,0.0,0.0,1.0,,0.0-72.0,,0.0,684.995,1.0,0.382300414,0.0,0.577670603,0.0,0.607608448,0.0,0.378261578,True,,5ecce8a716aee0016eab83cd,,977615,80,,evan-feature22,full_rf_b,,0
46,17153,81,,,,1,1,0.0,0.0,-1.0,0.0,,0.0-73.0,,0.0,460.7549999,0.0,0.357596762,0.0,0.5929076529999999,0.0,0.6579790010000001,0.0,0.401326777,True,,5ecce8a716aee0016eab83cd,,987867,81,,evan-feature22,full_rf_b,,1
47,17154,82,,,,1,1,0.0,1.0,0.0,1.0,,0.0-74.0,,1.0,822.77,0.0,0.362033495,1.0,0.582308608,1.0,0.649195052,1.0,0.355158505,True,,5ecce8a716aee0016eab83cd,,998499,82,,evan-feature22,full_rf_b,,0
48,17155,83,,,,1,1,0.0,0.0,0.0,1.0,,0.0-75.0,,0.0,674.725,0.0,0.369620635,0.0,0.669100864,1.0,0.706059111,1.0,0.362516241,True,,5ecce8a716aee0016eab83cd,,1008995,83,,evan-feature22,full_rf_b,,0
49,17156,84,,,,2,2,1.0,0.0,0.0,1.0,,0.0-76.0,,0.0,868.7249999,0.0,0.41477751399999996,1.0,0.7284416779999999,1.0,0.7182656940000001,0.0,0.36228040899999997,True,,5ecce8a716aee0016eab83cd,,1019710,84,,evan-feature22,full_rf_b,,1
50,17157,85,,,,2,2,1.0,0.0,-1.0,0.0,,0.0-77.0,,-1.0,526.175,0.0,0.37675460299999997,1.0,0.703250285,1.0,0.75,0.0,0.461979164,True,,5ecce8a716aee0016eab83cd,,1030059,85,,evan-feature22,full_rf_b,,0
51,17158,86,,,,1,1,1.0,1.0,-1.0,0.0,,0.0-78.0,,-1.0,489.9899999,1.0,0.398716075,1.0,0.6723864890000001,0.0,0.674153818,1.0,0.519029516,True,,5ecce8a716aee0016eab83cd,,1040375,86,,evan-feature22,full_rf_b,,1
52,17159,87,,,,2,2,1.0,0.0,-1.0,0.0,,0.0-79.0,,-1.0,419.555,0.0,0.34677856700000004,0.0,0.69057175,1.0,0.6822438540000001,0.0,0.477292237,True,,5ecce8a716aee0016eab83cd,,1050608,87,,evan-feature22,full_rf_b,,1
53,17160,88,,,,2,2,1.0,1.0,0.0,1.0,,0.0-80.0,,1.0,280.1350001,0.0,0.28580469199999997,1.0,0.68408818,1.0,0.684207565,1.0,0.49780448299999996,True,,5ecce8a716aee0016eab83cd,,1060728,88,,evan-feature22,full_rf_b,,0
54,17162,90,,,,2,2,1.0,1.0,0.0,1.0,,0.0-82.0,,1.0,1078.67,0.0,0.25,1.0,0.7405808970000001,1.0,0.679614108,1.0,0.436436964,True,,5ecce8a716aee0016eab83cd,,1075769,90,,evan-feature22,full_rf_b,,0
55,17163,91,,,,1,1,1.0,1.0,0.0,1.0,,0.0-83.0,,1.0,1255.4,1.0,0.29890393,1.0,0.730505706,1.0,0.7328203320000001,0.0,0.439256938,True,,5ecce8a716aee0016eab83cd,,1086845,91,,evan-feature22,full_rf_b,,1
56,17164,92,,,,2,2,0.0,1.0,-1.0,0.0,,0.0-84.0,,0.0,561.7499999,0.0,0.326762398,1.0,0.7148059609999999,0.0,0.75,1.0,0.44389608799999997,True,,5ecce8a716aee0016eab83cd,,1097232,92,,evan-feature22,full_rf_b,,1
57,17165,93,,,,2,2,1.0,1.0,0.0,1.0,,0.0-85.0,,1.0,381.3700001,0.0,0.295168515,1.0,0.739760854,1.0,0.719947008,1.0,0.35277284600000003,True,,5ecce8a716aee0016eab83cd,,1107430,93,,evan-feature22,full_rf_b,,0
58,17166,94,,,,1,1,0.0,0.0,0.0,1.0,,0.0-86.0,,0.0,543.785,0.0,0.25,0.0,0.70781482,1.0,0.75,0.0,0.286095925,True,,5ecce8a716aee0016eab83cd,,1117797,94,,evan-feature22,full_rf_b,,1
59,17167,95,,,,2,2,0.0,0.0,0.0,1.0,,0.0-87.0,,0.0,287.5950001,1.0,0.25638190899999996,1.0,0.704088163,0.0,0.75,0.0,0.26872601399999996,True,,5ecce8a716aee0016eab83cd,,1127893,95,,evan-feature22,full_rf_b,,1
60,17168,96,,,,1,1,1.0,1.0,-1.0,0.0,,0.0-88.0,,-1.0,600.9450001,1.0,0.271581126,1.0,0.669760107,0.0,0.733896663,0.0,0.273244572,True,,5ecce8a716aee0016eab83cd,,1138311,96,,evan-feature22,full_rf_b,,1
61,17169,97,,,,2,2,1.0,0.0,0.0,1.0,,0.0-89.0,,0.0,515.9799998999999,0.0,0.257144401,0.0,0.600575706,1.0,0.74488122,0.0,0.25,True,,5ecce8a716aee0016eab83cd,,1148625,97,,evan-feature22,full_rf_b,,1
62,17170,98,,,,1,1,0.0,1.0,0.0,1.0,,0.0-90.0,,1.0,1025.775,0.0,0.25,1.0,0.616870026,0.0,0.723610234,0.0,0.25,True,,5ecce8a716aee0016eab83cd,,1159459,98,,evan-feature22,full_rf_b,,1
63,17171,99,,,,1,1,0.0,1.0,-1.0,0.0,,0.0-91.0,,0.0,2804.845,0.0,0.25,1.0,0.583540187,0.0,0.7041042559999999,0.0,0.285961995,True,,5ecce8a716aee0016eab83cd,,1172086,99,,evan-feature22,full_rf_b,,0
64,17172,100,,,,1,1,1.0,0.0,-1.0,0.0,,0.0-92.0,,-1.0,504.2999999,1.0,0.27254536,0.0,0.53875765,1.0,0.693783448,0.0,0.284961652,True,,5ecce8a716aee0016eab83cd,,1182418,100,,evan-feature22,full_rf_b,,0
65,17173,101,,,,2,2,1.0,0.0,-1.0,0.0,,0.0-93.0,,-1.0,1143.85,1.0,0.25,1.0,0.548431252,1.0,0.734221895,0.0,0.279445214,True,,5ecce8a716aee0016eab83cd,,1193380,101,,evan-feature22,full_rf_b,,1
66,17174,102,,,,1,1,0.0,1.0,0.0,1.0,,0.0-94.0,,1.0,609.9749999,0.0,0.258640684,1.0,0.545878066,1.0,0.725245965,0.0,0.31487537,True,,5ecce8a716aee0016eab83cd,,1203797,102,,evan-feature22,full_rf_b,,1
67,17175,103,,,,SLOW,SLOW,,,0.0,1.0,,0.0-95.0,,-3.0,,1.0,0.251103711,1.0,0.5776290629999999,1.0,0.696320133,1.0,0.317831047,True,,5ecce8a716aee0016eab83cd,,1209626,103,,evan-feature22,full_rf_b,,1
68,17176,104,,,,1,1,0.0,1.0,0.0,1.0,,0.0-96.0,,1.0,452.3400001,0.0,0.276630292,1.0,0.617329858,1.0,0.73838088,0.0,0.261471582,True,,5ecce8a716aee0016eab83cd,,1219888,104,,evan-feature22,full_rf_b,,1
69,17177,105,,,,2,2,1.0,0.0,0.0,1.0,,0.0-97.0,,0.0,528.255,0.0,0.297716424,0.0,0.618863717,1.0,0.7402358259999999,0.0,0.262600834,True,,5ecce8a716aee0016eab83cd,,1230212,105,,evan-feature22,full_rf_b,,1
70,17178,106,,,,2,2,1.0,0.0,-1.0,0.0,,0.0-98.0,,-1.0,405.725,0.0,0.290935512,1.0,0.695370945,1.0,0.706570507,0.0,0.280030553,True,,5ecce8a716aee0016eab83cd,,1240458,106,,evan-feature22,full_rf_b,,0
71,17179,107,,,,1,1,0.0,0.0,0.0,1.0,,0.0-99.0,,0.0,418.13499989999997,0.0,0.25,0.0,0.6465277079999999,0.0,0.67766682,0.0,0.25,True,,5ecce8a716aee0016eab83cd,,1250701,107,,evan-feature22,full_rf_b,,1
72,17180,108,,,,2,2,1.0,0.0,-1.0,0.0,,0.0-100.0,,-1.0,529.4649999,1.0,0.26463816,1.0,0.636100213,1.0,0.646048507,0.0,0.265607101,True,,5ecce8a716aee0016eab83cd,,1261024,108,,evan-feature22,full_rf_b,,1
73,17181,109,,,,1,1,1.0,0.0,-1.0,0.0,,0.0-101.0,,-1.0,531.6950001,1.0,0.314340707,0.0,0.667795927,0.0,0.613630805,0.0,0.25,True,,5ecce8a716aee0016eab83cd,,1271367,109,,evan-feature22,full_rf_b,,1
74,17182,110,,,,2,2,0.0,0.0,0.0,1.0,,0.0-102.0,,0.0,538.9449999,0.0,0.28685784,0.0,0.6622549529999999,0.0,0.652154117,0.0,0.25,True,,5ecce8a716aee0016eab83cd,,1281702,110,,evan-feature22,full_rf_b,,1
75,17183,111,,,,2,2,0.0,0.0,0.0,1.0,,0.0-103.0,,0.0,699.945,0.0,0.304106554,1.0,0.631289538,0.0,0.707041942,0.0,0.29314237,True,,5ecce8a716aee0016eab83cd,,1292218,111,,evan-feature22,full_rf_b,,0
76,17184,112,,,,1,1,0.0,1.0,0.0,1.0,,0.0-104.0,,1.0,432.6199999,0.0,0.304806932,1.0,0.571167718,0.0,0.680472346,0.0,0.25,True,,5ecce8a716aee0016eab83cd,,1302480,112,,evan-feature22,full_rf_b,,1
77,17185,113,,,,2,2,1.0,0.0,0.0,1.0,,0.0-105.0,,0.0,313.785,0.0,0.37919861,0.0,0.5724849710000001,1.0,0.705638003,0.0,0.30179300600000003,True,,5ecce8a716aee0016eab83cd,,1312619,113,,evan-feature22,full_rf_b,,1
78,17186,114,,,,2,2,0.0,0.0,0.0,1.0,,0.0-106.0,,0.0,582.1,0.0,0.464277969,1.0,0.554034373,0.0,0.7372627340000001,0.0,0.264699741,True,,5ecce8a716aee0016eab83cd,,1323012,114,,evan-feature22,full_rf_b,,0
79,17187,115,,,,2,2,0.0,0.0,0.0,1.0,,0.0-107.0,,0.0,516.1050002000001,1.0,0.465104323,0.0,0.530793115,0.0,0.75,0.0,0.31683071,True,,5ecce8a716aee0016eab83cd,,1333345,115,,evan-feature22,full_rf_b,,0
80,17188,116,,,,2,2,1.0,0.0,-1.0,0.0,,0.0-108.0,,-1.0,299.89499989999996,1.0,0.465104323,1.0,0.530793115,1.0,0.75,0.0,0.31683071,True,,5ecce8a716aee0016eab83cd,,1343467,116,,evan-feature22,full_rf_b,,0
81,17189,117,,,,1,1,1.0,0.0,-1.0,0.0,,0.0-109.0,,-1.0,483.8949998,1.0,0.46833986,0.0,0.570249239,1.0,0.7244472590000001,1.0,0.364114163,True,,5ecce8a716aee0016eab83cd,,1353775,117,,evan-feature22,full_rf_b,,1
82,17190,118,,,,1,1,1.0,1.0,-1.0,0.0,,0.0-110.0,,-1.0,251.5250002,1.0,0.445444024,1.0,0.649673355,1.0,0.6845441290000001,1.0,0.300660449,True,,5ecce8a716aee0016eab83cd,,1363872,118,,evan-feature22,full_rf_b,,0
83,17191,119,,,,1,1,0.0,1.0,-1.0,0.0,,0.0-111.0,,0.0,442.8300001,0.0,0.39909721299999995,1.0,0.6715179509999999,0.0,0.742310028,0.0,0.35496088299999995,True,,5ecce8a716aee0016eab83cd,,1374138,119,,evan-feature22,full_rf_b,,0
84,17192,120,,,,2,2,1.0,0.0,0.0,1.0,,0.0-112.0,,0.0,318.065,0.0,0.37956104799999996,1.0,0.694725302,1.0,0.7181651309999999,0.0,0.38726906299999997,True,,5ecce8a716aee0016eab83cd,,1384261,120,,evan-feature22,full_rf_b,,1
85,17193,121,,,,1,1,1.0,0.0,0.0,1.0,,0.0-113.0,,0.0,387.015,1.0,0.404995034,0.0,0.724375412,1.0,0.6910946859999999,1.0,0.387187347,True,,5ecce8a716aee0016eab83cd,,1394468,121,,evan-feature22,full_rf_b,,1
86,17194,122,,,,1,1,1.0,1.0,-1.0,0.0,,0.0-114.0,,-1.0,402.22,1.0,0.461740803,1.0,0.75,1.0,0.75,1.0,0.34872038200000005,True,,5ecce8a716aee0016eab83cd,,1404675,122,,evan-feature22,full_rf_b,,0
87,17195,123,,,,2,2,1.0,0.0,-1.0,0.0,,0.0-115.0,,-1.0,569.535,0.0,0.43821380600000004,1.0,0.738833273,1.0,0.728286963,0.0,0.399538128,True,,5ecce8a716aee0016eab83cd,,1415062,123,,evan-feature22,full_rf_b,,1
88,17196,124,,,,1,1,1.0,1.0,0.0,1.0,,0.0-116.0,,1.0,389.6499998,1.0,0.41709882,1.0,0.736666736,1.0,0.75,0.0,0.389095584,True,,5ecce8a716aee0016eab83cd,,1425312,124,,evan-feature22,full_rf_b,,1
89,17197,125,,,,1,1,0.0,0.0,0.0,1.0,,0.0-117.0,,0.0,413.6299998,0.0,0.39749009799999996,0.0,0.744320029,0.0,0.75,1.0,0.363848678,True,,5ecce8a716aee0016eab83cd,,1435560,125,,evan-feature22,full_rf_b,,0
90,17198,126,,,,2,2,1.0,1.0,-1.0,0.0,,0.0-118.0,,-1.0,980.1999999,1.0,0.392653706,1.0,0.75,1.0,0.75,1.0,0.384386976,True,,5ecce8a716aee0016eab83cd,,1446378,126,,evan-feature22,full_rf_b,,1
91,17199,127,,,,1,1,1.0,1.0,0.0,1.0,,0.0-119.0,,1.0,346.69999989999997,1.0,0.31190902600000003,1.0,0.75,0.0,0.732413819,0.0,0.413082932,True,,5ecce8a716aee0016eab83cd,,1456574,127,,evan-feature22,full_rf_b,,1
92,17200,128,,,,1,1,1.0,1.0,-1.0,0.0,,0.0-120.0,,-1.0,533.085,1.0,0.366917648,1.0,0.740073855,1.0,0.75,0.0,0.352861979,True,,5ecce8a716aee0016eab83cd,,1466926,128,,evan-feature22,full_rf_b,,0
93,17201,129,,,,2,2,0.0,0.0,-1.0,0.0,,0.0-121.0,,0.0,360.165,0.0,0.3645172,1.0,0.721770713,0.0,0.75,0.0,0.404074511,True,,5ecce8a716aee0016eab83cd,,1477083,129,,evan-feature22,full_rf_b,,1
94,17202,130,,,,1,1,1.0,0.0,-1.0,0.0,,0.0-122.0,,-1.0,941.5500001,1.0,0.35205600299999995,0.0,0.68983859,1.0,0.739735447,1.0,0.366895945,True,,5ecce8a716aee0016eab83cd,,1487837,130,,evan-feature22,full_rf_b,,1
95,17203,131,,,,2,2,1.0,1.0,-1.0,0.0,,0.0-123.0,,-1.0,351.7700001,1.0,0.40998722600000004,0.0,0.720859127,1.0,0.673854955,1.0,0.368528541,True,,5ecce8a716aee0016eab83cd,,1498019,131,,evan-feature22,full_rf_b,,1
96,17204,132,,,,1,1,0.0,0.0,-1.0,0.0,,0.0-124.0,,0.0,313.1000001,0.0,0.353625316,0.0,0.75,0.0,0.695605473,0.0,0.38303674200000004,True,,5ecce8a716aee0016eab83cd,,1508134,132,,evan-feature22,full_rf_b,,1
97,17205,133,,,,1,1,0.0,0.0,-1.0,0.0,,0.0-125.0,,0.0,361.3100001,0.0,0.359216989,0.0,0.75,1.0,0.6987915090000001,0.0,0.35169046200000004,True,,5ecce8a716aee0016eab83cd,,1518316,133,,evan-feature22,full_rf_b,,0
98,17206,134,,,,2,2,0.0,1.0,-1.0,0.0,,0.0-126.0,,0.0,551.1099998999999,1.0,0.35834496899999996,1.0,0.75,0.0,0.707067742,1.0,0.416763636,True,,5ecce8a716aee0016eab83cd,,1528711,134,,evan-feature22,full_rf_b,,1
99,17207,135,,,,1,1,0.0,1.0,0.0,1.0,,0.0-127.0,,1.0,580.8850001000001,0.0,0.38741613799999997,1.0,0.7177369570000001,1.0,0.734902455,1.0,0.49438664299999996,True,,5ecce8a716aee0016eab83cd,,1539126,135,,evan-feature22,full_rf_b,,1
100,17208,136,,,,1,1,0.0,1.0,-1.0,0.0,,0.0-128.0,,0.0,841.5099999,0.0,0.405255252,1.0,0.7300466640000001,0.0,0.7027748070000001,0.0,0.504359668,True,,5ecce8a716aee0016eab83cd,,1549776,136,,evan-feature22,full_rf_b,,0
101,17209,137,,,,1,1,0.0,1.0,-1.0,0.0,,0.0-129.0,,0.0,1472.525,0.0,0.40697073,1.0,0.7260142190000001,1.0,0.724461982,0.0,0.522779179,True,,5ecce8a716aee0016eab83cd,,1561072,137,,evan-feature22,full_rf_b,,0
102,17210,138,,,,1,1,0.0,1.0,-1.0,0.0,,0.0-130.0,,0.0,478.2800002,0.0,0.43906215299999996,1.0,0.7252802340000001,1.0,0.719079934,0.0,0.5712990579999999,True,,5ecce8a716aee0016eab83cd,,1571384,138,,evan-feature22,full_rf_b,,0
103,17211,139,,,,1,1,0.0,1.0,0.0,1.0,,0.0-131.0,,1.0,531.835,0.0,0.4076705,1.0,0.73280499,0.0,0.681313127,1.0,0.523891346,True,,5ecce8a716aee0016eab83cd,,1581744,139,,evan-feature22,full_rf_b,,0
104,17212,140,,,,2,2,0.0,0.0,0.0,1.0,,0.0-132.0,,0.0,459.575,0.0,0.399102911,1.0,0.730498344,0.0,0.661080239,0.0,0.46742603,True,,5ecce8a716aee0016eab83cd,,1592004,140,,evan-feature22,full_rf_b,,1
105,17213,141,,,,1,1,0.0,1.0,0.0,1.0,,0.0-133.0,,1.0,749.175,0.0,0.356477282,1.0,0.712296395,0.0,0.641812684,1.0,0.44868414,True,,5ecce8a716aee0016eab83cd,,1602585,141,,evan-feature22,full_rf_b,,1
106,17214,142,,,,1,1,0.0,1.0,-1.0,0.0,,0.0-134.0,,0.0,1021.47,0.0,0.462760722,1.0,0.692349322,1.0,0.700947931,0.0,0.394680266,True,,5ecce8a716aee0016eab83cd,,1613400,142,,evan-feature22,full_rf_b,,0
107,17215,143,,,,2,2,1.0,1.0,-1.0,0.0,,0.0-135.0,,-1.0,541.9000001,0.0,0.422306413,1.0,0.718375916,1.0,0.706340917,1.0,0.367787185,True,,5ecce8a716aee0016eab83cd,,1623766,143,,evan-feature22,full_rf_b,,1
108,17217,145,,,,1,1,0.0,0.0,-1.0,0.0,,0.0-137.0,,0.0,568.3249999,0.0,0.4582233,0.0,0.643834117,1.0,0.75,1.0,0.39615823299999997,True,,5ecce8a716aee0016eab83cd,,1639329,145,,evan-feature22,full_rf_b,,1
109,17218,146,,,,2,2,1.0,1.0,-1.0,0.0,,0.0-138.0,,-1.0,1398.325,1.0,0.43813437899999996,1.0,0.651283804,1.0,0.729674191,1.0,0.37711048,True,,5ecce8a716aee0016eab83cd,,1650556,146,,evan-feature22,full_rf_b,,1
110,17219,147,,,,1,1,0.0,1.0,-1.0,0.0,,0.0-139.0,,0.0,671.6499999,0.0,0.471199094,1.0,0.6470010979999999,1.0,0.715008097,1.0,0.410656191,True,,5ecce8a716aee0016eab83cd,,1661059,147,,evan-feature22,full_rf_b,,1
111,17220,148,,,,1,1,0.0,1.0,-1.0,0.0,,0.0-140.0,,0.0,837.8150002,0.0,0.42486406,1.0,0.629771829,0.0,0.6550939960000001,1.0,0.459093873,True,,5ecce8a716aee0016eab83cd,,1671737,148,,evan-feature22,full_rf_b,,0
112,17221,149,,,,1,1,0.0,1.0,-1.0,0.0,,0.0-141.0,,0.0,406.0,0.0,0.4803197,1.0,0.645842715,1.0,0.6421749920000001,1.0,0.443092151,True,,5ecce8a716aee0016eab83cd,,1681972,149,,evan-feature22,full_rf_b,,0
113,17222,150,,,,1,1,1.0,0.0,0.0,1.0,,0.0-142.0,,0.0,1142.915,1.0,0.521848997,0.0,0.735801074,1.0,0.6691348460000001,1.0,0.45259351600000003,True,,5ecce8a716aee0016eab83cd,,1692938,150,,evan-feature22,full_rf_b,,0
114,17223,151,,,,2,2,0.0,0.0,-1.0,0.0,,0.0-143.0,,0.0,477.3649999,0.0,0.49565621299999996,1.0,0.742400847,0.0,0.661512553,0.0,0.483110831,True,,5ecce8a716aee0016eab83cd,,1703235,151,,evan-feature22,full_rf_b,,1
115,17224,152,,,,1,1,0.0,1.0,-1.0,0.0,,0.0-144.0,,0.0,267.1699999,0.0,0.521564361,1.0,0.731078632,0.0,0.6774886809999999,1.0,0.483263956,True,,5ecce8a716aee0016eab83cd,,1713320,152,,evan-feature22,full_rf_b,,1
116,17225,153,,,,1,1,0.0,1.0,-1.0,0.0,,0.0-145.0,,0.0,446.005,0.0,0.558893102,1.0,0.719810023,1.0,0.67461031,0.0,0.499349834,True,,5ecce8a716aee0016eab83cd,,1723584,153,,evan-feature22,full_rf_b,,0
117,17226,154,,,,2,2,1.0,1.0,-1.0,0.0,,0.0-146.0,,-1.0,816.0850001,1.0,0.611031046,1.0,0.75,1.0,0.688072995,1.0,0.5321422729999999,True,,5ecce8a716aee0016eab83cd,,1734217,154,,evan-feature22,full_rf_b,,1
118,17227,155,,,,1,1,0.0,1.0,0.0,1.0,,0.0-147.0,,1.0,549.2449999,0.0,0.633223941,1.0,0.713567728,0.0,0.75,0.0,0.48185314700000004,True,,5ecce8a716aee0016eab83cd,,1744569,155,,evan-feature22,full_rf_b,,1
119,17228,156,,,,2,2,1.0,0.0,-1.0,0.0,,0.0-148.0,,-1.0,1076.17,0.0,0.664001694,1.0,0.705509768,1.0,0.75,0.0,0.500211065,True,,5ecce8a716aee0016eab83cd,,1755461,156,,evan-feature22,full_rf_b,,1
120,17229,157,,,,1,1,1.0,1.0,-1.0,0.0,,0.0-149.0,,-1.0,250.2599999,1.0,0.664001694,1.0,0.705509768,1.0,0.75,1.0,0.500211065,True,,5ecce8a716aee0016eab83cd,,1765527,157,,evan-feature22,full_rf_b,,1
121,17230,158,,,,1,1,1.0,1.0,-1.0,0.0,,0.0-150.0,,-1.0,899.4850002000001,1.0,0.696508041,1.0,0.71066027,1.0,0.717028709,1.0,0.49792991,True,,5ecce8a716aee0016eab83cd,,1776281,158,,evan-feature22,full_rf_b,,0
122,17231,159,,,,SLOW,SLOW,,,0.0,1.0,,0.0-151.0,,-3.0,,0.0,0.699883272,1.0,0.75,1.0,0.713543895,1.0,0.496962643,True,,5ecce8a716aee0016eab83cd,,1782119,159,,evan-feature22,full_rf_b,,1
123,17232,160,,,,1,1,1.0,1.0,0.0,1.0,,0.0-152.0,,1.0,1168.395,1.0,0.741163419,1.0,0.75,1.0,0.64691024,0.0,0.513858197,True,,5ecce8a716aee0016eab83cd,,1793091,160,,evan-feature22,full_rf_b,,1
124,17233,161,,,,2,2,0.0,0.0,0.0,1.0,,0.0-153.0,,0.0,335.835,1.0,0.75,1.0,0.70816558,0.0,0.594499079,0.0,0.48502124,True,,5ecce8a716aee0016eab83cd,,1803235,161,,evan-feature22,full_rf_b,,1
125,17234,162,,,,1,1,1.0,1.0,-1.0,0.0,,0.0-154.0,,-1.0,725.4949999,1.0,0.75,1.0,0.721848901,0.0,0.62197249,1.0,0.48263586399999997,True,,5ecce8a716aee0016eab83cd,,1813784,162,,evan-feature22,full_rf_b,,1
126,17235,163,,,,2,2,0.0,0.0,-1.0,0.0,,0.0-155.0,,0.0,236.37499989999998,0.0,0.75,1.0,0.74813071,0.0,0.584357161,0.0,0.411477782,True,,5ecce8a716aee0016eab83cd,,1823847,163,,evan-feature22,full_rf_b,,1
127,17236,164,,,,1,1,1.0,0.0,-1.0,0.0,,0.0-156.0,,-1.0,276.5899999,1.0,0.75,0.0,0.75,0.0,0.52287236,1.0,0.488290656,True,,5ecce8a716aee0016eab83cd,,1833947,164,,evan-feature22,full_rf_b,,1
128,17237,165,,,,SLOW,SLOW,,,-1.0,0.0,,0.0-157.0,,-3.0,,0.0,0.75,1.0,0.75,1.0,0.544321581,1.0,0.53143059,True,,5ecce8a716aee0016eab83cd,,1839791,165,,evan-feature22,full_rf_b,,1
129,17238,166,,,,1,1,0.0,0.0,-1.0,0.0,,0.0-158.0,,0.0,1274.49,0.0,0.726754564,0.0,0.75,1.0,0.5129306370000001,0.0,0.530592445,True,,5ecce8a716aee0016eab83cd,,1850866,166,,evan-feature22,full_rf_b,,1
130,17239,167,,,,2,2,1.0,1.0,0.0,1.0,,0.0-159.0,,1.0,813.905,0.0,0.75,0.0,0.7392590729999999,1.0,0.479875835,1.0,0.547007051,True,,5ecce8a716aee0016eab83cd,,1861494,167,,evan-feature22,full_rf_b,,1
131,17240,168,,,,1,1,1.0,1.0,0.0,1.0,,0.0-160.0,,1.0,276.3149999,1.0,0.75,1.0,0.7393376979999999,0.0,0.546045419,1.0,0.541267353,True,,5ecce8a716aee0016eab83cd,,1871607,168,,evan-feature22,full_rf_b,,1
132,17241,169,,,,1,1,1.0,0.0,-1.0,0.0,,0.0-161.0,,-1.0,224.41500010000001,1.0,0.75,0.0,0.75,1.0,0.485725895,0.0,0.527625395,True,,5ecce8a716aee0016eab83cd,,1881658,169,,evan-feature22,full_rf_b,,0
133,17242,170,,,,2,2,1.0,0.0,0.0,1.0,,0.0-162.0,,0.0,585.5650001,1.0,0.75,1.0,0.725087974,1.0,0.488603595,0.0,0.504019206,True,,5ecce8a716aee0016eab83cd,,1892069,170,,evan-feature22,full_rf_b,,1
134,17243,171,,,,1,1,1.0,1.0,-1.0,0.0,,0.0-163.0,,-1.0,939.395,1.0,0.745504295,1.0,0.75,0.0,0.452379914,1.0,0.50131194,True,,5ecce8a716aee0016eab83cd,,1902821,171,,evan-feature22,full_rf_b,,1
135,17244,172,,,,1,1,1.0,0.0,0.0,1.0,,0.0-164.0,,0.0,275.445,1.0,0.728513874,0.0,0.75,0.0,0.44125567200000004,1.0,0.531454591,True,,5ecce8a716aee0016eab83cd,,1912918,172,,evan-feature22,full_rf_b,,0
136,17245,173,,,,2,2,0.0,1.0,-1.0,0.0,,0.0-165.0,,0.0,1214.89,0.0,0.73790804,0.0,0.75,0.0,0.413036656,1.0,0.524619035,True,,5ecce8a716aee0016eab83cd,,1923970,173,,evan-feature22,full_rf_b,,1
137,17246,174,,,,1,1,0.0,0.0,-1.0,0.0,,0.0-166.0,,0.0,357.42500010000003,0.0,0.7080961309999999,0.0,0.708666865,1.0,0.431915581,0.0,0.481819489,True,,5ecce8a716aee0016eab83cd,,1934148,174,,evan-feature22,full_rf_b,,1
138,17247,175,,,,1,1,1.0,1.0,-1.0,0.0,,0.0-167.0,,-1.0,3557.795,1.0,0.721378003,1.0,0.71605913,0.0,0.36642387,1.0,0.5036739929999999,True,,5ecce8a716aee0016eab83cd,,1947531,175,,evan-feature22,full_rf_b,,0
139,17248,176,,,,1,1,0.0,0.0,0.0,1.0,,0.0-168.0,,0.0,701.05,0.0,0.7340618959999999,0.0,0.699323252,0.0,0.35298046299999997,0.0,0.511241692,True,,5ecce8a716aee0016eab83cd,,1958030,176,,evan-feature22,full_rf_b,,0
140,17249,177,,,,1,1,1.0,1.0,0.0,1.0,,0.0-169.0,,1.0,22.03499991,1.0,0.75,1.0,0.70412698,0.0,0.380734814,1.0,0.529580116,True,,5ecce8a716aee0016eab83cd,,1967895,177,,evan-feature22,full_rf_b,,0
141,17250,178,,,,1,1,1.0,1.0,0.0,1.0,,0.0-170.0,,1.0,1251.145,1.0,0.7436654909999999,1.0,0.711182751,1.0,0.41125331,0.0,0.49554405,True,,5ecce8a716aee0016eab83cd,,1978975,178,,evan-feature22,full_rf_b,,0
142,17251,179,,,,2,2,0.0,0.0,-1.0,0.0,,0.0-171.0,,0.0,306.385,1.0,0.731607915,0.0,0.651774583,0.0,0.35688023,0.0,0.45194491600000003,True,,5ecce8a716aee0016eab83cd,,1989122,179,,evan-feature22,full_rf_b,,1
143,17252,180,,,,1,1,1.0,1.0,0.0,1.0,,0.0-172.0,,1.0,646.5100001000001,1.0,0.75,1.0,0.75,0.0,0.283145374,0.0,0.528608005,True,,5ecce8a716aee0016eab83cd,,1999600,180,,evan-feature22,full_rf_b,,1
144,17253,181,,,,1,1,0.0,0.0,-1.0,0.0,,0.0-173.0,,0.0,1424.455,0.0,0.7491416890000001,0.0,0.7423785959999999,0.0,0.29135870399999997,1.0,0.498888318,True,,5ecce8a716aee0016eab83cd,,2010835,181,,evan-feature22,full_rf_b,,0
145,17254,182,,,,2,2,0.0,0.0,0.0,1.0,,0.0-174.0,,0.0,712.2300002000001,0.0,0.708569387,1.0,0.717682277,0.0,0.294421699,0.0,0.493838163,True,,5ecce8a716aee0016eab83cd,,2021367,182,,evan-feature22,full_rf_b,,1
146,17255,183,,,,2,2,1.0,0.0,-1.0,0.0,,0.0-175.0,,-1.0,394.85500010000004,1.0,0.75,0.0,0.7383382159999999,1.0,0.356098707,0.0,0.442533405,True,,5ecce8a716aee0016eab83cd,,2031583,183,,evan-feature22,full_rf_b,,0
147,17256,184,,,,1,1,1.0,0.0,-1.0,0.0,,0.0-176.0,,-1.0,475.7800002,1.0,0.744527075,0.0,0.75,0.0,0.334127506,1.0,0.393165805,True,,5ecce8a716aee0016eab83cd,,2041867,184,,evan-feature22,full_rf_b,,1
148,17257,185,,,,2,2,0.0,0.0,-1.0,0.0,,0.0-177.0,,0.0,316.4000001,1.0,0.75,1.0,0.75,0.0,0.33571021799999995,0.0,0.350393962,True,,5ecce8a716aee0016eab83cd,,2051998,185,,evan-feature22,full_rf_b,,1
149,17258,186,,,,2,2,0.0,0.0,0.0,1.0,,0.0-178.0,,0.0,296.3399999,1.0,0.75,0.0,0.75,0.0,0.313628297,0.0,0.36349657399999996,True,,5ecce8a716aee0016eab83cd,,2062111,186,,evan-feature22,full_rf_b,,0
150,17259,187,,,,1,1,0.0,1.0,-1.0,0.0,,0.0-179.0,,0.0,290.7700001,0.0,0.75,1.0,0.734284182,0.0,0.262667667,1.0,0.380199119,True,,5ecce8a716aee0016eab83cd,,2072227,187,,evan-feature22,full_rf_b,,1
151,17260,188,,,,2,2,0.0,1.0,-1.0,0.0,,0.0-180.0,,0.0,274.7800001,1.0,0.75,1.0,0.75,0.0,0.25,1.0,0.394494013,True,,5ecce8a716aee0016eab83cd,,2082308,188,,evan-feature22,full_rf_b,,1
152,17261,189,,,,1,1,1.0,0.0,-1.0,0.0,,0.0-181.0,,-1.0,516.5300001,1.0,0.722298145,0.0,0.7357822340000001,0.0,0.25,1.0,0.319142121,True,,5ecce8a716aee0016eab83cd,,2092641,189,,evan-feature22,full_rf_b,,1
153,17262,190,,,,2,2,0.0,0.0,-1.0,0.0,,0.0-182.0,,0.0,513.9900001,1.0,0.73149275,1.0,0.724276446,0.0,0.305856907,0.0,0.281315057,True,,5ecce8a716aee0016eab83cd,,2102973,190,,evan-feature22,full_rf_b,,1
154,17263,191,,,,2,2,0.0,0.0,-1.0,0.0,,0.0-183.0,,0.0,567.0700001,1.0,0.7458732690000001,1.0,0.7336382459999999,0.0,0.272571964,0.0,0.266021999,True,,5ecce8a716aee0016eab83cd,,2113369,191,,evan-feature22,full_rf_b,,0
155,17264,192,,,,1,1,0.0,1.0,0.0,1.0,,0.0-184.0,,1.0,439.7799999,0.0,0.705579037,1.0,0.720778292,0.0,0.320238144,0.0,0.30971744,True,,5ecce8a716aee0016eab83cd,,2123630,192,,evan-feature22,full_rf_b,,1
156,17265,193,,,,1,1,1.0,1.0,0.0,1.0,,0.0-185.0,,1.0,375.44499989999997,1.0,0.700425648,1.0,0.7198784009999999,0.0,0.272590393,1.0,0.304182931,True,,5ecce8a716aee0016eab83cd,,2133837,193,,evan-feature22,full_rf_b,,0
157,17266,194,,,,1,1,1.0,0.0,0.0,1.0,,0.0-186.0,,0.0,445.24,1.0,0.735590785,0.0,0.722714973,0.0,0.25,0.0,0.323421091,True,,5ecce8a716aee0016eab83cd,,2144084,194,,evan-feature22,full_rf_b,,0
158,17267,195,,,,2,2,0.0,1.0,0.0,1.0,,0.0-187.0,,1.0,1090.58,1.0,0.724807662,1.0,0.63146213,0.0,0.36836492600000004,1.0,0.34592153299999995,True,,5ecce8a716aee0016eab83cd,,2154995,195,,evan-feature22,full_rf_b,,1
159,17268,196,,,,1,1,1.0,1.0,-1.0,0.0,,0.0-188.0,,-1.0,854.1550001,1.0,0.7352796909999999,1.0,0.555111392,0.0,0.36003922,1.0,0.31433779999999995,True,,5ecce8a716aee0016eab83cd,,2165695,196,,evan-feature22,full_rf_b,,1
160,17269,197,notice,,,,,,,,,,0.0-189.0,"{""Q0"":""yes""}",,7234.0,,,,,,,,,True,,5ecce8a716aee0016eab83cd,,2172932,197,Q,survey-text,full_rf_b,,1
161,17270,198,track1,,[1],,,,,,,,0.0-190.0,"{""Q0"":""no""}",,5006.0,,,,,,,,,True,,5ecce8a716aee0016eab83cd,,2177948,198,Q,evan-quiz,full_rf_b,,1
162,17271,199,track2,,[2],,,,,,,,0.0-191.0,"{""Q0"":""N/A""}",,8694.0,,,,,,,,,True,,5ecce8a716aee0016eab83cd,,2186649,199,Q,evan-quiz,full_rf_b,,1
163,17272,200,strat,,,,,,,,,,0.0-192.0,"{""Q0"":""hit and hope""}",,6973.0,,,,,,,,,True,,5ecce8a716aee0016eab83cd,,2193631,200,Q,survey-text,full_rf_b,,1
