,index,Unnamed: 0,Q_name,button_pressed,choice_idxs,chosen_pos,chosen_state,chosen_state_f_1_outcome,chosen_state_f_2_outcome,f_1_reward,f_2_reward,incor_questions,internal_node_id,responses,reward_received,rt,s_1_f_1_outcome,s_1_f_1_prob,s_1_f_2_outcome,s_1_f_2_prob,s_2_f_1_outcome,s_2_f_1_prob,s_2_f_2_outcome,s_2_f_2_prob,safe_first,stimulus,subjectID,success,time_elapsed,trial_index,trial_num,trial_type,version,view_history,switching
0,19602,40,,,,2,2,0.0,0.0,1.0,0.0,,0.0-27.0,,0.0,1756.0,0.0,0.6,1.0,0.6,0.0,0.4,0.0,0.4,True,,5eca55ce7b00b50119c64518,,833413,40,,evan-feature22,full_rf_a,,0
1,19603,41,,,,1,1,0.0,1.0,1.0,0.0,,0.0-28.0,,0.0,752.0,0.0,0.608053294,1.0,0.63424552,0.0,0.397152172,1.0,0.347069101,True,,5eca55ce7b00b50119c64518,,843932,41,,evan-feature22,full_rf_a,,1
2,19604,42,,,,1,1,1.0,1.0,1.0,0.0,,0.0-29.0,,1.0,480.0000001,1.0,0.642237155,1.0,0.648566321,1.0,0.389407674,1.0,0.285525717,True,,5eca55ce7b00b50119c64518,,854177,42,,evan-feature22,full_rf_a,,0
3,19605,43,,,,1,1,1.0,1.0,1.0,0.0,,0.0-30.0,,1.0,972.0,1.0,0.661086576,1.0,0.630492543,0.0,0.399058924,0.0,0.25,True,,5eca55ce7b00b50119c64518,,864912,43,,evan-feature22,full_rf_a,,0
4,19606,44,,,,2,2,0.0,1.0,0.0,-1.0,,0.0-31.0,,-1.0,305.0000001,0.0,0.631324137,1.0,0.6269842929999999,0.0,0.38734784299999997,1.0,0.25,True,,5eca55ce7b00b50119c64518,,874981,44,,evan-feature22,full_rf_a,,1
5,19607,45,,,,1,1,0.0,1.0,0.0,-1.0,,0.0-32.0,,-1.0,1269.0,0.0,0.6381991370000001,1.0,0.68987999,0.0,0.384107265,0.0,0.271332943,True,,5eca55ce7b00b50119c64518,,886012,45,,evan-feature22,full_rf_a,,1
6,19608,46,,,,1,1,1.0,1.0,1.0,0.0,,0.0-33.0,,1.0,492.0000001,1.0,0.66034901,1.0,0.742641349,1.0,0.360225629,0.0,0.25,True,,5eca55ce7b00b50119c64518,,896267,46,,evan-feature22,full_rf_a,,0
7,19609,47,,,,1,1,1.0,1.0,1.0,0.0,,0.0-34.0,,1.0,562.0,1.0,0.638612418,1.0,0.75,0.0,0.367273939,0.0,0.25,True,,5eca55ce7b00b50119c64518,,906593,47,,evan-feature22,full_rf_a,,0
8,19610,48,,,,2,2,0.0,0.0,0.0,-1.0,,0.0-35.0,,0.0,1028.0,1.0,0.624340629,1.0,0.75,0.0,0.425829545,0.0,0.25,True,,5eca55ce7b00b50119c64518,,917379,48,,evan-feature22,full_rf_a,,1
9,19611,49,,,,2,2,1.0,0.0,0.0,-1.0,,0.0-36.0,,0.0,848.0,0.0,0.621999804,1.0,0.75,1.0,0.368609357,0.0,0.25,True,,5eca55ce7b00b50119c64518,,927988,49,,evan-feature22,full_rf_a,,0
10,19612,50,,,,2,2,1.0,0.0,1.0,0.0,,0.0-37.0,,1.0,1398.0,1.0,0.62666403,1.0,0.75,1.0,0.311151498,0.0,0.25,True,,5eca55ce7b00b50119c64518,,939148,50,,evan-feature22,full_rf_a,,0
11,19613,51,,,,1,1,1.0,0.0,0.0,-1.0,,0.0-38.0,,0.0,1816.0,1.0,0.6819650009999999,0.0,0.75,0.0,0.310763048,0.0,0.25,True,,5eca55ce7b00b50119c64518,,950727,51,,evan-feature22,full_rf_a,,1
12,19614,52,,,,2,2,0.0,0.0,1.0,0.0,,0.0-39.0,,0.0,1453.0,1.0,0.740626951,1.0,0.75,0.0,0.25,0.0,0.25,True,,5eca55ce7b00b50119c64518,,961938,52,,evan-feature22,full_rf_a,,1
13,19615,53,,,,1,1,1.0,1.0,1.0,0.0,,0.0-40.0,,1.0,1194.0,1.0,0.739599242,1.0,0.742034978,0.0,0.25397114600000004,0.0,0.25,True,,5eca55ce7b00b50119c64518,,972894,53,,evan-feature22,full_rf_a,,1
14,19616,54,,,,1,1,1.0,0.0,1.0,0.0,,0.0-41.0,,1.0,676.9999999,1.0,0.732341315,0.0,0.72735643,1.0,0.25,0.0,0.25,True,,5eca55ce7b00b50119c64518,,983334,54,,evan-feature22,full_rf_a,,0
15,19617,55,,,,1,1,1.0,1.0,1.0,0.0,,0.0-42.0,,1.0,970.0000001,1.0,0.7062287770000001,1.0,0.75,0.0,0.29002151,0.0,0.288256649,True,,5eca55ce7b00b50119c64518,,994067,55,,evan-feature22,full_rf_a,,0
16,19618,56,,,,2,2,1.0,0.0,1.0,0.0,,0.0-43.0,,1.0,852.0,1.0,0.7086029209999999,1.0,0.75,1.0,0.274129113,0.0,0.262851608,True,,5eca55ce7b00b50119c64518,,1004683,56,,evan-feature22,full_rf_a,,1
17,19619,57,,,,1,1,1.0,0.0,1.0,0.0,,0.0-44.0,,1.0,1776.0,1.0,0.669189651,0.0,0.727614338,0.0,0.298444036,1.0,0.296944518,True,,5eca55ce7b00b50119c64518,,1016223,57,,evan-feature22,full_rf_a,,1
18,19620,58,,,,2,2,0.0,0.0,1.0,0.0,,0.0-45.0,,0.0,2149.0,0.0,0.6819912929999999,0.0,0.7179434290000001,0.0,0.265003961,0.0,0.28157921199999997,True,,5eca55ce7b00b50119c64518,,1028130,58,,evan-feature22,full_rf_a,,1
19,19621,59,,,,1,1,1.0,1.0,0.0,-1.0,,0.0-46.0,,-1.0,2996.0,1.0,0.665275002,1.0,0.723065271,1.0,0.260414971,0.0,0.30973870000000003,True,,5eca55ce7b00b50119c64518,,1040888,59,,evan-feature22,full_rf_a,,1
20,19622,60,,,,2,2,1.0,1.0,1.0,0.0,,0.0-47.0,,1.0,904.0,1.0,0.6660593260000001,1.0,0.728032907,1.0,0.30922817,1.0,0.338778608,True,,5eca55ce7b00b50119c64518,,1051556,60,,evan-feature22,full_rf_a,,1
21,19623,61,,,,1,1,1.0,1.0,1.0,0.0,,0.0-48.0,,1.0,288.0000001,1.0,0.702068785,1.0,0.6528750879999999,0.0,0.287329608,0.0,0.35789613200000003,True,,5eca55ce7b00b50119c64518,,1061609,61,,evan-feature22,full_rf_a,,1
22,19624,62,,,,2,2,0.0,0.0,1.0,0.0,,0.0-49.0,,0.0,642.0,1.0,0.651939787,1.0,0.636725589,0.0,0.284834488,0.0,0.358563756,True,,5eca55ce7b00b50119c64518,,1072017,62,,evan-feature22,full_rf_a,,1
23,19625,63,,,,2,2,1.0,0.0,0.0,-1.0,,0.0-50.0,,0.0,1437.0,1.0,0.67573929,1.0,0.612550049,1.0,0.37130387600000003,0.0,0.383542402,True,,5eca55ce7b00b50119c64518,,1083222,63,,evan-feature22,full_rf_a,,0
24,19626,64,,,,1,1,0.0,1.0,0.0,-1.0,,0.0-51.0,,-1.0,829.0,0.0,0.620753801,1.0,0.60513644,1.0,0.385529434,0.0,0.340361743,True,,5eca55ce7b00b50119c64518,,1093813,64,,evan-feature22,full_rf_a,,1
25,19627,65,,,,1,1,1.0,0.0,0.0,-1.0,,0.0-52.0,,0.0,402.0,1.0,0.673564893,0.0,0.672437924,1.0,0.292955382,0.0,0.337633795,True,,5eca55ce7b00b50119c64518,,1103979,65,,evan-feature22,full_rf_a,,0
26,19628,66,,,,2,2,1.0,1.0,1.0,0.0,,0.0-53.0,,1.0,282.9999999,0.0,0.6749427,1.0,0.724197502,1.0,0.32391132100000003,1.0,0.350995264,True,,5eca55ce7b00b50119c64518,,1114028,66,,evan-feature22,full_rf_a,,1
27,19629,67,,,,1,1,1.0,1.0,1.0,0.0,,0.0-54.0,,1.0,1750.0,1.0,0.6940159379999999,1.0,0.75,0.0,0.31710554399999996,1.0,0.413450341,True,,5eca55ce7b00b50119c64518,,1125539,67,,evan-feature22,full_rf_a,,1
28,19630,68,,,,2,2,0.0,1.0,1.0,0.0,,0.0-55.0,,0.0,504.0000001,0.0,0.6916018270000001,1.0,0.69001187,0.0,0.261817804,1.0,0.40038635,True,,5eca55ce7b00b50119c64518,,1135821,68,,evan-feature22,full_rf_a,,1
29,19631,69,,,,2,2,0.0,0.0,1.0,0.0,,0.0-56.0,,0.0,571.0,1.0,0.641061544,1.0,0.71337992,0.0,0.277296461,0.0,0.47372791700000005,True,,5eca55ce7b00b50119c64518,,1146154,69,,evan-feature22,full_rf_a,,0
30,19632,70,,,,2,2,0.0,1.0,1.0,0.0,,0.0-57.0,,0.0,316.9999999,1.0,0.6082438520000001,1.0,0.708471106,0.0,0.28745137,1.0,0.564174476,True,,5eca55ce7b00b50119c64518,,1156235,70,,evan-feature22,full_rf_a,,0
31,19633,71,,,,1,1,1.0,1.0,1.0,0.0,,0.0-58.0,,1.0,358.0,1.0,0.6051112120000001,1.0,0.7118147229999999,0.0,0.272390611,1.0,0.5595149939999999,True,,5eca55ce7b00b50119c64518,,1166358,71,,evan-feature22,full_rf_a,,1
32,19634,72,,,,1,1,0.0,1.0,1.0,0.0,,0.0-59.0,,0.0,1275.0,0.0,0.582420852,1.0,0.635867583,0.0,0.31089574,0.0,0.5227206520000001,True,,5eca55ce7b00b50119c64518,,1177394,72,,evan-feature22,full_rf_a,,0
33,19635,73,,,,2,2,0.0,0.0,0.0,-1.0,,0.0-60.0,,0.0,298.0,1.0,0.623195575,0.0,0.655026044,0.0,0.25,0.0,0.560387538,True,,5eca55ce7b00b50119c64518,,1187450,73,,evan-feature22,full_rf_a,,1
34,19636,74,,,,1,1,1.0,0.0,1.0,0.0,,0.0-61.0,,1.0,502.0,1.0,0.601889598,0.0,0.678198724,0.0,0.25,0.0,0.559922936,True,,5eca55ce7b00b50119c64518,,1197714,74,,evan-feature22,full_rf_a,,1
35,19637,75,,,,2,2,0.0,1.0,1.0,0.0,,0.0-62.0,,0.0,1205.0,1.0,0.601259914,1.0,0.704681482,0.0,0.33908969299999997,1.0,0.505003715,True,,5eca55ce7b00b50119c64518,,1208682,75,,evan-feature22,full_rf_a,,1
36,19638,76,,,,2,2,0.0,1.0,1.0,0.0,,0.0-63.0,,0.0,297.0,0.0,0.59645454,0.0,0.710437172,0.0,0.327441879,1.0,0.391749613,True,,5eca55ce7b00b50119c64518,,1218739,76,,evan-feature22,full_rf_a,,0
37,19639,77,,,,1,1,0.0,0.0,1.0,0.0,,0.0-64.0,,0.0,1074.0,0.0,0.529473,0.0,0.636758527,0.0,0.301338063,0.0,0.365661481,True,,5eca55ce7b00b50119c64518,,1229574,77,,evan-feature22,full_rf_a,,1
38,19640,78,,,,2,2,0.0,1.0,0.0,-1.0,,0.0-65.0,,-1.0,595.9999999,0.0,0.541657162,1.0,0.634541962,0.0,0.343535366,1.0,0.371763742,True,,5eca55ce7b00b50119c64518,,1239931,78,,evan-feature22,full_rf_a,,1
39,19641,79,,,,1,1,0.0,0.0,1.0,0.0,,0.0-66.0,,0.0,3606.0,0.0,0.5707533260000001,0.0,0.589121171,0.0,0.326428396,0.0,0.43961622899999997,True,,5eca55ce7b00b50119c64518,,1253299,79,,evan-feature22,full_rf_a,,1
40,19642,80,,,,1,1,0.0,0.0,1.0,0.0,,0.0-67.0,,0.0,1476.0,0.0,0.5707533260000001,0.0,0.589121171,1.0,0.326428396,1.0,0.43961622899999997,True,,5eca55ce7b00b50119c64518,,1264546,80,,evan-feature22,full_rf_a,,0
41,19643,81,,,,2,2,1.0,0.0,1.0,0.0,,0.0-68.0,,1.0,478.9999999,0.0,0.506271295,1.0,0.641775594,1.0,0.37149690700000004,0.0,0.404330166,True,,5eca55ce7b00b50119c64518,,1274787,81,,evan-feature22,full_rf_a,,1
42,19644,82,,,,2,2,0.0,0.0,0.0,-1.0,,0.0-69.0,,0.0,196.9999999,1.0,0.455642565,1.0,0.623605825,0.0,0.358753011,0.0,0.346174041,True,,5eca55ce7b00b50119c64518,,1284742,82,,evan-feature22,full_rf_a,,0
43,19645,83,,,,1,1,0.0,1.0,0.0,-1.0,,0.0-70.0,,-1.0,606.0,0.0,0.483677308,1.0,0.5904681070000001,0.0,0.402218411,1.0,0.35344697,True,,5eca55ce7b00b50119c64518,,1295111,83,,evan-feature22,full_rf_a,,1
44,19646,84,,,,2,2,1.0,0.0,0.0,-1.0,,0.0-71.0,,0.0,782.0,0.0,0.394210977,1.0,0.558925494,1.0,0.540052017,0.0,0.35182128700000004,True,,5eca55ce7b00b50119c64518,,1305656,84,,evan-feature22,full_rf_a,,1
45,19647,85,,,,1,1,0.0,1.0,1.0,0.0,,0.0-72.0,,0.0,729.0000001,0.0,0.382300414,1.0,0.577670603,1.0,0.607608448,0.0,0.378261578,True,,5eca55ce7b00b50119c64518,,1316148,85,,evan-feature22,full_rf_a,,1
46,19648,86,,,,2,2,1.0,0.0,1.0,0.0,,0.0-73.0,,1.0,841.9999999,0.0,0.357596762,1.0,0.5929076529999999,1.0,0.6579790010000001,0.0,0.401326777,True,,5eca55ce7b00b50119c64518,,1326752,86,,evan-feature22,full_rf_a,,1
47,19649,87,,,,2,2,0.0,0.0,1.0,0.0,,0.0-74.0,,0.0,551.9999999,0.0,0.362033495,0.0,0.582308608,0.0,0.649195052,0.0,0.355158505,True,,5eca55ce7b00b50119c64518,,1337065,87,,evan-feature22,full_rf_a,,0
48,19650,88,,,,1,1,1.0,0.0,1.0,0.0,,0.0-75.0,,1.0,1876.0,1.0,0.369620635,0.0,0.669100864,1.0,0.706059111,1.0,0.362516241,True,,5eca55ce7b00b50119c64518,,1348706,88,,evan-feature22,full_rf_a,,1
49,19651,89,,,,1,1,0.0,1.0,1.0,0.0,,0.0-76.0,,0.0,556.0,0.0,0.41477751399999996,1.0,0.7284416779999999,0.0,0.7182656940000001,1.0,0.36228040899999997,True,,5eca55ce7b00b50119c64518,,1359025,89,,evan-feature22,full_rf_a,,0
50,19652,90,,,,2,2,0.0,0.0,0.0,-1.0,,0.0-77.0,,0.0,353.9999999,0.0,0.37675460299999997,1.0,0.703250285,0.0,0.75,0.0,0.461979164,True,,5eca55ce7b00b50119c64518,,1369138,90,,evan-feature22,full_rf_a,,1
51,19653,91,,,,2,2,1.0,1.0,0.0,-1.0,,0.0-78.0,,-1.0,656.0,0.0,0.398716075,0.0,0.6723864890000001,1.0,0.674153818,1.0,0.519029516,True,,5eca55ce7b00b50119c64518,,1379557,91,,evan-feature22,full_rf_a,,0
52,19654,92,,,,1,1,0.0,0.0,1.0,0.0,,0.0-79.0,,0.0,331.0,0.0,0.34677856700000004,0.0,0.69057175,1.0,0.6822438540000001,0.0,0.477292237,True,,5eca55ce7b00b50119c64518,,1389647,92,,evan-feature22,full_rf_a,,1
53,19655,93,,,,2,2,1.0,0.0,0.0,-1.0,,0.0-80.0,,0.0,597.0,0.0,0.28580469199999997,1.0,0.68408818,1.0,0.684207565,0.0,0.49780448299999996,True,,5eca55ce7b00b50119c64518,,1400007,93,,evan-feature22,full_rf_a,,1
54,19657,95,,,,1,1,0.0,1.0,1.0,0.0,,0.0-82.0,,0.0,3455.0,0.0,0.25,1.0,0.7405808970000001,0.0,0.679614108,1.0,0.436436964,True,,5eca55ce7b00b50119c64518,,1416504,95,,evan-feature22,full_rf_a,,1
55,19658,96,,,,2,2,0.0,0.0,0.0,-1.0,,0.0-83.0,,0.0,2415.0,0.0,0.29890393,1.0,0.730505706,0.0,0.7328203320000001,0.0,0.439256938,True,,5eca55ce7b00b50119c64518,,1428679,96,,evan-feature22,full_rf_a,,1
56,19659,97,,,,1,1,1.0,1.0,1.0,0.0,,0.0-84.0,,1.0,2087.0,1.0,0.326762398,1.0,0.7148059609999999,1.0,0.75,0.0,0.44389608799999997,True,,5eca55ce7b00b50119c64518,,1440530,97,,evan-feature22,full_rf_a,,1
57,19660,98,,,,1,1,1.0,1.0,1.0,0.0,,0.0-85.0,,1.0,723.0,1.0,0.295168515,1.0,0.739760854,1.0,0.719947008,0.0,0.35277284600000003,True,,5eca55ce7b00b50119c64518,,1451016,98,,evan-feature22,full_rf_a,,0
58,19661,99,,,,1,1,0.0,1.0,1.0,0.0,,0.0-86.0,,0.0,1272.0,0.0,0.25,1.0,0.70781482,1.0,0.75,0.0,0.286095925,True,,5eca55ce7b00b50119c64518,,1462052,99,,evan-feature22,full_rf_a,,0
59,19662,100,,,,2,2,0.0,0.0,0.0,-1.0,,0.0-87.0,,0.0,537.9999999,0.0,0.25638190899999996,1.0,0.704088163,0.0,0.75,0.0,0.26872601399999996,True,,5eca55ce7b00b50119c64518,,1472349,100,,evan-feature22,full_rf_a,,1
60,19663,101,,,,1,1,0.0,0.0,0.0,-1.0,,0.0-88.0,,0.0,419.0,0.0,0.271581126,0.0,0.669760107,1.0,0.733896663,0.0,0.273244572,True,,5eca55ce7b00b50119c64518,,1482527,101,,evan-feature22,full_rf_a,,1
61,19664,102,,,,2,2,1.0,1.0,0.0,-1.0,,0.0-89.0,,-1.0,829.0,1.0,0.257144401,0.0,0.600575706,1.0,0.74488122,1.0,0.25,True,,5eca55ce7b00b50119c64518,,1493121,102,,evan-feature22,full_rf_a,,1
62,19665,103,,,,2,2,1.0,1.0,1.0,0.0,,0.0-90.0,,1.0,35.00000003,0.0,0.25,1.0,0.616870026,1.0,0.723610234,1.0,0.25,True,,5eca55ce7b00b50119c64518,,1502924,103,,evan-feature22,full_rf_a,,0
63,19666,104,,,,2,2,1.0,0.0,0.0,-1.0,,0.0-91.0,,0.0,1682.0,0.0,0.25,0.0,0.583540187,1.0,0.7041042559999999,0.0,0.285961995,True,,5eca55ce7b00b50119c64518,,1514369,104,,evan-feature22,full_rf_a,,0
64,19667,105,,,,1,1,0.0,1.0,1.0,0.0,,0.0-92.0,,0.0,320.0000001,0.0,0.27254536,1.0,0.53875765,1.0,0.693783448,0.0,0.284961652,True,,5eca55ce7b00b50119c64518,,1524455,105,,evan-feature22,full_rf_a,,1
65,19668,106,,,,1,1,1.0,0.0,0.0,-1.0,,0.0-93.0,,0.0,1534.0,1.0,0.25,0.0,0.548431252,0.0,0.734221895,0.0,0.279445214,True,,5eca55ce7b00b50119c64518,,1535752,106,,evan-feature22,full_rf_a,,0
66,19669,107,,,,1,1,0.0,1.0,1.0,0.0,,0.0-94.0,,0.0,2536.0,0.0,0.258640684,1.0,0.545878066,1.0,0.725245965,1.0,0.31487537,True,,5eca55ce7b00b50119c64518,,1548051,107,,evan-feature22,full_rf_a,,0
67,19670,108,,,,1,1,1.0,0.0,1.0,0.0,,0.0-95.0,,1.0,762.0,1.0,0.251103711,0.0,0.5776290629999999,1.0,0.696320133,0.0,0.317831047,True,,5eca55ce7b00b50119c64518,,1558573,108,,evan-feature22,full_rf_a,,0
68,19671,109,,,,1,1,1.0,1.0,1.0,0.0,,0.0-96.0,,1.0,966.0,1.0,0.276630292,1.0,0.617329858,0.0,0.73838088,0.0,0.261471582,True,,5eca55ce7b00b50119c64518,,1569302,109,,evan-feature22,full_rf_a,,0
69,19672,110,,,,2,2,1.0,0.0,0.0,-1.0,,0.0-97.0,,0.0,764.0,1.0,0.297716424,1.0,0.618863717,1.0,0.7402358259999999,0.0,0.262600834,True,,5eca55ce7b00b50119c64518,,1579827,110,,evan-feature22,full_rf_a,,1
70,19673,111,,,,2,2,1.0,0.0,1.0,0.0,,0.0-98.0,,1.0,662.0,0.0,0.290935512,1.0,0.695370945,1.0,0.706570507,0.0,0.280030553,True,,5eca55ce7b00b50119c64518,,1590257,111,,evan-feature22,full_rf_a,,0
71,19674,112,,,,1,1,1.0,1.0,1.0,0.0,,0.0-99.0,,1.0,975.0,1.0,0.25,1.0,0.6465277079999999,1.0,0.67766682,0.0,0.25,True,,5eca55ce7b00b50119c64518,,1601003,112,,evan-feature22,full_rf_a,,1
72,19675,113,,,,1,1,0.0,0.0,1.0,0.0,,0.0-100.0,,0.0,159.9999999,0.0,0.26463816,0.0,0.636100213,0.0,0.646048507,0.0,0.265607101,True,,5eca55ce7b00b50119c64518,,1610923,113,,evan-feature22,full_rf_a,,0
73,19676,114,,,,2,2,0.0,0.0,1.0,0.0,,0.0-101.0,,0.0,1359.0,0.0,0.314340707,1.0,0.667795927,0.0,0.613630805,0.0,0.25,True,,5eca55ce7b00b50119c64518,,1622041,114,,evan-feature22,full_rf_a,,1
74,19677,115,,,,SLOW,SLOW,,,1.0,0.0,,0.0-102.0,,-3.0,,1.0,0.28685784,0.0,0.6622549529999999,0.0,0.652154117,0.0,0.25,True,,5eca55ce7b00b50119c64518,,1627847,115,,evan-feature22,full_rf_a,,1
75,19678,116,,,,2,2,1.0,1.0,0.0,-1.0,,0.0-103.0,,-1.0,1694.0,0.0,0.304106554,0.0,0.631289538,1.0,0.707041942,1.0,0.29314237,True,,5eca55ce7b00b50119c64518,,1639304,116,,evan-feature22,full_rf_a,,1
76,19679,117,,,,1,1,0.0,0.0,0.0,-1.0,,0.0-104.0,,0.0,498.0,0.0,0.304806932,0.0,0.571167718,0.0,0.680472346,1.0,0.25,True,,5eca55ce7b00b50119c64518,,1649559,117,,evan-feature22,full_rf_a,,1
77,19680,118,,,,1,1,1.0,0.0,0.0,-1.0,,0.0-105.0,,0.0,1667.0,1.0,0.37919861,0.0,0.5724849710000001,1.0,0.705638003,0.0,0.30179300600000003,True,,5eca55ce7b00b50119c64518,,1660990,118,,evan-feature22,full_rf_a,,0
78,19681,119,,,,1,1,1.0,1.0,0.0,-1.0,,0.0-106.0,,-1.0,2516.0,1.0,0.464277969,1.0,0.554034373,0.0,0.7372627340000001,1.0,0.264699741,True,,5eca55ce7b00b50119c64518,,1673268,119,,evan-feature22,full_rf_a,,0
79,19682,120,,,,1,1,0.0,1.0,1.0,0.0,,0.0-107.0,,0.0,912.9999999,0.0,0.465104323,1.0,0.530793115,1.0,0.75,0.0,0.31683071,True,,5eca55ce7b00b50119c64518,,1683943,120,,evan-feature22,full_rf_a,,0
80,19683,121,,,,1,1,0.0,0.0,0.0,-1.0,,0.0-108.0,,0.0,2089.0,0.0,0.465104323,0.0,0.530793115,0.0,0.75,0.0,0.31683071,True,,5eca55ce7b00b50119c64518,,1695793,121,,evan-feature22,full_rf_a,,0
81,19684,122,,,,2,2,1.0,1.0,0.0,-1.0,,0.0-109.0,,-1.0,1284.0,1.0,0.46833986,1.0,0.570249239,1.0,0.7244472590000001,1.0,0.364114163,True,,5eca55ce7b00b50119c64518,,1706845,122,,evan-feature22,full_rf_a,,1
82,19685,123,,,,1,1,0.0,1.0,0.0,-1.0,,0.0-110.0,,-1.0,3613.0,0.0,0.445444024,1.0,0.649673355,1.0,0.6845441290000001,0.0,0.300660449,True,,5eca55ce7b00b50119c64518,,1720225,123,,evan-feature22,full_rf_a,,1
83,19686,124,,,,1,1,0.0,1.0,0.0,-1.0,,0.0-111.0,,-1.0,3288.0,0.0,0.39909721299999995,1.0,0.6715179509999999,1.0,0.742310028,1.0,0.35496088299999995,True,,5eca55ce7b00b50119c64518,,1733276,124,,evan-feature22,full_rf_a,,0
84,19687,125,,,,2,2,0.0,0.0,0.0,-1.0,,0.0-112.0,,0.0,1708.0,0.0,0.37956104799999996,1.0,0.694725302,0.0,0.7181651309999999,0.0,0.38726906299999997,True,,5eca55ce7b00b50119c64518,,1744747,125,,evan-feature22,full_rf_a,,1
85,19688,126,,,,1,1,1.0,1.0,0.0,-1.0,,0.0-113.0,,-1.0,1485.0,1.0,0.404995034,1.0,0.724375412,1.0,0.6910946859999999,0.0,0.387187347,True,,5eca55ce7b00b50119c64518,,1755999,126,,evan-feature22,full_rf_a,,1
86,19689,127,,,,1,1,0.0,1.0,0.0,-1.0,,0.0-114.0,,-1.0,1004.0,0.0,0.461740803,1.0,0.75,1.0,0.75,0.0,0.34872038200000005,True,,5eca55ce7b00b50119c64518,,1766769,127,,evan-feature22,full_rf_a,,0
87,19690,128,,,,2,2,1.0,1.0,1.0,0.0,,0.0-115.0,,1.0,3066.0,1.0,0.43821380600000004,1.0,0.738833273,1.0,0.728286963,1.0,0.399538128,True,,5eca55ce7b00b50119c64518,,1779598,128,,evan-feature22,full_rf_a,,1
88,19691,129,,,,1,1,1.0,1.0,0.0,-1.0,,0.0-116.0,,-1.0,848.0,1.0,0.41709882,1.0,0.736666736,0.0,0.75,0.0,0.389095584,True,,5eca55ce7b00b50119c64518,,1790206,129,,evan-feature22,full_rf_a,,1
89,19692,130,,,,2,2,1.0,1.0,0.0,-1.0,,0.0-117.0,,-1.0,991.0,0.0,0.39749009799999996,1.0,0.744320029,1.0,0.75,1.0,0.363848678,True,,5eca55ce7b00b50119c64518,,1800960,130,,evan-feature22,full_rf_a,,1
90,19693,131,,,,2,2,1.0,0.0,1.0,0.0,,0.0-118.0,,1.0,1371.0,0.0,0.392653706,1.0,0.75,1.0,0.75,0.0,0.384386976,True,,5eca55ce7b00b50119c64518,,1812092,131,,evan-feature22,full_rf_a,,0
91,19694,132,,,,2,2,0.0,1.0,1.0,0.0,,0.0-119.0,,0.0,3517.0,0.0,0.31190902600000003,0.0,0.75,0.0,0.732413819,1.0,0.413082932,True,,5eca55ce7b00b50119c64518,,1825379,132,,evan-feature22,full_rf_a,,0
92,19695,133,,,,1,1,1.0,0.0,0.0,-1.0,,0.0-120.0,,0.0,1350.0,1.0,0.366917648,0.0,0.740073855,0.0,0.75,0.0,0.352861979,True,,5eca55ce7b00b50119c64518,,1836490,133,,evan-feature22,full_rf_a,,1
93,19696,134,,,,1,1,0.0,1.0,0.0,-1.0,,0.0-121.0,,-1.0,2304.0,0.0,0.3645172,1.0,0.721770713,1.0,0.75,0.0,0.404074511,True,,5eca55ce7b00b50119c64518,,1848559,134,,evan-feature22,full_rf_a,,0
94,19697,135,,,,1,1,1.0,1.0,0.0,-1.0,,0.0-122.0,,-1.0,730.9999999,1.0,0.35205600299999995,1.0,0.68983859,1.0,0.739735447,0.0,0.366895945,True,,5eca55ce7b00b50119c64518,,1859056,135,,evan-feature22,full_rf_a,,0
95,19698,136,,,,2,2,0.0,0.0,0.0,-1.0,,0.0-123.0,,0.0,939.0,1.0,0.40998722600000004,1.0,0.720859127,0.0,0.673854955,0.0,0.368528541,True,,5eca55ce7b00b50119c64518,,1869768,136,,evan-feature22,full_rf_a,,1
96,19699,137,,,,2,2,1.0,0.0,1.0,0.0,,0.0-124.0,,1.0,2687.0,0.0,0.353625316,1.0,0.75,1.0,0.695605473,0.0,0.38303674200000004,True,,5eca55ce7b00b50119c64518,,1882218,137,,evan-feature22,full_rf_a,,0
97,19700,138,,,,2,2,0.0,0.0,0.0,-1.0,,0.0-125.0,,0.0,568.0,1.0,0.359216989,0.0,0.75,0.0,0.6987915090000001,0.0,0.35169046200000004,True,,5eca55ce7b00b50119c64518,,1892544,138,,evan-feature22,full_rf_a,,0
98,19701,139,,,,2,2,1.0,1.0,1.0,0.0,,0.0-126.0,,1.0,3076.0,0.0,0.35834496899999996,1.0,0.75,1.0,0.707067742,1.0,0.416763636,True,,5eca55ce7b00b50119c64518,,1905385,139,,evan-feature22,full_rf_a,,0
99,19702,140,,,,1,1,0.0,1.0,1.0,0.0,,0.0-127.0,,0.0,520.9999999,0.0,0.38741613799999997,1.0,0.7177369570000001,1.0,0.734902455,1.0,0.49438664299999996,True,,5eca55ce7b00b50119c64518,,1915669,140,,evan-feature22,full_rf_a,,1
100,19703,141,,,,2,2,1.0,0.0,0.0,-1.0,,0.0-128.0,,0.0,410.0,1.0,0.405255252,1.0,0.7300466640000001,1.0,0.7027748070000001,0.0,0.504359668,True,,5eca55ce7b00b50119c64518,,1925843,141,,evan-feature22,full_rf_a,,1
101,19704,142,,,,1,1,0.0,1.0,0.0,-1.0,,0.0-129.0,,-1.0,351.0,0.0,0.40697073,1.0,0.7260142190000001,1.0,0.724461982,1.0,0.522779179,True,,5eca55ce7b00b50119c64518,,1935964,142,,evan-feature22,full_rf_a,,1
102,19705,143,,,,2,2,1.0,0.0,0.0,-1.0,,0.0-130.0,,0.0,632.0,0.0,0.43906215299999996,1.0,0.7252802340000001,1.0,0.719079934,0.0,0.5712990579999999,True,,5eca55ce7b00b50119c64518,,1946368,143,,evan-feature22,full_rf_a,,1
103,19706,144,,,,1,1,1.0,1.0,0.0,-1.0,,0.0-131.0,,-1.0,2783.0,1.0,0.4076705,1.0,0.73280499,0.0,0.681313127,1.0,0.523891346,True,,5eca55ce7b00b50119c64518,,1958918,144,,evan-feature22,full_rf_a,,1
104,19707,145,,,,2,2,1.0,1.0,0.0,-1.0,,0.0-132.0,,-1.0,525.0,0.0,0.399102911,1.0,0.730498344,1.0,0.661080239,1.0,0.46742603,True,,5eca55ce7b00b50119c64518,,1969208,145,,evan-feature22,full_rf_a,,1
105,19708,146,,,,2,2,1.0,1.0,1.0,0.0,,0.0-133.0,,1.0,1146.0,0.0,0.356477282,1.0,0.712296395,1.0,0.641812684,1.0,0.44868414,True,,5eca55ce7b00b50119c64518,,1980115,146,,evan-feature22,full_rf_a,,0
106,19709,147,,,,SLOW,SLOW,,,0.0,-1.0,,0.0-134.0,,-3.0,,0.0,0.462760722,1.0,0.692349322,1.0,0.700947931,0.0,0.394680266,True,,5eca55ce7b00b50119c64518,,1985922,147,,evan-feature22,full_rf_a,,1
107,19710,148,,,,2,2,1.0,0.0,0.0,-1.0,,0.0-135.0,,0.0,166.0,1.0,0.422306413,0.0,0.718375916,1.0,0.706340917,0.0,0.367787185,True,,5eca55ce7b00b50119c64518,,1995850,148,,evan-feature22,full_rf_a,,1
108,19712,150,,,,1,1,1.0,1.0,0.0,-1.0,,0.0-137.0,,-1.0,41.9999999,1.0,0.4582233,1.0,0.643834117,1.0,0.75,1.0,0.39615823299999997,True,,5eca55ce7b00b50119c64518,,2009195,150,,evan-feature22,full_rf_a,,1
109,19713,151,,,,2,2,0.0,0.0,0.0,-1.0,,0.0-138.0,,0.0,1618.0,0.0,0.43813437899999996,0.0,0.651283804,0.0,0.729674191,0.0,0.37711048,True,,5eca55ce7b00b50119c64518,,2020573,151,,evan-feature22,full_rf_a,,1
110,19714,152,,,,1,1,0.0,1.0,0.0,-1.0,,0.0-139.0,,-1.0,201.0,0.0,0.471199094,1.0,0.6470010979999999,1.0,0.715008097,1.0,0.410656191,True,,5eca55ce7b00b50119c64518,,2030539,152,,evan-feature22,full_rf_a,,1
111,19715,153,,,,2,2,0.0,0.0,1.0,0.0,,0.0-140.0,,0.0,2743.0,0.0,0.42486406,0.0,0.629771829,0.0,0.6550939960000001,0.0,0.459093873,True,,5eca55ce7b00b50119c64518,,2043047,153,,evan-feature22,full_rf_a,,1
112,19716,154,,,,2,2,1.0,0.0,1.0,0.0,,0.0-141.0,,1.0,875.9999999,1.0,0.4803197,0.0,0.645842715,1.0,0.6421749920000001,0.0,0.443092151,True,,5eca55ce7b00b50119c64518,,2053685,154,,evan-feature22,full_rf_a,,0
113,19717,155,,,,1,1,1.0,1.0,1.0,0.0,,0.0-142.0,,1.0,1054.0,1.0,0.521848997,1.0,0.735801074,1.0,0.6691348460000001,1.0,0.45259351600000003,True,,5eca55ce7b00b50119c64518,,2064503,155,,evan-feature22,full_rf_a,,1
114,19718,156,,,,1,1,0.0,1.0,0.0,-1.0,,0.0-143.0,,-1.0,772.0,0.0,0.49565621299999996,1.0,0.742400847,0.0,0.661512553,0.0,0.483110831,True,,5eca55ce7b00b50119c64518,,2075035,156,,evan-feature22,full_rf_a,,0
115,19719,157,,,,1,1,0.0,0.0,1.0,0.0,,0.0-144.0,,0.0,1223.0,0.0,0.521564361,0.0,0.731078632,1.0,0.6774886809999999,1.0,0.483263956,True,,5eca55ce7b00b50119c64518,,2086017,157,,evan-feature22,full_rf_a,,0
116,19720,158,,,,2,2,0.0,0.0,1.0,0.0,,0.0-145.0,,0.0,721.0,1.0,0.558893102,0.0,0.719810023,0.0,0.67461031,0.0,0.499349834,True,,5eca55ce7b00b50119c64518,,2096497,158,,evan-feature22,full_rf_a,,1
117,19721,159,,,,2,2,1.0,1.0,0.0,-1.0,,0.0-146.0,,-1.0,966.9999999,1.0,0.611031046,1.0,0.75,1.0,0.688072995,1.0,0.5321422729999999,True,,5eca55ce7b00b50119c64518,,2107226,159,,evan-feature22,full_rf_a,,0
118,19722,160,,,,2,2,1.0,1.0,1.0,0.0,,0.0-147.0,,1.0,1179.0,0.0,0.633223941,0.0,0.713567728,1.0,0.75,1.0,0.48185314700000004,True,,5eca55ce7b00b50119c64518,,2118167,160,,evan-feature22,full_rf_a,,0
119,19723,161,,,,1,1,1.0,0.0,1.0,0.0,,0.0-148.0,,1.0,1408.0,1.0,0.664001694,0.0,0.705509768,1.0,0.75,1.0,0.500211065,True,,5eca55ce7b00b50119c64518,,2129337,161,,evan-feature22,full_rf_a,,1
120,19724,162,,,,2,2,0.0,0.0,0.0,-1.0,,0.0-149.0,,0.0,1180.0,1.0,0.664001694,0.0,0.705509768,0.0,0.75,0.0,0.500211065,True,,5eca55ce7b00b50119c64518,,2140275,162,,evan-feature22,full_rf_a,,1
121,19725,163,,,,2,2,0.0,1.0,0.0,-1.0,,0.0-150.0,,-1.0,809.9999999,1.0,0.696508041,1.0,0.71066027,0.0,0.717028709,1.0,0.49792991,True,,5eca55ce7b00b50119c64518,,2150851,163,,evan-feature22,full_rf_a,,0
122,19726,164,,,,1,1,1.0,1.0,1.0,0.0,,0.0-151.0,,1.0,2114.0,1.0,0.699883272,1.0,0.75,1.0,0.713543895,0.0,0.496962643,True,,5eca55ce7b00b50119c64518,,2162728,164,,evan-feature22,full_rf_a,,1
123,19727,165,,,,2,2,1.0,0.0,0.0,-1.0,,0.0-152.0,,0.0,733.0,1.0,0.741163419,1.0,0.75,1.0,0.64691024,0.0,0.513858197,True,,5eca55ce7b00b50119c64518,,2173224,165,,evan-feature22,full_rf_a,,1
124,19728,166,,,,2,2,1.0,1.0,1.0,0.0,,0.0-153.0,,1.0,1509.0,1.0,0.75,1.0,0.70816558,1.0,0.594499079,1.0,0.48502124,True,,5eca55ce7b00b50119c64518,,2184498,166,,evan-feature22,full_rf_a,,0
125,19729,167,,,,SLOW,SLOW,,,0.0,-1.0,,0.0-154.0,,-3.0,,1.0,0.75,1.0,0.721848901,1.0,0.62197249,0.0,0.48263586399999997,True,,5eca55ce7b00b50119c64518,,2190303,167,,evan-feature22,full_rf_a,,1
126,19730,168,,,,SLOW,SLOW,,,1.0,0.0,,0.0-155.0,,-3.0,,1.0,0.75,1.0,0.74813071,1.0,0.584357161,1.0,0.411477782,True,,5eca55ce7b00b50119c64518,,2196108,168,,evan-feature22,full_rf_a,,0
127,19731,169,,,,SLOW,SLOW,,,0.0,-1.0,,0.0-156.0,,-3.0,,1.0,0.75,1.0,0.75,1.0,0.52287236,0.0,0.488290656,True,,5eca55ce7b00b50119c64518,,2201914,169,,evan-feature22,full_rf_a,,0
128,19732,170,,,,2,2,1.0,0.0,0.0,-1.0,,0.0-157.0,,0.0,324.0,1.0,0.75,0.0,0.75,1.0,0.544321581,0.0,0.53143059,True,,5eca55ce7b00b50119c64518,,2212001,170,,evan-feature22,full_rf_a,,1
129,19733,171,,,,1,1,1.0,1.0,0.0,-1.0,,0.0-158.0,,-1.0,5.000000005,1.0,0.726754564,1.0,0.75,0.0,0.5129306370000001,0.0,0.530592445,True,,5eca55ce7b00b50119c64518,,2221768,171,,evan-feature22,full_rf_a,,1
130,19734,172,,,,1,1,1.0,0.0,1.0,0.0,,0.0-159.0,,1.0,84.00000003,1.0,0.75,0.0,0.7392590729999999,1.0,0.479875835,1.0,0.547007051,True,,5eca55ce7b00b50119c64518,,2231616,172,,evan-feature22,full_rf_a,,0
131,19735,173,,,,1,1,1.0,1.0,1.0,0.0,,0.0-160.0,,1.0,532.0,1.0,0.75,1.0,0.7393376979999999,0.0,0.546045419,1.0,0.541267353,True,,5eca55ce7b00b50119c64518,,2241918,173,,evan-feature22,full_rf_a,,0
132,19736,174,,,,2,2,1.0,1.0,1.0,0.0,,0.0-161.0,,1.0,709.0,1.0,0.75,1.0,0.75,1.0,0.485725895,1.0,0.527625395,True,,5eca55ce7b00b50119c64518,,2252390,174,,evan-feature22,full_rf_a,,1
133,19737,175,,,,2,2,1.0,0.0,0.0,-1.0,,0.0-162.0,,0.0,1212.0,1.0,0.75,1.0,0.725087974,1.0,0.488603595,0.0,0.504019206,True,,5eca55ce7b00b50119c64518,,2263363,175,,evan-feature22,full_rf_a,,0
134,19738,176,,,,2,2,1.0,1.0,0.0,-1.0,,0.0-163.0,,-1.0,1648.0,1.0,0.745504295,1.0,0.75,1.0,0.452379914,1.0,0.50131194,True,,5eca55ce7b00b50119c64518,,2274778,176,,evan-feature22,full_rf_a,,0
135,19739,177,,,,1,1,1.0,0.0,0.0,-1.0,,0.0-164.0,,0.0,852.0,1.0,0.728513874,0.0,0.75,1.0,0.44125567200000004,0.0,0.531454591,True,,5eca55ce7b00b50119c64518,,2285394,177,,evan-feature22,full_rf_a,,1
136,19740,178,,,,1,1,1.0,1.0,1.0,0.0,,0.0-165.0,,1.0,431.0,1.0,0.73790804,1.0,0.75,1.0,0.413036656,0.0,0.524619035,True,,5eca55ce7b00b50119c64518,,2295588,178,,evan-feature22,full_rf_a,,0
137,19741,179,,,,2,2,1.0,0.0,0.0,-1.0,,0.0-166.0,,0.0,781.0,1.0,0.7080961309999999,0.0,0.708666865,1.0,0.431915581,0.0,0.481819489,True,,5eca55ce7b00b50119c64518,,2306130,179,,evan-feature22,full_rf_a,,1
138,19742,180,,,,1,1,0.0,1.0,0.0,-1.0,,0.0-167.0,,-1.0,440.0000001,0.0,0.721378003,1.0,0.71605913,0.0,0.36642387,0.0,0.5036739929999999,True,,5eca55ce7b00b50119c64518,,2316333,180,,evan-feature22,full_rf_a,,1
139,19743,181,,,,1,1,0.0,1.0,0.0,-1.0,,0.0-168.0,,-1.0,772.0,0.0,0.7340618959999999,1.0,0.699323252,0.0,0.35298046299999997,1.0,0.511241692,True,,5eca55ce7b00b50119c64518,,2326867,181,,evan-feature22,full_rf_a,,0
140,19744,182,,,,1,1,0.0,1.0,1.0,0.0,,0.0-169.0,,0.0,1376.0,0.0,0.75,1.0,0.70412698,1.0,0.380734814,1.0,0.529580116,True,,5eca55ce7b00b50119c64518,,2338006,182,,evan-feature22,full_rf_a,,0
141,19745,183,,,,1,1,1.0,1.0,0.0,-1.0,,0.0-170.0,,-1.0,674.9999999,1.0,0.7436654909999999,1.0,0.711182751,0.0,0.41125331,1.0,0.49554405,True,,5eca55ce7b00b50119c64518,,2348454,183,,evan-feature22,full_rf_a,,0
142,19746,184,,,,2,2,0.0,0.0,0.0,-1.0,,0.0-171.0,,0.0,556.0,1.0,0.731607915,1.0,0.651774583,0.0,0.35688023,0.0,0.45194491600000003,True,,5eca55ce7b00b50119c64518,,2358771,184,,evan-feature22,full_rf_a,,1
143,19747,185,,,,2,2,0.0,0.0,1.0,0.0,,0.0-172.0,,0.0,3340.0,1.0,0.75,1.0,0.75,0.0,0.283145374,0.0,0.528608005,True,,5eca55ce7b00b50119c64518,,2371872,185,,evan-feature22,full_rf_a,,0
144,19748,186,,,,2,2,1.0,0.0,1.0,0.0,,0.0-173.0,,1.0,579.0,1.0,0.7491416890000001,1.0,0.7423785959999999,1.0,0.29135870399999997,0.0,0.498888318,True,,5eca55ce7b00b50119c64518,,2382212,186,,evan-feature22,full_rf_a,,0
145,19749,187,,,,2,2,1.0,0.0,1.0,0.0,,0.0-174.0,,1.0,588.0,0.0,0.708569387,1.0,0.717682277,1.0,0.294421699,0.0,0.493838163,True,,5eca55ce7b00b50119c64518,,2392563,187,,evan-feature22,full_rf_a,,0
146,19750,188,,,,1,1,1.0,1.0,0.0,-1.0,,0.0-175.0,,-1.0,378.0,1.0,0.75,1.0,0.7383382159999999,0.0,0.356098707,0.0,0.442533405,True,,5eca55ce7b00b50119c64518,,2402702,188,,evan-feature22,full_rf_a,,1
147,19751,189,,,,1,1,1.0,1.0,0.0,-1.0,,0.0-176.0,,-1.0,2558.0,1.0,0.744527075,1.0,0.75,0.0,0.334127506,0.0,0.393165805,True,,5eca55ce7b00b50119c64518,,2415023,189,,evan-feature22,full_rf_a,,0
148,19752,190,,,,2,2,0.0,0.0,0.0,-1.0,,0.0-177.0,,0.0,1102.0,1.0,0.75,1.0,0.75,0.0,0.33571021799999995,0.0,0.350393962,True,,5eca55ce7b00b50119c64518,,2425887,190,,evan-feature22,full_rf_a,,1
149,19753,191,,,,1,1,1.0,1.0,0.0,-1.0,,0.0-178.0,,-1.0,684.9999999,1.0,0.75,1.0,0.75,0.0,0.313628297,0.0,0.36349657399999996,True,,5eca55ce7b00b50119c64518,,2436334,191,,evan-feature22,full_rf_a,,1
150,19754,192,,,,1,1,0.0,1.0,1.0,0.0,,0.0-179.0,,0.0,617.0,0.0,0.75,1.0,0.734284182,1.0,0.262667667,0.0,0.380199119,True,,5eca55ce7b00b50119c64518,,2446713,192,,evan-feature22,full_rf_a,,0
151,19755,193,,,,2,2,0.0,1.0,0.0,-1.0,,0.0-180.0,,-1.0,708.0000001,1.0,0.75,1.0,0.75,0.0,0.25,1.0,0.394494013,True,,5eca55ce7b00b50119c64518,,2457194,193,,evan-feature22,full_rf_a,,1
152,19756,194,,,,1,1,1.0,1.0,1.0,0.0,,0.0-181.0,,1.0,732.0000001,1.0,0.722298145,1.0,0.7357822340000001,1.0,0.25,0.0,0.319142121,True,,5eca55ce7b00b50119c64518,,2467688,194,,evan-feature22,full_rf_a,,1
153,19757,195,,,,1,1,1.0,1.0,1.0,0.0,,0.0-182.0,,1.0,1277.0,1.0,0.73149275,1.0,0.724276446,1.0,0.305856907,0.0,0.281315057,True,,5eca55ce7b00b50119c64518,,2478729,195,,evan-feature22,full_rf_a,,0
154,19758,196,,,,2,2,0.0,0.0,0.0,-1.0,,0.0-183.0,,0.0,1438.0,1.0,0.7458732690000001,0.0,0.7336382459999999,0.0,0.272571964,0.0,0.266021999,True,,5eca55ce7b00b50119c64518,,2489928,196,,evan-feature22,full_rf_a,,1
155,19759,197,,,,2,2,0.0,0.0,0.0,-1.0,,0.0-184.0,,0.0,3332.0,1.0,0.705579037,1.0,0.720778292,0.0,0.320238144,0.0,0.30971744,True,,5eca55ce7b00b50119c64518,,2503024,197,,evan-feature22,full_rf_a,,0
156,19760,198,,,,2,2,0.0,0.0,0.0,-1.0,,0.0-185.0,,0.0,455.0,1.0,0.700425648,0.0,0.7198784009999999,0.0,0.272590393,0.0,0.304182931,True,,5eca55ce7b00b50119c64518,,2513238,198,,evan-feature22,full_rf_a,,0
157,19761,199,,,,1,1,1.0,1.0,0.0,-1.0,,0.0-186.0,,-1.0,626.0,1.0,0.735590785,1.0,0.722714973,0.0,0.25,1.0,0.323421091,True,,5eca55ce7b00b50119c64518,,2523628,199,,evan-feature22,full_rf_a,,1
158,19762,200,,,,SLOW,SLOW,,,0.0,-1.0,,0.0-187.0,,-3.0,,1.0,0.724807662,1.0,0.63146213,0.0,0.36836492600000004,0.0,0.34592153299999995,True,,5eca55ce7b00b50119c64518,,2529435,200,,evan-feature22,full_rf_a,,1
159,19763,201,,,,2,2,1.0,0.0,0.0,-1.0,,0.0-188.0,,0.0,1272.0,0.0,0.7352796909999999,0.0,0.555111392,1.0,0.36003922,0.0,0.31433779999999995,True,,5eca55ce7b00b50119c64518,,2540472,201,,evan-feature22,full_rf_a,,1
160,19764,202,notice,,,,,,,,,,0.0-189.0,"{""Q0"":""no""}",,9441.0,,,,,,,,,True,,5eca55ce7b00b50119c64518,,2549917,202,Q,survey-text,full_rf_a,,1
161,19765,203,track1,,[1],,,,,,,,0.0-190.0,"{""Q0"":""no""}",,5502.0,,,,,,,,,True,,5eca55ce7b00b50119c64518,,2555426,203,Q,evan-quiz,full_rf_a,,1
162,19766,204,track2,,[1],,,,,,,,0.0-191.0,"{""Q0"":""no""}",,6690.0,,,,,,,,,True,,5eca55ce7b00b50119c64518,,2562120,204,Q,evan-quiz,full_rf_a,,1
163,19767,205,strat,,,,,,,,,,0.0-192.0,"{""Q0"":""choose at random order""}",,20760.0,,,,,,,,,True,,5eca55ce7b00b50119c64518,,2582884,205,Q,survey-text,full_rf_a,,1
