,index,Unnamed: 0,Q_name,button_pressed,choice_idxs,chosen_pos,chosen_state,chosen_state_f_1_outcome,chosen_state_f_2_outcome,f_1_reward,f_2_reward,incor_questions,internal_node_id,responses,reward_received,rt,s_1_f_1_outcome,s_1_f_1_prob,s_1_f_2_outcome,s_1_f_2_prob,s_2_f_1_outcome,s_2_f_1_prob,s_2_f_2_outcome,s_2_f_2_prob,safe_first,stimulus,subjectID,success,time_elapsed,trial_index,trial_num,trial_type,version,view_history,switching
0,11295,25,,,,1,1,1.0,1.0,0.0,1.0,,0.0-27.0,,1.0,844.0099997000001,1.0,0.6,1.0,0.6,0.0,0.4,1.0,0.4,True,,5c3f4ccd410e97000128d1cd,,671462,25,,evan-feature22,full_rf_b,,0
1,11296,26,,,,1,1,0.0,1.0,0.0,1.0,,0.0-28.0,,1.0,737.7750003,0.0,0.608053294,1.0,0.63424552,0.0,0.397152172,1.0,0.347069101,True,,5c3f4ccd410e97000128d1cd,,682006,26,,evan-feature22,full_rf_b,,0
2,11297,27,,,,1,1,1.0,0.0,0.0,1.0,,0.0-29.0,,0.0,504.7149998,1.0,0.642237155,0.0,0.648566321,0.0,0.389407674,0.0,0.285525717,True,,5c3f4ccd410e97000128d1cd,,692326,27,,evan-feature22,full_rf_b,,0
3,11298,28,,,,2,2,1.0,0.0,0.0,1.0,,0.0-30.0,,0.0,666.6950001,1.0,0.661086576,1.0,0.630492543,1.0,0.399058924,0.0,0.25,True,,5c3f4ccd410e97000128d1cd,,702812,28,,evan-feature22,full_rf_b,,1
4,11299,29,,,,1,1,0.0,1.0,0.0,1.0,,0.0-31.0,,1.0,472.13499989999997,0.0,0.631324137,1.0,0.6269842929999999,1.0,0.38734784299999997,0.0,0.25,True,,5c3f4ccd410e97000128d1cd,,713076,29,,evan-feature22,full_rf_b,,1
5,11300,30,,,,1,1,0.0,1.0,0.0,1.0,,0.0-32.0,,1.0,383.44,0.0,0.6381991370000001,1.0,0.68987999,1.0,0.384107265,0.0,0.271332943,True,,5c3f4ccd410e97000128d1cd,,723254,30,,evan-feature22,full_rf_b,,0
6,11301,31,,,,1,1,1.0,1.0,0.0,1.0,,0.0-33.0,,1.0,631.8949996,1.0,0.66034901,1.0,0.742641349,0.0,0.360225629,0.0,0.25,True,,5c3f4ccd410e97000128d1cd,,733726,31,,evan-feature22,full_rf_b,,0
7,11302,32,,,,2,2,1.0,0.0,-1.0,0.0,,0.0-34.0,,-1.0,682.9599999,1.0,0.638612418,0.0,0.75,1.0,0.367273939,0.0,0.25,True,,5c3f4ccd410e97000128d1cd,,744235,32,,evan-feature22,full_rf_b,,1
8,11303,33,,,,1,1,1.0,1.0,0.0,1.0,,0.0-35.0,,1.0,566.8900004,1.0,0.624340629,1.0,0.75,1.0,0.425829545,0.0,0.25,True,,5c3f4ccd410e97000128d1cd,,754620,33,,evan-feature22,full_rf_b,,1
9,11304,34,,,,1,1,0.0,1.0,0.0,1.0,,0.0-36.0,,1.0,549.48,0.0,0.621999804,1.0,0.75,0.0,0.368609357,0.0,0.25,True,,5c3f4ccd410e97000128d1cd,,764986,34,,evan-feature22,full_rf_b,,0
10,11305,35,,,,2,2,0.0,0.0,-1.0,0.0,,0.0-37.0,,0.0,961.2600002,0.0,0.62666403,1.0,0.75,0.0,0.311151498,0.0,0.25,True,,5c3f4ccd410e97000128d1cd,,775764,35,,evan-feature22,full_rf_b,,1
11,11306,36,,,,2,2,0.0,0.0,-1.0,0.0,,0.0-38.0,,0.0,456.8099999,1.0,0.6819650009999999,1.0,0.75,0.0,0.310763048,0.0,0.25,True,,5c3f4ccd410e97000128d1cd,,786062,36,,evan-feature22,full_rf_b,,0
12,11307,37,,,,1,1,0.0,0.0,0.0,1.0,,0.0-39.0,,0.0,262.8049999,0.0,0.740626951,0.0,0.75,0.0,0.25,0.0,0.25,True,,5c3f4ccd410e97000128d1cd,,796110,37,,evan-feature22,full_rf_b,,1
13,11308,38,,,,1,1,1.0,1.0,0.0,1.0,,0.0-40.0,,1.0,493.39,1.0,0.739599242,1.0,0.742034978,0.0,0.25397114600000004,0.0,0.25,True,,5c3f4ccd410e97000128d1cd,,806428,38,,evan-feature22,full_rf_b,,0
14,11309,39,,,,2,2,1.0,1.0,0.0,1.0,,0.0-41.0,,1.0,371.15,0.0,0.732341315,1.0,0.72735643,1.0,0.25,1.0,0.25,True,,5c3f4ccd410e97000128d1cd,,816627,39,,evan-feature22,full_rf_b,,1
15,11310,40,,,,1,1,0.0,1.0,0.0,1.0,,0.0-42.0,,1.0,433.95500020000003,0.0,0.7062287770000001,1.0,0.75,1.0,0.29002151,0.0,0.288256649,True,,5c3f4ccd410e97000128d1cd,,826872,40,,evan-feature22,full_rf_b,,1
16,11311,41,,,,1,1,1.0,0.0,-1.0,0.0,,0.0-43.0,,-1.0,1697.535,1.0,0.7086029209999999,0.0,0.75,0.0,0.274129113,0.0,0.262851608,True,,5c3f4ccd410e97000128d1cd,,838371,41,,evan-feature22,full_rf_b,,0
17,11312,42,,,,2,2,0.0,0.0,0.0,1.0,,0.0-44.0,,0.0,398.7449999,0.0,0.669189651,1.0,0.727614338,0.0,0.298444036,0.0,0.296944518,True,,5c3f4ccd410e97000128d1cd,,848569,42,,evan-feature22,full_rf_b,,1
18,11313,43,,,,1,1,0.0,1.0,-1.0,0.0,,0.0-45.0,,0.0,1249.135,0.0,0.6819912929999999,1.0,0.7179434290000001,1.0,0.265003961,0.0,0.28157921199999997,True,,5c3f4ccd410e97000128d1cd,,859616,43,,evan-feature22,full_rf_b,,1
19,11314,44,,,,1,1,1.0,0.0,-1.0,0.0,,0.0-46.0,,-1.0,418.88999989999996,1.0,0.665275002,0.0,0.723065271,1.0,0.260414971,1.0,0.30973870000000003,True,,5c3f4ccd410e97000128d1cd,,869849,44,,evan-feature22,full_rf_b,,0
20,11315,45,,,,1,1,1.0,1.0,0.0,1.0,,0.0-47.0,,1.0,329.905,1.0,0.6660593260000001,1.0,0.728032907,1.0,0.30922817,0.0,0.338778608,True,,5c3f4ccd410e97000128d1cd,,879988,45,,evan-feature22,full_rf_b,,0
21,11316,46,,,,2,2,0.0,0.0,0.0,1.0,,0.0-48.0,,0.0,71.60999998,1.0,0.702068785,1.0,0.6528750879999999,0.0,0.287329608,0.0,0.35789613200000003,True,,5c3f4ccd410e97000128d1cd,,889854,46,,evan-feature22,full_rf_b,,1
22,11317,47,,,,1,1,0.0,1.0,0.0,1.0,,0.0-49.0,,1.0,340.7999999,0.0,0.651939787,1.0,0.636725589,1.0,0.284834488,1.0,0.358563756,True,,5c3f4ccd410e97000128d1cd,,900010,47,,evan-feature22,full_rf_b,,1
23,11318,48,,,,2,2,1.0,0.0,0.0,1.0,,0.0-50.0,,0.0,170.4449998,1.0,0.67573929,1.0,0.612550049,1.0,0.37130387600000003,0.0,0.383542402,True,,5c3f4ccd410e97000128d1cd,,909997,48,,evan-feature22,full_rf_b,,1
24,11319,49,,,,1,1,1.0,1.0,0.0,1.0,,0.0-51.0,,1.0,298.9249998,1.0,0.620753801,1.0,0.60513644,0.0,0.385529434,0.0,0.340361743,True,,5c3f4ccd410e97000128d1cd,,920105,49,,evan-feature22,full_rf_b,,1
25,11320,50,,,,2,2,0.0,0.0,-1.0,0.0,,0.0-52.0,,0.0,392.885,0.0,0.673564893,1.0,0.672437924,0.0,0.292955382,0.0,0.337633795,True,,5c3f4ccd410e97000128d1cd,,930314,50,,evan-feature22,full_rf_b,,1
26,11321,51,,,,2,2,0.0,0.0,0.0,1.0,,0.0-53.0,,0.0,519.5250004,1.0,0.6749427,1.0,0.724197502,0.0,0.32391132100000003,0.0,0.350995264,True,,5c3f4ccd410e97000128d1cd,,940632,51,,evan-feature22,full_rf_b,,0
27,11322,52,,,,1,1,0.0,1.0,0.0,1.0,,0.0-54.0,,1.0,890.8299999,0.0,0.6940159379999999,1.0,0.75,0.0,0.31710554399999996,1.0,0.413450341,True,,5c3f4ccd410e97000128d1cd,,951335,52,,evan-feature22,full_rf_b,,1
28,11323,53,,,,2,2,0.0,0.0,0.0,1.0,,0.0-55.0,,0.0,1052.73,0.0,0.6916018270000001,1.0,0.69001187,0.0,0.261817804,0.0,0.40038635,True,,5c3f4ccd410e97000128d1cd,,962201,53,,evan-feature22,full_rf_b,,1
29,11324,54,,,,1,1,0.0,1.0,0.0,1.0,,0.0-56.0,,1.0,310.48,0.0,0.641061544,1.0,0.71337992,0.0,0.277296461,1.0,0.47372791700000005,True,,5c3f4ccd410e97000128d1cd,,972338,54,,evan-feature22,full_rf_b,,1
30,11325,55,,,,1,1,1.0,1.0,0.0,1.0,,0.0-57.0,,1.0,389.04500010000004,1.0,0.6082438520000001,1.0,0.708471106,0.0,0.28745137,1.0,0.564174476,True,,5c3f4ccd410e97000128d1cd,,982546,55,,evan-feature22,full_rf_b,,0
31,11326,56,,,,2,2,0.0,0.0,-1.0,0.0,,0.0-58.0,,0.0,946.0049998,1.0,0.6051112120000001,1.0,0.7118147229999999,0.0,0.272390611,0.0,0.5595149939999999,True,,5c3f4ccd410e97000128d1cd,,993315,56,,evan-feature22,full_rf_b,,1
32,11327,57,,,,1,1,0.0,1.0,-1.0,0.0,,0.0-59.0,,0.0,1203.145,0.0,0.582420852,1.0,0.635867583,0.0,0.31089574,1.0,0.5227206520000001,True,,5c3f4ccd410e97000128d1cd,,1004324,57,,evan-feature22,full_rf_b,,1
33,11328,58,,,,1,1,1.0,1.0,-1.0,0.0,,0.0-60.0,,-1.0,449.8649999,1.0,0.623195575,1.0,0.655026044,0.0,0.25,1.0,0.560387538,True,,5c3f4ccd410e97000128d1cd,,1014587,58,,evan-feature22,full_rf_b,,0
34,11329,59,,,,2,2,0.0,0.0,0.0,1.0,,0.0-61.0,,0.0,1024.905,1.0,0.601889598,0.0,0.678198724,0.0,0.25,0.0,0.559922936,True,,5c3f4ccd410e97000128d1cd,,1025413,59,,evan-feature22,full_rf_b,,1
35,11330,60,,,,1,1,1.0,1.0,-1.0,0.0,,0.0-62.0,,-1.0,793.4099999,1.0,0.601259914,1.0,0.704681482,0.0,0.33908969299999997,1.0,0.505003715,True,,5c3f4ccd410e97000128d1cd,,1036024,60,,evan-feature22,full_rf_b,,1
36,11331,61,,,,1,1,0.0,1.0,-1.0,0.0,,0.0-63.0,,0.0,338.525,0.0,0.59645454,1.0,0.710437172,0.0,0.327441879,0.0,0.391749613,True,,5c3f4ccd410e97000128d1cd,,1046174,61,,evan-feature22,full_rf_b,,0
37,11332,62,,,,1,1,0.0,1.0,0.0,1.0,,0.0-64.0,,1.0,806.26,0.0,0.529473,1.0,0.636758527,0.0,0.301338063,0.0,0.365661481,True,,5c3f4ccd410e97000128d1cd,,1056794,62,,evan-feature22,full_rf_b,,0
38,11333,63,,,,2,2,1.0,1.0,-1.0,0.0,,0.0-65.0,,-1.0,450.95,1.0,0.541657162,0.0,0.634541962,1.0,0.343535366,1.0,0.371763742,True,,5c3f4ccd410e97000128d1cd,,1067062,63,,evan-feature22,full_rf_b,,1
39,11334,64,,,,1,1,0.0,0.0,-1.0,0.0,,0.0-66.0,,0.0,684.08,0.0,0.5707533260000001,0.0,0.589121171,1.0,0.326428396,1.0,0.43961622899999997,True,,5c3f4ccd410e97000128d1cd,,1077557,64,,evan-feature22,full_rf_b,,1
40,11335,65,,,,1,1,1.0,1.0,0.0,1.0,,0.0-67.0,,1.0,388.365,1.0,0.5707533260000001,1.0,0.589121171,0.0,0.326428396,0.0,0.43961622899999997,True,,5c3f4ccd410e97000128d1cd,,1087756,65,,evan-feature22,full_rf_b,,0
41,11336,66,,,,2,2,0.0,1.0,0.0,1.0,,0.0-68.0,,1.0,556.57,1.0,0.506271295,1.0,0.641775594,0.0,0.37149690700000004,1.0,0.404330166,True,,5c3f4ccd410e97000128d1cd,,1098113,66,,evan-feature22,full_rf_b,,1
42,11337,67,,,,1,1,1.0,0.0,-1.0,0.0,,0.0-69.0,,-1.0,930.53,1.0,0.455642565,0.0,0.623605825,0.0,0.358753011,0.0,0.346174041,True,,5c3f4ccd410e97000128d1cd,,1108858,67,,evan-feature22,full_rf_b,,1
43,11338,68,,,,2,2,1.0,0.0,0.0,1.0,,0.0-70.0,,0.0,597.2899999,0.0,0.483677308,0.0,0.5904681070000001,1.0,0.402218411,0.0,0.35344697,True,,5c3f4ccd410e97000128d1cd,,1119259,68,,evan-feature22,full_rf_b,,1
44,11339,69,,,,1,1,0.0,1.0,-1.0,0.0,,0.0-71.0,,0.0,365.97999980000003,0.0,0.394210977,1.0,0.558925494,0.0,0.540052017,0.0,0.35182128700000004,True,,5c3f4ccd410e97000128d1cd,,1129450,69,,evan-feature22,full_rf_b,,1
45,11340,70,,,,2,2,0.0,0.0,0.0,1.0,,0.0-72.0,,0.0,475.61000010000004,0.0,0.382300414,1.0,0.577670603,0.0,0.607608448,0.0,0.378261578,True,,5c3f4ccd410e97000128d1cd,,1139740,70,,evan-feature22,full_rf_b,,1
46,11341,71,,,,2,2,1.0,0.0,-1.0,0.0,,0.0-73.0,,-1.0,1184.965,0.0,0.357596762,0.0,0.5929076529999999,1.0,0.6579790010000001,0.0,0.401326777,True,,5c3f4ccd410e97000128d1cd,,1150764,71,,evan-feature22,full_rf_b,,0
47,11342,72,,,,2,2,0.0,0.0,0.0,1.0,,0.0-74.0,,0.0,553.7950001,1.0,0.362033495,1.0,0.582308608,0.0,0.649195052,0.0,0.355158505,True,,5c3f4ccd410e97000128d1cd,,1161127,72,,evan-feature22,full_rf_b,,0
48,11343,73,,,,1,1,0.0,0.0,0.0,1.0,,0.0-75.0,,0.0,389.6500003,0.0,0.369620635,0.0,0.669100864,0.0,0.706059111,1.0,0.362516241,True,,5c3f4ccd410e97000128d1cd,,1171314,73,,evan-feature22,full_rf_b,,1
49,11344,74,,,,1,1,1.0,1.0,0.0,1.0,,0.0-76.0,,1.0,2842.64,1.0,0.41477751399999996,1.0,0.7284416779999999,0.0,0.7182656940000001,0.0,0.36228040899999997,True,,5c3f4ccd410e97000128d1cd,,1183974,74,,evan-feature22,full_rf_b,,0
50,11345,75,,,,2,2,1.0,0.0,-1.0,0.0,,0.0-77.0,,-1.0,2705.24,1.0,0.37675460299999997,1.0,0.703250285,1.0,0.75,0.0,0.461979164,True,,5c3f4ccd410e97000128d1cd,,1196481,75,,evan-feature22,full_rf_b,,1
51,11346,76,,,,1,1,0.0,0.0,-1.0,0.0,,0.0-78.0,,0.0,915.8350001,0.0,0.398716075,0.0,0.6723864890000001,1.0,0.674153818,1.0,0.519029516,True,,5c3f4ccd410e97000128d1cd,,1207226,76,,evan-feature22,full_rf_b,,1
52,11347,77,,,,2,2,1.0,0.0,-1.0,0.0,,0.0-79.0,,-1.0,1267.64,1.0,0.34677856700000004,1.0,0.69057175,1.0,0.6822438540000001,0.0,0.477292237,True,,5c3f4ccd410e97000128d1cd,,1218298,77,,evan-feature22,full_rf_b,,1
53,11348,78,,,,2,2,0.0,1.0,0.0,1.0,,0.0-80.0,,1.0,1369.035,0.0,0.28580469199999997,1.0,0.68408818,0.0,0.684207565,1.0,0.49780448299999996,True,,5c3f4ccd410e97000128d1cd,,1229474,78,,evan-feature22,full_rf_b,,0
54,11350,80,,,,1,1,0.0,1.0,0.0,1.0,,0.0-82.0,,1.0,637.2800004,0.0,0.25,1.0,0.7405808970000001,1.0,0.679614108,1.0,0.436436964,True,,5c3f4ccd410e97000128d1cd,,1246139,80,,evan-feature22,full_rf_b,,1
55,11351,81,,,,2,2,1.0,1.0,0.0,1.0,,0.0-83.0,,1.0,646.2250002999999,0.0,0.29890393,0.0,0.730505706,1.0,0.7328203320000001,1.0,0.439256938,True,,5c3f4ccd410e97000128d1cd,,1256569,81,,evan-feature22,full_rf_b,,1
56,11352,82,,,,1,1,0.0,0.0,-1.0,0.0,,0.0-84.0,,0.0,781.8100001,0.0,0.326762398,0.0,0.7148059609999999,1.0,0.75,1.0,0.44389608799999997,True,,5c3f4ccd410e97000128d1cd,,1267190,82,,evan-feature22,full_rf_b,,1
57,11353,83,,,,2,2,0.0,0.0,0.0,1.0,,0.0-85.0,,0.0,2357.32,0.0,0.295168515,1.0,0.739760854,0.0,0.719947008,0.0,0.35277284600000003,True,,5c3f4ccd410e97000128d1cd,,1279367,83,,evan-feature22,full_rf_b,,1
58,11354,84,,,,1,1,0.0,1.0,0.0,1.0,,0.0-86.0,,1.0,930.2449999,0.0,0.25,1.0,0.70781482,0.0,0.75,0.0,0.286095925,True,,5c3f4ccd410e97000128d1cd,,1290122,84,,evan-feature22,full_rf_b,,1
59,11355,85,,,,2,2,1.0,0.0,0.0,1.0,,0.0-87.0,,0.0,129.7650002,1.0,0.25638190899999996,1.0,0.704088163,1.0,0.75,0.0,0.26872601399999996,True,,5c3f4ccd410e97000128d1cd,,1300091,85,,evan-feature22,full_rf_b,,1
60,11356,86,,,,1,1,0.0,1.0,-1.0,0.0,,0.0-88.0,,0.0,374.2399998,0.0,0.271581126,1.0,0.669760107,1.0,0.733896663,0.0,0.273244572,True,,5c3f4ccd410e97000128d1cd,,1310273,86,,evan-feature22,full_rf_b,,1
61,11357,87,,,,1,1,1.0,0.0,0.0,1.0,,0.0-89.0,,0.0,582.9349998,1.0,0.257144401,0.0,0.600575706,1.0,0.74488122,1.0,0.25,True,,5c3f4ccd410e97000128d1cd,,1320653,87,,evan-feature22,full_rf_b,,0
62,11358,88,,,,2,2,1.0,0.0,0.0,1.0,,0.0-90.0,,0.0,997.56,0.0,0.25,1.0,0.616870026,1.0,0.723610234,0.0,0.25,True,,5c3f4ccd410e97000128d1cd,,1331463,88,,evan-feature22,full_rf_b,,1
63,11359,89,,,,1,1,1.0,1.0,-1.0,0.0,,0.0-91.0,,-1.0,914.2749999,1.0,0.25,1.0,0.583540187,1.0,0.7041042559999999,0.0,0.285961995,True,,5c3f4ccd410e97000128d1cd,,1342182,89,,evan-feature22,full_rf_b,,1
64,11360,90,,,,2,2,0.0,1.0,-1.0,0.0,,0.0-92.0,,0.0,1286.245,1.0,0.27254536,0.0,0.53875765,0.0,0.693783448,1.0,0.284961652,True,,5c3f4ccd410e97000128d1cd,,1353294,90,,evan-feature22,full_rf_b,,1
65,11361,91,,,,2,2,0.0,1.0,-1.0,0.0,,0.0-93.0,,0.0,657.0200003,0.0,0.25,1.0,0.548431252,0.0,0.734221895,1.0,0.279445214,True,,5c3f4ccd410e97000128d1cd,,1363766,91,,evan-feature22,full_rf_b,,0
66,11362,92,,,,2,2,0.0,0.0,0.0,1.0,,0.0-94.0,,0.0,629.9199997000001,0.0,0.258640684,1.0,0.545878066,0.0,0.725245965,0.0,0.31487537,True,,5c3f4ccd410e97000128d1cd,,1374206,92,,evan-feature22,full_rf_b,,0
67,11363,93,,,,1,1,1.0,0.0,0.0,1.0,,0.0-95.0,,0.0,671.2000002,1.0,0.251103711,0.0,0.5776290629999999,1.0,0.696320133,0.0,0.317831047,True,,5c3f4ccd410e97000128d1cd,,1384696,93,,evan-feature22,full_rf_b,,1
68,11364,94,,,,2,2,1.0,0.0,0.0,1.0,,0.0-96.0,,0.0,1058.76,0.0,0.276630292,1.0,0.617329858,1.0,0.73838088,0.0,0.261471582,True,,5c3f4ccd410e97000128d1cd,,1395583,94,,evan-feature22,full_rf_b,,1
69,11365,95,,,,1,1,1.0,1.0,0.0,1.0,,0.0-97.0,,1.0,518.0500001,1.0,0.297716424,1.0,0.618863717,0.0,0.7402358259999999,0.0,0.262600834,True,,5c3f4ccd410e97000128d1cd,,1405922,95,,evan-feature22,full_rf_b,,1
70,11366,96,,,,2,2,1.0,0.0,-1.0,0.0,,0.0-98.0,,-1.0,815.38,0.0,0.290935512,0.0,0.695370945,1.0,0.706570507,0.0,0.280030553,True,,5c3f4ccd410e97000128d1cd,,1416549,96,,evan-feature22,full_rf_b,,1
71,11367,97,,,,1,1,1.0,1.0,0.0,1.0,,0.0-99.0,,1.0,284.15999980000004,1.0,0.25,1.0,0.6465277079999999,1.0,0.67766682,0.0,0.25,True,,5c3f4ccd410e97000128d1cd,,1426645,97,,evan-feature22,full_rf_b,,1
72,11368,98,,,,2,2,1.0,1.0,-1.0,0.0,,0.0-100.0,,-1.0,544.1900003,0.0,0.26463816,1.0,0.636100213,1.0,0.646048507,1.0,0.265607101,True,,5c3f4ccd410e97000128d1cd,,1436994,98,,evan-feature22,full_rf_b,,1
73,11369,99,,,,1,1,1.0,1.0,-1.0,0.0,,0.0-101.0,,-1.0,429.275,1.0,0.314340707,1.0,0.667795927,0.0,0.613630805,0.0,0.25,True,,5c3f4ccd410e97000128d1cd,,1447242,99,,evan-feature22,full_rf_b,,1
74,11370,100,,,,1,1,0.0,0.0,0.0,1.0,,0.0-102.0,,0.0,954.4349997000002,0.0,0.28685784,0.0,0.6622549529999999,1.0,0.652154117,1.0,0.25,True,,5c3f4ccd410e97000128d1cd,,1457981,100,,evan-feature22,full_rf_b,,0
75,11371,101,,,,2,2,1.0,1.0,0.0,1.0,,0.0-103.0,,1.0,1003.865,0.0,0.304106554,0.0,0.631289538,1.0,0.707041942,1.0,0.29314237,True,,5c3f4ccd410e97000128d1cd,,1468788,101,,evan-feature22,full_rf_b,,1
76,11372,102,,,,1,1,1.0,0.0,0.0,1.0,,0.0-104.0,,0.0,63.61500034,1.0,0.304806932,0.0,0.571167718,0.0,0.680472346,0.0,0.25,True,,5c3f4ccd410e97000128d1cd,,1478648,102,,evan-feature22,full_rf_b,,1
77,11373,103,,,,1,1,1.0,0.0,0.0,1.0,,0.0-105.0,,0.0,806.0249997999999,1.0,0.37919861,0.0,0.5724849710000001,1.0,0.705638003,0.0,0.30179300600000003,True,,5c3f4ccd410e97000128d1cd,,1489270,103,,evan-feature22,full_rf_b,,0
78,11374,104,,,,2,2,1.0,0.0,0.0,1.0,,0.0-106.0,,0.0,493.4700001,1.0,0.464277969,0.0,0.554034373,1.0,0.7372627340000001,0.0,0.264699741,True,,5c3f4ccd410e97000128d1cd,,1499568,104,,evan-feature22,full_rf_b,,1
79,11375,105,,,,1,1,1.0,1.0,0.0,1.0,,0.0-107.0,,1.0,883.1949998,1.0,0.465104323,1.0,0.530793115,1.0,0.75,0.0,0.31683071,True,,5c3f4ccd410e97000128d1cd,,1510278,105,,evan-feature22,full_rf_b,,1
80,11376,106,,,,1,1,0.0,0.0,-1.0,0.0,,0.0-108.0,,0.0,892.6300001,0.0,0.465104323,0.0,0.530793115,1.0,0.75,1.0,0.31683071,True,,5c3f4ccd410e97000128d1cd,,1521017,106,,evan-feature22,full_rf_b,,0
81,11377,107,,,,2,2,1.0,0.0,-1.0,0.0,,0.0-109.0,,-1.0,323.4399999,0.0,0.46833986,0.0,0.570249239,1.0,0.7244472590000001,0.0,0.364114163,True,,5c3f4ccd410e97000128d1cd,,1531141,107,,evan-feature22,full_rf_b,,1
82,11378,108,,,,2,2,1.0,1.0,-1.0,0.0,,0.0-110.0,,-1.0,1016.255,1.0,0.445444024,0.0,0.649673355,1.0,0.6845441290000001,1.0,0.300660449,True,,5c3f4ccd410e97000128d1cd,,1541979,108,,evan-feature22,full_rf_b,,0
83,11379,109,,,,2,2,1.0,0.0,-1.0,0.0,,0.0-111.0,,-1.0,824.095,0.0,0.39909721299999995,0.0,0.6715179509999999,1.0,0.742310028,0.0,0.35496088299999995,True,,5c3f4ccd410e97000128d1cd,,1552616,109,,evan-feature22,full_rf_b,,0
84,11380,110,,,,1,1,0.0,1.0,0.0,1.0,,0.0-112.0,,1.0,814.1000001,0.0,0.37956104799999996,1.0,0.694725302,1.0,0.7181651309999999,0.0,0.38726906299999997,True,,5c3f4ccd410e97000128d1cd,,1563234,110,,evan-feature22,full_rf_b,,1
85,11381,111,,,,2,2,1.0,0.0,0.0,1.0,,0.0-113.0,,0.0,356.17,0.0,0.404995034,1.0,0.724375412,1.0,0.6910946859999999,0.0,0.387187347,True,,5c3f4ccd410e97000128d1cd,,1573411,111,,evan-feature22,full_rf_b,,1
86,11382,112,,,,1,1,1.0,1.0,-1.0,0.0,,0.0-114.0,,-1.0,2129.89,1.0,0.461740803,1.0,0.75,1.0,0.75,1.0,0.34872038200000005,True,,5c3f4ccd410e97000128d1cd,,1585349,112,,evan-feature22,full_rf_b,,1
87,11383,113,,,,2,2,0.0,0.0,-1.0,0.0,,0.0-115.0,,0.0,415.6450001,1.0,0.43821380600000004,1.0,0.738833273,0.0,0.728286963,0.0,0.399538128,True,,5c3f4ccd410e97000128d1cd,,1595607,113,,evan-feature22,full_rf_b,,1
88,11384,114,,,,1,1,0.0,0.0,0.0,1.0,,0.0-116.0,,0.0,542.405,0.0,0.41709882,0.0,0.736666736,0.0,0.75,1.0,0.389095584,True,,5c3f4ccd410e97000128d1cd,,1605965,114,,evan-feature22,full_rf_b,,1
89,11385,115,,,,2,2,1.0,1.0,0.0,1.0,,0.0-117.0,,1.0,360.3449999,0.0,0.39749009799999996,1.0,0.744320029,1.0,0.75,1.0,0.363848678,True,,5c3f4ccd410e97000128d1cd,,1616133,115,,evan-feature22,full_rf_b,,1
90,11386,116,,,,2,2,0.0,1.0,-1.0,0.0,,0.0-118.0,,0.0,670.2549998,0.0,0.392653706,1.0,0.75,0.0,0.75,1.0,0.384386976,True,,5c3f4ccd410e97000128d1cd,,1626604,116,,evan-feature22,full_rf_b,,0
91,11387,117,,,,2,2,1.0,1.0,0.0,1.0,,0.0-119.0,,1.0,296.7250003,1.0,0.31190902600000003,1.0,0.75,1.0,0.732413819,1.0,0.413082932,True,,5c3f4ccd410e97000128d1cd,,1636720,117,,evan-feature22,full_rf_b,,0
92,11388,118,,,,1,1,0.0,0.0,-1.0,0.0,,0.0-120.0,,0.0,948.8550001,0.0,0.366917648,0.0,0.740073855,1.0,0.75,1.0,0.352861979,True,,5c3f4ccd410e97000128d1cd,,1647479,118,,evan-feature22,full_rf_b,,1
93,11389,119,,,,2,2,1.0,0.0,-1.0,0.0,,0.0-121.0,,-1.0,378.5399999,1.0,0.3645172,0.0,0.721770713,1.0,0.75,0.0,0.404074511,True,,5c3f4ccd410e97000128d1cd,,1657664,119,,evan-feature22,full_rf_b,,1
94,11390,120,,,,1,1,1.0,1.0,-1.0,0.0,,0.0-122.0,,-1.0,864.3200002,1.0,0.35205600299999995,1.0,0.68983859,1.0,0.739735447,1.0,0.366895945,True,,5c3f4ccd410e97000128d1cd,,1668346,120,,evan-feature22,full_rf_b,,1
95,11391,121,,,,1,1,0.0,1.0,-1.0,0.0,,0.0-123.0,,0.0,1435.255,0.0,0.40998722600000004,1.0,0.720859127,1.0,0.673854955,0.0,0.368528541,True,,5c3f4ccd410e97000128d1cd,,1679591,121,,evan-feature22,full_rf_b,,0
96,11392,122,,,,2,2,1.0,1.0,-1.0,0.0,,0.0-124.0,,-1.0,47.71000007,0.0,0.353625316,1.0,0.75,1.0,0.695605473,1.0,0.38303674200000004,True,,5c3f4ccd410e97000128d1cd,,1689438,122,,evan-feature22,full_rf_b,,1
97,11393,123,,,,1,1,0.0,0.0,-1.0,0.0,,0.0-125.0,,0.0,516.2,0.0,0.359216989,0.0,0.75,0.0,0.6987915090000001,1.0,0.35169046200000004,True,,5c3f4ccd410e97000128d1cd,,1699764,123,,evan-feature22,full_rf_b,,1
98,11394,124,,,,2,2,1.0,1.0,-1.0,0.0,,0.0-126.0,,-1.0,816.6299998,0.0,0.35834496899999996,0.0,0.75,1.0,0.707067742,1.0,0.416763636,True,,5c3f4ccd410e97000128d1cd,,1710384,124,,evan-feature22,full_rf_b,,1
99,11395,125,,,,1,1,0.0,0.0,0.0,1.0,,0.0-127.0,,0.0,1900.64,0.0,0.38741613799999997,0.0,0.7177369570000001,0.0,0.734902455,0.0,0.49438664299999996,True,,5c3f4ccd410e97000128d1cd,,1722085,125,,evan-feature22,full_rf_b,,1
100,11396,126,,,,2,2,1.0,0.0,-1.0,0.0,,0.0-128.0,,-1.0,456.7849999,1.0,0.405255252,1.0,0.7300466640000001,1.0,0.7027748070000001,0.0,0.504359668,True,,5c3f4ccd410e97000128d1cd,,1732358,126,,evan-feature22,full_rf_b,,1
101,11397,127,,,,1,1,0.0,1.0,-1.0,0.0,,0.0-129.0,,0.0,372.86,0.0,0.40697073,1.0,0.7260142190000001,1.0,0.724461982,1.0,0.522779179,True,,5c3f4ccd410e97000128d1cd,,1742549,127,,evan-feature22,full_rf_b,,1
102,11398,128,,,,2,2,1.0,0.0,-1.0,0.0,,0.0-130.0,,-1.0,499.76,1.0,0.43906215299999996,0.0,0.7252802340000001,1.0,0.719079934,0.0,0.5712990579999999,True,,5c3f4ccd410e97000128d1cd,,1752863,128,,evan-feature22,full_rf_b,,1
103,11399,129,,,,1,1,0.0,1.0,0.0,1.0,,0.0-131.0,,1.0,310.80000010000003,0.0,0.4076705,1.0,0.73280499,1.0,0.681313127,1.0,0.523891346,True,,5c3f4ccd410e97000128d1cd,,1763001,129,,evan-feature22,full_rf_b,,1
104,11400,130,,,,1,1,1.0,1.0,0.0,1.0,,0.0-132.0,,1.0,298.77999980000004,1.0,0.399102911,1.0,0.730498344,0.0,0.661080239,0.0,0.46742603,True,,5c3f4ccd410e97000128d1cd,,1773124,130,,evan-feature22,full_rf_b,,0
105,11401,131,,,,1,1,1.0,1.0,0.0,1.0,,0.0-133.0,,1.0,2404.06,1.0,0.356477282,1.0,0.712296395,0.0,0.641812684,0.0,0.44868414,True,,5c3f4ccd410e97000128d1cd,,1785343,131,,evan-feature22,full_rf_b,,0
106,11402,132,,,,1,1,1.0,0.0,-1.0,0.0,,0.0-134.0,,-1.0,1057.04,1.0,0.462760722,0.0,0.692349322,1.0,0.700947931,0.0,0.394680266,True,,5c3f4ccd410e97000128d1cd,,1796203,132,,evan-feature22,full_rf_b,,0
107,11403,133,,,,2,2,1.0,0.0,-1.0,0.0,,0.0-135.0,,-1.0,412.5100002,0.0,0.422306413,1.0,0.718375916,1.0,0.706340917,0.0,0.367787185,True,,5c3f4ccd410e97000128d1cd,,1806423,133,,evan-feature22,full_rf_b,,1
108,11405,135,,,,1,1,1.0,1.0,-1.0,0.0,,0.0-137.0,,-1.0,503.07499989999997,1.0,0.4582233,1.0,0.643834117,1.0,0.75,0.0,0.39615823299999997,True,,5c3f4ccd410e97000128d1cd,,1823641,135,,evan-feature22,full_rf_b,,1
109,11406,136,,,,2,2,1.0,0.0,-1.0,0.0,,0.0-138.0,,-1.0,391.2149998,0.0,0.43813437899999996,0.0,0.651283804,1.0,0.729674191,0.0,0.37711048,True,,5c3f4ccd410e97000128d1cd,,1833840,136,,evan-feature22,full_rf_b,,1
110,11407,137,,,,1,1,1.0,1.0,-1.0,0.0,,0.0-139.0,,-1.0,283.8699999,1.0,0.471199094,1.0,0.6470010979999999,1.0,0.715008097,1.0,0.410656191,True,,5c3f4ccd410e97000128d1cd,,1843954,137,,evan-feature22,full_rf_b,,1
111,11408,138,,,,2,2,1.0,1.0,-1.0,0.0,,0.0-140.0,,-1.0,258.2949996,1.0,0.42486406,1.0,0.629771829,1.0,0.6550939960000001,1.0,0.459093873,True,,5c3f4ccd410e97000128d1cd,,1854038,138,,evan-feature22,full_rf_b,,1
112,11409,139,,,,2,2,1.0,1.0,-1.0,0.0,,0.0-141.0,,-1.0,287.9650001,0.0,0.4803197,1.0,0.645842715,1.0,0.6421749920000001,1.0,0.443092151,True,,5c3f4ccd410e97000128d1cd,,1864132,139,,evan-feature22,full_rf_b,,0
113,11410,140,,,,1,1,1.0,1.0,0.0,1.0,,0.0-142.0,,1.0,507.1,1.0,0.521848997,1.0,0.735801074,1.0,0.6691348460000001,1.0,0.45259351600000003,True,,5c3f4ccd410e97000128d1cd,,1874457,140,,evan-feature22,full_rf_b,,1
114,11411,141,,,,2,2,1.0,0.0,-1.0,0.0,,0.0-143.0,,-1.0,800.1600001,0.0,0.49565621299999996,0.0,0.742400847,1.0,0.661512553,0.0,0.483110831,True,,5c3f4ccd410e97000128d1cd,,1885063,141,,evan-feature22,full_rf_b,,1
115,11412,142,,,,1,1,1.0,1.0,-1.0,0.0,,0.0-144.0,,-1.0,246.86999989999998,1.0,0.521564361,1.0,0.731078632,0.0,0.6774886809999999,0.0,0.483263956,True,,5c3f4ccd410e97000128d1cd,,1895127,142,,evan-feature22,full_rf_b,,1
116,11413,143,,,,2,2,0.0,1.0,-1.0,0.0,,0.0-145.0,,0.0,385.5950003,1.0,0.558893102,1.0,0.719810023,0.0,0.67461031,1.0,0.499349834,True,,5c3f4ccd410e97000128d1cd,,1905319,143,,evan-feature22,full_rf_b,,1
117,11414,144,,,,1,1,1.0,1.0,-1.0,0.0,,0.0-146.0,,-1.0,331.8849998,1.0,0.611031046,1.0,0.75,0.0,0.688072995,0.0,0.5321422729999999,True,,5c3f4ccd410e97000128d1cd,,1915461,144,,evan-feature22,full_rf_b,,1
118,11415,145,,,,2,2,1.0,1.0,0.0,1.0,,0.0-147.0,,1.0,582.4949997,0.0,0.633223941,1.0,0.713567728,1.0,0.75,1.0,0.48185314700000004,True,,5c3f4ccd410e97000128d1cd,,1925867,145,,evan-feature22,full_rf_b,,1
119,11416,146,,,,1,1,1.0,0.0,-1.0,0.0,,0.0-148.0,,-1.0,853.3999999,1.0,0.664001694,0.0,0.705509768,1.0,0.75,0.0,0.500211065,True,,5c3f4ccd410e97000128d1cd,,1936554,146,,evan-feature22,full_rf_b,,1
120,11417,147,,,,2,2,0.0,1.0,-1.0,0.0,,0.0-149.0,,0.0,539.1150001,1.0,0.664001694,1.0,0.705509768,0.0,0.75,1.0,0.500211065,True,,5c3f4ccd410e97000128d1cd,,1946912,147,,evan-feature22,full_rf_b,,1
121,11418,148,,,,1,1,1.0,0.0,-1.0,0.0,,0.0-150.0,,-1.0,3840.495,1.0,0.696508041,0.0,0.71066027,0.0,0.717028709,1.0,0.49792991,True,,5c3f4ccd410e97000128d1cd,,1960565,148,,evan-feature22,full_rf_b,,1
122,11419,149,,,,2,2,1.0,1.0,0.0,1.0,,0.0-151.0,,1.0,1349.39,1.0,0.699883272,1.0,0.75,1.0,0.713543895,1.0,0.496962643,True,,5c3f4ccd410e97000128d1cd,,1971759,149,,evan-feature22,full_rf_b,,1
123,11420,150,,,,1,1,1.0,0.0,0.0,1.0,,0.0-152.0,,0.0,1095.54,1.0,0.741163419,0.0,0.75,1.0,0.64691024,1.0,0.513858197,True,,5c3f4ccd410e97000128d1cd,,1982649,150,,evan-feature22,full_rf_b,,1
124,11421,151,,,,2,2,1.0,0.0,0.0,1.0,,0.0-153.0,,0.0,881.3550002000001,1.0,0.75,1.0,0.70816558,1.0,0.594499079,0.0,0.48502124,True,,5c3f4ccd410e97000128d1cd,,1993312,151,,evan-feature22,full_rf_b,,1
125,11422,152,,,,2,2,1.0,1.0,-1.0,0.0,,0.0-154.0,,-1.0,929.2049999,1.0,0.75,1.0,0.721848901,1.0,0.62197249,1.0,0.48263586399999997,True,,5c3f4ccd410e97000128d1cd,,2004056,152,,evan-feature22,full_rf_b,,0
126,11423,153,,,,1,1,1.0,1.0,-1.0,0.0,,0.0-155.0,,-1.0,1563.83,1.0,0.75,1.0,0.74813071,1.0,0.584357161,1.0,0.411477782,True,,5c3f4ccd410e97000128d1cd,,2015414,153,,evan-feature22,full_rf_b,,1
127,11424,154,,,,2,2,0.0,0.0,-1.0,0.0,,0.0-156.0,,0.0,432.8999999,1.0,0.75,1.0,0.75,0.0,0.52287236,0.0,0.488290656,True,,5c3f4ccd410e97000128d1cd,,2025657,154,,evan-feature22,full_rf_b,,1
128,11425,155,,,,1,1,0.0,1.0,-1.0,0.0,,0.0-157.0,,0.0,1364.785,0.0,0.75,1.0,0.75,1.0,0.544321581,0.0,0.53143059,True,,5c3f4ccd410e97000128d1cd,,2036867,155,,evan-feature22,full_rf_b,,1
129,11426,156,,,,2,2,1.0,0.0,-1.0,0.0,,0.0-158.0,,-1.0,538.5599998,1.0,0.726754564,0.0,0.75,1.0,0.5129306370000001,0.0,0.530592445,True,,5c3f4ccd410e97000128d1cd,,2047203,156,,evan-feature22,full_rf_b,,1
130,11427,157,,,,1,1,1.0,0.0,0.0,1.0,,0.0-159.0,,0.0,312.5499999,1.0,0.75,0.0,0.7392590729999999,0.0,0.479875835,1.0,0.547007051,True,,5c3f4ccd410e97000128d1cd,,2057305,157,,evan-feature22,full_rf_b,,1
131,11428,158,,,,1,1,0.0,1.0,0.0,1.0,,0.0-160.0,,1.0,328.3849997,0.0,0.75,1.0,0.7393376979999999,0.0,0.546045419,0.0,0.541267353,True,,5c3f4ccd410e97000128d1cd,,2067462,158,,evan-feature22,full_rf_b,,0
132,11429,159,,,,1,1,1.0,1.0,-1.0,0.0,,0.0-161.0,,-1.0,279.9399998,1.0,0.75,1.0,0.75,1.0,0.485725895,1.0,0.527625395,True,,5c3f4ccd410e97000128d1cd,,2077556,159,,evan-feature22,full_rf_b,,0
133,11430,160,,,,2,2,1.0,0.0,0.0,1.0,,0.0-162.0,,0.0,360.79500010000004,0.0,0.75,1.0,0.725087974,1.0,0.488603595,0.0,0.504019206,True,,5c3f4ccd410e97000128d1cd,,2087740,160,,evan-feature22,full_rf_b,,1
134,11431,161,,,,1,1,1.0,1.0,-1.0,0.0,,0.0-163.0,,-1.0,2358.065,1.0,0.745504295,1.0,0.75,0.0,0.452379914,0.0,0.50131194,True,,5c3f4ccd410e97000128d1cd,,2099917,161,,evan-feature22,full_rf_b,,1
135,11432,162,,,,2,2,1.0,0.0,0.0,1.0,,0.0-164.0,,0.0,533.5550001,1.0,0.728513874,1.0,0.75,1.0,0.44125567200000004,0.0,0.531454591,True,,5c3f4ccd410e97000128d1cd,,2110287,162,,evan-feature22,full_rf_b,,1
136,11433,163,,,,1,1,1.0,1.0,-1.0,0.0,,0.0-165.0,,-1.0,379.9100001,1.0,0.73790804,1.0,0.75,0.0,0.413036656,0.0,0.524619035,True,,5c3f4ccd410e97000128d1cd,,2120478,163,,evan-feature22,full_rf_b,,1
137,11434,164,,,,2,2,1.0,1.0,-1.0,0.0,,0.0-166.0,,-1.0,1326.62,0.0,0.7080961309999999,0.0,0.708666865,1.0,0.431915581,1.0,0.481819489,True,,5c3f4ccd410e97000128d1cd,,2131591,164,,evan-feature22,full_rf_b,,1
138,11435,165,,,,1,1,1.0,0.0,-1.0,0.0,,0.0-167.0,,-1.0,1057.955,1.0,0.721378003,0.0,0.71605913,0.0,0.36642387,1.0,0.5036739929999999,True,,5c3f4ccd410e97000128d1cd,,2142442,165,,evan-feature22,full_rf_b,,1
139,11436,166,,,,2,2,1.0,0.0,0.0,1.0,,0.0-168.0,,0.0,447.22,1.0,0.7340618959999999,1.0,0.699323252,1.0,0.35298046299999997,0.0,0.511241692,True,,5c3f4ccd410e97000128d1cd,,2152690,166,,evan-feature22,full_rf_b,,1
140,11437,167,,,,2,2,1.0,1.0,0.0,1.0,,0.0-169.0,,1.0,890.0250001,1.0,0.75,1.0,0.70412698,1.0,0.380734814,1.0,0.529580116,True,,5c3f4ccd410e97000128d1cd,,2163378,167,,evan-feature22,full_rf_b,,0
141,11438,168,,,,2,2,1.0,0.0,0.0,1.0,,0.0-170.0,,0.0,1667.415,1.0,0.7436654909999999,1.0,0.711182751,1.0,0.41125331,0.0,0.49554405,True,,5c3f4ccd410e97000128d1cd,,2174860,168,,evan-feature22,full_rf_b,,0
142,11439,169,,,,2,2,0.0,0.0,-1.0,0.0,,0.0-171.0,,0.0,3020.97,1.0,0.731607915,1.0,0.651774583,0.0,0.35688023,0.0,0.45194491600000003,True,,5c3f4ccd410e97000128d1cd,,2187695,169,,evan-feature22,full_rf_b,,0
143,11440,170,,,,1,1,1.0,1.0,0.0,1.0,,0.0-172.0,,1.0,364.1149998,1.0,0.75,1.0,0.75,0.0,0.283145374,1.0,0.528608005,True,,5c3f4ccd410e97000128d1cd,,2197896,170,,evan-feature22,full_rf_b,,1
144,11441,171,,,,1,1,1.0,1.0,-1.0,0.0,,0.0-173.0,,-1.0,345.38999989999996,1.0,0.7491416890000001,1.0,0.7423785959999999,0.0,0.29135870399999997,1.0,0.498888318,True,,5c3f4ccd410e97000128d1cd,,2208068,171,,evan-feature22,full_rf_b,,0
145,11442,172,,,,2,2,1.0,0.0,0.0,1.0,,0.0-174.0,,0.0,283.0599998,1.0,0.708569387,0.0,0.717682277,1.0,0.294421699,0.0,0.493838163,True,,5c3f4ccd410e97000128d1cd,,2218175,172,,evan-feature22,full_rf_b,,1
146,11443,173,,,,2,2,0.0,0.0,-1.0,0.0,,0.0-175.0,,0.0,375.4050001,0.0,0.75,0.0,0.7383382159999999,0.0,0.356098707,0.0,0.442533405,True,,5c3f4ccd410e97000128d1cd,,2228359,173,,evan-feature22,full_rf_b,,0
147,11444,174,,,,1,1,0.0,1.0,-1.0,0.0,,0.0-176.0,,0.0,478.3950001,0.0,0.744527075,1.0,0.75,0.0,0.334127506,0.0,0.393165805,True,,5c3f4ccd410e97000128d1cd,,2238632,174,,evan-feature22,full_rf_b,,1
148,11445,175,,,,2,2,0.0,1.0,-1.0,0.0,,0.0-177.0,,0.0,1176.1,1.0,0.75,0.0,0.75,0.0,0.33571021799999995,1.0,0.350393962,True,,5c3f4ccd410e97000128d1cd,,2249636,175,,evan-feature22,full_rf_b,,1
149,11446,176,,,,2,2,0.0,0.0,0.0,1.0,,0.0-178.0,,0.0,363.4499996,0.0,0.75,1.0,0.75,0.0,0.313628297,0.0,0.36349657399999996,True,,5c3f4ccd410e97000128d1cd,,2259839,176,,evan-feature22,full_rf_b,,0
150,11447,177,,,,2,2,0.0,1.0,-1.0,0.0,,0.0-179.0,,0.0,577.1950004,1.0,0.75,0.0,0.734284182,0.0,0.262667667,1.0,0.380199119,True,,5c3f4ccd410e97000128d1cd,,2270216,177,,evan-feature22,full_rf_b,,0
151,11448,178,,,,2,2,0.0,1.0,-1.0,0.0,,0.0-180.0,,0.0,611.6449996,1.0,0.75,1.0,0.75,0.0,0.25,1.0,0.394494013,True,,5c3f4ccd410e97000128d1cd,,2280639,178,,evan-feature22,full_rf_b,,0
152,11449,179,,,,1,1,0.0,0.0,-1.0,0.0,,0.0-181.0,,0.0,471.8450001,0.0,0.722298145,0.0,0.7357822340000001,0.0,0.25,0.0,0.319142121,True,,5c3f4ccd410e97000128d1cd,,2290928,179,,evan-feature22,full_rf_b,,1
153,11450,180,,,,2,2,0.0,0.0,-1.0,0.0,,0.0-182.0,,0.0,392.5000001,1.0,0.73149275,0.0,0.724276446,0.0,0.305856907,0.0,0.281315057,True,,5c3f4ccd410e97000128d1cd,,2301122,180,,evan-feature22,full_rf_b,,1
154,11451,181,,,,1,1,1.0,1.0,-1.0,0.0,,0.0-183.0,,-1.0,164.655,1.0,0.7458732690000001,1.0,0.7336382459999999,0.0,0.272571964,0.0,0.266021999,True,,5c3f4ccd410e97000128d1cd,,2311109,181,,evan-feature22,full_rf_b,,1
155,11452,182,,,,2,2,1.0,1.0,0.0,1.0,,0.0-184.0,,1.0,364.0800002,1.0,0.705579037,1.0,0.720778292,1.0,0.320238144,1.0,0.30971744,True,,5c3f4ccd410e97000128d1cd,,2321275,182,,evan-feature22,full_rf_b,,1
156,11453,183,,,,1,1,1.0,1.0,0.0,1.0,,0.0-185.0,,1.0,274.3799998,1.0,0.700425648,1.0,0.7198784009999999,0.0,0.272590393,0.0,0.304182931,True,,5c3f4ccd410e97000128d1cd,,2331349,183,,evan-feature22,full_rf_b,,1
157,11454,184,,,,1,1,1.0,1.0,0.0,1.0,,0.0-186.0,,1.0,785.9999998,1.0,0.735590785,1.0,0.722714973,1.0,0.25,0.0,0.323421091,True,,5c3f4ccd410e97000128d1cd,,2341948,184,,evan-feature22,full_rf_b,,0
158,11455,185,,,,2,2,1.0,0.0,0.0,1.0,,0.0-187.0,,0.0,971.7000001,1.0,0.724807662,1.0,0.63146213,1.0,0.36836492600000004,0.0,0.34592153299999995,True,,5c3f4ccd410e97000128d1cd,,2352748,185,,evan-feature22,full_rf_b,,1
159,11456,186,,,,1,1,0.0,1.0,-1.0,0.0,,0.0-188.0,,0.0,1064.505,0.0,0.7352796909999999,1.0,0.555111392,1.0,0.36003922,0.0,0.31433779999999995,True,,5c3f4ccd410e97000128d1cd,,2363619,186,,evan-feature22,full_rf_b,,1
160,11457,187,notice,,,,,,,,,,0.0-189.0,"{""Q0"":""The values were different ""}",,17927.0,,,,,,,,,True,,5c3f4ccd410e97000128d1cd,,2381548,187,Q,survey-text,full_rf_b,,1
161,11458,188,track1,,[1],,,,,,,,0.0-190.0,"{""Q0"":""no""}",,7649.0,,,,,,,,,True,,5c3f4ccd410e97000128d1cd,,2389202,188,Q,evan-quiz,full_rf_b,,1
162,11459,189,track2,,[0],,,,,,,,0.0-191.0,"{""Q0"":""yes""}",,10292.0,,,,,,,,,True,,5c3f4ccd410e97000128d1cd,,2399499,189,Q,evan-quiz,full_rf_b,,1
163,11460,190,strat,,,,,,,,,,0.0-192.0,"{""Q0"":""I tried different patterns however I felt nothing helped ""}",,25985.0,,,,,,,,,True,,5c3f4ccd410e97000128d1cd,,2425487,190,Q,survey-text,full_rf_b,,1
