,index,Unnamed: 0,Q_name,button_pressed,choice_idxs,chosen_pos,chosen_state,chosen_state_f_1_outcome,chosen_state_f_2_outcome,f_1_reward,f_2_reward,incor_questions,internal_node_id,responses,reward_received,rt,s_1_f_1_outcome,s_1_f_1_prob,s_1_f_2_outcome,s_1_f_2_prob,s_2_f_1_outcome,s_2_f_1_prob,s_2_f_2_outcome,s_2_f_2_prob,safe_first,stimulus,subjectID,success,time_elapsed,trial_index,trial_num,trial_type,version,view_history,switching
0,22300,25,,,,1,1,1.0,1.0,1.0,0.0,,0.0-27.0,,1.0,1632.59,1.0,0.6,1.0,0.6,1.0,0.4,0.0,0.4,True,,5e78e8c6593bf50831f704b8,,1031087,25,,evan-feature22,full_rf_a,,0
1,22301,26,,,,2,2,0.0,0.0,1.0,0.0,,0.0-28.0,,0.0,1092.81,1.0,0.608053294,0.0,0.63424552,0.0,0.397152172,0.0,0.347069101,True,,5e78e8c6593bf50831f704b8,,1041951,26,,evan-feature22,full_rf_a,,1
2,22302,27,,,,1,1,1.0,1.0,1.0,0.0,,0.0-29.0,,1.0,739.9650002000001,1.0,0.642237155,1.0,0.648566321,0.0,0.389407674,1.0,0.285525717,True,,5e78e8c6593bf50831f704b8,,1052466,27,,evan-feature22,full_rf_a,,1
3,22303,28,,,,2,2,0.0,1.0,1.0,0.0,,0.0-30.0,,0.0,686.8099999,1.0,0.661086576,1.0,0.630492543,0.0,0.399058924,1.0,0.25,True,,5e78e8c6593bf50831f704b8,,1062927,28,,evan-feature22,full_rf_a,,1
4,22304,29,,,,1,1,0.0,0.0,0.0,-1.0,,0.0-31.0,,0.0,590.5299997000001,0.0,0.631324137,0.0,0.6269842929999999,0.0,0.38734784299999997,0.0,0.25,True,,5e78e8c6593bf50831f704b8,,1073287,29,,evan-feature22,full_rf_a,,1
5,22305,30,,,,1,1,1.0,1.0,0.0,-1.0,,0.0-32.0,,-1.0,1139.885,1.0,0.6381991370000001,1.0,0.68987999,0.0,0.384107265,0.0,0.271332943,True,,5e78e8c6593bf50831f704b8,,1084199,30,,evan-feature22,full_rf_a,,0
6,22306,31,,,,1,1,0.0,1.0,1.0,0.0,,0.0-33.0,,0.0,1225.86,0.0,0.66034901,1.0,0.742641349,0.0,0.360225629,0.0,0.25,True,,5e78e8c6593bf50831f704b8,,1095200,31,,evan-feature22,full_rf_a,,0
7,22307,32,,,,2,2,0.0,0.0,1.0,0.0,,0.0-34.0,,0.0,527.4650003,0.0,0.638612418,0.0,0.75,0.0,0.367273939,0.0,0.25,True,,5e78e8c6593bf50831f704b8,,1105496,32,,evan-feature22,full_rf_a,,1
8,22308,33,,,,1,1,1.0,1.0,0.0,-1.0,,0.0-35.0,,-1.0,799.8599997,1.0,0.624340629,1.0,0.75,0.0,0.425829545,0.0,0.25,True,,5e78e8c6593bf50831f704b8,,1116070,33,,evan-feature22,full_rf_a,,1
9,22309,34,,,,2,2,0.0,0.0,0.0,-1.0,,0.0-36.0,,0.0,911.4949997000001,0.0,0.621999804,0.0,0.75,0.0,0.368609357,0.0,0.25,True,,5e78e8c6593bf50831f704b8,,1126753,34,,evan-feature22,full_rf_a,,1
10,22310,35,,,,2,2,0.0,1.0,1.0,0.0,,0.0-37.0,,0.0,1142.995,1.0,0.62666403,1.0,0.75,0.0,0.311151498,1.0,0.25,True,,5e78e8c6593bf50831f704b8,,1137669,35,,evan-feature22,full_rf_a,,0
11,22311,36,,,,1,1,1.0,1.0,0.0,-1.0,,0.0-38.0,,-1.0,666.3799998,1.0,0.6819650009999999,1.0,0.75,1.0,0.310763048,0.0,0.25,True,,5e78e8c6593bf50831f704b8,,1148112,36,,evan-feature22,full_rf_a,,1
12,22312,37,,,,2,2,0.0,1.0,1.0,0.0,,0.0-39.0,,0.0,598.5249997999999,0.0,0.740626951,1.0,0.75,0.0,0.25,1.0,0.25,True,,5e78e8c6593bf50831f704b8,,1158487,37,,evan-feature22,full_rf_a,,1
13,22313,38,,,,2,2,1.0,1.0,1.0,0.0,,0.0-40.0,,1.0,559.6399996,1.0,0.739599242,0.0,0.742034978,1.0,0.25397114600000004,1.0,0.25,True,,5e78e8c6593bf50831f704b8,,1168821,38,,evan-feature22,full_rf_a,,0
14,22314,39,,,,2,2,0.0,0.0,1.0,0.0,,0.0-41.0,,0.0,950.6099997000001,0.0,0.732341315,0.0,0.72735643,0.0,0.25,0.0,0.25,True,,5e78e8c6593bf50831f704b8,,1179539,39,,evan-feature22,full_rf_a,,0
15,22315,40,,,,1,1,0.0,1.0,1.0,0.0,,0.0-42.0,,0.0,672.8749997,0.0,0.7062287770000001,1.0,0.75,0.0,0.29002151,0.0,0.288256649,True,,5e78e8c6593bf50831f704b8,,1189986,40,,evan-feature22,full_rf_a,,1
16,22316,41,,,,1,1,1.0,1.0,1.0,0.0,,0.0-43.0,,1.0,763.7499999,1.0,0.7086029209999999,1.0,0.75,0.0,0.274129113,0.0,0.262851608,True,,5e78e8c6593bf50831f704b8,,1200520,41,,evan-feature22,full_rf_a,,0
17,22317,42,,,,1,1,1.0,1.0,1.0,0.0,,0.0-44.0,,1.0,1416.8,1.0,0.669189651,1.0,0.727614338,0.0,0.298444036,0.0,0.296944518,True,,5e78e8c6593bf50831f704b8,,1211710,42,,evan-feature22,full_rf_a,,0
18,22318,43,,,,2,2,1.0,0.0,1.0,0.0,,0.0-45.0,,1.0,941.815,0.0,0.6819912929999999,1.0,0.7179434290000001,1.0,0.265003961,0.0,0.28157921199999997,True,,5e78e8c6593bf50831f704b8,,1222423,43,,evan-feature22,full_rf_a,,1
19,22319,44,,,,2,2,1.0,0.0,0.0,-1.0,,0.0-46.0,,0.0,688.9249999,1.0,0.665275002,1.0,0.723065271,1.0,0.260414971,0.0,0.30973870000000003,True,,5e78e8c6593bf50831f704b8,,1232898,44,,evan-feature22,full_rf_a,,0
20,22320,45,,,,1,1,1.0,0.0,1.0,0.0,,0.0-47.0,,1.0,860.26,1.0,0.6660593260000001,0.0,0.728032907,0.0,0.30922817,1.0,0.338778608,True,,5e78e8c6593bf50831f704b8,,1243532,45,,evan-feature22,full_rf_a,,1
21,22321,46,,,,1,1,1.0,1.0,1.0,0.0,,0.0-48.0,,1.0,948.88,1.0,0.702068785,1.0,0.6528750879999999,0.0,0.287329608,1.0,0.35789613200000003,True,,5e78e8c6593bf50831f704b8,,1254257,46,,evan-feature22,full_rf_a,,0
22,22322,47,,,,2,2,0.0,0.0,1.0,0.0,,0.0-49.0,,0.0,768.5099998,1.0,0.651939787,0.0,0.636725589,0.0,0.284834488,0.0,0.358563756,True,,5e78e8c6593bf50831f704b8,,1264798,47,,evan-feature22,full_rf_a,,1
23,22323,48,,,,2,2,0.0,0.0,0.0,-1.0,,0.0-50.0,,0.0,893.6699997000002,0.0,0.67573929,1.0,0.612550049,0.0,0.37130387600000003,0.0,0.383542402,True,,5e78e8c6593bf50831f704b8,,1275460,48,,evan-feature22,full_rf_a,,0
24,22324,49,,,,1,1,1.0,1.0,0.0,-1.0,,0.0-51.0,,-1.0,803.9850001,1.0,0.620753801,1.0,0.60513644,0.0,0.385529434,0.0,0.340361743,True,,5e78e8c6593bf50831f704b8,,1286038,49,,evan-feature22,full_rf_a,,1
25,22325,50,,,,2,2,0.0,1.0,0.0,-1.0,,0.0-52.0,,-1.0,1511.955,0.0,0.673564893,0.0,0.672437924,0.0,0.292955382,1.0,0.337633795,True,,5e78e8c6593bf50831f704b8,,1297325,50,,evan-feature22,full_rf_a,,1
26,22326,51,,,,1,1,1.0,1.0,1.0,0.0,,0.0-53.0,,1.0,1493.82,1.0,0.6749427,1.0,0.724197502,0.0,0.32391132100000003,1.0,0.350995264,True,,5e78e8c6593bf50831f704b8,,1308594,51,,evan-feature22,full_rf_a,,1
27,22327,52,,,,1,1,0.0,1.0,1.0,0.0,,0.0-54.0,,0.0,567.82,0.0,0.6940159379999999,1.0,0.75,1.0,0.31710554399999996,0.0,0.413450341,True,,5e78e8c6593bf50831f704b8,,1318933,52,,evan-feature22,full_rf_a,,0
28,22328,53,,,,2,2,0.0,0.0,1.0,0.0,,0.0-55.0,,0.0,876.0949997000001,1.0,0.6916018270000001,1.0,0.69001187,0.0,0.261817804,0.0,0.40038635,True,,5e78e8c6593bf50831f704b8,,1329578,53,,evan-feature22,full_rf_a,,1
29,22329,54,,,,1,1,1.0,1.0,1.0,0.0,,0.0-56.0,,1.0,695.21,1.0,0.641061544,1.0,0.71337992,1.0,0.277296461,1.0,0.47372791700000005,True,,5e78e8c6593bf50831f704b8,,1340051,54,,evan-feature22,full_rf_a,,1
30,22330,55,,,,1,1,0.0,1.0,1.0,0.0,,0.0-57.0,,0.0,682.335,0.0,0.6082438520000001,1.0,0.708471106,0.0,0.28745137,0.0,0.564174476,True,,5e78e8c6593bf50831f704b8,,1350504,55,,evan-feature22,full_rf_a,,0
31,22331,56,,,,2,2,0.0,0.0,1.0,0.0,,0.0-58.0,,0.0,746.6549999,0.0,0.6051112120000001,1.0,0.7118147229999999,0.0,0.272390611,0.0,0.5595149939999999,True,,5e78e8c6593bf50831f704b8,,1361024,56,,evan-feature22,full_rf_a,,1
32,22332,57,,,,2,2,0.0,1.0,1.0,0.0,,0.0-59.0,,0.0,519.4250001,1.0,0.582420852,0.0,0.635867583,0.0,0.31089574,1.0,0.5227206520000001,True,,5e78e8c6593bf50831f704b8,,1371318,57,,evan-feature22,full_rf_a,,0
33,22333,58,,,,1,1,0.0,1.0,0.0,-1.0,,0.0-60.0,,-1.0,775.4449998,0.0,0.623195575,1.0,0.655026044,0.0,0.25,1.0,0.560387538,True,,5e78e8c6593bf50831f704b8,,1381869,58,,evan-feature22,full_rf_a,,1
34,22334,59,,,,1,1,1.0,1.0,1.0,0.0,,0.0-61.0,,1.0,483.9949999,1.0,0.601889598,1.0,0.678198724,0.0,0.25,1.0,0.559922936,True,,5e78e8c6593bf50831f704b8,,1392128,59,,evan-feature22,full_rf_a,,0
35,22335,60,,,,1,1,0.0,0.0,1.0,0.0,,0.0-62.0,,0.0,680.3799998,0.0,0.601259914,0.0,0.704681482,0.0,0.33908969299999997,0.0,0.505003715,True,,5e78e8c6593bf50831f704b8,,1402574,60,,evan-feature22,full_rf_a,,0
36,22336,61,,,,2,2,0.0,1.0,1.0,0.0,,0.0-63.0,,0.0,1117.735,1.0,0.59645454,1.0,0.710437172,0.0,0.327441879,1.0,0.391749613,True,,5e78e8c6593bf50831f704b8,,1413464,61,,evan-feature22,full_rf_a,,1
37,22337,62,,,,2,2,1.0,0.0,1.0,0.0,,0.0-64.0,,1.0,786.8650001,0.0,0.529473,0.0,0.636758527,1.0,0.301338063,0.0,0.365661481,True,,5e78e8c6593bf50831f704b8,,1424022,62,,evan-feature22,full_rf_a,,0
38,22338,63,,,,2,2,1.0,0.0,0.0,-1.0,,0.0-65.0,,0.0,1144.915,1.0,0.541657162,1.0,0.634541962,1.0,0.343535366,0.0,0.371763742,True,,5e78e8c6593bf50831f704b8,,1434940,63,,evan-feature22,full_rf_a,,0
39,22339,64,,,,1,1,1.0,1.0,1.0,0.0,,0.0-66.0,,1.0,1520.975,1.0,0.5707533260000001,1.0,0.589121171,0.0,0.326428396,0.0,0.43961622899999997,True,,5e78e8c6593bf50831f704b8,,1446236,64,,evan-feature22,full_rf_a,,1
40,22340,65,,,,1,1,0.0,0.0,1.0,0.0,,0.0-67.0,,0.0,1831.055,0.0,0.5707533260000001,0.0,0.589121171,0.0,0.326428396,0.0,0.43961622899999997,True,,5e78e8c6593bf50831f704b8,,1457836,65,,evan-feature22,full_rf_a,,0
41,22341,66,,,,2,2,0.0,1.0,1.0,0.0,,0.0-68.0,,0.0,928.94,1.0,0.506271295,1.0,0.641775594,0.0,0.37149690700000004,1.0,0.404330166,True,,5e78e8c6593bf50831f704b8,,1468541,66,,evan-feature22,full_rf_a,,1
42,22342,67,,,,2,2,1.0,0.0,0.0,-1.0,,0.0-69.0,,0.0,1240.985,1.0,0.455642565,1.0,0.623605825,1.0,0.358753011,0.0,0.346174041,True,,5e78e8c6593bf50831f704b8,,1479558,67,,evan-feature22,full_rf_a,,0
43,22343,68,,,,2,2,0.0,1.0,0.0,-1.0,,0.0-70.0,,-1.0,829.7999999,1.0,0.483677308,1.0,0.5904681070000001,0.0,0.402218411,1.0,0.35344697,True,,5e78e8c6593bf50831f704b8,,1490172,68,,evan-feature22,full_rf_a,,0
44,22344,69,,,,2,2,0.0,0.0,0.0,-1.0,,0.0-71.0,,0.0,634.4699999,0.0,0.394210977,0.0,0.558925494,0.0,0.540052017,0.0,0.35182128700000004,True,,5e78e8c6593bf50831f704b8,,1500573,69,,evan-feature22,full_rf_a,,0
45,22345,70,,,,2,2,0.0,0.0,1.0,0.0,,0.0-72.0,,0.0,661.8949999,1.0,0.382300414,0.0,0.577670603,0.0,0.607608448,0.0,0.378261578,True,,5e78e8c6593bf50831f704b8,,1511004,70,,evan-feature22,full_rf_a,,0
46,22346,71,,,,1,1,0.0,0.0,1.0,0.0,,0.0-73.0,,0.0,688.0899998,0.0,0.357596762,0.0,0.5929076529999999,1.0,0.6579790010000001,1.0,0.401326777,True,,5e78e8c6593bf50831f704b8,,1521463,71,,evan-feature22,full_rf_a,,1
47,22347,72,,,,1,1,1.0,1.0,1.0,0.0,,0.0-74.0,,1.0,524.8600002000001,1.0,0.362033495,1.0,0.582308608,1.0,0.649195052,0.0,0.355158505,True,,5e78e8c6593bf50831f704b8,,1531765,72,,evan-feature22,full_rf_a,,0
48,22348,73,,,,1,1,1.0,0.0,1.0,0.0,,0.0-75.0,,1.0,696.1449999,1.0,0.369620635,0.0,0.669100864,0.0,0.706059111,1.0,0.362516241,True,,5e78e8c6593bf50831f704b8,,1542232,73,,evan-feature22,full_rf_a,,0
49,22349,74,,,,1,1,1.0,1.0,1.0,0.0,,0.0-76.0,,1.0,940.5950001,1.0,0.41477751399999996,1.0,0.7284416779999999,1.0,0.7182656940000001,0.0,0.36228040899999997,True,,5e78e8c6593bf50831f704b8,,1552945,74,,evan-feature22,full_rf_a,,0
50,22350,75,,,,1,1,0.0,1.0,0.0,-1.0,,0.0-77.0,,-1.0,887.3200002,0.0,0.37675460299999997,1.0,0.703250285,1.0,0.75,1.0,0.461979164,True,,5e78e8c6593bf50831f704b8,,1563605,75,,evan-feature22,full_rf_a,,0
51,22351,76,,,,2,2,0.0,0.0,0.0,-1.0,,0.0-78.0,,0.0,708.3000001,1.0,0.398716075,1.0,0.6723864890000001,0.0,0.674153818,0.0,0.519029516,True,,5e78e8c6593bf50831f704b8,,1574088,76,,evan-feature22,full_rf_a,,1
52,22352,77,,,,2,2,0.0,0.0,1.0,0.0,,0.0-79.0,,0.0,475.8649999,1.0,0.34677856700000004,1.0,0.69057175,0.0,0.6822438540000001,0.0,0.477292237,True,,5e78e8c6593bf50831f704b8,,1584335,77,,evan-feature22,full_rf_a,,0
53,22353,78,,,,1,1,1.0,1.0,0.0,-1.0,,0.0-80.0,,-1.0,2897.425,1.0,0.28580469199999997,1.0,0.68408818,1.0,0.684207565,0.0,0.49780448299999996,True,,5e78e8c6593bf50831f704b8,,1597023,78,,evan-feature22,full_rf_a,,1
54,22355,80,,,,2,2,1.0,0.0,1.0,0.0,,0.0-82.0,,1.0,768.0199997999999,0.0,0.25,0.0,0.7405808970000001,1.0,0.679614108,0.0,0.436436964,True,,5e78e8c6593bf50831f704b8,,1610209,80,,evan-feature22,full_rf_a,,1
55,22356,81,,,,2,2,1.0,0.0,0.0,-1.0,,0.0-83.0,,0.0,643.7850003,1.0,0.29890393,1.0,0.730505706,1.0,0.7328203320000001,0.0,0.439256938,True,,5e78e8c6593bf50831f704b8,,1620626,81,,evan-feature22,full_rf_a,,0
56,22357,82,,,,1,1,0.0,1.0,1.0,0.0,,0.0-84.0,,0.0,843.7799997999999,0.0,0.326762398,1.0,0.7148059609999999,1.0,0.75,1.0,0.44389608799999997,True,,5e78e8c6593bf50831f704b8,,1631258,82,,evan-feature22,full_rf_a,,1
57,22358,83,,,,1,1,0.0,1.0,1.0,0.0,,0.0-85.0,,0.0,851.0600002,0.0,0.295168515,1.0,0.739760854,1.0,0.719947008,0.0,0.35277284600000003,True,,5e78e8c6593bf50831f704b8,,1641882,83,,evan-feature22,full_rf_a,,0
58,22359,84,,,,1,1,1.0,0.0,1.0,0.0,,0.0-86.0,,1.0,691.1299997000001,1.0,0.25,0.0,0.70781482,1.0,0.75,1.0,0.286095925,True,,5e78e8c6593bf50831f704b8,,1652349,84,,evan-feature22,full_rf_a,,0
59,22360,85,,,,2,2,0.0,1.0,0.0,-1.0,,0.0-87.0,,-1.0,1104.96,0.0,0.25638190899999996,1.0,0.704088163,0.0,0.75,1.0,0.26872601399999996,True,,5e78e8c6593bf50831f704b8,,1663231,85,,evan-feature22,full_rf_a,,1
60,22361,86,,,,2,2,1.0,0.0,0.0,-1.0,,0.0-88.0,,0.0,794.9649999,0.0,0.271581126,1.0,0.669760107,1.0,0.733896663,0.0,0.273244572,True,,5e78e8c6593bf50831f704b8,,1673802,86,,evan-feature22,full_rf_a,,0
61,22362,87,,,,1,1,0.0,1.0,0.0,-1.0,,0.0-89.0,,-1.0,698.235,0.0,0.257144401,1.0,0.600575706,1.0,0.74488122,0.0,0.25,True,,5e78e8c6593bf50831f704b8,,1684277,87,,evan-feature22,full_rf_a,,1
62,22363,88,,,,2,2,1.0,0.0,1.0,0.0,,0.0-90.0,,1.0,620.9,0.0,0.25,0.0,0.616870026,1.0,0.723610234,0.0,0.25,True,,5e78e8c6593bf50831f704b8,,1694679,88,,evan-feature22,full_rf_a,,1
63,22364,89,,,,2,2,0.0,0.0,0.0,-1.0,,0.0-91.0,,0.0,1178.8,0.0,0.25,1.0,0.583540187,0.0,0.7041042559999999,0.0,0.285961995,True,,5e78e8c6593bf50831f704b8,,1705626,89,,evan-feature22,full_rf_a,,0
64,22365,90,,,,2,2,1.0,0.0,1.0,0.0,,0.0-92.0,,1.0,604.8750002,0.0,0.27254536,1.0,0.53875765,1.0,0.693783448,0.0,0.284961652,True,,5e78e8c6593bf50831f704b8,,1716007,90,,evan-feature22,full_rf_a,,0
65,22366,91,,,,2,2,1.0,1.0,0.0,-1.0,,0.0-93.0,,-1.0,695.0399997000001,0.0,0.25,1.0,0.548431252,1.0,0.734221895,1.0,0.279445214,True,,5e78e8c6593bf50831f704b8,,1726476,91,,evan-feature22,full_rf_a,,0
66,22367,92,,,,1,1,0.0,0.0,1.0,0.0,,0.0-94.0,,0.0,330.8799998,0.0,0.258640684,0.0,0.545878066,1.0,0.725245965,0.0,0.31487537,True,,5e78e8c6593bf50831f704b8,,1736574,92,,evan-feature22,full_rf_a,,1
67,22368,93,,,,1,1,0.0,0.0,1.0,0.0,,0.0-95.0,,0.0,1931.79,0.0,0.251103711,0.0,0.5776290629999999,1.0,0.696320133,0.0,0.317831047,True,,5e78e8c6593bf50831f704b8,,1748276,93,,evan-feature22,full_rf_a,,0
68,22369,94,,,,1,1,0.0,0.0,1.0,0.0,,0.0-96.0,,0.0,987.0950002000001,0.0,0.276630292,0.0,0.617329858,1.0,0.73838088,0.0,0.261471582,True,,5e78e8c6593bf50831f704b8,,1759036,94,,evan-feature22,full_rf_a,,0
69,22370,95,,,,2,2,0.0,0.0,0.0,-1.0,,0.0-97.0,,0.0,469.2699998,1.0,0.297716424,0.0,0.618863717,0.0,0.7402358259999999,0.0,0.262600834,True,,5e78e8c6593bf50831f704b8,,1769274,95,,evan-feature22,full_rf_a,,1
70,22371,96,,,,2,2,1.0,0.0,1.0,0.0,,0.0-98.0,,1.0,337.545,0.0,0.290935512,1.0,0.695370945,1.0,0.706570507,0.0,0.280030553,True,,5e78e8c6593bf50831f704b8,,1779387,96,,evan-feature22,full_rf_a,,0
71,22372,97,,,,2,2,1.0,0.0,1.0,0.0,,0.0-99.0,,1.0,565.7849996,1.0,0.25,1.0,0.6465277079999999,1.0,0.67766682,0.0,0.25,True,,5e78e8c6593bf50831f704b8,,1789730,97,,evan-feature22,full_rf_a,,0
72,22373,98,,,,1,1,0.0,1.0,1.0,0.0,,0.0-100.0,,0.0,507.81999989999997,0.0,0.26463816,1.0,0.636100213,0.0,0.646048507,1.0,0.265607101,True,,5e78e8c6593bf50831f704b8,,1800011,98,,evan-feature22,full_rf_a,,1
73,22374,99,,,,1,1,0.0,1.0,1.0,0.0,,0.0-101.0,,0.0,620.2049996000001,0.0,0.314340707,1.0,0.667795927,1.0,0.613630805,0.0,0.25,True,,5e78e8c6593bf50831f704b8,,1810414,99,,evan-feature22,full_rf_a,,0
74,22375,100,,,,2,2,1.0,0.0,1.0,0.0,,0.0-102.0,,1.0,1393.15,0.0,0.28685784,1.0,0.6622549529999999,1.0,0.652154117,0.0,0.25,True,,5e78e8c6593bf50831f704b8,,1821584,100,,evan-feature22,full_rf_a,,1
75,22376,101,,,,2,2,1.0,0.0,0.0,-1.0,,0.0-103.0,,0.0,483.585,0.0,0.304106554,1.0,0.631289538,1.0,0.707041942,0.0,0.29314237,True,,5e78e8c6593bf50831f704b8,,1831841,101,,evan-feature22,full_rf_a,,0
76,22377,102,,,,2,2,0.0,0.0,0.0,-1.0,,0.0-104.0,,0.0,483.2700002,0.0,0.304806932,0.0,0.571167718,0.0,0.680472346,0.0,0.25,True,,5e78e8c6593bf50831f704b8,,1842091,102,,evan-feature22,full_rf_a,,0
77,22378,103,,,,1,1,1.0,1.0,0.0,-1.0,,0.0-105.0,,-1.0,471.06499969999993,1.0,0.37919861,1.0,0.5724849710000001,1.0,0.705638003,0.0,0.30179300600000003,True,,5e78e8c6593bf50831f704b8,,1852336,103,,evan-feature22,full_rf_a,,1
78,22379,104,,,,2,2,1.0,0.0,0.0,-1.0,,0.0-106.0,,0.0,1373.86,0.0,0.464277969,1.0,0.554034373,1.0,0.7372627340000001,0.0,0.264699741,True,,5e78e8c6593bf50831f704b8,,1863484,104,,evan-feature22,full_rf_a,,1
79,22380,105,,,,2,2,1.0,0.0,1.0,0.0,,0.0-107.0,,1.0,791.1499999,1.0,0.465104323,1.0,0.530793115,1.0,0.75,0.0,0.31683071,True,,5e78e8c6593bf50831f704b8,,1874045,105,,evan-feature22,full_rf_a,,0
80,22381,106,,,,2,2,0.0,0.0,0.0,-1.0,,0.0-108.0,,0.0,661.1049998999999,0.0,0.465104323,1.0,0.530793115,0.0,0.75,0.0,0.31683071,True,,5e78e8c6593bf50831f704b8,,1884474,106,,evan-feature22,full_rf_a,,0
81,22382,107,,,,1,1,0.0,1.0,0.0,-1.0,,0.0-109.0,,-1.0,819.0349997000001,0.0,0.46833986,1.0,0.570249239,1.0,0.7244472590000001,1.0,0.364114163,True,,5e78e8c6593bf50831f704b8,,1895073,107,,evan-feature22,full_rf_a,,1
82,22383,108,,,,2,2,1.0,0.0,0.0,-1.0,,0.0-110.0,,0.0,417.3149997,0.0,0.445444024,0.0,0.649673355,1.0,0.6845441290000001,0.0,0.300660449,True,,5e78e8c6593bf50831f704b8,,1905265,108,,evan-feature22,full_rf_a,,1
83,22384,109,,,,2,2,1.0,1.0,0.0,-1.0,,0.0-111.0,,-1.0,739.9800001,0.0,0.39909721299999995,0.0,0.6715179509999999,1.0,0.742310028,1.0,0.35496088299999995,True,,5e78e8c6593bf50831f704b8,,1915778,109,,evan-feature22,full_rf_a,,0
84,22385,110,,,,1,1,1.0,1.0,0.0,-1.0,,0.0-112.0,,-1.0,331.5349999,1.0,0.37956104799999996,1.0,0.694725302,0.0,0.7181651309999999,0.0,0.38726906299999997,True,,5e78e8c6593bf50831f704b8,,1925883,110,,evan-feature22,full_rf_a,,1
85,22386,111,,,,2,2,1.0,0.0,0.0,-1.0,,0.0-113.0,,0.0,350.66,1.0,0.404995034,0.0,0.724375412,1.0,0.6910946859999999,0.0,0.387187347,True,,5e78e8c6593bf50831f704b8,,1936005,111,,evan-feature22,full_rf_a,,1
86,22387,112,,,,2,2,1.0,1.0,0.0,-1.0,,0.0-114.0,,-1.0,559.9349998,1.0,0.461740803,0.0,0.75,1.0,0.75,1.0,0.34872038200000005,True,,5e78e8c6593bf50831f704b8,,1946342,112,,evan-feature22,full_rf_a,,0
87,22388,113,,,,1,1,1.0,0.0,1.0,0.0,,0.0-115.0,,1.0,1596.065,1.0,0.43821380600000004,0.0,0.738833273,1.0,0.728286963,0.0,0.399538128,True,,5e78e8c6593bf50831f704b8,,1957713,113,,evan-feature22,full_rf_a,,1
88,22389,114,,,,2,2,1.0,1.0,0.0,-1.0,,0.0-116.0,,-1.0,635.795,0.0,0.41709882,0.0,0.736666736,1.0,0.75,1.0,0.389095584,True,,5e78e8c6593bf50831f704b8,,1968122,114,,evan-feature22,full_rf_a,,1
89,22390,115,,,,1,1,1.0,1.0,0.0,-1.0,,0.0-117.0,,-1.0,224.03500040000003,1.0,0.39749009799999996,1.0,0.744320029,1.0,0.75,0.0,0.363848678,True,,5e78e8c6593bf50831f704b8,,1978117,115,,evan-feature22,full_rf_a,,1
90,22391,116,,,,1,1,1.0,1.0,1.0,0.0,,0.0-118.0,,1.0,441.7650001,1.0,0.392653706,1.0,0.75,0.0,0.75,1.0,0.384386976,True,,5e78e8c6593bf50831f704b8,,1988335,116,,evan-feature22,full_rf_a,,0
91,22392,117,,,,1,1,0.0,1.0,1.0,0.0,,0.0-119.0,,0.0,544.3000002,0.0,0.31190902600000003,1.0,0.75,1.0,0.732413819,0.0,0.413082932,True,,5e78e8c6593bf50831f704b8,,1998656,117,,evan-feature22,full_rf_a,,0
92,22393,118,,,,2,2,1.0,1.0,0.0,-1.0,,0.0-120.0,,-1.0,368.15499980000004,0.0,0.366917648,1.0,0.740073855,1.0,0.75,1.0,0.352861979,True,,5e78e8c6593bf50831f704b8,,2008798,118,,evan-feature22,full_rf_a,,1
93,22394,119,,,,1,1,0.0,1.0,0.0,-1.0,,0.0-121.0,,-1.0,2367.55,0.0,0.3645172,1.0,0.721770713,1.0,0.75,0.0,0.404074511,True,,5e78e8c6593bf50831f704b8,,2020937,119,,evan-feature22,full_rf_a,,1
94,22395,120,,,,2,2,0.0,1.0,0.0,-1.0,,0.0-122.0,,-1.0,423.4699998,1.0,0.35205600299999995,0.0,0.68983859,0.0,0.739735447,1.0,0.366895945,True,,5e78e8c6593bf50831f704b8,,2031133,120,,evan-feature22,full_rf_a,,1
95,22396,121,,,,1,1,1.0,1.0,0.0,-1.0,,0.0-123.0,,-1.0,261.9400001,1.0,0.40998722600000004,1.0,0.720859127,1.0,0.673854955,0.0,0.368528541,True,,5e78e8c6593bf50831f704b8,,2041169,121,,evan-feature22,full_rf_a,,1
96,22397,122,,,,1,1,0.0,1.0,1.0,0.0,,0.0-124.0,,0.0,2169.11,0.0,0.353625316,1.0,0.75,1.0,0.695605473,0.0,0.38303674200000004,True,,5e78e8c6593bf50831f704b8,,2053112,122,,evan-feature22,full_rf_a,,0
97,22398,123,,,,2,2,0.0,0.0,0.0,-1.0,,0.0-125.0,,0.0,463.6200001,0.0,0.359216989,1.0,0.75,0.0,0.6987915090000001,0.0,0.35169046200000004,True,,5e78e8c6593bf50831f704b8,,2063350,123,,evan-feature22,full_rf_a,,1
98,22399,124,,,,2,2,0.0,1.0,1.0,0.0,,0.0-126.0,,0.0,1055.785,1.0,0.35834496899999996,1.0,0.75,0.0,0.707067742,1.0,0.416763636,True,,5e78e8c6593bf50831f704b8,,2074179,124,,evan-feature22,full_rf_a,,0
99,22400,125,,,,2,2,1.0,1.0,1.0,0.0,,0.0-127.0,,1.0,353.6899998,1.0,0.38741613799999997,0.0,0.7177369570000001,1.0,0.734902455,1.0,0.49438664299999996,True,,5e78e8c6593bf50831f704b8,,2084307,125,,evan-feature22,full_rf_a,,0
100,22401,126,,,,1,1,0.0,1.0,0.0,-1.0,,0.0-128.0,,-1.0,520.9649996999999,0.0,0.405255252,1.0,0.7300466640000001,0.0,0.7027748070000001,1.0,0.504359668,True,,5e78e8c6593bf50831f704b8,,2094604,126,,evan-feature22,full_rf_a,,1
101,22402,127,,,,1,1,0.0,0.0,0.0,-1.0,,0.0-129.0,,0.0,506.43000010000003,0.0,0.40697073,0.0,0.7260142190000001,0.0,0.724461982,0.0,0.522779179,True,,5e78e8c6593bf50831f704b8,,2104885,127,,evan-feature22,full_rf_a,,0
102,22403,128,,,,1,1,0.0,0.0,0.0,-1.0,,0.0-130.0,,0.0,1005.32,0.0,0.43906215299999996,0.0,0.7252802340000001,0.0,0.719079934,1.0,0.5712990579999999,True,,5e78e8c6593bf50831f704b8,,2115664,128,,evan-feature22,full_rf_a,,0
103,22404,129,,,,1,1,1.0,0.0,0.0,-1.0,,0.0-131.0,,0.0,434.69499979999995,1.0,0.4076705,0.0,0.73280499,0.0,0.681313127,1.0,0.523891346,True,,5e78e8c6593bf50831f704b8,,2125876,129,,evan-feature22,full_rf_a,,0
104,22405,130,,,,SLOW,SLOW,,,0.0,-1.0,,0.0-132.0,,-3.0,,1.0,0.399102911,1.0,0.730498344,0.0,0.661080239,1.0,0.46742603,True,,5e78e8c6593bf50831f704b8,,2131686,130,,evan-feature22,full_rf_a,,1
105,22406,131,,,,1,1,1.0,1.0,1.0,0.0,,0.0-133.0,,1.0,1230.37,1.0,0.356477282,1.0,0.712296395,1.0,0.641812684,1.0,0.44868414,True,,5e78e8c6593bf50831f704b8,,2142692,131,,evan-feature22,full_rf_a,,1
106,22407,132,,,,1,1,1.0,1.0,0.0,-1.0,,0.0-134.0,,-1.0,963.9499998,1.0,0.462760722,1.0,0.692349322,1.0,0.700947931,0.0,0.394680266,True,,5e78e8c6593bf50831f704b8,,2153432,132,,evan-feature22,full_rf_a,,0
107,22408,133,,,,SLOW,SLOW,,,0.0,-1.0,,0.0-135.0,,-3.0,,0.0,0.422306413,0.0,0.718375916,1.0,0.706340917,1.0,0.367787185,True,,5e78e8c6593bf50831f704b8,,2159243,133,,evan-feature22,full_rf_a,,1
108,22410,135,,,,2,2,1.0,0.0,0.0,-1.0,,0.0-137.0,,0.0,786.7749999,0.0,0.4582233,1.0,0.643834117,1.0,0.75,0.0,0.39615823299999997,True,,5e78e8c6593bf50831f704b8,,2172755,135,,evan-feature22,full_rf_a,,1
109,22411,136,,,,2,2,0.0,0.0,0.0,-1.0,,0.0-138.0,,0.0,284.4799999,0.0,0.43813437899999996,1.0,0.651283804,0.0,0.729674191,0.0,0.37711048,True,,5e78e8c6593bf50831f704b8,,2182811,136,,evan-feature22,full_rf_a,,0
110,22412,137,,,,2,2,0.0,1.0,0.0,-1.0,,0.0-139.0,,-1.0,584.6500001,0.0,0.471199094,0.0,0.6470010979999999,0.0,0.715008097,1.0,0.410656191,True,,5e78e8c6593bf50831f704b8,,2193184,137,,evan-feature22,full_rf_a,,0
111,22413,138,,,,1,1,0.0,0.0,1.0,0.0,,0.0-140.0,,0.0,425.46500030000004,0.0,0.42486406,0.0,0.629771829,1.0,0.6550939960000001,1.0,0.459093873,True,,5e78e8c6593bf50831f704b8,,2203386,138,,evan-feature22,full_rf_a,,1
112,22414,139,,,,2,2,0.0,1.0,1.0,0.0,,0.0-141.0,,0.0,1945.61,1.0,0.4803197,1.0,0.645842715,0.0,0.6421749920000001,1.0,0.443092151,True,,5e78e8c6593bf50831f704b8,,2215112,139,,evan-feature22,full_rf_a,,1
113,22415,140,,,,1,1,1.0,1.0,1.0,0.0,,0.0-142.0,,1.0,883.8450001,1.0,0.521848997,1.0,0.735801074,0.0,0.6691348460000001,0.0,0.45259351600000003,True,,5e78e8c6593bf50831f704b8,,2225773,140,,evan-feature22,full_rf_a,,1
114,22416,141,,,,1,1,1.0,0.0,0.0,-1.0,,0.0-143.0,,0.0,647.4050004,1.0,0.49565621299999996,0.0,0.742400847,0.0,0.661512553,1.0,0.483110831,True,,5e78e8c6593bf50831f704b8,,2236199,141,,evan-feature22,full_rf_a,,0
115,22417,142,,,,2,2,0.0,1.0,1.0,0.0,,0.0-144.0,,0.0,1790.6,0.0,0.521564361,1.0,0.731078632,0.0,0.6774886809999999,1.0,0.483263956,True,,5e78e8c6593bf50831f704b8,,2247767,142,,evan-feature22,full_rf_a,,1
116,22418,143,,,,1,1,1.0,0.0,1.0,0.0,,0.0-145.0,,1.0,505.66500010000004,1.0,0.558893102,0.0,0.719810023,0.0,0.67461031,0.0,0.499349834,True,,5e78e8c6593bf50831f704b8,,2258049,143,,evan-feature22,full_rf_a,,1
117,22419,144,,,,1,1,1.0,1.0,0.0,-1.0,,0.0-146.0,,-1.0,1722.41,1.0,0.611031046,1.0,0.75,1.0,0.688072995,0.0,0.5321422729999999,True,,5e78e8c6593bf50831f704b8,,2269550,144,,evan-feature22,full_rf_a,,0
118,22420,145,,,,2,2,1.0,0.0,1.0,0.0,,0.0-147.0,,1.0,482.1500001,0.0,0.633223941,0.0,0.713567728,1.0,0.75,0.0,0.48185314700000004,True,,5e78e8c6593bf50831f704b8,,2279809,145,,evan-feature22,full_rf_a,,1
119,22421,146,,,,2,2,1.0,1.0,1.0,0.0,,0.0-148.0,,1.0,294.2250003,1.0,0.664001694,1.0,0.705509768,1.0,0.75,1.0,0.500211065,True,,5e78e8c6593bf50831f704b8,,2289878,146,,evan-feature22,full_rf_a,,0
120,22422,147,,,,1,1,1.0,0.0,0.0,-1.0,,0.0-149.0,,0.0,436.79999979999997,1.0,0.664001694,0.0,0.705509768,1.0,0.75,0.0,0.500211065,True,,5e78e8c6593bf50831f704b8,,2300090,147,,evan-feature22,full_rf_a,,1
121,22423,148,,,,1,1,1.0,0.0,0.0,-1.0,,0.0-150.0,,0.0,413.8849997,1.0,0.696508041,0.0,0.71066027,1.0,0.717028709,0.0,0.49792991,True,,5e78e8c6593bf50831f704b8,,2310282,148,,evan-feature22,full_rf_a,,0
122,22424,149,,,,1,1,1.0,0.0,1.0,0.0,,0.0-151.0,,1.0,1000.33,1.0,0.699883272,0.0,0.75,1.0,0.713543895,0.0,0.496962643,True,,5e78e8c6593bf50831f704b8,,2321056,149,,evan-feature22,full_rf_a,,0
123,22425,150,,,,2,2,1.0,1.0,0.0,-1.0,,0.0-152.0,,-1.0,642.9599999,1.0,0.741163419,0.0,0.75,1.0,0.64691024,1.0,0.513858197,True,,5e78e8c6593bf50831f704b8,,2331475,150,,evan-feature22,full_rf_a,,1
124,22426,151,,,,1,1,1.0,1.0,1.0,0.0,,0.0-153.0,,1.0,236.55999959999997,1.0,0.75,1.0,0.70816558,1.0,0.594499079,0.0,0.48502124,True,,5e78e8c6593bf50831f704b8,,2341489,151,,evan-feature22,full_rf_a,,1
125,22427,152,,,,2,2,0.0,0.0,0.0,-1.0,,0.0-154.0,,0.0,557.8449997,1.0,0.75,0.0,0.721848901,0.0,0.62197249,0.0,0.48263586399999997,True,,5e78e8c6593bf50831f704b8,,2351817,152,,evan-feature22,full_rf_a,,1
126,22428,153,,,,1,1,1.0,1.0,1.0,0.0,,0.0-155.0,,1.0,508.27999969999996,1.0,0.75,1.0,0.74813071,1.0,0.584357161,0.0,0.411477782,True,,5e78e8c6593bf50831f704b8,,2362097,153,,evan-feature22,full_rf_a,,1
127,22429,154,,,,1,1,1.0,1.0,0.0,-1.0,,0.0-156.0,,-1.0,431.595,1.0,0.75,1.0,0.75,1.0,0.52287236,1.0,0.488290656,True,,5e78e8c6593bf50831f704b8,,2372302,154,,evan-feature22,full_rf_a,,0
128,22430,155,,,,1,1,0.0,1.0,0.0,-1.0,,0.0-157.0,,-1.0,424.195,0.0,0.75,1.0,0.75,1.0,0.544321581,0.0,0.53143059,True,,5e78e8c6593bf50831f704b8,,2382496,155,,evan-feature22,full_rf_a,,0
129,22431,156,,,,2,2,1.0,1.0,0.0,-1.0,,0.0-158.0,,-1.0,2844.915,1.0,0.726754564,1.0,0.75,1.0,0.5129306370000001,1.0,0.530592445,True,,5e78e8c6593bf50831f704b8,,2395113,156,,evan-feature22,full_rf_a,,1
130,22432,157,,,,1,1,0.0,1.0,1.0,0.0,,0.0-159.0,,0.0,208.5349998,0.0,0.75,1.0,0.7392590729999999,0.0,0.479875835,0.0,0.547007051,True,,5e78e8c6593bf50831f704b8,,2405092,157,,evan-feature22,full_rf_a,,1
131,22433,158,,,,2,2,0.0,0.0,1.0,0.0,,0.0-160.0,,0.0,239.85,1.0,0.75,1.0,0.7393376979999999,0.0,0.546045419,0.0,0.541267353,True,,5e78e8c6593bf50831f704b8,,2415105,158,,evan-feature22,full_rf_a,,1
132,22434,159,,,,1,1,1.0,1.0,1.0,0.0,,0.0-161.0,,1.0,19.53000017,1.0,0.75,1.0,0.75,0.0,0.485725895,1.0,0.527625395,True,,5e78e8c6593bf50831f704b8,,2424901,159,,evan-feature22,full_rf_a,,1
133,22435,160,,,,1,1,1.0,1.0,0.0,-1.0,,0.0-162.0,,-1.0,650.7449998,1.0,0.75,1.0,0.725087974,1.0,0.488603595,1.0,0.504019206,True,,5e78e8c6593bf50831f704b8,,2435328,160,,evan-feature22,full_rf_a,,0
134,22436,161,,,,2,2,0.0,1.0,0.0,-1.0,,0.0-163.0,,-1.0,1277.165,1.0,0.745504295,1.0,0.75,0.0,0.452379914,1.0,0.50131194,True,,5e78e8c6593bf50831f704b8,,2446380,161,,evan-feature22,full_rf_a,,1
135,22437,162,,,,1,1,1.0,1.0,0.0,-1.0,,0.0-164.0,,-1.0,509.3650003000001,1.0,0.728513874,1.0,0.75,0.0,0.44125567200000004,1.0,0.531454591,True,,5e78e8c6593bf50831f704b8,,2456663,162,,evan-feature22,full_rf_a,,1
136,22438,163,,,,2,2,1.0,1.0,1.0,0.0,,0.0-165.0,,1.0,250.13000010000002,0.0,0.73790804,1.0,0.75,1.0,0.413036656,1.0,0.524619035,True,,5e78e8c6593bf50831f704b8,,2466688,163,,evan-feature22,full_rf_a,,1
137,22439,164,,,,1,1,1.0,1.0,0.0,-1.0,,0.0-166.0,,-1.0,564.7249999,1.0,0.7080961309999999,1.0,0.708666865,1.0,0.431915581,1.0,0.481819489,True,,5e78e8c6593bf50831f704b8,,2477031,164,,evan-feature22,full_rf_a,,1
138,22440,165,,,,2,2,1.0,1.0,0.0,-1.0,,0.0-167.0,,-1.0,243.92999989999998,0.0,0.721378003,1.0,0.71605913,1.0,0.36642387,1.0,0.5036739929999999,True,,5e78e8c6593bf50831f704b8,,2487054,165,,evan-feature22,full_rf_a,,1
139,22441,166,,,,2,2,0.0,1.0,0.0,-1.0,,0.0-168.0,,-1.0,295.09999980000003,0.0,0.7340618959999999,1.0,0.699323252,0.0,0.35298046299999997,1.0,0.511241692,True,,5e78e8c6593bf50831f704b8,,2497119,166,,evan-feature22,full_rf_a,,0
140,22442,167,,,,2,2,1.0,0.0,1.0,0.0,,0.0-169.0,,1.0,250.945,1.0,0.75,1.0,0.70412698,1.0,0.380734814,0.0,0.529580116,True,,5e78e8c6593bf50831f704b8,,2507144,167,,evan-feature22,full_rf_a,,0
141,22443,168,,,,2,2,0.0,0.0,0.0,-1.0,,0.0-170.0,,0.0,260.665,1.0,0.7436654909999999,0.0,0.711182751,0.0,0.41125331,0.0,0.49554405,True,,5e78e8c6593bf50831f704b8,,2517177,168,,evan-feature22,full_rf_a,,0
142,22444,169,,,,1,1,1.0,1.0,0.0,-1.0,,0.0-171.0,,-1.0,337.2699996,1.0,0.731607915,1.0,0.651774583,0.0,0.35688023,1.0,0.45194491600000003,True,,5e78e8c6593bf50831f704b8,,2527289,169,,evan-feature22,full_rf_a,,1
143,22445,170,,,,2,2,0.0,1.0,1.0,0.0,,0.0-172.0,,0.0,217.375,1.0,0.75,0.0,0.75,0.0,0.283145374,1.0,0.528608005,True,,5e78e8c6593bf50831f704b8,,2537280,170,,evan-feature22,full_rf_a,,1
144,22446,171,,,,1,1,1.0,1.0,1.0,0.0,,0.0-173.0,,1.0,20.51000018,1.0,0.7491416890000001,1.0,0.7423785959999999,1.0,0.29135870399999997,1.0,0.498888318,True,,5e78e8c6593bf50831f704b8,,2547068,171,,evan-feature22,full_rf_a,,1
145,22447,172,,,,2,2,0.0,0.0,1.0,0.0,,0.0-174.0,,0.0,360.0750002,0.0,0.708569387,1.0,0.717682277,0.0,0.294421699,0.0,0.493838163,True,,5e78e8c6593bf50831f704b8,,2557201,172,,evan-feature22,full_rf_a,,1
146,22448,173,,,,2,2,1.0,1.0,0.0,-1.0,,0.0-175.0,,-1.0,606.9750004,1.0,0.75,0.0,0.7383382159999999,1.0,0.356098707,1.0,0.442533405,True,,5e78e8c6593bf50831f704b8,,2567583,173,,evan-feature22,full_rf_a,,0
147,22449,174,,,,1,1,1.0,0.0,0.0,-1.0,,0.0-176.0,,0.0,1442.765,1.0,0.744527075,0.0,0.75,1.0,0.334127506,0.0,0.393165805,True,,5e78e8c6593bf50831f704b8,,2578799,174,,evan-feature22,full_rf_a,,1
148,22450,175,,,,2,2,0.0,0.0,0.0,-1.0,,0.0-177.0,,0.0,385.8449999,1.0,0.75,0.0,0.75,0.0,0.33571021799999995,0.0,0.350393962,True,,5e78e8c6593bf50831f704b8,,2588954,175,,evan-feature22,full_rf_a,,1
149,22451,176,,,,1,1,0.0,0.0,0.0,-1.0,,0.0-178.0,,0.0,547.76,0.0,0.75,0.0,0.75,1.0,0.313628297,1.0,0.36349657399999996,True,,5e78e8c6593bf50831f704b8,,2599271,176,,evan-feature22,full_rf_a,,1
150,22452,177,,,,1,1,1.0,0.0,1.0,0.0,,0.0-179.0,,1.0,247.56,1.0,0.75,0.0,0.734284182,0.0,0.262667667,1.0,0.380199119,True,,5e78e8c6593bf50831f704b8,,2609293,177,,evan-feature22,full_rf_a,,0
151,22453,178,,,,1,1,0.0,1.0,0.0,-1.0,,0.0-180.0,,-1.0,340.6549999,0.0,0.75,1.0,0.75,1.0,0.25,0.0,0.394494013,True,,5e78e8c6593bf50831f704b8,,2619412,178,,evan-feature22,full_rf_a,,0
152,22454,179,,,,2,2,0.0,1.0,1.0,0.0,,0.0-181.0,,0.0,328.8249997,1.0,0.722298145,1.0,0.7357822340000001,0.0,0.25,1.0,0.319142121,True,,5e78e8c6593bf50831f704b8,,2629512,179,,evan-feature22,full_rf_a,,1
153,22455,180,,,,2,2,0.0,1.0,1.0,0.0,,0.0-182.0,,0.0,561.0449999,1.0,0.73149275,1.0,0.724276446,0.0,0.305856907,1.0,0.281315057,True,,5e78e8c6593bf50831f704b8,,2639845,180,,evan-feature22,full_rf_a,,0
154,22456,181,,,,2,2,1.0,0.0,0.0,-1.0,,0.0-183.0,,0.0,544.245,1.0,0.7458732690000001,1.0,0.7336382459999999,1.0,0.272571964,0.0,0.266021999,True,,5e78e8c6593bf50831f704b8,,2650179,181,,evan-feature22,full_rf_a,,0
155,22457,182,,,,1,1,1.0,0.0,0.0,-1.0,,0.0-184.0,,0.0,581.185,1.0,0.705579037,0.0,0.720778292,0.0,0.320238144,1.0,0.30971744,True,,5e78e8c6593bf50831f704b8,,2660534,182,,evan-feature22,full_rf_a,,1
156,22458,183,,,,1,1,1.0,1.0,0.0,-1.0,,0.0-185.0,,-1.0,329.6950003,1.0,0.700425648,1.0,0.7198784009999999,0.0,0.272590393,0.0,0.304182931,True,,5e78e8c6593bf50831f704b8,,2670637,183,,evan-feature22,full_rf_a,,0
157,22459,184,,,,2,2,0.0,1.0,0.0,-1.0,,0.0-186.0,,-1.0,259.9750003,1.0,0.735590785,1.0,0.722714973,0.0,0.25,1.0,0.323421091,True,,5e78e8c6593bf50831f704b8,,2680673,184,,evan-feature22,full_rf_a,,1
158,22460,185,,,,1,1,1.0,1.0,0.0,-1.0,,0.0-187.0,,-1.0,281.1099999,1.0,0.724807662,1.0,0.63146213,1.0,0.36836492600000004,0.0,0.34592153299999995,True,,5e78e8c6593bf50831f704b8,,2690728,185,,evan-feature22,full_rf_a,,1
159,22461,186,,,,SLOW,SLOW,,,0.0,-1.0,,0.0-188.0,,-3.0,,1.0,0.7352796909999999,1.0,0.555111392,0.0,0.36003922,0.0,0.31433779999999995,True,,5e78e8c6593bf50831f704b8,,2696539,186,,evan-feature22,full_rf_a,,1
160,22462,187,notice,,,,,,,,,,0.0-189.0,"{""Q0"":""No""}",,22515.0,,,,,,,,,True,,5e78e8c6593bf50831f704b8,,2719058,187,Q,survey-text,full_rf_a,,1
161,22463,188,track1,,[1],,,,,,,,0.0-190.0,"{""Q0"":""no""}",,5340.0,,,,,,,,,True,,5e78e8c6593bf50831f704b8,,2724408,188,Q,evan-quiz,full_rf_a,,1
162,22464,189,track2,,[0],,,,,,,,0.0-191.0,"{""Q0"":""yes""}",,5479.0,,,,,,,,,True,,5e78e8c6593bf50831f704b8,,2729898,189,Q,evan-quiz,full_rf_a,,1
163,22465,190,strat,,,,,,,,,,0.0-192.0,"{""Q0"":""i lookedat what was giving most positive results each time and chose that one more""}",,25435.0,,,,,,,,,True,,5e78e8c6593bf50831f704b8,,2755342,190,Q,survey-text,full_rf_a,,1
