,index,Unnamed: 0,Q_name,button_pressed,choice_idxs,chosen_pos,chosen_state,chosen_state_f_1_outcome,chosen_state_f_2_outcome,f_1_reward,f_2_reward,incor_questions,internal_node_id,responses,reward_received,rt,s_1_f_1_outcome,s_1_f_1_prob,s_1_f_2_outcome,s_1_f_2_prob,s_2_f_1_outcome,s_2_f_1_prob,s_2_f_2_outcome,s_2_f_2_prob,safe_first,stimulus,subjectID,success,time_elapsed,trial_index,trial_num,trial_type,version,view_history,switching
0,20370,25,,,,1,1,1.0,1.0,0.0,-1.0,,0.0-27.0,,-1.0,2153.24,1.0,0.6,1.0,0.6,0.0,0.4,0.0,0.4,False,,5f7dc0a9912d5b026fc50346,,658597,25,,evan-feature22,full_pf_a,,0
1,20371,26,,,,2,2,1.0,1.0,0.0,-1.0,,0.0-28.0,,-1.0,1866.295,1.0,0.608053294,0.0,0.63424552,1.0,0.397152172,1.0,0.347069101,False,,5f7dc0a9912d5b026fc50346,,670230,26,,evan-feature22,full_pf_a,,1
2,20372,27,,,,1,1,0.0,0.0,0.0,-1.0,,0.0-29.0,,0.0,2048.11,0.0,0.642237155,0.0,0.648566321,1.0,0.389407674,0.0,0.285525717,False,,5f7dc0a9912d5b026fc50346,,682042,27,,evan-feature22,full_pf_a,,1
3,20373,28,,,,2,2,0.0,0.0,0.0,-1.0,,0.0-30.0,,0.0,1398.7,1.0,0.661086576,0.0,0.630492543,0.0,0.399058924,0.0,0.25,False,,5f7dc0a9912d5b026fc50346,,693204,28,,evan-feature22,full_pf_a,,1
4,20374,29,,,,2,2,0.0,0.0,0.0,-1.0,,0.0-31.0,,0.0,1803.605,1.0,0.631324137,0.0,0.6269842929999999,0.0,0.38734784299999997,0.0,0.25,False,,5f7dc0a9912d5b026fc50346,,704770,29,,evan-feature22,full_pf_a,,0
5,20375,30,,,,2,2,0.0,0.0,0.0,-1.0,,0.0-32.0,,0.0,1996.17,1.0,0.6381991370000001,0.0,0.68987999,0.0,0.384107265,0.0,0.271332943,False,,5f7dc0a9912d5b026fc50346,,716533,30,,evan-feature22,full_pf_a,,0
6,20376,31,,,,2,2,0.0,1.0,0.0,-1.0,,0.0-33.0,,-1.0,1369.045,1.0,0.66034901,1.0,0.742641349,0.0,0.360225629,1.0,0.25,False,,5f7dc0a9912d5b026fc50346,,727665,31,,evan-feature22,full_pf_a,,0
7,20377,32,,,,1,1,0.0,1.0,1.0,0.0,,0.0-34.0,,0.0,2335.03,0.0,0.638612418,1.0,0.75,0.0,0.367273939,1.0,0.25,False,,5f7dc0a9912d5b026fc50346,,739764,32,,evan-feature22,full_pf_a,,1
8,20378,33,,,,2,2,0.0,0.0,0.0,-1.0,,0.0-35.0,,0.0,2659.985,0.0,0.624340629,1.0,0.75,0.0,0.425829545,0.0,0.25,False,,5f7dc0a9912d5b026fc50346,,752186,33,,evan-feature22,full_pf_a,,1
9,20379,34,,,,1,1,1.0,1.0,0.0,-1.0,,0.0-36.0,,-1.0,1806.495,1.0,0.621999804,1.0,0.75,1.0,0.368609357,0.0,0.25,False,,5f7dc0a9912d5b026fc50346,,763755,34,,evan-feature22,full_pf_a,,1
10,20380,35,,,,2,2,0.0,0.0,1.0,0.0,,0.0-37.0,,0.0,1268.235,0.0,0.62666403,1.0,0.75,0.0,0.311151498,0.0,0.25,False,,5f7dc0a9912d5b026fc50346,,774784,35,,evan-feature22,full_pf_a,,1
11,20381,36,,,,2,2,0.0,0.0,1.0,0.0,,0.0-38.0,,0.0,1269.845,0.0,0.6819650009999999,0.0,0.75,0.0,0.310763048,0.0,0.25,False,,5f7dc0a9912d5b026fc50346,,785819,36,,evan-feature22,full_pf_a,,0
12,20382,37,,,,2,2,0.0,0.0,0.0,-1.0,,0.0-39.0,,0.0,2387.535,0.0,0.740626951,1.0,0.75,0.0,0.25,0.0,0.25,False,,5f7dc0a9912d5b026fc50346,,797969,37,,evan-feature22,full_pf_a,,0
13,20383,38,,,,1,1,1.0,0.0,0.0,-1.0,,0.0-40.0,,0.0,1453.3,1.0,0.739599242,0.0,0.742034978,0.0,0.25397114600000004,0.0,0.25,False,,5f7dc0a9912d5b026fc50346,,809186,38,,evan-feature22,full_pf_a,,1
14,20384,39,,,,2,2,0.0,1.0,0.0,-1.0,,0.0-41.0,,-1.0,2510.95,1.0,0.732341315,1.0,0.72735643,0.0,0.25,1.0,0.25,False,,5f7dc0a9912d5b026fc50346,,821457,39,,evan-feature22,full_pf_a,,1
15,20385,40,,,,2,2,0.0,1.0,0.0,-1.0,,0.0-42.0,,-1.0,997.365,1.0,0.7062287770000001,1.0,0.75,0.0,0.29002151,1.0,0.288256649,False,,5f7dc0a9912d5b026fc50346,,832218,40,,evan-feature22,full_pf_a,,0
16,20386,41,,,,2,2,0.0,0.0,1.0,0.0,,0.0-43.0,,0.0,1878.25,0.0,0.7086029209999999,0.0,0.75,0.0,0.274129113,0.0,0.262851608,False,,5f7dc0a9912d5b026fc50346,,843856,41,,evan-feature22,full_pf_a,,0
17,20387,42,,,,2,2,1.0,0.0,0.0,-1.0,,0.0-44.0,,0.0,1807.07,1.0,0.669189651,0.0,0.727614338,1.0,0.298444036,0.0,0.296944518,False,,5f7dc0a9912d5b026fc50346,,855426,42,,evan-feature22,full_pf_a,,0
18,20388,43,,,,2,2,0.0,1.0,1.0,0.0,,0.0-45.0,,0.0,1221.035,1.0,0.6819912929999999,1.0,0.7179434290000001,0.0,0.265003961,1.0,0.28157921199999997,False,,5f7dc0a9912d5b026fc50346,,866412,43,,evan-feature22,full_pf_a,,0
19,20389,44,,,,1,1,0.0,1.0,1.0,0.0,,0.0-46.0,,0.0,1026.7,0.0,0.665275002,1.0,0.723065271,0.0,0.260414971,0.0,0.30973870000000003,False,,5f7dc0a9912d5b026fc50346,,877204,44,,evan-feature22,full_pf_a,,1
20,20390,45,,,,1,1,0.0,1.0,0.0,-1.0,,0.0-47.0,,-1.0,2268.515,0.0,0.6660593260000001,1.0,0.728032907,0.0,0.30922817,0.0,0.338778608,False,,5f7dc0a9912d5b026fc50346,,889238,45,,evan-feature22,full_pf_a,,0
21,20391,46,,,,1,1,1.0,0.0,0.0,-1.0,,0.0-48.0,,0.0,1628.13,1.0,0.702068785,0.0,0.6528750879999999,0.0,0.287329608,0.0,0.35789613200000003,False,,5f7dc0a9912d5b026fc50346,,900633,46,,evan-feature22,full_pf_a,,0
22,20392,47,,,,1,1,1.0,1.0,0.0,-1.0,,0.0-49.0,,-1.0,887.905,1.0,0.651939787,1.0,0.636725589,1.0,0.284834488,1.0,0.358563756,False,,5f7dc0a9912d5b026fc50346,,911282,47,,evan-feature22,full_pf_a,,0
23,20393,48,,,,2,2,0.0,1.0,0.0,-1.0,,0.0-50.0,,-1.0,1973.67,1.0,0.67573929,1.0,0.612550049,0.0,0.37130387600000003,1.0,0.383542402,False,,5f7dc0a9912d5b026fc50346,,923024,48,,evan-feature22,full_pf_a,,1
24,20394,49,,,,1,1,1.0,0.0,0.0,-1.0,,0.0-51.0,,0.0,1880.65,1.0,0.620753801,0.0,0.60513644,1.0,0.385529434,0.0,0.340361743,False,,5f7dc0a9912d5b026fc50346,,934672,49,,evan-feature22,full_pf_a,,1
25,20395,50,,,,2,2,1.0,0.0,1.0,0.0,,0.0-52.0,,1.0,2141.73,1.0,0.673564893,0.0,0.672437924,1.0,0.292955382,0.0,0.337633795,False,,5f7dc0a9912d5b026fc50346,,946580,50,,evan-feature22,full_pf_a,,1
26,20396,51,,,,2,2,0.0,1.0,0.0,-1.0,,0.0-53.0,,-1.0,1274.15,1.0,0.6749427,0.0,0.724197502,0.0,0.32391132100000003,1.0,0.350995264,False,,5f7dc0a9912d5b026fc50346,,957622,51,,evan-feature22,full_pf_a,,0
27,20397,52,,,,1,1,0.0,1.0,0.0,-1.0,,0.0-54.0,,-1.0,1935.795,0.0,0.6940159379999999,1.0,0.75,0.0,0.31710554399999996,0.0,0.413450341,False,,5f7dc0a9912d5b026fc50346,,969321,52,,evan-feature22,full_pf_a,,1
28,20398,53,,,,1,1,1.0,1.0,0.0,-1.0,,0.0-55.0,,-1.0,1313.475,1.0,0.6916018270000001,1.0,0.69001187,1.0,0.261817804,0.0,0.40038635,False,,5f7dc0a9912d5b026fc50346,,980402,53,,evan-feature22,full_pf_a,,0
29,20399,54,,,,1,1,0.0,0.0,0.0,-1.0,,0.0-56.0,,0.0,1365.55,0.0,0.641061544,0.0,0.71337992,0.0,0.277296461,1.0,0.47372791700000005,False,,5f7dc0a9912d5b026fc50346,,991530,54,,evan-feature22,full_pf_a,,0
30,20400,55,,,,2,2,0.0,0.0,0.0,-1.0,,0.0-57.0,,0.0,1253.985,0.0,0.6082438520000001,1.0,0.708471106,0.0,0.28745137,0.0,0.564174476,False,,5f7dc0a9912d5b026fc50346,,1002543,55,,evan-feature22,full_pf_a,,1
31,20401,56,,,,2,2,0.0,0.0,1.0,0.0,,0.0-58.0,,0.0,992.19,0.0,0.6051112120000001,0.0,0.7118147229999999,0.0,0.272390611,0.0,0.5595149939999999,False,,5f7dc0a9912d5b026fc50346,,1013298,56,,evan-feature22,full_pf_a,,0
32,20402,57,,,,2,2,0.0,1.0,1.0,0.0,,0.0-59.0,,0.0,749.345,0.0,0.582420852,1.0,0.635867583,0.0,0.31089574,1.0,0.5227206520000001,False,,5f7dc0a9912d5b026fc50346,,1023811,57,,evan-feature22,full_pf_a,,0
33,20403,58,,,,2,2,0.0,0.0,1.0,0.0,,0.0-60.0,,0.0,764.58,1.0,0.623195575,1.0,0.655026044,0.0,0.25,0.0,0.560387538,False,,5f7dc0a9912d5b026fc50346,,1034337,58,,evan-feature22,full_pf_a,,0
34,20404,59,,,,2,2,1.0,0.0,0.0,-1.0,,0.0-61.0,,0.0,2021.78,0.0,0.601889598,1.0,0.678198724,1.0,0.25,0.0,0.559922936,False,,5f7dc0a9912d5b026fc50346,,1046202,59,,evan-feature22,full_pf_a,,0
35,20405,60,,,,1,1,1.0,1.0,1.0,0.0,,0.0-62.0,,1.0,892.86,1.0,0.601259914,1.0,0.704681482,0.0,0.33908969299999997,1.0,0.505003715,False,,5f7dc0a9912d5b026fc50346,,1057019,60,,evan-feature22,full_pf_a,,1
36,20406,61,,,,1,1,1.0,0.0,1.0,0.0,,0.0-63.0,,1.0,1530.045,1.0,0.59645454,0.0,0.710437172,0.0,0.327441879,1.0,0.391749613,False,,5f7dc0a9912d5b026fc50346,,1068485,61,,evan-feature22,full_pf_a,,0
37,20407,62,,,,2,2,0.0,0.0,0.0,-1.0,,0.0-64.0,,0.0,1860.41,1.0,0.529473,1.0,0.636758527,0.0,0.301338063,0.0,0.365661481,False,,5f7dc0a9912d5b026fc50346,,1080136,62,,evan-feature22,full_pf_a,,1
38,20408,63,,,,1,1,1.0,0.0,1.0,0.0,,0.0-65.0,,1.0,719.725,1.0,0.541657162,0.0,0.634541962,1.0,0.343535366,0.0,0.371763742,False,,5f7dc0a9912d5b026fc50346,,1090619,63,,evan-feature22,full_pf_a,,1
39,20409,64,,,,1,1,1.0,0.0,1.0,0.0,,0.0-66.0,,1.0,1141.385,1.0,0.5707533260000001,0.0,0.589121171,0.0,0.326428396,1.0,0.43961622899999997,False,,5f7dc0a9912d5b026fc50346,,1101524,64,,evan-feature22,full_pf_a,,0
40,20410,65,,,,2,2,1.0,1.0,0.0,-1.0,,0.0-67.0,,-1.0,1730.655,1.0,0.5707533260000001,1.0,0.589121171,1.0,0.326428396,1.0,0.43961622899999997,False,,5f7dc0a9912d5b026fc50346,,1113021,65,,evan-feature22,full_pf_a,,1
41,20411,66,,,,2,2,1.0,1.0,0.0,-1.0,,0.0-68.0,,-1.0,905.675,0.0,0.506271295,0.0,0.641775594,1.0,0.37149690700000004,1.0,0.404330166,False,,5f7dc0a9912d5b026fc50346,,1123691,66,,evan-feature22,full_pf_a,,0
42,20412,67,,,,2,2,0.0,0.0,1.0,0.0,,0.0-69.0,,0.0,1219.905,1.0,0.455642565,1.0,0.623605825,0.0,0.358753011,0.0,0.346174041,False,,5f7dc0a9912d5b026fc50346,,1134674,67,,evan-feature22,full_pf_a,,0
43,20413,68,,,,2,2,0.0,1.0,0.0,-1.0,,0.0-70.0,,-1.0,934.97,0.0,0.483677308,0.0,0.5904681070000001,0.0,0.402218411,1.0,0.35344697,False,,5f7dc0a9912d5b026fc50346,,1145372,68,,evan-feature22,full_pf_a,,0
44,20414,69,,,,1,1,1.0,1.0,1.0,0.0,,0.0-71.0,,1.0,1417.89,1.0,0.394210977,1.0,0.558925494,1.0,0.540052017,0.0,0.35182128700000004,False,,5f7dc0a9912d5b026fc50346,,1156555,69,,evan-feature22,full_pf_a,,1
45,20415,70,,,,1,1,0.0,0.0,0.0,-1.0,,0.0-72.0,,0.0,1637.87,0.0,0.382300414,0.0,0.577670603,0.0,0.607608448,1.0,0.378261578,False,,5f7dc0a9912d5b026fc50346,,1167953,70,,evan-feature22,full_pf_a,,0
46,20416,71,,,,2,2,1.0,1.0,1.0,0.0,,0.0-73.0,,1.0,1228.82,1.0,0.357596762,0.0,0.5929076529999999,1.0,0.6579790010000001,1.0,0.401326777,False,,5f7dc0a9912d5b026fc50346,,1178945,71,,evan-feature22,full_pf_a,,1
47,20417,72,,,,1,1,0.0,1.0,0.0,-1.0,,0.0-74.0,,-1.0,1694.64,0.0,0.362033495,1.0,0.582308608,1.0,0.649195052,1.0,0.355158505,False,,5f7dc0a9912d5b026fc50346,,1190400,72,,evan-feature22,full_pf_a,,1
48,20418,73,,,,2,2,1.0,1.0,0.0,-1.0,,0.0-75.0,,-1.0,903.175,0.0,0.369620635,0.0,0.669100864,1.0,0.706059111,1.0,0.362516241,False,,5f7dc0a9912d5b026fc50346,,1201066,73,,evan-feature22,full_pf_a,,1
49,20419,74,,,,2,2,0.0,1.0,0.0,-1.0,,0.0-76.0,,-1.0,979.71,0.0,0.41477751399999996,0.0,0.7284416779999999,0.0,0.7182656940000001,1.0,0.36228040899999997,False,,5f7dc0a9912d5b026fc50346,,1211807,74,,evan-feature22,full_pf_a,,0
50,20420,75,,,,2,2,1.0,0.0,1.0,0.0,,0.0-77.0,,1.0,1249.43,0.0,0.37675460299999997,1.0,0.703250285,1.0,0.75,0.0,0.461979164,False,,5f7dc0a9912d5b026fc50346,,1222821,75,,evan-feature22,full_pf_a,,0
51,20421,76,,,,2,2,1.0,0.0,1.0,0.0,,0.0-78.0,,1.0,698.21,1.0,0.398716075,1.0,0.6723864890000001,1.0,0.674153818,0.0,0.519029516,False,,5f7dc0a9912d5b026fc50346,,1233292,76,,evan-feature22,full_pf_a,,0
52,20422,77,,,,2,2,0.0,0.0,1.0,0.0,,0.0-79.0,,0.0,748.19,0.0,0.34677856700000004,1.0,0.69057175,0.0,0.6822438540000001,0.0,0.477292237,False,,5f7dc0a9912d5b026fc50346,,1243802,77,,evan-feature22,full_pf_a,,0
53,20423,78,,,,2,2,1.0,1.0,0.0,-1.0,,0.0-80.0,,-1.0,1190.49,0.0,0.28580469199999997,0.0,0.68408818,1.0,0.684207565,1.0,0.49780448299999996,False,,5f7dc0a9912d5b026fc50346,,1254754,78,,evan-feature22,full_pf_a,,0
54,20425,80,,,,1,1,0.0,0.0,0.0,-1.0,,0.0-82.0,,0.0,1375.235,0.0,0.25,0.0,0.7405808970000001,0.0,0.679614108,1.0,0.436436964,False,,5f7dc0a9912d5b026fc50346,,1272908,80,,evan-feature22,full_pf_a,,1
55,20426,81,,,,2,2,0.0,1.0,0.0,-1.0,,0.0-83.0,,-1.0,883.6,1.0,0.29890393,1.0,0.730505706,0.0,0.7328203320000001,1.0,0.439256938,False,,5f7dc0a9912d5b026fc50346,,1283556,81,,evan-feature22,full_pf_a,,1
56,20427,82,,,,2,2,0.0,0.0,1.0,0.0,,0.0-84.0,,0.0,746.58,1.0,0.326762398,0.0,0.7148059609999999,0.0,0.75,0.0,0.44389608799999997,False,,5f7dc0a9912d5b026fc50346,,1294066,82,,evan-feature22,full_pf_a,,0
57,20428,83,,,,2,2,0.0,0.0,0.0,-1.0,,0.0-85.0,,0.0,1397.51,0.0,0.295168515,1.0,0.739760854,0.0,0.719947008,0.0,0.35277284600000003,False,,5f7dc0a9912d5b026fc50346,,1305227,83,,evan-feature22,full_pf_a,,0
58,20429,84,,,,2,2,1.0,0.0,0.0,-1.0,,0.0-86.0,,0.0,1491.7,0.0,0.25,1.0,0.70781482,1.0,0.75,0.0,0.286095925,False,,5f7dc0a9912d5b026fc50346,,1316493,84,,evan-feature22,full_pf_a,,0
59,20430,85,,,,2,2,1.0,0.0,0.0,-1.0,,0.0-87.0,,0.0,1234.37,0.0,0.25638190899999996,1.0,0.704088163,1.0,0.75,0.0,0.26872601399999996,False,,5f7dc0a9912d5b026fc50346,,1327493,85,,evan-feature22,full_pf_a,,0
60,20431,86,,,,2,2,1.0,0.0,1.0,0.0,,0.0-88.0,,1.0,796.295,0.0,0.271581126,1.0,0.669760107,1.0,0.733896663,0.0,0.273244572,False,,5f7dc0a9912d5b026fc50346,,1338053,86,,evan-feature22,full_pf_a,,0
61,20432,87,,,,1,1,0.0,0.0,0.0,-1.0,,0.0-89.0,,0.0,1002.48,0.0,0.257144401,0.0,0.600575706,1.0,0.74488122,1.0,0.25,False,,5f7dc0a9912d5b026fc50346,,1348816,87,,evan-feature22,full_pf_a,,1
62,20433,88,,,,2,2,0.0,0.0,0.0,-1.0,,0.0-90.0,,0.0,1208.315,0.0,0.25,1.0,0.616870026,0.0,0.723610234,0.0,0.25,False,,5f7dc0a9912d5b026fc50346,,1359787,88,,evan-feature22,full_pf_a,,1
63,20434,89,,,,1,1,0.0,0.0,1.0,0.0,,0.0-91.0,,0.0,844.115,0.0,0.25,0.0,0.583540187,1.0,0.7041042559999999,0.0,0.285961995,False,,5f7dc0a9912d5b026fc50346,,1370396,89,,evan-feature22,full_pf_a,,1
64,20435,90,,,,2,2,1.0,1.0,1.0,0.0,,0.0-92.0,,1.0,548.07,0.0,0.27254536,1.0,0.53875765,1.0,0.693783448,1.0,0.284961652,False,,5f7dc0a9912d5b026fc50346,,1380712,90,,evan-feature22,full_pf_a,,1
65,20436,91,,,,2,2,0.0,0.0,1.0,0.0,,0.0-93.0,,0.0,621.83,0.0,0.25,0.0,0.548431252,0.0,0.734221895,0.0,0.279445214,False,,5f7dc0a9912d5b026fc50346,,1391097,91,,evan-feature22,full_pf_a,,0
66,20437,92,,,,2,2,1.0,0.0,0.0,-1.0,,0.0-94.0,,0.0,1503.6,0.0,0.258640684,0.0,0.545878066,1.0,0.725245965,0.0,0.31487537,False,,5f7dc0a9912d5b026fc50346,,1402367,92,,evan-feature22,full_pf_a,,0
67,20438,93,,,,2,2,0.0,0.0,0.0,-1.0,,0.0-95.0,,0.0,816.595,0.0,0.251103711,1.0,0.5776290629999999,0.0,0.696320133,0.0,0.317831047,False,,5f7dc0a9912d5b026fc50346,,1412947,93,,evan-feature22,full_pf_a,,0
68,20439,94,,,,SLOW,SLOW,,,0.0,-1.0,,0.0-96.0,,-3.0,,1.0,0.276630292,1.0,0.617329858,1.0,0.73838088,0.0,0.261471582,False,,5f7dc0a9912d5b026fc50346,,1418754,94,,evan-feature22,full_pf_a,,1
69,20440,95,,,,2,2,0.0,1.0,0.0,-1.0,,0.0-97.0,,-1.0,1118.025,1.0,0.297716424,1.0,0.618863717,0.0,0.7402358259999999,1.0,0.262600834,False,,5f7dc0a9912d5b026fc50346,,1429635,95,,evan-feature22,full_pf_a,,1
70,20441,96,,,,1,1,0.0,1.0,1.0,0.0,,0.0-98.0,,0.0,529.535,0.0,0.290935512,1.0,0.695370945,1.0,0.706570507,0.0,0.280030553,False,,5f7dc0a9912d5b026fc50346,,1439934,96,,evan-feature22,full_pf_a,,1
71,20442,97,,,,2,2,1.0,0.0,0.0,-1.0,,0.0-99.0,,0.0,1106.845,0.0,0.25,1.0,0.6465277079999999,1.0,0.67766682,0.0,0.25,False,,5f7dc0a9912d5b026fc50346,,1450811,97,,evan-feature22,full_pf_a,,1
72,20443,98,,,,1,1,0.0,0.0,1.0,0.0,,0.0-100.0,,0.0,1293.31,0.0,0.26463816,0.0,0.636100213,1.0,0.646048507,0.0,0.265607101,False,,5f7dc0a9912d5b026fc50346,,1461868,98,,evan-feature22,full_pf_a,,1
73,20444,99,,,,1,1,0.0,1.0,1.0,0.0,,0.0-101.0,,0.0,1361.555,0.0,0.314340707,1.0,0.667795927,1.0,0.613630805,0.0,0.25,False,,5f7dc0a9912d5b026fc50346,,1472999,99,,evan-feature22,full_pf_a,,0
74,20445,100,,,,2,2,1.0,0.0,0.0,-1.0,,0.0-102.0,,0.0,1098.575,0.0,0.28685784,1.0,0.6622549529999999,1.0,0.652154117,0.0,0.25,False,,5f7dc0a9912d5b026fc50346,,1483863,100,,evan-feature22,full_pf_a,,1
75,20446,101,,,,1,1,0.0,1.0,0.0,-1.0,,0.0-103.0,,-1.0,1730.08,0.0,0.304106554,1.0,0.631289538,1.0,0.707041942,0.0,0.29314237,False,,5f7dc0a9912d5b026fc50346,,1495356,101,,evan-feature22,full_pf_a,,1
76,20447,102,,,,2,2,1.0,0.0,0.0,-1.0,,0.0-104.0,,0.0,1028.15,0.0,0.304806932,1.0,0.571167718,1.0,0.680472346,0.0,0.25,False,,5f7dc0a9912d5b026fc50346,,1506150,102,,evan-feature22,full_pf_a,,1
77,20448,103,,,,2,2,1.0,0.0,0.0,-1.0,,0.0-105.0,,0.0,906.47,0.0,0.37919861,0.0,0.5724849710000001,1.0,0.705638003,0.0,0.30179300600000003,False,,5f7dc0a9912d5b026fc50346,,1516817,103,,evan-feature22,full_pf_a,,0
78,20449,104,,,,1,1,1.0,0.0,0.0,-1.0,,0.0-106.0,,0.0,1792.54,1.0,0.464277969,0.0,0.554034373,1.0,0.7372627340000001,1.0,0.264699741,False,,5f7dc0a9912d5b026fc50346,,1528377,104,,evan-feature22,full_pf_a,,1
79,20450,105,,,,1,1,0.0,1.0,0.0,-1.0,,0.0-107.0,,-1.0,1174.88,0.0,0.465104323,1.0,0.530793115,1.0,0.75,0.0,0.31683071,False,,5f7dc0a9912d5b026fc50346,,1539320,105,,evan-feature22,full_pf_a,,0
80,20451,106,,,,1,1,1.0,0.0,1.0,0.0,,0.0-108.0,,1.0,1032.435,1.0,0.465104323,0.0,0.530793115,1.0,0.75,0.0,0.31683071,False,,5f7dc0a9912d5b026fc50346,,1550118,106,,evan-feature22,full_pf_a,,0
81,20452,107,,,,1,1,1.0,0.0,1.0,0.0,,0.0-109.0,,1.0,785.82,1.0,0.46833986,0.0,0.570249239,1.0,0.7244472590000001,0.0,0.364114163,False,,5f7dc0a9912d5b026fc50346,,1560671,107,,evan-feature22,full_pf_a,,0
82,20453,108,,,,1,1,0.0,1.0,1.0,0.0,,0.0-110.0,,0.0,946.765,0.0,0.445444024,1.0,0.649673355,1.0,0.6845441290000001,0.0,0.300660449,False,,5f7dc0a9912d5b026fc50346,,1571381,108,,evan-feature22,full_pf_a,,0
83,20454,109,,,,1,1,1.0,1.0,1.0,0.0,,0.0-111.0,,1.0,660.535,1.0,0.39909721299999995,1.0,0.6715179509999999,1.0,0.742310028,0.0,0.35496088299999995,False,,5f7dc0a9912d5b026fc50346,,1581806,109,,evan-feature22,full_pf_a,,0
84,20455,110,,,,2,2,1.0,1.0,0.0,-1.0,,0.0-112.0,,-1.0,773.455,0.0,0.37956104799999996,1.0,0.694725302,1.0,0.7181651309999999,1.0,0.38726906299999997,False,,5f7dc0a9912d5b026fc50346,,1592343,110,,evan-feature22,full_pf_a,,1
85,20456,111,,,,2,2,1.0,1.0,0.0,-1.0,,0.0-113.0,,-1.0,953.005,0.0,0.404995034,0.0,0.724375412,1.0,0.6910946859999999,1.0,0.387187347,False,,5f7dc0a9912d5b026fc50346,,1603058,111,,evan-feature22,full_pf_a,,0
86,20457,112,,,,2,2,1.0,1.0,1.0,0.0,,0.0-114.0,,1.0,1000.14,0.0,0.461740803,1.0,0.75,1.0,0.75,1.0,0.34872038200000005,False,,5f7dc0a9912d5b026fc50346,,1613819,112,,evan-feature22,full_pf_a,,0
87,20458,113,,,,2,2,1.0,0.0,1.0,0.0,,0.0-115.0,,1.0,775.44,0.0,0.43821380600000004,0.0,0.738833273,1.0,0.728286963,0.0,0.399538128,False,,5f7dc0a9912d5b026fc50346,,1624361,113,,evan-feature22,full_pf_a,,0
88,20459,114,,,,1,1,1.0,0.0,0.0,-1.0,,0.0-116.0,,0.0,999.94,1.0,0.41709882,0.0,0.736666736,1.0,0.75,0.0,0.389095584,False,,5f7dc0a9912d5b026fc50346,,1635125,114,,evan-feature22,full_pf_a,,1
89,20460,115,,,,1,1,1.0,0.0,0.0,-1.0,,0.0-117.0,,0.0,1239.63,1.0,0.39749009799999996,0.0,0.744320029,1.0,0.75,1.0,0.363848678,False,,5f7dc0a9912d5b026fc50346,,1646134,115,,evan-feature22,full_pf_a,,0
90,20461,116,,,,1,1,0.0,0.0,1.0,0.0,,0.0-118.0,,0.0,849.02,0.0,0.392653706,0.0,0.75,1.0,0.75,1.0,0.384386976,False,,5f7dc0a9912d5b026fc50346,,1656748,116,,evan-feature22,full_pf_a,,0
91,20462,117,,,,1,1,1.0,1.0,0.0,-1.0,,0.0-119.0,,-1.0,922.355,1.0,0.31190902600000003,1.0,0.75,1.0,0.732413819,0.0,0.413082932,False,,5f7dc0a9912d5b026fc50346,,1667439,117,,evan-feature22,full_pf_a,,0
92,20463,118,,,,1,1,0.0,1.0,1.0,0.0,,0.0-120.0,,0.0,683.55,0.0,0.366917648,1.0,0.740073855,1.0,0.75,0.0,0.352861979,False,,5f7dc0a9912d5b026fc50346,,1677889,118,,evan-feature22,full_pf_a,,0
93,20464,119,,,,1,1,0.0,1.0,1.0,0.0,,0.0-121.0,,0.0,567.015,0.0,0.3645172,1.0,0.721770713,1.0,0.75,1.0,0.404074511,False,,5f7dc0a9912d5b026fc50346,,1688223,119,,evan-feature22,full_pf_a,,0
94,20465,120,,,,2,2,1.0,0.0,1.0,0.0,,0.0-122.0,,1.0,677.915,1.0,0.35205600299999995,1.0,0.68983859,1.0,0.739735447,0.0,0.366895945,False,,5f7dc0a9912d5b026fc50346,,1698672,120,,evan-feature22,full_pf_a,,1
95,20466,121,,,,2,2,0.0,1.0,1.0,0.0,,0.0-123.0,,0.0,1706.13,1.0,0.40998722600000004,1.0,0.720859127,0.0,0.673854955,1.0,0.368528541,False,,5f7dc0a9912d5b026fc50346,,1710141,121,,evan-feature22,full_pf_a,,0
96,20467,122,,,,1,1,1.0,1.0,1.0,0.0,,0.0-124.0,,1.0,451.32,1.0,0.353625316,1.0,0.75,0.0,0.695605473,0.0,0.38303674200000004,False,,5f7dc0a9912d5b026fc50346,,1720359,122,,evan-feature22,full_pf_a,,1
97,20468,123,,,,1,1,0.0,0.0,1.0,0.0,,0.0-125.0,,0.0,753.275,0.0,0.359216989,0.0,0.75,1.0,0.6987915090000001,1.0,0.35169046200000004,False,,5f7dc0a9912d5b026fc50346,,1730875,123,,evan-feature22,full_pf_a,,0
98,20469,124,,,,2,2,0.0,1.0,1.0,0.0,,0.0-126.0,,0.0,880.335,0.0,0.35834496899999996,1.0,0.75,0.0,0.707067742,1.0,0.416763636,False,,5f7dc0a9912d5b026fc50346,,1741518,124,,evan-feature22,full_pf_a,,1
99,20470,125,,,,1,1,1.0,1.0,0.0,-1.0,,0.0-127.0,,-1.0,982.295,1.0,0.38741613799999997,1.0,0.7177369570000001,1.0,0.734902455,0.0,0.49438664299999996,False,,5f7dc0a9912d5b026fc50346,,1752263,125,,evan-feature22,full_pf_a,,1
100,20471,126,,,,2,2,1.0,1.0,1.0,0.0,,0.0-128.0,,1.0,1042.915,0.0,0.405255252,0.0,0.7300466640000001,1.0,0.7027748070000001,1.0,0.504359668,False,,5f7dc0a9912d5b026fc50346,,1763073,126,,evan-feature22,full_pf_a,,1
101,20472,127,,,,2,2,1.0,1.0,1.0,0.0,,0.0-129.0,,1.0,1870.29,0.0,0.40697073,1.0,0.7260142190000001,1.0,0.724461982,1.0,0.522779179,False,,5f7dc0a9912d5b026fc50346,,1774711,127,,evan-feature22,full_pf_a,,0
102,20473,128,,,,2,2,0.0,0.0,1.0,0.0,,0.0-130.0,,0.0,882.36,0.0,0.43906215299999996,1.0,0.7252802340000001,0.0,0.719079934,0.0,0.5712990579999999,False,,5f7dc0a9912d5b026fc50346,,1785357,128,,evan-feature22,full_pf_a,,0
103,20474,129,,,,1,1,0.0,0.0,0.0,-1.0,,0.0-131.0,,0.0,1433.53,0.0,0.4076705,0.0,0.73280499,1.0,0.681313127,0.0,0.523891346,False,,5f7dc0a9912d5b026fc50346,,1796555,129,,evan-feature22,full_pf_a,,1
104,20475,130,,,,2,2,1.0,0.0,0.0,-1.0,,0.0-132.0,,0.0,2292.03,1.0,0.399102911,0.0,0.730498344,1.0,0.661080239,0.0,0.46742603,False,,5f7dc0a9912d5b026fc50346,,1808614,130,,evan-feature22,full_pf_a,,1
105,20476,131,,,,2,2,1.0,0.0,0.0,-1.0,,0.0-133.0,,0.0,2211.405,1.0,0.356477282,1.0,0.712296395,1.0,0.641812684,0.0,0.44868414,False,,5f7dc0a9912d5b026fc50346,,1820590,131,,evan-feature22,full_pf_a,,0
106,20477,132,,,,1,1,1.0,1.0,1.0,0.0,,0.0-134.0,,1.0,882.04,1.0,0.462760722,1.0,0.692349322,1.0,0.700947931,0.0,0.394680266,False,,5f7dc0a9912d5b026fc50346,,1831239,132,,evan-feature22,full_pf_a,,1
107,20478,133,,,,1,1,1.0,1.0,1.0,0.0,,0.0-135.0,,1.0,714.285,1.0,0.422306413,1.0,0.718375916,1.0,0.706340917,0.0,0.367787185,False,,5f7dc0a9912d5b026fc50346,,1841719,133,,evan-feature22,full_pf_a,,0
108,20480,135,,,,2,2,1.0,0.0,1.0,0.0,,0.0-137.0,,1.0,1379.7,1.0,0.4582233,0.0,0.643834117,1.0,0.75,0.0,0.39615823299999997,False,,5f7dc0a9912d5b026fc50346,,1877275,135,,evan-feature22,full_pf_a,,1
109,20481,136,,,,2,2,1.0,1.0,1.0,0.0,,0.0-138.0,,1.0,613.75,0.0,0.43813437899999996,1.0,0.651283804,1.0,0.729674191,1.0,0.37711048,False,,5f7dc0a9912d5b026fc50346,,1887653,136,,evan-feature22,full_pf_a,,0
110,20482,137,,,,2,2,1.0,1.0,1.0,0.0,,0.0-139.0,,1.0,676.01,1.0,0.471199094,1.0,0.6470010979999999,1.0,0.715008097,1.0,0.410656191,False,,5f7dc0a9912d5b026fc50346,,1898095,137,,evan-feature22,full_pf_a,,0
111,20483,138,,,,1,1,1.0,0.0,1.0,0.0,,0.0-140.0,,1.0,1306.605,1.0,0.42486406,0.0,0.629771829,0.0,0.6550939960000001,1.0,0.459093873,False,,5f7dc0a9912d5b026fc50346,,1909167,138,,evan-feature22,full_pf_a,,1
112,20484,139,,,,1,1,1.0,0.0,1.0,0.0,,0.0-141.0,,1.0,544.92,1.0,0.4803197,0.0,0.645842715,0.0,0.6421749920000001,0.0,0.443092151,False,,5f7dc0a9912d5b026fc50346,,1919476,139,,evan-feature22,full_pf_a,,0
113,20485,140,,,,2,2,1.0,0.0,0.0,-1.0,,0.0-142.0,,0.0,1221.46,1.0,0.521848997,1.0,0.735801074,1.0,0.6691348460000001,0.0,0.45259351600000003,False,,5f7dc0a9912d5b026fc50346,,1930465,140,,evan-feature22,full_pf_a,,1
114,20486,141,,,,1,1,0.0,0.0,1.0,0.0,,0.0-143.0,,0.0,1294.455,0.0,0.49565621299999996,0.0,0.742400847,0.0,0.661512553,0.0,0.483110831,False,,5f7dc0a9912d5b026fc50346,,1941523,141,,evan-feature22,full_pf_a,,1
115,20487,142,,,,2,2,0.0,1.0,1.0,0.0,,0.0-144.0,,0.0,600.425,1.0,0.521564361,1.0,0.731078632,0.0,0.6774886809999999,1.0,0.483263956,False,,5f7dc0a9912d5b026fc50346,,1951887,142,,evan-feature22,full_pf_a,,1
116,20488,143,,,,1,1,0.0,0.0,1.0,0.0,,0.0-145.0,,0.0,792.795,0.0,0.558893102,0.0,0.719810023,0.0,0.67461031,1.0,0.499349834,False,,5f7dc0a9912d5b026fc50346,,1962442,143,,evan-feature22,full_pf_a,,1
117,20489,144,,,,2,2,1.0,0.0,1.0,0.0,,0.0-146.0,,1.0,512.655,0.0,0.611031046,1.0,0.75,1.0,0.688072995,0.0,0.5321422729999999,False,,5f7dc0a9912d5b026fc50346,,1972718,144,,evan-feature22,full_pf_a,,1
118,20490,145,,,,1,1,0.0,1.0,0.0,-1.0,,0.0-147.0,,-1.0,1299.45,0.0,0.633223941,1.0,0.713567728,1.0,0.75,0.0,0.48185314700000004,False,,5f7dc0a9912d5b026fc50346,,1983783,145,,evan-feature22,full_pf_a,,1
119,20491,146,,,,2,2,1.0,1.0,1.0,0.0,,0.0-148.0,,1.0,562.16,0.0,0.664001694,0.0,0.705509768,1.0,0.75,1.0,0.500211065,False,,5f7dc0a9912d5b026fc50346,,1994110,146,,evan-feature22,full_pf_a,,1
120,20492,147,,,,2,2,1.0,0.0,1.0,0.0,,0.0-149.0,,1.0,809.99,1.0,0.664001694,1.0,0.705509768,1.0,0.75,0.0,0.500211065,False,,5f7dc0a9912d5b026fc50346,,2004686,147,,evan-feature22,full_pf_a,,0
121,20493,148,,,,2,2,0.0,1.0,1.0,0.0,,0.0-150.0,,0.0,737.52,1.0,0.696508041,1.0,0.71066027,0.0,0.717028709,1.0,0.49792991,False,,5f7dc0a9912d5b026fc50346,,2015191,148,,evan-feature22,full_pf_a,,0
122,20494,149,,,,2,2,1.0,0.0,0.0,-1.0,,0.0-151.0,,0.0,1400.96,1.0,0.699883272,1.0,0.75,1.0,0.713543895,0.0,0.496962643,False,,5f7dc0a9912d5b026fc50346,,2026356,149,,evan-feature22,full_pf_a,,0
123,20495,150,,,,2,2,0.0,0.0,0.0,-1.0,,0.0-152.0,,0.0,1643.935,1.0,0.741163419,1.0,0.75,0.0,0.64691024,0.0,0.513858197,False,,5f7dc0a9912d5b026fc50346,,2037764,150,,evan-feature22,full_pf_a,,0
124,20496,151,,,,2,2,0.0,0.0,0.0,-1.0,,0.0-153.0,,0.0,868.1,1.0,0.75,1.0,0.70816558,0.0,0.594499079,0.0,0.48502124,False,,5f7dc0a9912d5b026fc50346,,2048401,151,,evan-feature22,full_pf_a,,0
125,20497,152,,,,1,1,1.0,1.0,1.0,0.0,,0.0-154.0,,1.0,553.725,1.0,0.75,1.0,0.721848901,0.0,0.62197249,1.0,0.48263586399999997,False,,5f7dc0a9912d5b026fc50346,,2058722,152,,evan-feature22,full_pf_a,,1
126,20498,153,,,,1,1,1.0,1.0,1.0,0.0,,0.0-155.0,,1.0,904.475,1.0,0.75,1.0,0.74813071,1.0,0.584357161,0.0,0.411477782,False,,5f7dc0a9912d5b026fc50346,,2069388,153,,evan-feature22,full_pf_a,,0
127,20499,154,,,,2,2,0.0,1.0,1.0,0.0,,0.0-156.0,,0.0,623.37,1.0,0.75,1.0,0.75,0.0,0.52287236,1.0,0.488290656,False,,5f7dc0a9912d5b026fc50346,,2079774,154,,evan-feature22,full_pf_a,,1
128,20500,155,,,,1,1,1.0,1.0,1.0,0.0,,0.0-157.0,,1.0,540.66,1.0,0.75,1.0,0.75,0.0,0.544321581,0.0,0.53143059,False,,5f7dc0a9912d5b026fc50346,,2090078,155,,evan-feature22,full_pf_a,,1
129,20501,156,,,,1,1,1.0,0.0,1.0,0.0,,0.0-158.0,,1.0,900.87,1.0,0.726754564,0.0,0.75,1.0,0.5129306370000001,1.0,0.530592445,False,,5f7dc0a9912d5b026fc50346,,2100743,156,,evan-feature22,full_pf_a,,0
130,20502,157,,,,1,1,0.0,1.0,0.0,-1.0,,0.0-159.0,,-1.0,1480.675,0.0,0.75,1.0,0.7392590729999999,1.0,0.479875835,1.0,0.547007051,False,,5f7dc0a9912d5b026fc50346,,2111990,157,,evan-feature22,full_pf_a,,0
131,20503,158,,,,2,2,0.0,1.0,0.0,-1.0,,0.0-160.0,,-1.0,1151.475,1.0,0.75,1.0,0.7393376979999999,0.0,0.546045419,1.0,0.541267353,False,,5f7dc0a9912d5b026fc50346,,2122912,158,,evan-feature22,full_pf_a,,1
132,20504,159,,,,1,1,1.0,1.0,1.0,0.0,,0.0-161.0,,1.0,2153.255,1.0,0.75,1.0,0.75,0.0,0.485725895,0.0,0.527625395,False,,5f7dc0a9912d5b026fc50346,,2134829,159,,evan-feature22,full_pf_a,,1
133,20505,160,,,,2,2,0.0,1.0,0.0,-1.0,,0.0-162.0,,-1.0,772.91,1.0,0.75,1.0,0.725087974,0.0,0.488603595,1.0,0.504019206,False,,5f7dc0a9912d5b026fc50346,,2145367,160,,evan-feature22,full_pf_a,,1
134,20506,161,,,,1,1,1.0,1.0,1.0,0.0,,0.0-163.0,,1.0,410.68,1.0,0.745504295,1.0,0.75,0.0,0.452379914,1.0,0.50131194,False,,5f7dc0a9912d5b026fc50346,,2155544,161,,evan-feature22,full_pf_a,,1
135,20507,162,,,,2,2,0.0,1.0,0.0,-1.0,,0.0-164.0,,-1.0,1144.255,1.0,0.728513874,0.0,0.75,0.0,0.44125567200000004,1.0,0.531454591,False,,5f7dc0a9912d5b026fc50346,,2166453,162,,evan-feature22,full_pf_a,,1
136,20508,163,,,,1,1,0.0,1.0,1.0,0.0,,0.0-165.0,,0.0,781.33,0.0,0.73790804,1.0,0.75,0.0,0.413036656,1.0,0.524619035,False,,5f7dc0a9912d5b026fc50346,,2177000,163,,evan-feature22,full_pf_a,,1
137,20509,164,,,,1,1,0.0,1.0,1.0,0.0,,0.0-166.0,,0.0,753.33,0.0,0.7080961309999999,1.0,0.708666865,1.0,0.431915581,1.0,0.481819489,False,,5f7dc0a9912d5b026fc50346,,2187523,164,,evan-feature22,full_pf_a,,0
138,20510,165,,,,2,2,0.0,0.0,1.0,0.0,,0.0-167.0,,0.0,1606.835,1.0,0.721378003,1.0,0.71605913,0.0,0.36642387,0.0,0.5036739929999999,False,,5f7dc0a9912d5b026fc50346,,2198894,165,,evan-feature22,full_pf_a,,1
139,20511,166,,,,2,2,0.0,0.0,0.0,-1.0,,0.0-168.0,,0.0,1211.12,1.0,0.7340618959999999,1.0,0.699323252,0.0,0.35298046299999997,0.0,0.511241692,False,,5f7dc0a9912d5b026fc50346,,2209874,166,,evan-feature22,full_pf_a,,0
140,20512,167,,,,2,2,0.0,0.0,0.0,-1.0,,0.0-169.0,,0.0,1986.09,0.0,0.75,0.0,0.70412698,0.0,0.380734814,0.0,0.529580116,False,,5f7dc0a9912d5b026fc50346,,2221622,167,,evan-feature22,full_pf_a,,0
141,20513,168,,,,2,2,1.0,1.0,0.0,-1.0,,0.0-170.0,,-1.0,1039.635,1.0,0.7436654909999999,1.0,0.711182751,1.0,0.41125331,1.0,0.49554405,False,,5f7dc0a9912d5b026fc50346,,2232434,168,,evan-feature22,full_pf_a,,0
142,20514,169,,,,1,1,1.0,1.0,1.0,0.0,,0.0-171.0,,1.0,855.4,1.0,0.731607915,1.0,0.651774583,1.0,0.35688023,1.0,0.45194491600000003,False,,5f7dc0a9912d5b026fc50346,,2243054,169,,evan-feature22,full_pf_a,,1
143,20515,170,,,,2,2,1.0,0.0,0.0,-1.0,,0.0-172.0,,0.0,789.635,0.0,0.75,0.0,0.75,1.0,0.283145374,0.0,0.528608005,False,,5f7dc0a9912d5b026fc50346,,2253606,170,,evan-feature22,full_pf_a,,1
144,20516,171,,,,2,2,1.0,0.0,1.0,0.0,,0.0-173.0,,1.0,1581.965,1.0,0.7491416890000001,1.0,0.7423785959999999,1.0,0.29135870399999997,0.0,0.498888318,False,,5f7dc0a9912d5b026fc50346,,2264951,171,,evan-feature22,full_pf_a,,0
145,20517,172,,,,1,1,1.0,1.0,0.0,-1.0,,0.0-174.0,,-1.0,650.995,1.0,0.708569387,1.0,0.717682277,0.0,0.294421699,1.0,0.493838163,False,,5f7dc0a9912d5b026fc50346,,2275368,172,,evan-feature22,full_pf_a,,1
146,20518,173,,,,2,2,0.0,0.0,1.0,0.0,,0.0-175.0,,0.0,649.32,0.0,0.75,1.0,0.7383382159999999,0.0,0.356098707,0.0,0.442533405,False,,5f7dc0a9912d5b026fc50346,,2285782,173,,evan-feature22,full_pf_a,,1
147,20519,174,,,,2,2,0.0,1.0,1.0,0.0,,0.0-176.0,,0.0,474.165,1.0,0.744527075,1.0,0.75,0.0,0.334127506,1.0,0.393165805,False,,5f7dc0a9912d5b026fc50346,,2296022,174,,evan-feature22,full_pf_a,,0
148,20520,175,,,,1,1,1.0,1.0,1.0,0.0,,0.0-177.0,,1.0,419.265,1.0,0.75,1.0,0.75,0.0,0.33571021799999995,0.0,0.350393962,False,,5f7dc0a9912d5b026fc50346,,2306205,175,,evan-feature22,full_pf_a,,1
149,20521,176,,,,2,2,1.0,0.0,0.0,-1.0,,0.0-178.0,,0.0,1077.065,1.0,0.75,0.0,0.75,1.0,0.313628297,0.0,0.36349657399999996,False,,5f7dc0a9912d5b026fc50346,,2317044,176,,evan-feature22,full_pf_a,,1
150,20522,177,,,,1,1,1.0,1.0,1.0,0.0,,0.0-179.0,,1.0,1588.74,1.0,0.75,1.0,0.734284182,1.0,0.262667667,0.0,0.380199119,False,,5f7dc0a9912d5b026fc50346,,2328401,177,,evan-feature22,full_pf_a,,1
151,20523,178,,,,1,1,1.0,0.0,1.0,0.0,,0.0-180.0,,1.0,660.735,1.0,0.75,0.0,0.75,1.0,0.25,0.0,0.394494013,False,,5f7dc0a9912d5b026fc50346,,2338829,178,,evan-feature22,full_pf_a,,0
152,20524,179,,,,2,2,0.0,1.0,1.0,0.0,,0.0-181.0,,0.0,818.875,1.0,0.722298145,1.0,0.7357822340000001,0.0,0.25,1.0,0.319142121,False,,5f7dc0a9912d5b026fc50346,,2349413,179,,evan-feature22,full_pf_a,,1
153,20525,180,,,,1,1,1.0,1.0,1.0,0.0,,0.0-182.0,,1.0,500.015,1.0,0.73149275,1.0,0.724276446,0.0,0.305856907,0.0,0.281315057,False,,5f7dc0a9912d5b026fc50346,,2359678,180,,evan-feature22,full_pf_a,,1
154,20526,181,,,,1,1,1.0,1.0,1.0,0.0,,0.0-183.0,,1.0,515.725,1.0,0.7458732690000001,1.0,0.7336382459999999,0.0,0.272571964,0.0,0.266021999,False,,5f7dc0a9912d5b026fc50346,,2369958,181,,evan-feature22,full_pf_a,,0
155,20527,182,,,,2,2,0.0,1.0,0.0,-1.0,,0.0-184.0,,-1.0,820.78,1.0,0.705579037,1.0,0.720778292,0.0,0.320238144,1.0,0.30971744,False,,5f7dc0a9912d5b026fc50346,,2380544,182,,evan-feature22,full_pf_a,,1
156,20528,183,,,,2,2,0.0,0.0,0.0,-1.0,,0.0-185.0,,0.0,882.66,0.0,0.700425648,1.0,0.7198784009999999,0.0,0.272590393,0.0,0.304182931,False,,5f7dc0a9912d5b026fc50346,,2391189,183,,evan-feature22,full_pf_a,,0
157,20529,184,,,,2,2,0.0,0.0,0.0,-1.0,,0.0-186.0,,0.0,964.845,1.0,0.735590785,1.0,0.722714973,0.0,0.25,0.0,0.323421091,False,,5f7dc0a9912d5b026fc50346,,2401917,184,,evan-feature22,full_pf_a,,0
158,20530,185,,,,2,2,0.0,0.0,0.0,-1.0,,0.0-187.0,,0.0,875.375,0.0,0.724807662,1.0,0.63146213,0.0,0.36836492600000004,0.0,0.34592153299999995,False,,5f7dc0a9912d5b026fc50346,,2412558,185,,evan-feature22,full_pf_a,,0
159,20531,186,,,,1,1,0.0,0.0,1.0,0.0,,0.0-188.0,,0.0,1130.71,0.0,0.7352796909999999,0.0,0.555111392,1.0,0.36003922,0.0,0.31433779999999995,False,,5f7dc0a9912d5b026fc50346,,2423452,186,,evan-feature22,full_pf_a,,1
160,20532,187,notice,,,,,,,,,,0.0-189.0,"{""Q0"":""Order switched frequency""}",,12671.0,,,,,,,,,False,,5f7dc0a9912d5b026fc50346,,2436126,187,Q,survey-text,full_pf_a,,1
161,20533,188,track1,,[1],,,,,,,,0.0-190.0,"{""Q0"":""no""}",,3076.0,,,,,,,,,False,,5f7dc0a9912d5b026fc50346,,2439206,188,Q,evan-quiz,full_pf_a,,1
162,20534,189,track2,,[0],,,,,,,,0.0-191.0,"{""Q0"":""yes""}",,3151.0,,,,,,,,,False,,5f7dc0a9912d5b026fc50346,,2442360,189,Q,evan-quiz,full_pf_a,,1
163,20535,190,strat,,,,,,,,,,0.0-192.0,"{""Q0"":""Positive outcome left (+1) negative outcome right (-1) until wrong then switch""}",,32406.0,,,,,,,,,False,,5f7dc0a9912d5b026fc50346,,2474769,190,Q,survey-text,full_pf_a,,1
