,index,Unnamed: 0,Q_name,button_pressed,choice_idxs,chosen_pos,chosen_state,chosen_state_f_1_outcome,chosen_state_f_2_outcome,f_1_reward,f_2_reward,incor_questions,internal_node_id,responses,reward_received,rt,s_1_f_1_outcome,s_1_f_1_prob,s_1_f_2_outcome,s_1_f_2_prob,s_2_f_1_outcome,s_2_f_1_prob,s_2_f_2_outcome,s_2_f_2_prob,safe_first,stimulus,subjectID,success,time_elapsed,trial_index,trial_num,trial_type,version,view_history,switching
0,12441,25,,,,1,1,1.0,1.0,1.0,0.0,,0.0-27.0,,1.0,1038.77,1.0,0.6,1.0,0.6,0.0,0.4,0.0,0.4,True,,5f1caf3bee498903695ad126,,1165724,25,,evan-feature22,full_rf_a,,0
1,12442,26,,,,1,1,1.0,1.0,1.0,0.0,,0.0-28.0,,1.0,707.925,1.0,0.608053294,1.0,0.63424552,0.0,0.397152172,1.0,0.347069101,True,,5f1caf3bee498903695ad126,,1176265,26,,evan-feature22,full_rf_a,,0
2,12443,27,,,,1,1,0.0,1.0,1.0,0.0,,0.0-29.0,,0.0,537.7100001,0.0,0.642237155,1.0,0.648566321,0.0,0.389407674,1.0,0.285525717,True,,5f1caf3bee498903695ad126,,1186643,27,,evan-feature22,full_rf_a,,0
3,12444,28,,,,1,1,0.0,0.0,1.0,0.0,,0.0-30.0,,0.0,560.8599998999999,0.0,0.661086576,0.0,0.630492543,0.0,0.399058924,1.0,0.25,True,,5f1caf3bee498903695ad126,,1197042,28,,evan-feature22,full_rf_a,,0
4,12445,29,,,,1,1,0.0,1.0,0.0,-1.0,,0.0-31.0,,-1.0,454.015,0.0,0.631324137,1.0,0.6269842929999999,0.0,0.38734784299999997,0.0,0.25,True,,5f1caf3bee498903695ad126,,1207295,29,,evan-feature22,full_rf_a,,0
5,12446,30,,,,1,1,1.0,1.0,0.0,-1.0,,0.0-32.0,,-1.0,617.4000001,1.0,0.6381991370000001,1.0,0.68987999,0.0,0.384107265,0.0,0.271332943,True,,5f1caf3bee498903695ad126,,1217728,30,,evan-feature22,full_rf_a,,0
6,12447,31,,,,2,2,1.0,0.0,1.0,0.0,,0.0-33.0,,1.0,847.3150001,1.0,0.66034901,1.0,0.742641349,1.0,0.360225629,0.0,0.25,True,,5f1caf3bee498903695ad126,,1228406,31,,evan-feature22,full_rf_a,,1
7,12448,32,,,,2,2,0.0,0.0,1.0,0.0,,0.0-34.0,,0.0,1133.12,0.0,0.638612418,1.0,0.75,0.0,0.367273939,0.0,0.25,True,,5f1caf3bee498903695ad126,,1239374,32,,evan-feature22,full_rf_a,,0
8,12449,33,,,,2,2,1.0,0.0,0.0,-1.0,,0.0-35.0,,0.0,1140.635,1.0,0.624340629,1.0,0.75,1.0,0.425829545,0.0,0.25,True,,5f1caf3bee498903695ad126,,1250309,33,,evan-feature22,full_rf_a,,0
9,12450,34,,,,2,2,1.0,0.0,0.0,-1.0,,0.0-36.0,,0.0,1489.005,1.0,0.621999804,0.0,0.75,1.0,0.368609357,0.0,0.25,True,,5f1caf3bee498903695ad126,,1261613,34,,evan-feature22,full_rf_a,,0
10,12451,35,,,,2,2,0.0,0.0,1.0,0.0,,0.0-37.0,,0.0,1203.47,0.0,0.62666403,1.0,0.75,0.0,0.311151498,0.0,0.25,True,,5f1caf3bee498903695ad126,,1272639,35,,evan-feature22,full_rf_a,,0
11,12452,36,,,,2,2,0.0,0.0,0.0,-1.0,,0.0-38.0,,0.0,800.64,0.0,0.6819650009999999,1.0,0.75,0.0,0.310763048,0.0,0.25,True,,5f1caf3bee498903695ad126,,1283246,36,,evan-feature22,full_rf_a,,0
12,12453,37,,,,2,2,0.0,1.0,1.0,0.0,,0.0-39.0,,0.0,1097.485,1.0,0.740626951,1.0,0.75,0.0,0.25,1.0,0.25,True,,5f1caf3bee498903695ad126,,1294171,37,,evan-feature22,full_rf_a,,0
13,12454,38,,,,2,2,0.0,0.0,1.0,0.0,,0.0-40.0,,0.0,924.535,1.0,0.739599242,1.0,0.742034978,0.0,0.25397114600000004,0.0,0.25,True,,5f1caf3bee498903695ad126,,1304912,38,,evan-feature22,full_rf_a,,0
14,12455,39,,,,1,1,1.0,1.0,1.0,0.0,,0.0-41.0,,1.0,750.7300002000001,1.0,0.732341315,1.0,0.72735643,0.0,0.25,0.0,0.25,True,,5f1caf3bee498903695ad126,,1315495,39,,evan-feature22,full_rf_a,,1
15,12456,40,,,,1,1,1.0,1.0,1.0,0.0,,0.0-42.0,,1.0,832.3300001,1.0,0.7062287770000001,1.0,0.75,0.0,0.29002151,0.0,0.288256649,True,,5f1caf3bee498903695ad126,,1326159,40,,evan-feature22,full_rf_a,,0
16,12457,41,,,,1,1,1.0,1.0,1.0,0.0,,0.0-43.0,,1.0,993.2600001000001,1.0,0.7086029209999999,1.0,0.75,0.0,0.274129113,0.0,0.262851608,True,,5f1caf3bee498903695ad126,,1336992,41,,evan-feature22,full_rf_a,,0
17,12458,42,,,,1,1,1.0,0.0,1.0,0.0,,0.0-44.0,,1.0,865.1749999,1.0,0.669189651,0.0,0.727614338,0.0,0.298444036,0.0,0.296944518,True,,5f1caf3bee498903695ad126,,1347702,42,,evan-feature22,full_rf_a,,0
18,12459,43,,,,1,1,0.0,0.0,1.0,0.0,,0.0-45.0,,0.0,981.2999999,0.0,0.6819912929999999,0.0,0.7179434290000001,0.0,0.265003961,0.0,0.28157921199999997,True,,5f1caf3bee498903695ad126,,1358484,43,,evan-feature22,full_rf_a,,0
19,12460,44,,,,2,2,0.0,0.0,0.0,-1.0,,0.0-46.0,,0.0,780.145,0.0,0.665275002,0.0,0.723065271,0.0,0.260414971,0.0,0.30973870000000003,True,,5f1caf3bee498903695ad126,,1369109,44,,evan-feature22,full_rf_a,,1
20,12461,45,,,,1,1,1.0,0.0,1.0,0.0,,0.0-47.0,,1.0,706.1599997999999,1.0,0.6660593260000001,0.0,0.728032907,0.0,0.30922817,1.0,0.338778608,True,,5f1caf3bee498903695ad126,,1379628,45,,evan-feature22,full_rf_a,,1
21,12462,46,,,,1,1,1.0,1.0,1.0,0.0,,0.0-48.0,,1.0,1213.32,1.0,0.702068785,1.0,0.6528750879999999,0.0,0.287329608,0.0,0.35789613200000003,True,,5f1caf3bee498903695ad126,,1390659,46,,evan-feature22,full_rf_a,,0
22,12463,47,,,,1,1,1.0,1.0,1.0,0.0,,0.0-49.0,,1.0,1168.225,1.0,0.651939787,1.0,0.636725589,1.0,0.284834488,0.0,0.358563756,True,,5f1caf3bee498903695ad126,,1401660,47,,evan-feature22,full_rf_a,,0
23,12464,48,,,,2,2,0.0,0.0,0.0,-1.0,,0.0-50.0,,0.0,981.14,1.0,0.67573929,0.0,0.612550049,0.0,0.37130387600000003,0.0,0.383542402,True,,5f1caf3bee498903695ad126,,1412479,48,,evan-feature22,full_rf_a,,1
24,12465,49,,,,2,2,1.0,0.0,0.0,-1.0,,0.0-51.0,,0.0,1286.94,1.0,0.620753801,0.0,0.60513644,1.0,0.385529434,0.0,0.340361743,True,,5f1caf3bee498903695ad126,,1423594,49,,evan-feature22,full_rf_a,,0
25,12466,50,,,,2,2,1.0,1.0,0.0,-1.0,,0.0-52.0,,-1.0,974.1400001000001,1.0,0.673564893,0.0,0.672437924,1.0,0.292955382,1.0,0.337633795,True,,5f1caf3bee498903695ad126,,1434398,50,,evan-feature22,full_rf_a,,0
26,12467,51,,,,1,1,1.0,1.0,1.0,0.0,,0.0-53.0,,1.0,1196.18,1.0,0.6749427,1.0,0.724197502,0.0,0.32391132100000003,1.0,0.350995264,True,,5f1caf3bee498903695ad126,,1445404,51,,evan-feature22,full_rf_a,,1
27,12468,52,,,,SLOW,SLOW,,,1.0,0.0,,0.0-54.0,,-3.0,,1.0,0.6940159379999999,0.0,0.75,0.0,0.31710554399999996,0.0,0.413450341,True,,5f1caf3bee498903695ad126,,1451229,52,,evan-feature22,full_rf_a,,1
28,12469,53,,,,1,1,1.0,1.0,1.0,0.0,,0.0-55.0,,1.0,748.865,1.0,0.6916018270000001,1.0,0.69001187,0.0,0.261817804,1.0,0.40038635,True,,5f1caf3bee498903695ad126,,1461803,53,,evan-feature22,full_rf_a,,1
29,12470,54,,,,1,1,0.0,1.0,1.0,0.0,,0.0-56.0,,0.0,1816.11,0.0,0.641061544,1.0,0.71337992,1.0,0.277296461,0.0,0.47372791700000005,True,,5f1caf3bee498903695ad126,,1473432,54,,evan-feature22,full_rf_a,,0
30,12471,55,,,,2,2,0.0,0.0,1.0,0.0,,0.0-57.0,,0.0,1071.385,0.0,0.6082438520000001,1.0,0.708471106,0.0,0.28745137,0.0,0.564174476,True,,5f1caf3bee498903695ad126,,1484312,55,,evan-feature22,full_rf_a,,1
31,12472,56,,,,1,1,1.0,1.0,1.0,0.0,,0.0-58.0,,1.0,905.025,1.0,0.6051112120000001,1.0,0.7118147229999999,1.0,0.272390611,1.0,0.5595149939999999,True,,5f1caf3bee498903695ad126,,1495057,56,,evan-feature22,full_rf_a,,1
32,12473,57,,,,1,1,0.0,1.0,1.0,0.0,,0.0-59.0,,0.0,1247.455,0.0,0.582420852,1.0,0.635867583,0.0,0.31089574,1.0,0.5227206520000001,True,,5f1caf3bee498903695ad126,,1506144,57,,evan-feature22,full_rf_a,,0
33,12474,58,,,,1,1,0.0,1.0,0.0,-1.0,,0.0-60.0,,-1.0,968.17,0.0,0.623195575,1.0,0.655026044,0.0,0.25,0.0,0.560387538,True,,5f1caf3bee498903695ad126,,1516924,58,,evan-feature22,full_rf_a,,0
34,12475,59,,,,2,2,0.0,1.0,1.0,0.0,,0.0-61.0,,0.0,1863.565,1.0,0.601889598,0.0,0.678198724,0.0,0.25,1.0,0.559922936,True,,5f1caf3bee498903695ad126,,1528597,59,,evan-feature22,full_rf_a,,1
35,12476,60,,,,1,1,1.0,1.0,1.0,0.0,,0.0-62.0,,1.0,1447.605,1.0,0.601259914,1.0,0.704681482,0.0,0.33908969299999997,0.0,0.505003715,True,,5f1caf3bee498903695ad126,,1539863,60,,evan-feature22,full_rf_a,,1
36,12477,61,,,,2,2,0.0,1.0,1.0,0.0,,0.0-63.0,,0.0,655.975,1.0,0.59645454,1.0,0.710437172,0.0,0.327441879,1.0,0.391749613,True,,5f1caf3bee498903695ad126,,1550326,61,,evan-feature22,full_rf_a,,1
37,12478,62,,,,1,1,1.0,0.0,1.0,0.0,,0.0-64.0,,1.0,817.82,1.0,0.529473,0.0,0.636758527,0.0,0.301338063,0.0,0.365661481,True,,5f1caf3bee498903695ad126,,1560956,62,,evan-feature22,full_rf_a,,1
38,12479,63,,,,2,2,1.0,1.0,0.0,-1.0,,0.0-65.0,,-1.0,1637.035,0.0,0.541657162,1.0,0.634541962,1.0,0.343535366,1.0,0.371763742,True,,5f1caf3bee498903695ad126,,1572427,63,,evan-feature22,full_rf_a,,1
39,12480,64,,,,1,1,0.0,0.0,1.0,0.0,,0.0-66.0,,0.0,858.7450001,0.0,0.5707533260000001,0.0,0.589121171,0.0,0.326428396,1.0,0.43961622899999997,True,,5f1caf3bee498903695ad126,,1583089,64,,evan-feature22,full_rf_a,,1
40,12481,65,,,,1,1,1.0,1.0,1.0,0.0,,0.0-67.0,,1.0,843.2200002000001,1.0,0.5707533260000001,1.0,0.589121171,0.0,0.326428396,0.0,0.43961622899999997,True,,5f1caf3bee498903695ad126,,1593761,65,,evan-feature22,full_rf_a,,0
41,12482,66,,,,1,1,0.0,1.0,1.0,0.0,,0.0-68.0,,0.0,1550.06,0.0,0.506271295,1.0,0.641775594,0.0,0.37149690700000004,0.0,0.404330166,True,,5f1caf3bee498903695ad126,,1605131,66,,evan-feature22,full_rf_a,,0
42,12483,67,,,,2,2,0.0,0.0,0.0,-1.0,,0.0-69.0,,0.0,622.71,1.0,0.455642565,0.0,0.623605825,0.0,0.358753011,0.0,0.346174041,True,,5f1caf3bee498903695ad126,,1615596,67,,evan-feature22,full_rf_a,,1
43,12484,68,,,,2,2,0.0,0.0,0.0,-1.0,,0.0-70.0,,0.0,1442.685,0.0,0.483677308,1.0,0.5904681070000001,0.0,0.402218411,0.0,0.35344697,True,,5f1caf3bee498903695ad126,,1626855,68,,evan-feature22,full_rf_a,,0
44,12485,69,,,,2,2,1.0,0.0,0.0,-1.0,,0.0-71.0,,0.0,1190.65,0.0,0.394210977,1.0,0.558925494,1.0,0.540052017,0.0,0.35182128700000004,True,,5f1caf3bee498903695ad126,,1637882,69,,evan-feature22,full_rf_a,,0
45,12486,70,,,,1,1,1.0,0.0,1.0,0.0,,0.0-72.0,,1.0,859.2100001,1.0,0.382300414,0.0,0.577670603,0.0,0.607608448,0.0,0.378261578,True,,5f1caf3bee498903695ad126,,1648557,70,,evan-feature22,full_rf_a,,1
46,12487,71,,,,1,1,0.0,1.0,1.0,0.0,,0.0-73.0,,0.0,1151.01,0.0,0.357596762,1.0,0.5929076529999999,1.0,0.6579790010000001,0.0,0.401326777,True,,5f1caf3bee498903695ad126,,1659519,71,,evan-feature22,full_rf_a,,0
47,12488,72,,,,1,1,0.0,1.0,1.0,0.0,,0.0-74.0,,0.0,772.6650001,0.0,0.362033495,1.0,0.582308608,0.0,0.649195052,1.0,0.355158505,True,,5f1caf3bee498903695ad126,,1670121,72,,evan-feature22,full_rf_a,,0
48,12489,73,,,,1,1,0.0,1.0,1.0,0.0,,0.0-75.0,,0.0,1813.105,0.0,0.369620635,1.0,0.669100864,1.0,0.706059111,0.0,0.362516241,True,,5f1caf3bee498903695ad126,,1681737,73,,evan-feature22,full_rf_a,,0
49,12490,74,,,,1,1,1.0,1.0,1.0,0.0,,0.0-76.0,,1.0,1396.98,1.0,0.41477751399999996,1.0,0.7284416779999999,1.0,0.7182656940000001,1.0,0.36228040899999997,True,,5f1caf3bee498903695ad126,,1692951,74,,evan-feature22,full_rf_a,,0
50,12491,75,,,,2,2,1.0,0.0,0.0,-1.0,,0.0-77.0,,0.0,870.2999998,0.0,0.37675460299999997,1.0,0.703250285,1.0,0.75,0.0,0.461979164,True,,5f1caf3bee498903695ad126,,1703637,75,,evan-feature22,full_rf_a,,1
51,12492,76,,,,2,2,1.0,0.0,0.0,-1.0,,0.0-78.0,,0.0,760.6500001,1.0,0.398716075,1.0,0.6723864890000001,1.0,0.674153818,0.0,0.519029516,True,,5f1caf3bee498903695ad126,,1714223,76,,evan-feature22,full_rf_a,,0
52,12493,77,,,,1,1,1.0,0.0,1.0,0.0,,0.0-79.0,,1.0,1061.525,1.0,0.34677856700000004,0.0,0.69057175,0.0,0.6822438540000001,0.0,0.477292237,True,,5f1caf3bee498903695ad126,,1725105,77,,evan-feature22,full_rf_a,,1
53,12494,78,,,,2,2,1.0,1.0,0.0,-1.0,,0.0-80.0,,-1.0,1005.075,1.0,0.28580469199999997,1.0,0.68408818,1.0,0.684207565,1.0,0.49780448299999996,True,,5f1caf3bee498903695ad126,,1735935,78,,evan-feature22,full_rf_a,,1
54,12496,80,,,,1,1,0.0,1.0,1.0,0.0,,0.0-82.0,,0.0,996.0149999,0.0,0.25,1.0,0.7405808970000001,1.0,0.679614108,1.0,0.436436964,True,,5f1caf3bee498903695ad126,,1749175,80,,evan-feature22,full_rf_a,,1
55,12497,81,,,,2,2,1.0,1.0,0.0,-1.0,,0.0-83.0,,-1.0,769.4349999,1.0,0.29890393,1.0,0.730505706,1.0,0.7328203320000001,1.0,0.439256938,True,,5f1caf3bee498903695ad126,,1759758,81,,evan-feature22,full_rf_a,,1
56,12498,82,,,,1,1,1.0,0.0,1.0,0.0,,0.0-84.0,,1.0,714.5250002,1.0,0.326762398,0.0,0.7148059609999999,1.0,0.75,1.0,0.44389608799999997,True,,5f1caf3bee498903695ad126,,1770307,82,,evan-feature22,full_rf_a,,1
57,12499,83,,,,1,1,0.0,1.0,1.0,0.0,,0.0-85.0,,0.0,860.1499997999999,0.0,0.295168515,1.0,0.739760854,0.0,0.719947008,1.0,0.35277284600000003,True,,5f1caf3bee498903695ad126,,1780994,83,,evan-feature22,full_rf_a,,0
58,12500,84,,,,1,1,0.0,0.0,1.0,0.0,,0.0-86.0,,0.0,2575.86,0.0,0.25,0.0,0.70781482,1.0,0.75,0.0,0.286095925,True,,5f1caf3bee498903695ad126,,1793367,84,,evan-feature22,full_rf_a,,0
59,12501,85,,,,2,2,0.0,0.0,0.0,-1.0,,0.0-87.0,,0.0,1773.62,0.0,0.25638190899999996,0.0,0.704088163,0.0,0.75,0.0,0.26872601399999996,True,,5f1caf3bee498903695ad126,,1804985,85,,evan-feature22,full_rf_a,,1
60,12502,86,,,,2,2,1.0,1.0,0.0,-1.0,,0.0-88.0,,-1.0,1349.63,0.0,0.271581126,1.0,0.669760107,1.0,0.733896663,1.0,0.273244572,True,,5f1caf3bee498903695ad126,,1816146,86,,evan-feature22,full_rf_a,,0
61,12503,87,,,,2,2,1.0,0.0,0.0,-1.0,,0.0-89.0,,0.0,792.7899999,0.0,0.257144401,0.0,0.600575706,1.0,0.74488122,0.0,0.25,True,,5f1caf3bee498903695ad126,,1826760,87,,evan-feature22,full_rf_a,,0
62,12504,88,,,,1,1,0.0,0.0,1.0,0.0,,0.0-90.0,,0.0,1060.795,0.0,0.25,0.0,0.616870026,1.0,0.723610234,0.0,0.25,True,,5f1caf3bee498903695ad126,,1837611,88,,evan-feature22,full_rf_a,,1
63,12505,89,,,,2,2,1.0,0.0,0.0,-1.0,,0.0-91.0,,0.0,3525.335,1.0,0.25,1.0,0.583540187,1.0,0.7041042559999999,0.0,0.285961995,True,,5f1caf3bee498903695ad126,,1850939,89,,evan-feature22,full_rf_a,,1
64,12506,90,,,,1,1,0.0,1.0,1.0,0.0,,0.0-92.0,,0.0,2352.02,0.0,0.27254536,1.0,0.53875765,1.0,0.693783448,0.0,0.284961652,True,,5f1caf3bee498903695ad126,,1863125,90,,evan-feature22,full_rf_a,,1
65,12507,91,,,,2,2,1.0,0.0,0.0,-1.0,,0.0-93.0,,0.0,944.965,0.0,0.25,0.0,0.548431252,1.0,0.734221895,0.0,0.279445214,True,,5f1caf3bee498903695ad126,,1873893,91,,evan-feature22,full_rf_a,,1
66,12508,92,,,,1,1,0.0,1.0,1.0,0.0,,0.0-94.0,,0.0,1015.295,0.0,0.258640684,1.0,0.545878066,1.0,0.725245965,1.0,0.31487537,True,,5f1caf3bee498903695ad126,,1884739,92,,evan-feature22,full_rf_a,,1
67,12509,93,,,,1,1,0.0,0.0,1.0,0.0,,0.0-95.0,,0.0,876.3349999,0.0,0.251103711,0.0,0.5776290629999999,1.0,0.696320133,0.0,0.317831047,True,,5f1caf3bee498903695ad126,,1895449,93,,evan-feature22,full_rf_a,,0
68,12510,94,,,,1,1,0.0,0.0,1.0,0.0,,0.0-96.0,,0.0,908.5649999,0.0,0.276630292,0.0,0.617329858,1.0,0.73838088,0.0,0.261471582,True,,5f1caf3bee498903695ad126,,1906185,94,,evan-feature22,full_rf_a,,0
69,12511,95,,,,2,2,1.0,1.0,0.0,-1.0,,0.0-97.0,,-1.0,1146.69,0.0,0.297716424,0.0,0.618863717,1.0,0.7402358259999999,1.0,0.262600834,True,,5f1caf3bee498903695ad126,,1917165,95,,evan-feature22,full_rf_a,,1
70,12512,96,,,,1,1,0.0,0.0,1.0,0.0,,0.0-98.0,,0.0,1403.655,0.0,0.290935512,0.0,0.695370945,1.0,0.706570507,1.0,0.280030553,True,,5f1caf3bee498903695ad126,,1928396,96,,evan-feature22,full_rf_a,,1
71,12513,97,,,,1,1,0.0,1.0,1.0,0.0,,0.0-99.0,,0.0,2442.48,0.0,0.25,1.0,0.6465277079999999,1.0,0.67766682,0.0,0.25,True,,5f1caf3bee498903695ad126,,1940648,97,,evan-feature22,full_rf_a,,0
72,12514,98,,,,1,1,0.0,1.0,1.0,0.0,,0.0-100.0,,0.0,1043.87,0.0,0.26463816,1.0,0.636100213,1.0,0.646048507,0.0,0.265607101,True,,5f1caf3bee498903695ad126,,1951501,98,,evan-feature22,full_rf_a,,0
73,12515,99,,,,1,1,0.0,0.0,1.0,0.0,,0.0-101.0,,0.0,748.8600002000001,0.0,0.314340707,0.0,0.667795927,1.0,0.613630805,0.0,0.25,True,,5f1caf3bee498903695ad126,,1962065,99,,evan-feature22,full_rf_a,,0
74,12516,100,,,,1,1,0.0,0.0,1.0,0.0,,0.0-102.0,,0.0,739.7950001,0.0,0.28685784,0.0,0.6622549529999999,1.0,0.652154117,0.0,0.25,True,,5f1caf3bee498903695ad126,,1972622,100,,evan-feature22,full_rf_a,,0
75,12517,101,,,,2,2,1.0,0.0,0.0,-1.0,,0.0-103.0,,0.0,859.6699999,1.0,0.304106554,1.0,0.631289538,1.0,0.707041942,0.0,0.29314237,True,,5f1caf3bee498903695ad126,,1983296,101,,evan-feature22,full_rf_a,,1
76,12518,102,,,,2,2,1.0,0.0,0.0,-1.0,,0.0-104.0,,0.0,924.8649998999999,0.0,0.304806932,1.0,0.571167718,1.0,0.680472346,0.0,0.25,True,,5f1caf3bee498903695ad126,,1994050,102,,evan-feature22,full_rf_a,,0
77,12519,103,,,,1,1,0.0,1.0,0.0,-1.0,,0.0-105.0,,-1.0,1228.685,0.0,0.37919861,1.0,0.5724849710000001,0.0,0.705638003,0.0,0.30179300600000003,True,,5f1caf3bee498903695ad126,,2005115,103,,evan-feature22,full_rf_a,,1
78,12520,104,,,,2,2,1.0,1.0,0.0,-1.0,,0.0-106.0,,-1.0,1156.525,1.0,0.464277969,0.0,0.554034373,1.0,0.7372627340000001,1.0,0.264699741,True,,5f1caf3bee498903695ad126,,2016095,104,,evan-feature22,full_rf_a,,1
79,12521,105,,,,1,1,0.0,0.0,1.0,0.0,,0.0-107.0,,0.0,905.55,0.0,0.465104323,0.0,0.530793115,0.0,0.75,0.0,0.31683071,True,,5f1caf3bee498903695ad126,,2026809,105,,evan-feature22,full_rf_a,,1
80,12522,106,,,,2,2,1.0,0.0,0.0,-1.0,,0.0-108.0,,0.0,1203.735,1.0,0.465104323,0.0,0.530793115,1.0,0.75,0.0,0.31683071,True,,5f1caf3bee498903695ad126,,2037830,106,,evan-feature22,full_rf_a,,1
81,12523,107,,,,2,2,0.0,0.0,0.0,-1.0,,0.0-109.0,,0.0,1226.025,1.0,0.46833986,1.0,0.570249239,0.0,0.7244472590000001,0.0,0.364114163,True,,5f1caf3bee498903695ad126,,2048895,107,,evan-feature22,full_rf_a,,0
82,12524,108,,,,2,2,1.0,1.0,0.0,-1.0,,0.0-110.0,,-1.0,2525.13,1.0,0.445444024,1.0,0.649673355,1.0,0.6845441290000001,1.0,0.300660449,True,,5f1caf3bee498903695ad126,,2061253,108,,evan-feature22,full_rf_a,,0
83,12525,109,,,,2,2,0.0,0.0,0.0,-1.0,,0.0-111.0,,0.0,900.23,0.0,0.39909721299999995,1.0,0.6715179509999999,0.0,0.742310028,0.0,0.35496088299999995,True,,5f1caf3bee498903695ad126,,2071988,109,,evan-feature22,full_rf_a,,0
84,12526,110,,,,2,2,0.0,0.0,0.0,-1.0,,0.0-112.0,,0.0,905.6500001,1.0,0.37956104799999996,0.0,0.694725302,0.0,0.7181651309999999,0.0,0.38726906299999997,True,,5f1caf3bee498903695ad126,,2082699,110,,evan-feature22,full_rf_a,,0
85,12527,111,,,,2,2,0.0,1.0,0.0,-1.0,,0.0-113.0,,-1.0,2096.6,1.0,0.404995034,1.0,0.724375412,0.0,0.6910946859999999,1.0,0.387187347,True,,5f1caf3bee498903695ad126,,2094620,111,,evan-feature22,full_rf_a,,0
86,12528,112,,,,2,2,0.0,0.0,0.0,-1.0,,0.0-114.0,,0.0,925.5300001,0.0,0.461740803,1.0,0.75,0.0,0.75,0.0,0.34872038200000005,True,,5f1caf3bee498903695ad126,,2105360,112,,evan-feature22,full_rf_a,,0
87,12529,113,,,,1,1,1.0,1.0,1.0,0.0,,0.0-115.0,,1.0,1693.235,1.0,0.43821380600000004,1.0,0.738833273,1.0,0.728286963,1.0,0.399538128,True,,5f1caf3bee498903695ad126,,2116867,113,,evan-feature22,full_rf_a,,1
88,12530,114,,,,2,2,1.0,0.0,0.0,-1.0,,0.0-116.0,,0.0,1306.4,0.0,0.41709882,0.0,0.736666736,1.0,0.75,0.0,0.389095584,True,,5f1caf3bee498903695ad126,,2128004,114,,evan-feature22,full_rf_a,,1
89,12531,115,,,,2,2,1.0,0.0,0.0,-1.0,,0.0-117.0,,0.0,1787.05,1.0,0.39749009799999996,1.0,0.744320029,1.0,0.75,0.0,0.363848678,True,,5f1caf3bee498903695ad126,,2139626,115,,evan-feature22,full_rf_a,,0
90,12532,116,,,,1,1,1.0,1.0,1.0,0.0,,0.0-118.0,,1.0,943.2250001,1.0,0.392653706,1.0,0.75,1.0,0.75,0.0,0.384386976,True,,5f1caf3bee498903695ad126,,2150377,116,,evan-feature22,full_rf_a,,1
91,12533,117,,,,1,1,1.0,1.0,1.0,0.0,,0.0-119.0,,1.0,1473.87,1.0,0.31190902600000003,1.0,0.75,0.0,0.732413819,0.0,0.413082932,True,,5f1caf3bee498903695ad126,,2161687,117,,evan-feature22,full_rf_a,,0
92,12534,118,,,,2,2,0.0,1.0,0.0,-1.0,,0.0-120.0,,-1.0,1322.665,0.0,0.366917648,0.0,0.740073855,0.0,0.75,1.0,0.352861979,True,,5f1caf3bee498903695ad126,,2172815,118,,evan-feature22,full_rf_a,,1
93,12535,119,,,,2,2,1.0,0.0,0.0,-1.0,,0.0-121.0,,0.0,1105.615,1.0,0.3645172,1.0,0.721770713,1.0,0.75,0.0,0.404074511,True,,5f1caf3bee498903695ad126,,2183736,119,,evan-feature22,full_rf_a,,0
94,12536,120,,,,2,2,1.0,0.0,0.0,-1.0,,0.0-122.0,,0.0,1577.38,0.0,0.35205600299999995,1.0,0.68983859,1.0,0.739735447,0.0,0.366895945,True,,5f1caf3bee498903695ad126,,2195112,120,,evan-feature22,full_rf_a,,0
95,12537,121,,,,2,2,0.0,0.0,0.0,-1.0,,0.0-123.0,,0.0,1200.89,0.0,0.40998722600000004,0.0,0.720859127,0.0,0.673854955,0.0,0.368528541,True,,5f1caf3bee498903695ad126,,2206109,121,,evan-feature22,full_rf_a,,0
96,12538,122,,,,1,1,0.0,1.0,1.0,0.0,,0.0-124.0,,0.0,1207.12,0.0,0.353625316,1.0,0.75,1.0,0.695605473,0.0,0.38303674200000004,True,,5f1caf3bee498903695ad126,,2217136,122,,evan-feature22,full_rf_a,,1
97,12539,123,,,,2,2,0.0,0.0,0.0,-1.0,,0.0-125.0,,0.0,862.705,0.0,0.359216989,0.0,0.75,0.0,0.6987915090000001,0.0,0.35169046200000004,True,,5f1caf3bee498903695ad126,,2227793,123,,evan-feature22,full_rf_a,,1
98,12540,124,,,,1,1,0.0,0.0,1.0,0.0,,0.0-126.0,,0.0,1073.245,0.0,0.35834496899999996,0.0,0.75,1.0,0.707067742,1.0,0.416763636,True,,5f1caf3bee498903695ad126,,2238669,124,,evan-feature22,full_rf_a,,1
99,12541,125,,,,1,1,1.0,1.0,1.0,0.0,,0.0-127.0,,1.0,903.225,1.0,0.38741613799999997,1.0,0.7177369570000001,0.0,0.734902455,1.0,0.49438664299999996,True,,5f1caf3bee498903695ad126,,2249417,125,,evan-feature22,full_rf_a,,0
100,12542,126,,,,2,2,1.0,0.0,0.0,-1.0,,0.0-128.0,,0.0,1148.935,1.0,0.405255252,0.0,0.7300466640000001,1.0,0.7027748070000001,0.0,0.504359668,True,,5f1caf3bee498903695ad126,,2260399,126,,evan-feature22,full_rf_a,,1
101,12543,127,,,,1,1,0.0,1.0,0.0,-1.0,,0.0-129.0,,-1.0,1306.555,0.0,0.40697073,1.0,0.7260142190000001,0.0,0.724461982,1.0,0.522779179,True,,5f1caf3bee498903695ad126,,2271559,127,,evan-feature22,full_rf_a,,1
102,12544,128,,,,2,2,1.0,0.0,0.0,-1.0,,0.0-130.0,,0.0,1072.315,0.0,0.43906215299999996,1.0,0.7252802340000001,1.0,0.719079934,0.0,0.5712990579999999,True,,5f1caf3bee498903695ad126,,2282456,128,,evan-feature22,full_rf_a,,1
103,12545,129,,,,2,2,1.0,0.0,0.0,-1.0,,0.0-131.0,,0.0,1452.775,1.0,0.4076705,1.0,0.73280499,1.0,0.681313127,0.0,0.523891346,True,,5f1caf3bee498903695ad126,,2293716,129,,evan-feature22,full_rf_a,,0
104,12546,130,,,,2,2,1.0,0.0,0.0,-1.0,,0.0-132.0,,0.0,1389.61,1.0,0.399102911,1.0,0.730498344,1.0,0.661080239,0.0,0.46742603,True,,5f1caf3bee498903695ad126,,2304922,130,,evan-feature22,full_rf_a,,0
105,12547,131,,,,1,1,0.0,0.0,1.0,0.0,,0.0-133.0,,0.0,1244.46,0.0,0.356477282,0.0,0.712296395,0.0,0.641812684,0.0,0.44868414,True,,5f1caf3bee498903695ad126,,2315968,131,,evan-feature22,full_rf_a,,1
106,12548,132,,,,2,2,1.0,1.0,0.0,-1.0,,0.0-134.0,,-1.0,1551.655,0.0,0.462760722,1.0,0.692349322,1.0,0.700947931,1.0,0.394680266,True,,5f1caf3bee498903695ad126,,2327343,132,,evan-feature22,full_rf_a,,1
107,12549,133,,,,2,2,1.0,1.0,0.0,-1.0,,0.0-135.0,,-1.0,1017.21,1.0,0.422306413,1.0,0.718375916,1.0,0.706340917,1.0,0.367787185,True,,5f1caf3bee498903695ad126,,2338191,133,,evan-feature22,full_rf_a,,0
108,12551,135,,,,2,2,1.0,1.0,0.0,-1.0,,0.0-137.0,,-1.0,974.4950002,1.0,0.4582233,1.0,0.643834117,1.0,0.75,1.0,0.39615823299999997,True,,5f1caf3bee498903695ad126,,2350444,135,,evan-feature22,full_rf_a,,0
109,12552,136,,,,2,2,1.0,1.0,0.0,-1.0,,0.0-138.0,,-1.0,823.5399997999999,0.0,0.43813437899999996,0.0,0.651283804,1.0,0.729674191,1.0,0.37711048,True,,5f1caf3bee498903695ad126,,2361091,136,,evan-feature22,full_rf_a,,0
110,12553,137,,,,2,2,1.0,0.0,0.0,-1.0,,0.0-139.0,,0.0,986.8050001,0.0,0.471199094,0.0,0.6470010979999999,1.0,0.715008097,0.0,0.410656191,True,,5f1caf3bee498903695ad126,,2371892,137,,evan-feature22,full_rf_a,,0
111,12554,138,,,,1,1,1.0,0.0,1.0,0.0,,0.0-140.0,,1.0,888.85,1.0,0.42486406,0.0,0.629771829,1.0,0.6550939960000001,0.0,0.459093873,True,,5f1caf3bee498903695ad126,,2382575,138,,evan-feature22,full_rf_a,,1
112,12555,139,,,,1,1,1.0,1.0,1.0,0.0,,0.0-141.0,,1.0,866.6900001,1.0,0.4803197,1.0,0.645842715,1.0,0.6421749920000001,0.0,0.443092151,True,,5f1caf3bee498903695ad126,,2393279,139,,evan-feature22,full_rf_a,,0
113,12556,140,,,,1,1,1.0,1.0,1.0,0.0,,0.0-142.0,,1.0,1096.345,1.0,0.521848997,1.0,0.735801074,1.0,0.6691348460000001,0.0,0.45259351600000003,True,,5f1caf3bee498903695ad126,,2404176,140,,evan-feature22,full_rf_a,,0
114,12557,141,,,,2,2,1.0,0.0,0.0,-1.0,,0.0-143.0,,0.0,1335.035,1.0,0.49565621299999996,1.0,0.742400847,1.0,0.661512553,0.0,0.483110831,True,,5f1caf3bee498903695ad126,,2415308,141,,evan-feature22,full_rf_a,,1
115,12558,142,,,,1,1,1.0,1.0,1.0,0.0,,0.0-144.0,,1.0,794.485,1.0,0.521564361,1.0,0.731078632,1.0,0.6774886809999999,0.0,0.483263956,True,,5f1caf3bee498903695ad126,,2425919,142,,evan-feature22,full_rf_a,,1
116,12559,143,,,,1,1,1.0,1.0,1.0,0.0,,0.0-145.0,,1.0,2046.84,1.0,0.558893102,1.0,0.719810023,1.0,0.67461031,0.0,0.499349834,True,,5f1caf3bee498903695ad126,,2437781,143,,evan-feature22,full_rf_a,,0
117,12560,144,,,,SLOW,SLOW,,,0.0,-1.0,,0.0-146.0,,-3.0,,1.0,0.611031046,1.0,0.75,1.0,0.688072995,1.0,0.5321422729999999,True,,5f1caf3bee498903695ad126,,2443625,144,,evan-feature22,full_rf_a,,1
118,12561,145,,,,1,1,1.0,1.0,1.0,0.0,,0.0-147.0,,1.0,777.6949999,1.0,0.633223941,1.0,0.713567728,1.0,0.75,0.0,0.48185314700000004,True,,5f1caf3bee498903695ad126,,2454218,145,,evan-feature22,full_rf_a,,1
119,12562,146,,,,1,1,1.0,1.0,1.0,0.0,,0.0-148.0,,1.0,697.7250001,1.0,0.664001694,1.0,0.705509768,1.0,0.75,1.0,0.500211065,True,,5f1caf3bee498903695ad126,,2464738,146,,evan-feature22,full_rf_a,,0
120,12563,147,,,,1,1,0.0,0.0,0.0,-1.0,,0.0-149.0,,0.0,1112.94,0.0,0.664001694,0.0,0.705509768,0.0,0.75,0.0,0.500211065,True,,5f1caf3bee498903695ad126,,2475652,147,,evan-feature22,full_rf_a,,0
121,12564,148,,,,2,2,1.0,1.0,0.0,-1.0,,0.0-150.0,,-1.0,1330.47,0.0,0.696508041,1.0,0.71066027,1.0,0.717028709,1.0,0.49792991,True,,5f1caf3bee498903695ad126,,2486794,148,,evan-feature22,full_rf_a,,1
122,12565,149,,,,1,1,1.0,1.0,1.0,0.0,,0.0-151.0,,1.0,1120.005,1.0,0.699883272,1.0,0.75,1.0,0.713543895,0.0,0.496962643,True,,5f1caf3bee498903695ad126,,2497731,149,,evan-feature22,full_rf_a,,1
123,12566,150,,,,1,1,0.0,1.0,0.0,-1.0,,0.0-152.0,,-1.0,1055.37,0.0,0.741163419,1.0,0.75,1.0,0.64691024,0.0,0.513858197,True,,5f1caf3bee498903695ad126,,2508607,150,,evan-feature22,full_rf_a,,0
124,12567,151,,,,1,1,0.0,1.0,1.0,0.0,,0.0-153.0,,0.0,1309.445,0.0,0.75,1.0,0.70816558,1.0,0.594499079,0.0,0.48502124,True,,5f1caf3bee498903695ad126,,2519728,151,,evan-feature22,full_rf_a,,0
125,12568,152,,,,2,2,1.0,0.0,0.0,-1.0,,0.0-154.0,,0.0,1063.74,1.0,0.75,1.0,0.721848901,1.0,0.62197249,0.0,0.48263586399999997,True,,5f1caf3bee498903695ad126,,2530624,152,,evan-feature22,full_rf_a,,1
126,12569,153,,,,2,2,1.0,0.0,1.0,0.0,,0.0-155.0,,1.0,989.9799998,1.0,0.75,1.0,0.74813071,1.0,0.584357161,0.0,0.411477782,True,,5f1caf3bee498903695ad126,,2541433,153,,evan-feature22,full_rf_a,,0
127,12570,154,,,,1,1,1.0,0.0,0.0,-1.0,,0.0-156.0,,0.0,874.9499999,1.0,0.75,0.0,0.75,0.0,0.52287236,0.0,0.488290656,True,,5f1caf3bee498903695ad126,,2552127,154,,evan-feature22,full_rf_a,,1
128,12571,155,,,,1,1,0.0,1.0,0.0,-1.0,,0.0-157.0,,-1.0,1305.435,0.0,0.75,1.0,0.75,1.0,0.544321581,0.0,0.53143059,True,,5f1caf3bee498903695ad126,,2563251,155,,evan-feature22,full_rf_a,,0
129,12572,156,,,,2,2,1.0,0.0,0.0,-1.0,,0.0-158.0,,0.0,1558.25,0.0,0.726754564,0.0,0.75,1.0,0.5129306370000001,0.0,0.530592445,True,,5f1caf3bee498903695ad126,,2574616,156,,evan-feature22,full_rf_a,,1
130,12573,157,,,,1,1,1.0,1.0,1.0,0.0,,0.0-159.0,,1.0,1420.135,1.0,0.75,1.0,0.7392590729999999,0.0,0.479875835,0.0,0.547007051,True,,5f1caf3bee498903695ad126,,2585862,157,,evan-feature22,full_rf_a,,1
131,12574,158,,,,1,1,1.0,1.0,1.0,0.0,,0.0-160.0,,1.0,1094.16,1.0,0.75,1.0,0.7393376979999999,0.0,0.546045419,1.0,0.541267353,True,,5f1caf3bee498903695ad126,,2596772,158,,evan-feature22,full_rf_a,,0
132,12575,159,,,,1,1,1.0,1.0,1.0,0.0,,0.0-161.0,,1.0,1128.025,1.0,0.75,1.0,0.75,0.0,0.485725895,1.0,0.527625395,True,,5f1caf3bee498903695ad126,,2607715,159,,evan-feature22,full_rf_a,,0
133,12576,160,,,,2,2,1.0,0.0,0.0,-1.0,,0.0-162.0,,0.0,798.1400001000001,1.0,0.75,0.0,0.725087974,1.0,0.488603595,0.0,0.504019206,True,,5f1caf3bee498903695ad126,,2618337,160,,evan-feature22,full_rf_a,,1
134,12577,161,,,,2,2,1.0,0.0,0.0,-1.0,,0.0-163.0,,0.0,1019.12,1.0,0.745504295,1.0,0.75,1.0,0.452379914,0.0,0.50131194,True,,5f1caf3bee498903695ad126,,2629179,161,,evan-feature22,full_rf_a,,0
135,12578,162,,,,2,2,1.0,0.0,0.0,-1.0,,0.0-164.0,,0.0,985.9500001,1.0,0.728513874,0.0,0.75,1.0,0.44125567200000004,0.0,0.531454591,True,,5f1caf3bee498903695ad126,,2639993,162,,evan-feature22,full_rf_a,,0
136,12579,163,,,,1,1,1.0,0.0,1.0,0.0,,0.0-165.0,,1.0,1248.555,1.0,0.73790804,0.0,0.75,0.0,0.413036656,1.0,0.524619035,True,,5f1caf3bee498903695ad126,,2651040,163,,evan-feature22,full_rf_a,,1
137,12580,164,,,,2,2,1.0,0.0,0.0,-1.0,,0.0-166.0,,0.0,1523.92,1.0,0.7080961309999999,1.0,0.708666865,1.0,0.431915581,0.0,0.481819489,True,,5f1caf3bee498903695ad126,,2662398,164,,evan-feature22,full_rf_a,,1
138,12581,165,,,,2,2,0.0,1.0,0.0,-1.0,,0.0-167.0,,-1.0,957.0350002,1.0,0.721378003,0.0,0.71605913,0.0,0.36642387,1.0,0.5036739929999999,True,,5f1caf3bee498903695ad126,,2673175,165,,evan-feature22,full_rf_a,,0
139,12582,166,,,,2,2,0.0,1.0,0.0,-1.0,,0.0-168.0,,-1.0,1928.71,1.0,0.7340618959999999,1.0,0.699323252,0.0,0.35298046299999997,1.0,0.511241692,True,,5f1caf3bee498903695ad126,,2684923,166,,evan-feature22,full_rf_a,,0
140,12583,167,,,,1,1,1.0,1.0,1.0,0.0,,0.0-169.0,,1.0,560.1949999,1.0,0.75,1.0,0.70412698,0.0,0.380734814,0.0,0.529580116,True,,5f1caf3bee498903695ad126,,2695296,167,,evan-feature22,full_rf_a,,1
141,12584,168,,,,2,2,1.0,1.0,0.0,-1.0,,0.0-170.0,,-1.0,928.4950001,0.0,0.7436654909999999,1.0,0.711182751,1.0,0.41125331,1.0,0.49554405,True,,5f1caf3bee498903695ad126,,2706068,168,,evan-feature22,full_rf_a,,1
142,12585,169,,,,2,2,0.0,1.0,0.0,-1.0,,0.0-171.0,,-1.0,2582.95,1.0,0.731607915,0.0,0.651774583,0.0,0.35688023,1.0,0.45194491600000003,True,,5f1caf3bee498903695ad126,,2718460,169,,evan-feature22,full_rf_a,,0
143,12586,170,,,,1,1,0.0,1.0,1.0,0.0,,0.0-172.0,,0.0,1067.58,0.0,0.75,1.0,0.75,1.0,0.283145374,1.0,0.528608005,True,,5f1caf3bee498903695ad126,,2729355,170,,evan-feature22,full_rf_a,,1
144,12587,171,,,,1,1,1.0,0.0,1.0,0.0,,0.0-173.0,,1.0,628.5850001,1.0,0.7491416890000001,0.0,0.7423785959999999,0.0,0.29135870399999997,1.0,0.498888318,True,,5f1caf3bee498903695ad126,,2739777,171,,evan-feature22,full_rf_a,,0
145,12588,172,,,,1,1,1.0,1.0,1.0,0.0,,0.0-174.0,,1.0,756.9950002,1.0,0.708569387,1.0,0.717682277,0.0,0.294421699,1.0,0.493838163,True,,5f1caf3bee498903695ad126,,2750349,172,,evan-feature22,full_rf_a,,0
146,12589,173,,,,2,2,1.0,1.0,0.0,-1.0,,0.0-175.0,,-1.0,828.37,0.0,0.75,1.0,0.7383382159999999,1.0,0.356098707,1.0,0.442533405,True,,5f1caf3bee498903695ad126,,2760993,173,,evan-feature22,full_rf_a,,1
147,12590,174,,,,2,2,0.0,0.0,0.0,-1.0,,0.0-176.0,,0.0,1105.77,1.0,0.744527075,1.0,0.75,0.0,0.334127506,0.0,0.393165805,True,,5f1caf3bee498903695ad126,,2771910,174,,evan-feature22,full_rf_a,,0
148,12591,175,,,,2,2,0.0,1.0,0.0,-1.0,,0.0-177.0,,-1.0,634.8299999,0.0,0.75,1.0,0.75,0.0,0.33571021799999995,1.0,0.350393962,True,,5f1caf3bee498903695ad126,,2782346,175,,evan-feature22,full_rf_a,,0
149,12592,176,,,,2,2,0.0,0.0,0.0,-1.0,,0.0-178.0,,0.0,818.2700002,1.0,0.75,0.0,0.75,0.0,0.313628297,0.0,0.36349657399999996,True,,5f1caf3bee498903695ad126,,2792986,176,,evan-feature22,full_rf_a,,0
150,12593,177,,,,1,1,0.0,1.0,1.0,0.0,,0.0-179.0,,0.0,804.055,0.0,0.75,1.0,0.734284182,0.0,0.262667667,0.0,0.380199119,True,,5f1caf3bee498903695ad126,,2803636,177,,evan-feature22,full_rf_a,,1
151,12594,178,,,,2,2,0.0,1.0,0.0,-1.0,,0.0-180.0,,-1.0,1120.085,1.0,0.75,1.0,0.75,0.0,0.25,1.0,0.394494013,True,,5f1caf3bee498903695ad126,,2814573,178,,evan-feature22,full_rf_a,,1
152,12595,179,,,,1,1,1.0,0.0,1.0,0.0,,0.0-181.0,,1.0,824.48,1.0,0.722298145,0.0,0.7357822340000001,1.0,0.25,0.0,0.319142121,True,,5f1caf3bee498903695ad126,,2825235,179,,evan-feature22,full_rf_a,,1
153,12596,180,,,,1,1,0.0,1.0,1.0,0.0,,0.0-182.0,,0.0,857.79,0.0,0.73149275,1.0,0.724276446,1.0,0.305856907,1.0,0.281315057,True,,5f1caf3bee498903695ad126,,2835896,180,,evan-feature22,full_rf_a,,0
154,12597,181,,,,2,2,1.0,1.0,0.0,-1.0,,0.0-183.0,,-1.0,1241.995,1.0,0.7458732690000001,1.0,0.7336382459999999,1.0,0.272571964,1.0,0.266021999,True,,5f1caf3bee498903695ad126,,2846939,181,,evan-feature22,full_rf_a,,1
155,12598,182,,,,2,2,0.0,0.0,0.0,-1.0,,0.0-184.0,,0.0,929.365,0.0,0.705579037,1.0,0.720778292,0.0,0.320238144,0.0,0.30971744,True,,5f1caf3bee498903695ad126,,2857692,182,,evan-feature22,full_rf_a,,0
156,12599,183,,,,2,2,1.0,0.0,0.0,-1.0,,0.0-185.0,,0.0,1291.65,1.0,0.700425648,1.0,0.7198784009999999,1.0,0.272590393,0.0,0.304182931,True,,5f1caf3bee498903695ad126,,2868796,183,,evan-feature22,full_rf_a,,0
157,12600,184,,,,2,2,0.0,0.0,0.0,-1.0,,0.0-186.0,,0.0,1377.445,1.0,0.735590785,0.0,0.722714973,0.0,0.25,0.0,0.323421091,True,,5f1caf3bee498903695ad126,,2879981,184,,evan-feature22,full_rf_a,,0
158,12601,185,,,,2,2,0.0,1.0,0.0,-1.0,,0.0-187.0,,-1.0,989.8550001,1.0,0.724807662,1.0,0.63146213,0.0,0.36836492600000004,1.0,0.34592153299999995,True,,5f1caf3bee498903695ad126,,2890799,185,,evan-feature22,full_rf_a,,0
159,12602,186,,,,1,1,1.0,0.0,0.0,-1.0,,0.0-188.0,,0.0,1057.735,1.0,0.7352796909999999,0.0,0.555111392,0.0,0.36003922,0.0,0.31433779999999995,True,,5f1caf3bee498903695ad126,,2901677,186,,evan-feature22,full_rf_a,,1
160,12603,187,notice,,,,,,,,,,0.0-189.0,"{""Q0"":""no""}",,10449.0,,,,,,,,,True,,5f1caf3bee498903695ad126,,2912128,187,Q,survey-text,full_rf_a,,1
161,12604,188,track1,,[1],,,,,,,,0.0-190.0,"{""Q0"":""no""}",,3897.0,,,,,,,,,True,,5f1caf3bee498903695ad126,,2916027,188,Q,evan-quiz,full_rf_a,,1
162,12605,189,track2,,[0],,,,,,,,0.0-191.0,"{""Q0"":""yes""}",,10259.0,,,,,,,,,True,,5f1caf3bee498903695ad126,,2926290,189,Q,evan-quiz,full_rf_a,,1
163,12606,190,strat,,,,,,,,,,0.0-192.0,"{""Q0"":""If gold was 0, black 1 - pick left door. If gold 0 and black -1 - pick right door""}",,38946.0,,,,,,,,,True,,5f1caf3bee498903695ad126,,2965240,190,Q,survey-text,full_rf_a,,1
