,index,Unnamed: 0,Q_name,button_pressed,choice_idxs,chosen_pos,chosen_state,chosen_state_f_1_outcome,chosen_state_f_2_outcome,f_1_reward,f_2_reward,incor_questions,internal_node_id,responses,reward_received,rt,s_1_f_1_outcome,s_1_f_1_prob,s_1_f_2_outcome,s_1_f_2_prob,s_2_f_1_outcome,s_2_f_1_prob,s_2_f_2_outcome,s_2_f_2_prob,safe_first,stimulus,subjectID,success,time_elapsed,trial_index,trial_num,trial_type,version,view_history,switching
0,12250,25,,,,2,2,0.0,0.0,0.0,1.0,,0.0-27.0,,0.0,1513.605,0.0,0.6,1.0,0.6,0.0,0.4,0.0,0.4,True,,582468295f4d1c0001c7c467,,745648,25,,evan-feature22,full_rf_b,,0
1,12251,26,,,,1,1,1.0,0.0,0.0,1.0,,0.0-28.0,,0.0,507.635,1.0,0.608053294,0.0,0.63424552,1.0,0.397152172,0.0,0.347069101,True,,582468295f4d1c0001c7c467,,755924,26,,evan-feature22,full_rf_b,,1
2,12252,27,,,,2,2,1.0,0.0,0.0,1.0,,0.0-29.0,,0.0,966.67,1.0,0.642237155,0.0,0.648566321,1.0,0.389407674,0.0,0.285525717,True,,582468295f4d1c0001c7c467,,766657,27,,evan-feature22,full_rf_b,,1
3,12253,28,,,,2,2,0.0,0.0,0.0,1.0,,0.0-30.0,,0.0,313.245,0.0,0.661086576,1.0,0.630492543,0.0,0.399058924,0.0,0.25,True,,582468295f4d1c0001c7c467,,776735,28,,evan-feature22,full_rf_b,,0
4,12254,29,,,,2,2,0.0,0.0,0.0,1.0,,0.0-31.0,,0.0,293.61,1.0,0.631324137,0.0,0.6269842929999999,0.0,0.38734784299999997,0.0,0.25,True,,582468295f4d1c0001c7c467,,786791,29,,evan-feature22,full_rf_b,,0
5,12255,30,,,,1,1,1.0,1.0,0.0,1.0,,0.0-32.0,,1.0,92.43,1.0,0.6381991370000001,1.0,0.68987999,0.0,0.384107265,0.0,0.271332943,True,,582468295f4d1c0001c7c467,,796652,30,,evan-feature22,full_rf_b,,1
6,12256,31,,,,1,1,1.0,1.0,0.0,1.0,,0.0-33.0,,1.0,167.91,1.0,0.66034901,1.0,0.742641349,1.0,0.360225629,1.0,0.25,True,,582468295f4d1c0001c7c467,,806588,31,,evan-feature22,full_rf_b,,0
7,12257,32,,,,1,1,0.0,0.0,-1.0,0.0,,0.0-34.0,,0.0,311.43,0.0,0.638612418,0.0,0.75,0.0,0.367273939,0.0,0.25,True,,582468295f4d1c0001c7c467,,816662,32,,evan-feature22,full_rf_b,,0
8,12258,33,,,,1,1,1.0,0.0,0.0,1.0,,0.0-35.0,,0.0,644.685,1.0,0.624340629,0.0,0.75,0.0,0.425829545,0.0,0.25,True,,582468295f4d1c0001c7c467,,827075,33,,evan-feature22,full_rf_b,,0
9,12259,34,,,,2,2,0.0,0.0,0.0,1.0,,0.0-36.0,,0.0,279.325,1.0,0.621999804,0.0,0.75,0.0,0.368609357,0.0,0.25,True,,582468295f4d1c0001c7c467,,837120,34,,evan-feature22,full_rf_b,,1
10,12260,35,,,,2,2,0.0,0.0,-1.0,0.0,,0.0-37.0,,0.0,68.05,0.0,0.62666403,1.0,0.75,0.0,0.311151498,0.0,0.25,True,,582468295f4d1c0001c7c467,,846951,35,,evan-feature22,full_rf_b,,0
11,12261,36,,,,1,1,1.0,1.0,-1.0,0.0,,0.0-38.0,,-1.0,548.315,1.0,0.6819650009999999,1.0,0.75,1.0,0.310763048,0.0,0.25,True,,582468295f4d1c0001c7c467,,857269,36,,evan-feature22,full_rf_b,,1
12,12262,37,,,,1,1,1.0,0.0,0.0,1.0,,0.0-39.0,,0.0,311.265,1.0,0.740626951,0.0,0.75,0.0,0.25,0.0,0.25,True,,582468295f4d1c0001c7c467,,867348,37,,evan-feature22,full_rf_b,,0
13,12263,38,,,,2,2,0.0,0.0,0.0,1.0,,0.0-40.0,,0.0,902.885,1.0,0.739599242,1.0,0.742034978,0.0,0.25397114600000004,0.0,0.25,True,,582468295f4d1c0001c7c467,,878014,38,,evan-feature22,full_rf_b,,1
14,12264,39,,,,1,1,0.0,1.0,0.0,1.0,,0.0-41.0,,1.0,4.71,0.0,0.732341315,1.0,0.72735643,1.0,0.25,0.0,0.25,True,,582468295f4d1c0001c7c467,,887786,39,,evan-feature22,full_rf_b,,1
15,12265,40,,,,1,1,1.0,1.0,0.0,1.0,,0.0-42.0,,1.0,175.9,1.0,0.7062287770000001,1.0,0.75,0.0,0.29002151,0.0,0.288256649,True,,582468295f4d1c0001c7c467,,897733,40,,evan-feature22,full_rf_b,,0
16,12266,41,,,,1,1,0.0,1.0,-1.0,0.0,,0.0-43.0,,0.0,342.7,0.0,0.7086029209999999,1.0,0.75,0.0,0.274129113,0.0,0.262851608,True,,582468295f4d1c0001c7c467,,907844,41,,evan-feature22,full_rf_b,,0
17,12267,42,,,,1,1,1.0,1.0,0.0,1.0,,0.0-44.0,,1.0,408.27,1.0,0.669189651,1.0,0.727614338,0.0,0.298444036,0.0,0.296944518,True,,582468295f4d1c0001c7c467,,918021,42,,evan-feature22,full_rf_b,,0
18,12268,43,,,,1,1,0.0,1.0,-1.0,0.0,,0.0-45.0,,0.0,326.5,0.0,0.6819912929999999,1.0,0.7179434290000001,1.0,0.265003961,0.0,0.28157921199999997,True,,582468295f4d1c0001c7c467,,928116,43,,evan-feature22,full_rf_b,,0
19,12269,44,,,,1,1,1.0,1.0,-1.0,0.0,,0.0-46.0,,-1.0,292.535,1.0,0.665275002,1.0,0.723065271,0.0,0.260414971,1.0,0.30973870000000003,True,,582468295f4d1c0001c7c467,,938179,44,,evan-feature22,full_rf_b,,0
20,12270,45,,,,1,1,1.0,0.0,0.0,1.0,,0.0-47.0,,0.0,150.015,1.0,0.6660593260000001,0.0,0.728032907,0.0,0.30922817,0.0,0.338778608,True,,582468295f4d1c0001c7c467,,948098,45,,evan-feature22,full_rf_b,,0
21,12271,46,,,,2,2,0.0,0.0,0.0,1.0,,0.0-48.0,,0.0,283.8,1.0,0.702068785,1.0,0.6528750879999999,0.0,0.287329608,0.0,0.35789613200000003,True,,582468295f4d1c0001c7c467,,958153,46,,evan-feature22,full_rf_b,,1
22,12272,47,,,,1,1,0.0,0.0,0.0,1.0,,0.0-49.0,,0.0,3193.76,0.0,0.651939787,0.0,0.636725589,1.0,0.284834488,1.0,0.358563756,True,,582468295f4d1c0001c7c467,,971111,47,,evan-feature22,full_rf_b,,1
23,12273,48,,,,2,2,1.0,0.0,0.0,1.0,,0.0-50.0,,0.0,453.145,1.0,0.67573929,1.0,0.612550049,1.0,0.37130387600000003,0.0,0.383542402,True,,582468295f4d1c0001c7c467,,981333,48,,evan-feature22,full_rf_b,,1
24,12274,49,,,,1,1,1.0,0.0,0.0,1.0,,0.0-51.0,,0.0,229.965,1.0,0.620753801,0.0,0.60513644,1.0,0.385529434,0.0,0.340361743,True,,582468295f4d1c0001c7c467,,991332,49,,evan-feature22,full_rf_b,,1
25,12275,50,,,,1,1,0.0,1.0,-1.0,0.0,,0.0-52.0,,0.0,294.335,0.0,0.673564893,1.0,0.672437924,0.0,0.292955382,1.0,0.337633795,True,,582468295f4d1c0001c7c467,,1001394,50,,evan-feature22,full_rf_b,,0
26,12276,51,,,,2,2,0.0,0.0,0.0,1.0,,0.0-53.0,,0.0,664.37,1.0,0.6749427,0.0,0.724197502,0.0,0.32391132100000003,0.0,0.350995264,True,,582468295f4d1c0001c7c467,,1011822,51,,evan-feature22,full_rf_b,,1
27,12277,52,,,,1,1,1.0,1.0,0.0,1.0,,0.0-54.0,,1.0,452.735,1.0,0.6940159379999999,1.0,0.75,0.0,0.31710554399999996,1.0,0.413450341,True,,582468295f4d1c0001c7c467,,1022043,52,,evan-feature22,full_rf_b,,1
28,12278,53,,,,2,2,0.0,0.0,0.0,1.0,,0.0-55.0,,0.0,496.84,1.0,0.6916018270000001,1.0,0.69001187,0.0,0.261817804,0.0,0.40038635,True,,582468295f4d1c0001c7c467,,1032302,53,,evan-feature22,full_rf_b,,1
29,12279,54,,,,1,1,1.0,1.0,0.0,1.0,,0.0-56.0,,1.0,676.42,1.0,0.641061544,1.0,0.71337992,0.0,0.277296461,1.0,0.47372791700000005,True,,582468295f4d1c0001c7c467,,1042750,54,,evan-feature22,full_rf_b,,1
30,12280,55,,,,1,1,1.0,1.0,0.0,1.0,,0.0-57.0,,1.0,587.625,1.0,0.6082438520000001,1.0,0.708471106,1.0,0.28745137,1.0,0.564174476,True,,582468295f4d1c0001c7c467,,1053108,55,,evan-feature22,full_rf_b,,0
31,12281,56,,,,1,1,1.0,1.0,-1.0,0.0,,0.0-58.0,,-1.0,156.31,1.0,0.6051112120000001,1.0,0.7118147229999999,0.0,0.272390611,1.0,0.5595149939999999,True,,582468295f4d1c0001c7c467,,1063034,56,,evan-feature22,full_rf_b,,0
32,12282,57,,,,1,1,1.0,1.0,-1.0,0.0,,0.0-59.0,,-1.0,470.675,1.0,0.582420852,1.0,0.635867583,1.0,0.31089574,1.0,0.5227206520000001,True,,582468295f4d1c0001c7c467,,1073273,57,,evan-feature22,full_rf_b,,0
33,12283,58,,,,2,2,1.0,1.0,-1.0,0.0,,0.0-60.0,,-1.0,351.39,1.0,0.623195575,0.0,0.655026044,1.0,0.25,1.0,0.560387538,True,,582468295f4d1c0001c7c467,,1083395,58,,evan-feature22,full_rf_b,,1
34,12284,59,,,,1,1,0.0,1.0,0.0,1.0,,0.0-61.0,,1.0,591.69,0.0,0.601889598,1.0,0.678198724,1.0,0.25,1.0,0.559922936,True,,582468295f4d1c0001c7c467,,1093756,59,,evan-feature22,full_rf_b,,1
35,12285,60,,,,1,1,0.0,1.0,-1.0,0.0,,0.0-62.0,,0.0,1295.275,0.0,0.601259914,1.0,0.704681482,0.0,0.33908969299999997,0.0,0.505003715,True,,582468295f4d1c0001c7c467,,1104816,60,,evan-feature22,full_rf_b,,0
36,12286,61,,,,2,2,1.0,1.0,-1.0,0.0,,0.0-63.0,,-1.0,425.765,1.0,0.59645454,0.0,0.710437172,1.0,0.327441879,1.0,0.391749613,True,,582468295f4d1c0001c7c467,,1115010,61,,evan-feature22,full_rf_b,,1
37,12287,62,,,,1,1,0.0,1.0,0.0,1.0,,0.0-64.0,,1.0,759.885,0.0,0.529473,1.0,0.636758527,0.0,0.301338063,0.0,0.365661481,True,,582468295f4d1c0001c7c467,,1125534,62,,evan-feature22,full_rf_b,,1
38,12288,63,,,,1,1,0.0,1.0,-1.0,0.0,,0.0-65.0,,0.0,1147.315,0.0,0.541657162,1.0,0.634541962,0.0,0.343535366,0.0,0.371763742,True,,582468295f4d1c0001c7c467,,1136448,63,,evan-feature22,full_rf_b,,0
39,12289,64,,,,1,1,0.0,0.0,-1.0,0.0,,0.0-66.0,,0.0,2202.395,0.0,0.5707533260000001,0.0,0.589121171,0.0,0.326428396,1.0,0.43961622899999997,True,,582468295f4d1c0001c7c467,,1148414,64,,evan-feature22,full_rf_b,,0
40,12290,65,,,,2,2,0.0,0.0,0.0,1.0,,0.0-67.0,,0.0,444.66,1.0,0.5707533260000001,0.0,0.589121171,0.0,0.326428396,0.0,0.43961622899999997,True,,582468295f4d1c0001c7c467,,1158621,65,,evan-feature22,full_rf_b,,1
41,12291,66,,,,2,2,0.0,0.0,0.0,1.0,,0.0-68.0,,0.0,483.9,1.0,0.506271295,0.0,0.641775594,0.0,0.37149690700000004,0.0,0.404330166,True,,582468295f4d1c0001c7c467,,1168869,66,,evan-feature22,full_rf_b,,0
42,12292,67,,,,1,1,1.0,1.0,-1.0,0.0,,0.0-69.0,,-1.0,2860.39,1.0,0.455642565,1.0,0.623605825,1.0,0.358753011,1.0,0.346174041,True,,582468295f4d1c0001c7c467,,1181497,67,,evan-feature22,full_rf_b,,1
43,12293,68,,,,2,2,0.0,0.0,0.0,1.0,,0.0-70.0,,0.0,855.72,0.0,0.483677308,0.0,0.5904681070000001,0.0,0.402218411,0.0,0.35344697,True,,582468295f4d1c0001c7c467,,1192119,68,,evan-feature22,full_rf_b,,1
44,12294,69,,,,2,2,0.0,0.0,-1.0,0.0,,0.0-71.0,,0.0,1146.165,1.0,0.394210977,0.0,0.558925494,0.0,0.540052017,0.0,0.35182128700000004,True,,582468295f4d1c0001c7c467,,1203030,69,,evan-feature22,full_rf_b,,0
45,12295,70,,,,1,1,0.0,1.0,0.0,1.0,,0.0-72.0,,1.0,1228.25,0.0,0.382300414,1.0,0.577670603,0.0,0.607608448,0.0,0.378261578,True,,582468295f4d1c0001c7c467,,1214023,70,,evan-feature22,full_rf_b,,1
46,12296,71,,,,1,1,1.0,1.0,-1.0,0.0,,0.0-73.0,,-1.0,290.625,1.0,0.357596762,1.0,0.5929076529999999,0.0,0.6579790010000001,0.0,0.401326777,True,,582468295f4d1c0001c7c467,,1224081,71,,evan-feature22,full_rf_b,,0
47,12297,72,,,,1,1,0.0,1.0,0.0,1.0,,0.0-74.0,,1.0,551.97,0.0,0.362033495,1.0,0.582308608,0.0,0.649195052,0.0,0.355158505,True,,582468295f4d1c0001c7c467,,1234401,72,,evan-feature22,full_rf_b,,0
48,12298,73,,,,1,1,0.0,1.0,0.0,1.0,,0.0-75.0,,1.0,791.885,0.0,0.369620635,1.0,0.669100864,1.0,0.706059111,0.0,0.362516241,True,,582468295f4d1c0001c7c467,,1244962,73,,evan-feature22,full_rf_b,,0
49,12299,74,,,,SLOW,SLOW,,,0.0,1.0,,0.0-76.0,,-3.0,,0.0,0.41477751399999996,1.0,0.7284416779999999,1.0,0.7182656940000001,1.0,0.36228040899999997,True,,582468295f4d1c0001c7c467,,1250769,74,,evan-feature22,full_rf_b,,1
50,12300,75,,,,1,1,1.0,1.0,-1.0,0.0,,0.0-77.0,,-1.0,1406.285,1.0,0.37675460299999997,1.0,0.703250285,1.0,0.75,0.0,0.461979164,True,,582468295f4d1c0001c7c467,,1261946,75,,evan-feature22,full_rf_b,,1
51,12301,76,,,,SLOW,SLOW,,,-1.0,0.0,,0.0-78.0,,-3.0,,0.0,0.398716075,1.0,0.6723864890000001,1.0,0.674153818,1.0,0.519029516,True,,582468295f4d1c0001c7c467,,1267755,76,,evan-feature22,full_rf_b,,1
52,12302,77,,,,1,1,1.0,1.0,-1.0,0.0,,0.0-79.0,,-1.0,493.905,1.0,0.34677856700000004,1.0,0.69057175,1.0,0.6822438540000001,0.0,0.477292237,True,,582468295f4d1c0001c7c467,,1278017,77,,evan-feature22,full_rf_b,,1
53,12303,78,,,,2,2,1.0,0.0,0.0,1.0,,0.0-80.0,,0.0,184.025,1.0,0.28580469199999997,1.0,0.68408818,1.0,0.684207565,0.0,0.49780448299999996,True,,582468295f4d1c0001c7c467,,1287971,78,,evan-feature22,full_rf_b,,1
54,12305,80,,,,2,2,1.0,0.0,0.0,1.0,,0.0-82.0,,0.0,919.99,0.0,0.25,1.0,0.7405808970000001,1.0,0.679614108,0.0,0.436436964,True,,582468295f4d1c0001c7c467,,1301197,80,,evan-feature22,full_rf_b,,0
55,12306,81,,,,1,1,1.0,1.0,0.0,1.0,,0.0-83.0,,1.0,210.595,1.0,0.29890393,1.0,0.730505706,1.0,0.7328203320000001,0.0,0.439256938,True,,582468295f4d1c0001c7c467,,1311176,81,,evan-feature22,full_rf_b,,1
56,12307,82,,,,1,1,1.0,1.0,-1.0,0.0,,0.0-84.0,,-1.0,214.98,1.0,0.326762398,1.0,0.7148059609999999,1.0,0.75,0.0,0.44389608799999997,True,,582468295f4d1c0001c7c467,,1321160,82,,evan-feature22,full_rf_b,,0
57,12308,83,,,,1,1,0.0,1.0,0.0,1.0,,0.0-85.0,,1.0,257.365,0.0,0.295168515,1.0,0.739760854,1.0,0.719947008,1.0,0.35277284600000003,True,,582468295f4d1c0001c7c467,,1331194,83,,evan-feature22,full_rf_b,,0
58,12309,84,,,,2,2,1.0,0.0,0.0,1.0,,0.0-86.0,,0.0,318.55,0.0,0.25,0.0,0.70781482,1.0,0.75,0.0,0.286095925,True,,582468295f4d1c0001c7c467,,1341280,84,,evan-feature22,full_rf_b,,1
59,12310,85,,,,1,1,0.0,1.0,0.0,1.0,,0.0-87.0,,1.0,503.985,0.0,0.25638190899999996,1.0,0.704088163,1.0,0.75,0.0,0.26872601399999996,True,,582468295f4d1c0001c7c467,,1351551,85,,evan-feature22,full_rf_b,,1
60,12311,86,,,,1,1,0.0,0.0,-1.0,0.0,,0.0-88.0,,0.0,142.57,0.0,0.271581126,0.0,0.669760107,1.0,0.733896663,0.0,0.273244572,True,,582468295f4d1c0001c7c467,,1361459,86,,evan-feature22,full_rf_b,,0
61,12312,87,,,,1,1,0.0,1.0,0.0,1.0,,0.0-89.0,,1.0,275.72,0.0,0.257144401,1.0,0.600575706,1.0,0.74488122,1.0,0.25,True,,582468295f4d1c0001c7c467,,1371503,87,,evan-feature22,full_rf_b,,0
62,12313,88,,,,1,1,0.0,0.0,0.0,1.0,,0.0-90.0,,0.0,200.29,0.0,0.25,0.0,0.616870026,1.0,0.723610234,0.0,0.25,True,,582468295f4d1c0001c7c467,,1381468,88,,evan-feature22,full_rf_b,,0
63,12314,89,,,,1,1,1.0,1.0,-1.0,0.0,,0.0-91.0,,-1.0,556.83,1.0,0.25,1.0,0.583540187,1.0,0.7041042559999999,0.0,0.285961995,True,,582468295f4d1c0001c7c467,,1391793,89,,evan-feature22,full_rf_b,,0
64,12315,90,,,,2,2,0.0,0.0,-1.0,0.0,,0.0-92.0,,0.0,136.015,1.0,0.27254536,1.0,0.53875765,0.0,0.693783448,0.0,0.284961652,True,,582468295f4d1c0001c7c467,,1401692,90,,evan-feature22,full_rf_b,,1
65,12316,91,,,,1,1,1.0,0.0,-1.0,0.0,,0.0-93.0,,-1.0,12.29,1.0,0.25,0.0,0.548431252,1.0,0.734221895,0.0,0.279445214,True,,582468295f4d1c0001c7c467,,1411472,91,,evan-feature22,full_rf_b,,1
66,12317,92,,,,2,2,1.0,0.0,0.0,1.0,,0.0-94.0,,0.0,175.24,0.0,0.258640684,1.0,0.545878066,1.0,0.725245965,0.0,0.31487537,True,,582468295f4d1c0001c7c467,,1421415,92,,evan-feature22,full_rf_b,,1
67,12318,93,,,,1,1,0.0,0.0,0.0,1.0,,0.0-95.0,,0.0,160.035,0.0,0.251103711,0.0,0.5776290629999999,1.0,0.696320133,0.0,0.317831047,True,,582468295f4d1c0001c7c467,,1431337,93,,evan-feature22,full_rf_b,,1
68,12319,94,,,,1,1,1.0,1.0,0.0,1.0,,0.0-96.0,,1.0,221.305,1.0,0.276630292,1.0,0.617329858,0.0,0.73838088,0.0,0.261471582,True,,582468295f4d1c0001c7c467,,1441330,94,,evan-feature22,full_rf_b,,0
69,12320,95,,,,1,1,0.0,0.0,0.0,1.0,,0.0-97.0,,0.0,6.51,0.0,0.297716424,0.0,0.618863717,1.0,0.7402358259999999,0.0,0.262600834,True,,582468295f4d1c0001c7c467,,1451098,95,,evan-feature22,full_rf_b,,0
70,12321,96,,,,1,1,1.0,1.0,-1.0,0.0,,0.0-98.0,,-1.0,78.055,1.0,0.290935512,1.0,0.695370945,1.0,0.706570507,1.0,0.280030553,True,,582468295f4d1c0001c7c467,,1460945,96,,evan-feature22,full_rf_b,,0
71,12322,97,,,,1,1,1.0,0.0,0.0,1.0,,0.0-99.0,,0.0,172.725,1.0,0.25,0.0,0.6465277079999999,1.0,0.67766682,0.0,0.25,True,,582468295f4d1c0001c7c467,,1470888,97,,evan-feature22,full_rf_b,,0
72,12323,98,,,,2,2,0.0,0.0,-1.0,0.0,,0.0-100.0,,0.0,150.86,0.0,0.26463816,0.0,0.636100213,0.0,0.646048507,0.0,0.265607101,True,,582468295f4d1c0001c7c467,,1480801,98,,evan-feature22,full_rf_b,,1
73,12324,99,,,,1,1,1.0,0.0,-1.0,0.0,,0.0-101.0,,-1.0,53.665,1.0,0.314340707,0.0,0.667795927,1.0,0.613630805,1.0,0.25,True,,582468295f4d1c0001c7c467,,1490624,99,,evan-feature22,full_rf_b,,1
74,12325,100,,,,2,2,1.0,0.0,0.0,1.0,,0.0-102.0,,0.0,302.975,0.0,0.28685784,1.0,0.6622549529999999,1.0,0.652154117,0.0,0.25,True,,582468295f4d1c0001c7c467,,1500696,100,,evan-feature22,full_rf_b,,1
75,12326,101,,,,1,1,0.0,0.0,0.0,1.0,,0.0-103.0,,0.0,352.505,0.0,0.304106554,0.0,0.631289538,1.0,0.707041942,0.0,0.29314237,True,,582468295f4d1c0001c7c467,,1510811,101,,evan-feature22,full_rf_b,,1
76,12327,102,,,,1,1,1.0,1.0,0.0,1.0,,0.0-104.0,,1.0,332.525,1.0,0.304806932,1.0,0.571167718,1.0,0.680472346,0.0,0.25,True,,582468295f4d1c0001c7c467,,1520911,102,,evan-feature22,full_rf_b,,0
77,12328,103,,,,1,1,1.0,0.0,0.0,1.0,,0.0-105.0,,0.0,111.61,1.0,0.37919861,0.0,0.5724849710000001,1.0,0.705638003,1.0,0.30179300600000003,True,,582468295f4d1c0001c7c467,,1530791,103,,evan-feature22,full_rf_b,,0
78,12329,104,,,,1,1,1.0,0.0,0.0,1.0,,0.0-106.0,,0.0,1512.395,1.0,0.464277969,0.0,0.554034373,0.0,0.7372627340000001,0.0,0.264699741,True,,582468295f4d1c0001c7c467,,1542066,104,,evan-feature22,full_rf_b,,0
79,12330,105,,,,2,2,1.0,0.0,0.0,1.0,,0.0-107.0,,0.0,411.89,0.0,0.465104323,1.0,0.530793115,1.0,0.75,0.0,0.31683071,True,,582468295f4d1c0001c7c467,,1552246,105,,evan-feature22,full_rf_b,,1
80,12331,106,,,,1,1,1.0,0.0,-1.0,0.0,,0.0-108.0,,-1.0,399.025,1.0,0.465104323,0.0,0.530793115,1.0,0.75,1.0,0.31683071,True,,582468295f4d1c0001c7c467,,1562417,106,,evan-feature22,full_rf_b,,1
81,12332,107,,,,2,2,0.0,1.0,-1.0,0.0,,0.0-109.0,,0.0,108.845,0.0,0.46833986,0.0,0.570249239,0.0,0.7244472590000001,1.0,0.364114163,True,,582468295f4d1c0001c7c467,,1572292,107,,evan-feature22,full_rf_b,,1
82,12333,108,,,,2,2,0.0,0.0,-1.0,0.0,,0.0-110.0,,0.0,107.17,1.0,0.445444024,0.0,0.649673355,0.0,0.6845441290000001,0.0,0.300660449,True,,582468295f4d1c0001c7c467,,1582161,108,,evan-feature22,full_rf_b,,0
83,12334,109,,,,2,2,1.0,1.0,-1.0,0.0,,0.0-111.0,,-1.0,325.905,0.0,0.39909721299999995,1.0,0.6715179509999999,1.0,0.742310028,1.0,0.35496088299999995,True,,582468295f4d1c0001c7c467,,1592254,109,,evan-feature22,full_rf_b,,0
84,12335,110,,,,2,2,1.0,1.0,0.0,1.0,,0.0-112.0,,1.0,319.9,0.0,0.37956104799999996,0.0,0.694725302,1.0,0.7181651309999999,1.0,0.38726906299999997,True,,582468295f4d1c0001c7c467,,1602343,110,,evan-feature22,full_rf_b,,0
85,12336,111,,,,2,2,1.0,0.0,0.0,1.0,,0.0-113.0,,0.0,350.4,0.0,0.404995034,1.0,0.724375412,1.0,0.6910946859999999,0.0,0.387187347,True,,582468295f4d1c0001c7c467,,1612462,111,,evan-feature22,full_rf_b,,0
86,12337,112,,,,1,1,1.0,1.0,-1.0,0.0,,0.0-114.0,,-1.0,319.675,1.0,0.461740803,1.0,0.75,1.0,0.75,0.0,0.34872038200000005,True,,582468295f4d1c0001c7c467,,1622552,112,,evan-feature22,full_rf_b,,1
87,12338,113,,,,1,1,0.0,0.0,-1.0,0.0,,0.0-115.0,,0.0,103.25,0.0,0.43821380600000004,0.0,0.738833273,1.0,0.728286963,0.0,0.399538128,True,,582468295f4d1c0001c7c467,,1632420,113,,evan-feature22,full_rf_b,,0
88,12339,114,,,,2,2,1.0,0.0,0.0,1.0,,0.0-116.0,,0.0,458.365,1.0,0.41709882,0.0,0.736666736,1.0,0.75,0.0,0.389095584,True,,582468295f4d1c0001c7c467,,1642646,114,,evan-feature22,full_rf_b,,1
89,12340,115,,,,2,2,0.0,0.0,0.0,1.0,,0.0-117.0,,0.0,1287.72,1.0,0.39749009799999996,1.0,0.744320029,0.0,0.75,0.0,0.363848678,True,,582468295f4d1c0001c7c467,,1653698,115,,evan-feature22,full_rf_b,,0
90,12341,116,,,,1,1,0.0,1.0,-1.0,0.0,,0.0-118.0,,0.0,28.105,0.0,0.392653706,1.0,0.75,1.0,0.75,1.0,0.384386976,True,,582468295f4d1c0001c7c467,,1663494,116,,evan-feature22,full_rf_b,,1
91,12342,117,,,,1,1,0.0,1.0,0.0,1.0,,0.0-119.0,,1.0,102.02,0.0,0.31190902600000003,1.0,0.75,1.0,0.732413819,0.0,0.413082932,True,,582468295f4d1c0001c7c467,,1673366,117,,evan-feature22,full_rf_b,,0
92,12343,118,,,,1,1,0.0,1.0,-1.0,0.0,,0.0-120.0,,0.0,22.98,0.0,0.366917648,1.0,0.740073855,1.0,0.75,0.0,0.352861979,True,,582468295f4d1c0001c7c467,,1683159,118,,evan-feature22,full_rf_b,,0
93,12344,119,,,,1,1,0.0,0.0,-1.0,0.0,,0.0-121.0,,0.0,279.775,0.0,0.3645172,0.0,0.721770713,1.0,0.75,0.0,0.404074511,True,,582468295f4d1c0001c7c467,,1693203,119,,evan-feature22,full_rf_b,,0
94,12345,120,,,,2,2,1.0,0.0,-1.0,0.0,,0.0-122.0,,-1.0,251.25,1.0,0.35205600299999995,1.0,0.68983859,1.0,0.739735447,0.0,0.366895945,True,,582468295f4d1c0001c7c467,,1703223,120,,evan-feature22,full_rf_b,,1
95,12346,121,,,,1,1,0.0,1.0,-1.0,0.0,,0.0-123.0,,0.0,566.965,0.0,0.40998722600000004,1.0,0.720859127,0.0,0.673854955,0.0,0.368528541,True,,582468295f4d1c0001c7c467,,1713557,121,,evan-feature22,full_rf_b,,1
96,12347,122,,,,1,1,0.0,1.0,-1.0,0.0,,0.0-124.0,,0.0,272.65,0.0,0.353625316,1.0,0.75,1.0,0.695605473,0.0,0.38303674200000004,True,,582468295f4d1c0001c7c467,,1723598,122,,evan-feature22,full_rf_b,,0
97,12348,123,,,,1,1,1.0,0.0,-1.0,0.0,,0.0-125.0,,-1.0,375.94,1.0,0.359216989,0.0,0.75,1.0,0.6987915090000001,0.0,0.35169046200000004,True,,582468295f4d1c0001c7c467,,1733741,123,,evan-feature22,full_rf_b,,0
98,12349,124,,,,2,2,1.0,0.0,-1.0,0.0,,0.0-126.0,,-1.0,424.52,0.0,0.35834496899999996,1.0,0.75,1.0,0.707067742,0.0,0.416763636,True,,582468295f4d1c0001c7c467,,1743935,124,,evan-feature22,full_rf_b,,1
99,12350,125,,,,2,2,1.0,1.0,0.0,1.0,,0.0-127.0,,1.0,1351.505,1.0,0.38741613799999997,1.0,0.7177369570000001,1.0,0.734902455,1.0,0.49438664299999996,True,,582468295f4d1c0001c7c467,,1755052,125,,evan-feature22,full_rf_b,,0
100,12351,126,,,,2,2,0.0,0.0,-1.0,0.0,,0.0-128.0,,0.0,2297.6,0.0,0.405255252,0.0,0.7300466640000001,0.0,0.7027748070000001,0.0,0.504359668,True,,582468295f4d1c0001c7c467,,1767113,126,,evan-feature22,full_rf_b,,0
101,12352,127,,,,1,1,1.0,1.0,-1.0,0.0,,0.0-129.0,,-1.0,362.085,1.0,0.40697073,1.0,0.7260142190000001,1.0,0.724461982,0.0,0.522779179,True,,582468295f4d1c0001c7c467,,1777245,127,,evan-feature22,full_rf_b,,1
102,12353,128,,,,1,1,1.0,1.0,-1.0,0.0,,0.0-130.0,,-1.0,472.58,1.0,0.43906215299999996,1.0,0.7252802340000001,0.0,0.719079934,1.0,0.5712990579999999,True,,582468295f4d1c0001c7c467,,1787486,128,,evan-feature22,full_rf_b,,0
103,12354,129,,,,1,1,0.0,1.0,0.0,1.0,,0.0-131.0,,1.0,1062.385,0.0,0.4076705,1.0,0.73280499,1.0,0.681313127,0.0,0.523891346,True,,582468295f4d1c0001c7c467,,1798313,129,,evan-feature22,full_rf_b,,0
104,12355,130,,,,1,1,1.0,0.0,0.0,1.0,,0.0-132.0,,0.0,11.64,1.0,0.399102911,0.0,0.730498344,1.0,0.661080239,1.0,0.46742603,True,,582468295f4d1c0001c7c467,,1808095,130,,evan-feature22,full_rf_b,,0
105,12356,131,,,,2,2,1.0,1.0,0.0,1.0,,0.0-133.0,,1.0,15.805,0.0,0.356477282,1.0,0.712296395,1.0,0.641812684,1.0,0.44868414,True,,582468295f4d1c0001c7c467,,1817878,131,,evan-feature22,full_rf_b,,1
106,12357,132,,,,1,1,1.0,0.0,-1.0,0.0,,0.0-134.0,,-1.0,1878.865,1.0,0.462760722,0.0,0.692349322,1.0,0.700947931,0.0,0.394680266,True,,582468295f4d1c0001c7c467,,1829522,132,,evan-feature22,full_rf_b,,1
107,12358,133,,,,1,1,1.0,1.0,-1.0,0.0,,0.0-135.0,,-1.0,130.745,1.0,0.422306413,1.0,0.718375916,0.0,0.706340917,0.0,0.367787185,True,,582468295f4d1c0001c7c467,,1839420,133,,evan-feature22,full_rf_b,,0
108,12360,135,,,,2,2,0.0,0.0,-1.0,0.0,,0.0-137.0,,0.0,2234.59,1.0,0.4582233,0.0,0.643834117,0.0,0.75,0.0,0.39615823299999997,True,,582468295f4d1c0001c7c467,,1918989,135,,evan-feature22,full_rf_b,,1
109,12361,136,,,,1,1,0.0,1.0,-1.0,0.0,,0.0-138.0,,0.0,318.01,0.0,0.43813437899999996,1.0,0.651283804,1.0,0.729674191,1.0,0.37711048,True,,582468295f4d1c0001c7c467,,1929077,136,,evan-feature22,full_rf_b,,1
110,12362,137,,,,1,1,0.0,1.0,-1.0,0.0,,0.0-139.0,,0.0,151.26,0.0,0.471199094,1.0,0.6470010979999999,1.0,0.715008097,0.0,0.410656191,True,,582468295f4d1c0001c7c467,,1938997,137,,evan-feature22,full_rf_b,,0
111,12363,138,,,,2,2,0.0,0.0,-1.0,0.0,,0.0-140.0,,0.0,157.7,0.0,0.42486406,1.0,0.629771829,0.0,0.6550939960000001,0.0,0.459093873,True,,582468295f4d1c0001c7c467,,1948918,138,,evan-feature22,full_rf_b,,1
112,12364,139,,,,1,1,1.0,1.0,-1.0,0.0,,0.0-141.0,,-1.0,286.34,1.0,0.4803197,1.0,0.645842715,1.0,0.6421749920000001,1.0,0.443092151,True,,582468295f4d1c0001c7c467,,1958971,139,,evan-feature22,full_rf_b,,1
113,12365,140,,,,2,2,0.0,0.0,0.0,1.0,,0.0-142.0,,0.0,392.47,0.0,0.521848997,0.0,0.735801074,0.0,0.6691348460000001,0.0,0.45259351600000003,True,,582468295f4d1c0001c7c467,,1969125,140,,evan-feature22,full_rf_b,,1
114,12366,141,,,,1,1,0.0,1.0,-1.0,0.0,,0.0-143.0,,0.0,21.48,0.0,0.49565621299999996,1.0,0.742400847,0.0,0.661512553,1.0,0.483110831,True,,582468295f4d1c0001c7c467,,1978915,141,,evan-feature22,full_rf_b,,1
115,12367,142,,,,2,2,0.0,1.0,-1.0,0.0,,0.0-144.0,,0.0,64.18,0.0,0.521564361,1.0,0.731078632,0.0,0.6774886809999999,1.0,0.483263956,True,,582468295f4d1c0001c7c467,,1988747,142,,evan-feature22,full_rf_b,,1
116,12368,143,,,,2,2,1.0,0.0,-1.0,0.0,,0.0-145.0,,-1.0,48.6,0.0,0.558893102,1.0,0.719810023,1.0,0.67461031,0.0,0.499349834,True,,582468295f4d1c0001c7c467,,1998564,143,,evan-feature22,full_rf_b,,0
117,12369,144,,,,2,2,1.0,1.0,-1.0,0.0,,0.0-146.0,,-1.0,104.365,0.0,0.611031046,1.0,0.75,1.0,0.688072995,1.0,0.5321422729999999,True,,582468295f4d1c0001c7c467,,2008436,144,,evan-feature22,full_rf_b,,0
118,12370,145,,,,1,1,0.0,1.0,0.0,1.0,,0.0-147.0,,1.0,52.915,0.0,0.633223941,1.0,0.713567728,1.0,0.75,1.0,0.48185314700000004,True,,582468295f4d1c0001c7c467,,2018261,145,,evan-feature22,full_rf_b,,1
119,12371,146,,,,1,1,1.0,1.0,-1.0,0.0,,0.0-148.0,,-1.0,188.23,1.0,0.664001694,1.0,0.705509768,1.0,0.75,0.0,0.500211065,True,,582468295f4d1c0001c7c467,,2028217,146,,evan-feature22,full_rf_b,,0
120,12372,147,,,,1,1,1.0,0.0,-1.0,0.0,,0.0-149.0,,-1.0,247.93,1.0,0.664001694,0.0,0.705509768,1.0,0.75,0.0,0.500211065,True,,582468295f4d1c0001c7c467,,2038233,147,,evan-feature22,full_rf_b,,0
121,12373,148,,,,2,2,1.0,1.0,-1.0,0.0,,0.0-150.0,,-1.0,54.26,0.0,0.696508041,1.0,0.71066027,1.0,0.717028709,1.0,0.49792991,True,,582468295f4d1c0001c7c467,,2048059,148,,evan-feature22,full_rf_b,,1
122,12374,149,,,,2,2,1.0,0.0,0.0,1.0,,0.0-151.0,,0.0,9.14,1.0,0.699883272,1.0,0.75,1.0,0.713543895,0.0,0.496962643,True,,582468295f4d1c0001c7c467,,2057836,149,,evan-feature22,full_rf_b,,0
123,12375,150,,,,2,2,1.0,1.0,0.0,1.0,,0.0-152.0,,1.0,151.15,0.0,0.741163419,1.0,0.75,1.0,0.64691024,1.0,0.513858197,True,,582468295f4d1c0001c7c467,,2067753,150,,evan-feature22,full_rf_b,,0
124,12376,151,,,,1,1,1.0,1.0,0.0,1.0,,0.0-153.0,,1.0,361.4,1.0,0.75,1.0,0.70816558,0.0,0.594499079,1.0,0.48502124,True,,582468295f4d1c0001c7c467,,2077883,151,,evan-feature22,full_rf_b,,1
125,12377,152,,,,2,2,1.0,0.0,-1.0,0.0,,0.0-154.0,,-1.0,263.985,1.0,0.75,0.0,0.721848901,1.0,0.62197249,0.0,0.48263586399999997,True,,582468295f4d1c0001c7c467,,2087914,152,,evan-feature22,full_rf_b,,1
126,12378,153,,,,1,1,1.0,1.0,-1.0,0.0,,0.0-155.0,,-1.0,584.12,1.0,0.75,1.0,0.74813071,0.0,0.584357161,0.0,0.411477782,True,,582468295f4d1c0001c7c467,,2098265,153,,evan-feature22,full_rf_b,,1
127,12379,154,,,,1,1,1.0,1.0,-1.0,0.0,,0.0-156.0,,-1.0,152.515,1.0,0.75,1.0,0.75,1.0,0.52287236,1.0,0.488290656,True,,582468295f4d1c0001c7c467,,2108188,154,,evan-feature22,full_rf_b,,0
128,12380,155,,,,1,1,0.0,0.0,-1.0,0.0,,0.0-157.0,,0.0,39.88,0.0,0.75,0.0,0.75,1.0,0.544321581,0.0,0.53143059,True,,582468295f4d1c0001c7c467,,2117989,155,,evan-feature22,full_rf_b,,0
129,12381,156,,,,2,2,0.0,1.0,-1.0,0.0,,0.0-158.0,,0.0,254.78,0.0,0.726754564,1.0,0.75,0.0,0.5129306370000001,1.0,0.530592445,True,,582468295f4d1c0001c7c467,,2128012,156,,evan-feature22,full_rf_b,,1
130,12382,157,,,,1,1,1.0,0.0,0.0,1.0,,0.0-159.0,,0.0,414.085,1.0,0.75,0.0,0.7392590729999999,0.0,0.479875835,1.0,0.547007051,True,,582468295f4d1c0001c7c467,,2138194,157,,evan-feature22,full_rf_b,,1
131,12383,158,,,,1,1,1.0,1.0,0.0,1.0,,0.0-160.0,,1.0,125.215,1.0,0.75,1.0,0.7393376979999999,0.0,0.546045419,0.0,0.541267353,True,,582468295f4d1c0001c7c467,,2148090,158,,evan-feature22,full_rf_b,,0
132,12384,159,,,,1,1,0.0,1.0,-1.0,0.0,,0.0-161.0,,0.0,384.635,0.0,0.75,1.0,0.75,1.0,0.485725895,0.0,0.527625395,True,,582468295f4d1c0001c7c467,,2158242,159,,evan-feature22,full_rf_b,,0
133,12385,160,,,,2,2,0.0,1.0,0.0,1.0,,0.0-162.0,,1.0,295.6,1.0,0.75,1.0,0.725087974,0.0,0.488603595,1.0,0.504019206,True,,582468295f4d1c0001c7c467,,2168306,160,,evan-feature22,full_rf_b,,1
134,12386,161,,,,2,2,1.0,0.0,-1.0,0.0,,0.0-163.0,,-1.0,193.035,0.0,0.745504295,1.0,0.75,1.0,0.452379914,0.0,0.50131194,True,,582468295f4d1c0001c7c467,,2178266,161,,evan-feature22,full_rf_b,,0
135,12387,162,,,,1,1,0.0,1.0,0.0,1.0,,0.0-164.0,,1.0,384.25,0.0,0.728513874,1.0,0.75,0.0,0.44125567200000004,0.0,0.531454591,True,,582468295f4d1c0001c7c467,,2188418,162,,evan-feature22,full_rf_b,,1
136,12388,163,,,,1,1,1.0,1.0,-1.0,0.0,,0.0-165.0,,-1.0,159.89,1.0,0.73790804,1.0,0.75,1.0,0.413036656,1.0,0.524619035,True,,582468295f4d1c0001c7c467,,2198345,163,,evan-feature22,full_rf_b,,0
137,12389,164,,,,1,1,1.0,1.0,-1.0,0.0,,0.0-166.0,,-1.0,487.99,1.0,0.7080961309999999,1.0,0.708666865,0.0,0.431915581,1.0,0.481819489,True,,582468295f4d1c0001c7c467,,2208601,164,,evan-feature22,full_rf_b,,0
138,12390,165,,,,2,2,0.0,0.0,-1.0,0.0,,0.0-167.0,,0.0,399.74,1.0,0.721378003,0.0,0.71605913,0.0,0.36642387,0.0,0.5036739929999999,True,,582468295f4d1c0001c7c467,,2218764,165,,evan-feature22,full_rf_b,,1
139,12391,166,,,,2,2,0.0,1.0,0.0,1.0,,0.0-168.0,,1.0,244.69,1.0,0.7340618959999999,1.0,0.699323252,0.0,0.35298046299999997,1.0,0.511241692,True,,582468295f4d1c0001c7c467,,2228777,166,,evan-feature22,full_rf_b,,0
140,12392,167,,,,2,2,1.0,0.0,0.0,1.0,,0.0-169.0,,0.0,112.005,0.0,0.75,0.0,0.70412698,1.0,0.380734814,0.0,0.529580116,True,,582468295f4d1c0001c7c467,,2238658,167,,evan-feature22,full_rf_b,,0
141,12393,168,,,,2,2,0.0,1.0,0.0,1.0,,0.0-170.0,,1.0,157.54,1.0,0.7436654909999999,1.0,0.711182751,0.0,0.41125331,1.0,0.49554405,True,,582468295f4d1c0001c7c467,,2248586,168,,evan-feature22,full_rf_b,,0
142,12394,169,,,,2,2,0.0,0.0,-1.0,0.0,,0.0-171.0,,0.0,175.695,1.0,0.731607915,1.0,0.651774583,0.0,0.35688023,0.0,0.45194491600000003,True,,582468295f4d1c0001c7c467,,2258524,169,,evan-feature22,full_rf_b,,0
143,12395,170,,,,2,2,0.0,1.0,0.0,1.0,,0.0-172.0,,1.0,124.39,0.0,0.75,1.0,0.75,0.0,0.283145374,1.0,0.528608005,True,,582468295f4d1c0001c7c467,,2268417,170,,evan-feature22,full_rf_b,,0
144,12396,171,,,,2,2,1.0,0.0,-1.0,0.0,,0.0-173.0,,-1.0,191.3,1.0,0.7491416890000001,1.0,0.7423785959999999,1.0,0.29135870399999997,0.0,0.498888318,True,,582468295f4d1c0001c7c467,,2278377,171,,evan-feature22,full_rf_b,,0
145,12397,172,,,,1,1,1.0,0.0,0.0,1.0,,0.0-174.0,,0.0,182.98,1.0,0.708569387,0.0,0.717682277,0.0,0.294421699,1.0,0.493838163,True,,582468295f4d1c0001c7c467,,2288330,172,,evan-feature22,full_rf_b,,1
146,12398,173,,,,2,2,0.0,1.0,-1.0,0.0,,0.0-175.0,,0.0,504.285,1.0,0.75,1.0,0.7383382159999999,0.0,0.356098707,1.0,0.442533405,True,,582468295f4d1c0001c7c467,,2298604,173,,evan-feature22,full_rf_b,,1
147,12399,174,,,,2,2,1.0,0.0,-1.0,0.0,,0.0-176.0,,-1.0,237.59,0.0,0.744527075,1.0,0.75,1.0,0.334127506,0.0,0.393165805,True,,582468295f4d1c0001c7c467,,2308610,174,,evan-feature22,full_rf_b,,0
148,12400,175,,,,2,2,1.0,0.0,-1.0,0.0,,0.0-177.0,,-1.0,159.91,1.0,0.75,1.0,0.75,1.0,0.33571021799999995,0.0,0.350393962,True,,582468295f4d1c0001c7c467,,2318538,175,,evan-feature22,full_rf_b,,0
149,12401,176,,,,1,1,1.0,1.0,0.0,1.0,,0.0-178.0,,1.0,447.35,1.0,0.75,1.0,0.75,0.0,0.313628297,0.0,0.36349657399999996,True,,582468295f4d1c0001c7c467,,2328753,176,,evan-feature22,full_rf_b,,1
150,12402,177,,,,1,1,1.0,1.0,-1.0,0.0,,0.0-179.0,,-1.0,1191.49,1.0,0.75,1.0,0.734284182,1.0,0.262667667,0.0,0.380199119,True,,582468295f4d1c0001c7c467,,2339709,177,,evan-feature22,full_rf_b,,0
151,12403,178,,,,2,2,0.0,0.0,-1.0,0.0,,0.0-180.0,,0.0,432.085,1.0,0.75,1.0,0.75,0.0,0.25,0.0,0.394494013,True,,582468295f4d1c0001c7c467,,2349908,178,,evan-feature22,full_rf_b,,1
152,12404,179,,,,2,2,0.0,1.0,-1.0,0.0,,0.0-181.0,,0.0,661.225,1.0,0.722298145,1.0,0.7357822340000001,0.0,0.25,1.0,0.319142121,True,,582468295f4d1c0001c7c467,,2360338,179,,evan-feature22,full_rf_b,,0
153,12405,180,,,,1,1,0.0,1.0,-1.0,0.0,,0.0-182.0,,0.0,382.565,0.0,0.73149275,1.0,0.724276446,1.0,0.305856907,0.0,0.281315057,True,,582468295f4d1c0001c7c467,,2370488,180,,evan-feature22,full_rf_b,,1
154,12406,181,,,,2,2,0.0,0.0,-1.0,0.0,,0.0-183.0,,0.0,331.995,0.0,0.7458732690000001,1.0,0.7336382459999999,0.0,0.272571964,0.0,0.266021999,True,,582468295f4d1c0001c7c467,,2380603,181,,evan-feature22,full_rf_b,,1
155,12407,182,,,,1,1,1.0,1.0,0.0,1.0,,0.0-184.0,,1.0,333.83,1.0,0.705579037,1.0,0.720778292,1.0,0.320238144,0.0,0.30971744,True,,582468295f4d1c0001c7c467,,2390703,182,,evan-feature22,full_rf_b,,1
156,12408,183,,,,1,1,0.0,1.0,0.0,1.0,,0.0-185.0,,1.0,40.84,0.0,0.700425648,1.0,0.7198784009999999,1.0,0.272590393,0.0,0.304182931,True,,582468295f4d1c0001c7c467,,2400511,183,,evan-feature22,full_rf_b,,0
157,12409,184,,,,2,2,0.0,0.0,0.0,1.0,,0.0-186.0,,0.0,192.21,1.0,0.735590785,1.0,0.722714973,0.0,0.25,0.0,0.323421091,True,,582468295f4d1c0001c7c467,,2410468,184,,evan-feature22,full_rf_b,,1
158,12410,185,,,,1,1,0.0,1.0,0.0,1.0,,0.0-187.0,,1.0,397.49,0.0,0.724807662,1.0,0.63146213,1.0,0.36836492600000004,0.0,0.34592153299999995,True,,582468295f4d1c0001c7c467,,2420634,185,,evan-feature22,full_rf_b,,1
159,12411,186,,,,1,1,1.0,1.0,-1.0,0.0,,0.0-188.0,,-1.0,118.895,1.0,0.7352796909999999,1.0,0.555111392,0.0,0.36003922,0.0,0.31433779999999995,True,,582468295f4d1c0001c7c467,,2430520,186,,evan-feature22,full_rf_b,,0
160,12412,187,notice,,,,,,,,,,0.0-189.0,"{""Q0"":""the patterns were very unpredictable and i found it difficult to choose the one with the positive number""}",,70274.0,,,,,,,,,True,,582468295f4d1c0001c7c467,,2500797,187,Q,survey-text,full_rf_b,,1
161,12413,188,track1,,[1],,,,,,,,0.0-190.0,"{""Q0"":""no""}",,6129.0,,,,,,,,,True,,582468295f4d1c0001c7c467,,2506934,188,Q,evan-quiz,full_rf_b,,1
162,12414,189,track2,,[0],,,,,,,,0.0-191.0,"{""Q0"":""yes""}",,14963.0,,,,,,,,,True,,582468295f4d1c0001c7c467,,2521904,189,Q,evan-quiz,full_rf_b,,1
163,12415,190,strat,,,,,,,,,,0.0-192.0,"{""Q0"":""i tried to follow a pattern but it didnt work so i randomly picked as i would in real life. I felt the positive numbers were more frequently shown on the left side (g)""}",,68233.0,,,,,,,,,True,,582468295f4d1c0001c7c467,,2590142,190,Q,survey-text,full_rf_b,,1
