,index,Unnamed: 0,Q_name,button_pressed,choice_idxs,chosen_pos,chosen_state,chosen_state_f_1_outcome,chosen_state_f_2_outcome,f_1_reward,f_2_reward,incor_questions,internal_node_id,responses,reward_received,rt,s_1_f_1_outcome,s_1_f_1_prob,s_1_f_2_outcome,s_1_f_2_prob,s_2_f_1_outcome,s_2_f_1_prob,s_2_f_2_outcome,s_2_f_2_prob,safe_first,stimulus,subjectID,success,time_elapsed,trial_index,trial_num,trial_type,version,view_history,switching
0,37974,35,,,,1,1,1.0,0.0,1.0,0.0,,0.0-27.0,,1.0,2302.695,1.0,0.6,0.0,0.6,0.0,0.4,0.0,0.4,True,,5f2c2b2e4d46190913d07955,,1030707,35,,evan-feature22,full_rf_a,,0
1,37975,36,,,,1,1,0.0,0.0,1.0,0.0,,0.0-28.0,,0.0,1548.33,0.0,0.608053294,0.0,0.63424552,1.0,0.397152172,0.0,0.347069101,True,,5f2c2b2e4d46190913d07955,,1042080,36,,evan-feature22,full_rf_a,,0
2,37976,37,,,,1,1,1.0,1.0,1.0,0.0,,0.0-29.0,,1.0,1556.76,1.0,0.642237155,1.0,0.648566321,0.0,0.389407674,1.0,0.285525717,True,,5f2c2b2e4d46190913d07955,,1053460,37,,evan-feature22,full_rf_a,,0
3,37977,38,,,,SLOW,SLOW,,,1.0,0.0,,0.0-30.0,,-3.0,,0.0,0.661086576,0.0,0.630492543,1.0,0.399058924,0.0,0.25,True,,5f2c2b2e4d46190913d07955,,1059302,38,,evan-feature22,full_rf_a,,1
4,37978,39,,,,1,1,0.0,1.0,0.0,-1.0,,0.0-31.0,,-1.0,1376.435,0.0,0.631324137,1.0,0.6269842929999999,0.0,0.38734784299999997,0.0,0.25,True,,5f2c2b2e4d46190913d07955,,1070502,39,,evan-feature22,full_rf_a,,1
5,37979,40,,,,SLOW,SLOW,,,0.0,-1.0,,0.0-32.0,,-3.0,,0.0,0.6381991370000001,1.0,0.68987999,0.0,0.384107265,0.0,0.271332943,True,,5f2c2b2e4d46190913d07955,,1076326,40,,evan-feature22,full_rf_a,,1
6,37980,41,,,,1,1,1.0,1.0,1.0,0.0,,0.0-33.0,,1.0,695.05,1.0,0.66034901,1.0,0.742641349,0.0,0.360225629,0.0,0.25,True,,5f2c2b2e4d46190913d07955,,1086876,41,,evan-feature22,full_rf_a,,1
7,37981,42,,,,1,1,1.0,1.0,1.0,0.0,,0.0-34.0,,1.0,441.95500020000003,1.0,0.638612418,1.0,0.75,0.0,0.367273939,0.0,0.25,True,,5f2c2b2e4d46190913d07955,,1097140,42,,evan-feature22,full_rf_a,,0
8,37982,43,,,,1,1,0.0,1.0,0.0,-1.0,,0.0-35.0,,-1.0,739.3050001,0.0,0.624340629,1.0,0.75,1.0,0.425829545,0.0,0.25,True,,5f2c2b2e4d46190913d07955,,1107700,43,,evan-feature22,full_rf_a,,0
9,37983,44,,,,2,2,0.0,1.0,0.0,-1.0,,0.0-36.0,,-1.0,3140.375,0.0,0.621999804,1.0,0.75,0.0,0.368609357,1.0,0.25,True,,5f2c2b2e4d46190913d07955,,1120640,44,,evan-feature22,full_rf_a,,1
10,37984,45,,,,1,1,0.0,1.0,1.0,0.0,,0.0-37.0,,0.0,755.9749999,0.0,0.62666403,1.0,0.75,0.0,0.311151498,0.0,0.25,True,,5f2c2b2e4d46190913d07955,,1131206,45,,evan-feature22,full_rf_a,,1
11,37985,46,,,,2,2,0.0,0.0,0.0,-1.0,,0.0-38.0,,0.0,662.8149999,1.0,0.6819650009999999,1.0,0.75,0.0,0.310763048,0.0,0.25,True,,5f2c2b2e4d46190913d07955,,1141713,46,,evan-feature22,full_rf_a,,1
12,37986,47,,,,2,2,0.0,0.0,1.0,0.0,,0.0-39.0,,0.0,632.2550001,1.0,0.740626951,1.0,0.75,0.0,0.25,0.0,0.25,True,,5f2c2b2e4d46190913d07955,,1152163,47,,evan-feature22,full_rf_a,,0
13,37987,48,,,,2,2,1.0,0.0,1.0,0.0,,0.0-40.0,,1.0,752.4849998,1.0,0.739599242,1.0,0.742034978,1.0,0.25397114600000004,0.0,0.25,True,,5f2c2b2e4d46190913d07955,,1162744,48,,evan-feature22,full_rf_a,,0
14,37988,49,,,,2,2,0.0,0.0,1.0,0.0,,0.0-41.0,,0.0,799.1450001000001,1.0,0.732341315,1.0,0.72735643,0.0,0.25,0.0,0.25,True,,5f2c2b2e4d46190913d07955,,1173370,49,,evan-feature22,full_rf_a,,0
15,37989,50,,,,1,1,1.0,1.0,1.0,0.0,,0.0-42.0,,1.0,388.455,1.0,0.7062287770000001,1.0,0.75,0.0,0.29002151,1.0,0.288256649,True,,5f2c2b2e4d46190913d07955,,1183598,50,,evan-feature22,full_rf_a,,1
16,37990,51,,,,1,1,1.0,1.0,1.0,0.0,,0.0-43.0,,1.0,402.1300001,1.0,0.7086029209999999,1.0,0.75,0.0,0.274129113,0.0,0.262851608,True,,5f2c2b2e4d46190913d07955,,1193829,51,,evan-feature22,full_rf_a,,0
17,37991,52,,,,1,1,1.0,0.0,1.0,0.0,,0.0-44.0,,1.0,469.695,1.0,0.669189651,0.0,0.727614338,0.0,0.298444036,0.0,0.296944518,True,,5f2c2b2e4d46190913d07955,,1204140,52,,evan-feature22,full_rf_a,,0
18,37992,53,,,,1,1,0.0,1.0,1.0,0.0,,0.0-45.0,,0.0,501.23000010000004,0.0,0.6819912929999999,1.0,0.7179434290000001,0.0,0.265003961,0.0,0.28157921199999997,True,,5f2c2b2e4d46190913d07955,,1214468,53,,evan-feature22,full_rf_a,,0
19,37993,54,,,,1,1,1.0,1.0,0.0,-1.0,,0.0-46.0,,-1.0,527.0199999,1.0,0.665275002,1.0,0.723065271,1.0,0.260414971,0.0,0.30973870000000003,True,,5f2c2b2e4d46190913d07955,,1224816,54,,evan-feature22,full_rf_a,,0
20,37994,55,,,,2,2,0.0,1.0,1.0,0.0,,0.0-47.0,,0.0,565.6100002000001,0.0,0.6660593260000001,1.0,0.728032907,0.0,0.30922817,1.0,0.338778608,True,,5f2c2b2e4d46190913d07955,,1235209,55,,evan-feature22,full_rf_a,,1
21,37995,56,,,,2,2,1.0,0.0,1.0,0.0,,0.0-48.0,,1.0,460.35500010000004,1.0,0.702068785,1.0,0.6528750879999999,1.0,0.287329608,0.0,0.35789613200000003,True,,5f2c2b2e4d46190913d07955,,1245486,56,,evan-feature22,full_rf_a,,0
22,37996,57,,,,2,2,0.0,0.0,1.0,0.0,,0.0-49.0,,0.0,429.52,1.0,0.651939787,1.0,0.636725589,0.0,0.284834488,0.0,0.358563756,True,,5f2c2b2e4d46190913d07955,,1255729,57,,evan-feature22,full_rf_a,,0
23,37997,58,,,,2,2,0.0,1.0,0.0,-1.0,,0.0-50.0,,-1.0,475.1650002,1.0,0.67573929,1.0,0.612550049,0.0,0.37130387600000003,1.0,0.383542402,True,,5f2c2b2e4d46190913d07955,,1266008,58,,evan-feature22,full_rf_a,,0
24,37998,59,,,,2,2,1.0,0.0,0.0,-1.0,,0.0-51.0,,0.0,434.6450001,1.0,0.620753801,0.0,0.60513644,1.0,0.385529434,0.0,0.340361743,True,,5f2c2b2e4d46190913d07955,,1276241,59,,evan-feature22,full_rf_a,,0
25,37999,60,,,,1,1,1.0,1.0,0.0,-1.0,,0.0-52.0,,-1.0,1885.47,1.0,0.673564893,1.0,0.672437924,0.0,0.292955382,0.0,0.337633795,True,,5f2c2b2e4d46190913d07955,,1287947,60,,evan-feature22,full_rf_a,,1
26,38000,61,,,,2,2,0.0,0.0,1.0,0.0,,0.0-53.0,,0.0,385.38499989999997,1.0,0.6749427,0.0,0.724197502,0.0,0.32391132100000003,0.0,0.350995264,True,,5f2c2b2e4d46190913d07955,,1298151,61,,evan-feature22,full_rf_a,,1
27,38001,62,,,,2,2,0.0,0.0,1.0,0.0,,0.0-54.0,,0.0,460.26999989999996,1.0,0.6940159379999999,1.0,0.75,0.0,0.31710554399999996,0.0,0.413450341,True,,5f2c2b2e4d46190913d07955,,1308438,62,,evan-feature22,full_rf_a,,0
28,38002,63,,,,2,2,0.0,0.0,1.0,0.0,,0.0-55.0,,0.0,375.7749998,1.0,0.6916018270000001,1.0,0.69001187,0.0,0.261817804,0.0,0.40038635,True,,5f2c2b2e4d46190913d07955,,1318641,63,,evan-feature22,full_rf_a,,0
29,38003,64,,,,1,1,1.0,0.0,1.0,0.0,,0.0-56.0,,1.0,547.9349999,1.0,0.641061544,0.0,0.71337992,0.0,0.277296461,1.0,0.47372791700000005,True,,5f2c2b2e4d46190913d07955,,1329014,64,,evan-feature22,full_rf_a,,1
30,38004,65,,,,1,1,1.0,1.0,1.0,0.0,,0.0-57.0,,1.0,477.28,1.0,0.6082438520000001,1.0,0.708471106,1.0,0.28745137,0.0,0.564174476,True,,5f2c2b2e4d46190913d07955,,1339308,65,,evan-feature22,full_rf_a,,0
31,38005,66,,,,1,1,1.0,1.0,1.0,0.0,,0.0-58.0,,1.0,350.935,1.0,0.6051112120000001,1.0,0.7118147229999999,0.0,0.272390611,1.0,0.5595149939999999,True,,5f2c2b2e4d46190913d07955,,1349494,66,,evan-feature22,full_rf_a,,0
32,38006,67,,,,1,1,1.0,0.0,1.0,0.0,,0.0-59.0,,1.0,430.435,1.0,0.582420852,0.0,0.635867583,0.0,0.31089574,0.0,0.5227206520000001,True,,5f2c2b2e4d46190913d07955,,1359772,67,,evan-feature22,full_rf_a,,0
33,38007,68,,,,1,1,0.0,0.0,0.0,-1.0,,0.0-60.0,,0.0,363.72,0.0,0.623195575,0.0,0.655026044,0.0,0.25,1.0,0.560387538,True,,5f2c2b2e4d46190913d07955,,1369986,68,,evan-feature22,full_rf_a,,0
34,38008,69,,,,2,2,1.0,0.0,1.0,0.0,,0.0-61.0,,1.0,423.93,1.0,0.601889598,1.0,0.678198724,1.0,0.25,0.0,0.559922936,True,,5f2c2b2e4d46190913d07955,,1380229,69,,evan-feature22,full_rf_a,,1
35,38009,70,,,,2,2,0.0,0.0,1.0,0.0,,0.0-62.0,,0.0,363.805,0.0,0.601259914,1.0,0.704681482,0.0,0.33908969299999997,0.0,0.505003715,True,,5f2c2b2e4d46190913d07955,,1390430,70,,evan-feature22,full_rf_a,,0
36,38010,71,,,,2,2,0.0,0.0,1.0,0.0,,0.0-63.0,,0.0,642.4800002000001,0.0,0.59645454,1.0,0.710437172,0.0,0.327441879,0.0,0.391749613,True,,5f2c2b2e4d46190913d07955,,1400891,71,,evan-feature22,full_rf_a,,0
37,38011,72,,,,2,2,0.0,0.0,1.0,0.0,,0.0-64.0,,0.0,343.91500010000004,1.0,0.529473,1.0,0.636758527,0.0,0.301338063,0.0,0.365661481,True,,5f2c2b2e4d46190913d07955,,1411063,72,,evan-feature22,full_rf_a,,0
38,38012,73,,,,1,1,0.0,0.0,0.0,-1.0,,0.0-65.0,,0.0,1345.83,0.0,0.541657162,0.0,0.634541962,0.0,0.343535366,0.0,0.371763742,True,,5f2c2b2e4d46190913d07955,,1422248,73,,evan-feature22,full_rf_a,,1
39,38013,74,,,,1,1,1.0,1.0,1.0,0.0,,0.0-66.0,,1.0,437.1499999,1.0,0.5707533260000001,1.0,0.589121171,0.0,0.326428396,0.0,0.43961622899999997,True,,5f2c2b2e4d46190913d07955,,1432510,74,,evan-feature22,full_rf_a,,0
40,38014,75,,,,1,1,0.0,0.0,1.0,0.0,,0.0-67.0,,0.0,1035.6,0.0,0.5707533260000001,0.0,0.589121171,1.0,0.326428396,0.0,0.43961622899999997,True,,5f2c2b2e4d46190913d07955,,1443366,75,,evan-feature22,full_rf_a,,0
41,38015,76,,,,2,2,1.0,1.0,1.0,0.0,,0.0-68.0,,1.0,376.745,1.0,0.506271295,0.0,0.641775594,1.0,0.37149690700000004,1.0,0.404330166,True,,5f2c2b2e4d46190913d07955,,1453559,76,,evan-feature22,full_rf_a,,1
42,38016,77,,,,2,2,1.0,0.0,0.0,-1.0,,0.0-69.0,,0.0,538.0850001,1.0,0.455642565,0.0,0.623605825,1.0,0.358753011,0.0,0.346174041,True,,5f2c2b2e4d46190913d07955,,1463907,77,,evan-feature22,full_rf_a,,0
43,38017,78,,,,2,2,0.0,0.0,0.0,-1.0,,0.0-70.0,,0.0,437.8,1.0,0.483677308,1.0,0.5904681070000001,0.0,0.402218411,0.0,0.35344697,True,,5f2c2b2e4d46190913d07955,,1474157,78,,evan-feature22,full_rf_a,,0
44,38018,79,,,,1,1,1.0,1.0,0.0,-1.0,,0.0-71.0,,-1.0,1015.805,1.0,0.394210977,1.0,0.558925494,1.0,0.540052017,0.0,0.35182128700000004,True,,5f2c2b2e4d46190913d07955,,1485017,79,,evan-feature22,full_rf_a,,1
45,38019,80,,,,2,2,0.0,1.0,1.0,0.0,,0.0-72.0,,0.0,1651.955,1.0,0.382300414,1.0,0.577670603,0.0,0.607608448,1.0,0.378261578,True,,5f2c2b2e4d46190913d07955,,1496488,80,,evan-feature22,full_rf_a,,1
46,38020,81,,,,2,2,1.0,0.0,1.0,0.0,,0.0-73.0,,1.0,562.2949997999999,0.0,0.357596762,1.0,0.5929076529999999,1.0,0.6579790010000001,0.0,0.401326777,True,,5f2c2b2e4d46190913d07955,,1506881,81,,evan-feature22,full_rf_a,,0
47,38021,82,,,,2,2,1.0,0.0,1.0,0.0,,0.0-74.0,,1.0,633.8599998999999,1.0,0.362033495,1.0,0.582308608,1.0,0.649195052,0.0,0.355158505,True,,5f2c2b2e4d46190913d07955,,1517331,82,,evan-feature22,full_rf_a,,0
48,38022,83,,,,2,2,1.0,0.0,1.0,0.0,,0.0-75.0,,1.0,401.8849998,0.0,0.369620635,1.0,0.669100864,1.0,0.706059111,0.0,0.362516241,True,,5f2c2b2e4d46190913d07955,,1527547,83,,evan-feature22,full_rf_a,,0
49,38023,84,,,,2,2,1.0,0.0,1.0,0.0,,0.0-76.0,,1.0,461.105,1.0,0.41477751399999996,1.0,0.7284416779999999,1.0,0.7182656940000001,0.0,0.36228040899999997,True,,5f2c2b2e4d46190913d07955,,1537839,84,,evan-feature22,full_rf_a,,0
50,38024,85,,,,2,2,1.0,1.0,0.0,-1.0,,0.0-77.0,,-1.0,342.585,0.0,0.37675460299999997,0.0,0.703250285,1.0,0.75,1.0,0.461979164,True,,5f2c2b2e4d46190913d07955,,1548003,85,,evan-feature22,full_rf_a,,0
51,38025,86,,,,1,1,1.0,1.0,0.0,-1.0,,0.0-78.0,,-1.0,870.775,1.0,0.398716075,1.0,0.6723864890000001,0.0,0.674153818,1.0,0.519029516,True,,5f2c2b2e4d46190913d07955,,1558697,86,,evan-feature22,full_rf_a,,1
52,38026,87,,,,1,1,0.0,1.0,1.0,0.0,,0.0-79.0,,0.0,1095.155,0.0,0.34677856700000004,1.0,0.69057175,0.0,0.6822438540000001,1.0,0.477292237,True,,5f2c2b2e4d46190913d07955,,1569615,87,,evan-feature22,full_rf_a,,0
53,38027,88,,,,1,1,0.0,1.0,0.0,-1.0,,0.0-80.0,,-1.0,338.945,0.0,0.28580469199999997,1.0,0.68408818,1.0,0.684207565,1.0,0.49780448299999996,True,,5f2c2b2e4d46190913d07955,,1579791,88,,evan-feature22,full_rf_a,,0
54,38029,90,,,,2,2,0.0,0.0,1.0,0.0,,0.0-82.0,,0.0,2164.09,0.0,0.25,0.0,0.7405808970000001,0.0,0.679614108,0.0,0.436436964,True,,5f2c2b2e4d46190913d07955,,1604551,90,,evan-feature22,full_rf_a,,1
55,38030,91,,,,2,2,1.0,1.0,0.0,-1.0,,0.0-83.0,,-1.0,409.74,0.0,0.29890393,0.0,0.730505706,1.0,0.7328203320000001,1.0,0.439256938,True,,5f2c2b2e4d46190913d07955,,1614781,91,,evan-feature22,full_rf_a,,0
56,38031,92,,,,1,1,0.0,0.0,1.0,0.0,,0.0-84.0,,0.0,390.475,0.0,0.326762398,0.0,0.7148059609999999,1.0,0.75,0.0,0.44389608799999997,True,,5f2c2b2e4d46190913d07955,,1625009,92,,evan-feature22,full_rf_a,,1
57,38032,93,,,,2,2,1.0,1.0,1.0,0.0,,0.0-85.0,,1.0,337.755,0.0,0.295168515,1.0,0.739760854,1.0,0.719947008,1.0,0.35277284600000003,True,,5f2c2b2e4d46190913d07955,,1635179,93,,evan-feature22,full_rf_a,,1
58,38033,94,,,,2,2,1.0,1.0,1.0,0.0,,0.0-86.0,,1.0,322.13,0.0,0.25,1.0,0.70781482,1.0,0.75,1.0,0.286095925,True,,5f2c2b2e4d46190913d07955,,1645319,94,,evan-feature22,full_rf_a,,0
59,38034,95,,,,2,2,1.0,1.0,0.0,-1.0,,0.0-87.0,,-1.0,344.4349999,0.0,0.25638190899999996,1.0,0.704088163,1.0,0.75,1.0,0.26872601399999996,True,,5f2c2b2e4d46190913d07955,,1655477,95,,evan-feature22,full_rf_a,,0
60,38035,96,,,,1,1,1.0,1.0,0.0,-1.0,,0.0-88.0,,-1.0,505.51499989999996,1.0,0.271581126,1.0,0.669760107,1.0,0.733896663,0.0,0.273244572,True,,5f2c2b2e4d46190913d07955,,1665790,96,,evan-feature22,full_rf_a,,1
61,38036,97,,,,1,1,1.0,1.0,0.0,-1.0,,0.0-89.0,,-1.0,936.515,1.0,0.257144401,1.0,0.600575706,1.0,0.74488122,1.0,0.25,True,,5f2c2b2e4d46190913d07955,,1676551,97,,evan-feature22,full_rf_a,,0
62,38037,98,,,,2,2,1.0,0.0,1.0,0.0,,0.0-90.0,,1.0,429.1699999,1.0,0.25,1.0,0.616870026,1.0,0.723610234,0.0,0.25,True,,5f2c2b2e4d46190913d07955,,1686827,98,,evan-feature22,full_rf_a,,1
63,38038,99,,,,2,2,0.0,1.0,0.0,-1.0,,0.0-91.0,,-1.0,390.7549998,0.0,0.25,1.0,0.583540187,0.0,0.7041042559999999,1.0,0.285961995,True,,5f2c2b2e4d46190913d07955,,1697026,99,,evan-feature22,full_rf_a,,0
64,38039,100,,,,1,1,1.0,0.0,1.0,0.0,,0.0-92.0,,1.0,369.8149999,1.0,0.27254536,0.0,0.53875765,1.0,0.693783448,1.0,0.284961652,True,,5f2c2b2e4d46190913d07955,,1707218,100,,evan-feature22,full_rf_a,,1
65,38040,101,,,,1,1,1.0,0.0,0.0,-1.0,,0.0-93.0,,0.0,364.235,1.0,0.25,0.0,0.548431252,0.0,0.734221895,1.0,0.279445214,True,,5f2c2b2e4d46190913d07955,,1717401,101,,evan-feature22,full_rf_a,,0
66,38041,102,,,,1,1,1.0,0.0,1.0,0.0,,0.0-94.0,,1.0,688.32,1.0,0.258640684,0.0,0.545878066,0.0,0.725245965,1.0,0.31487537,True,,5f2c2b2e4d46190913d07955,,1727906,102,,evan-feature22,full_rf_a,,0
67,38042,103,,,,1,1,0.0,1.0,1.0,0.0,,0.0-95.0,,0.0,392.15,0.0,0.251103711,1.0,0.5776290629999999,1.0,0.696320133,0.0,0.317831047,True,,5f2c2b2e4d46190913d07955,,1738126,103,,evan-feature22,full_rf_a,,0
68,38043,104,,,,2,2,1.0,1.0,1.0,0.0,,0.0-96.0,,1.0,1995.38,1.0,0.276630292,0.0,0.617329858,1.0,0.73838088,1.0,0.261471582,True,,5f2c2b2e4d46190913d07955,,1749946,104,,evan-feature22,full_rf_a,,1
69,38044,105,,,,2,2,1.0,0.0,0.0,-1.0,,0.0-97.0,,0.0,982.055,0.0,0.297716424,1.0,0.618863717,1.0,0.7402358259999999,0.0,0.262600834,True,,5f2c2b2e4d46190913d07955,,1760740,105,,evan-feature22,full_rf_a,,0
70,38045,106,,,,2,2,0.0,1.0,1.0,0.0,,0.0-98.0,,0.0,354.1850001,0.0,0.290935512,0.0,0.695370945,0.0,0.706570507,1.0,0.280030553,True,,5f2c2b2e4d46190913d07955,,1770928,106,,evan-feature22,full_rf_a,,0
71,38046,107,,,,2,2,0.0,1.0,1.0,0.0,,0.0-99.0,,0.0,474.835,0.0,0.25,1.0,0.6465277079999999,0.0,0.67766682,1.0,0.25,True,,5f2c2b2e4d46190913d07955,,1781225,107,,evan-feature22,full_rf_a,,0
72,38047,108,,,,2,2,1.0,0.0,1.0,0.0,,0.0-100.0,,1.0,408.59500019999996,1.0,0.26463816,1.0,0.636100213,1.0,0.646048507,0.0,0.265607101,True,,5f2c2b2e4d46190913d07955,,1791448,108,,evan-feature22,full_rf_a,,0
73,38048,109,,,,2,2,1.0,0.0,1.0,0.0,,0.0-101.0,,1.0,403.565,0.0,0.314340707,1.0,0.667795927,1.0,0.613630805,0.0,0.25,True,,5f2c2b2e4d46190913d07955,,1801689,109,,evan-feature22,full_rf_a,,0
74,38049,110,,,,2,2,1.0,0.0,1.0,0.0,,0.0-102.0,,1.0,906.675,0.0,0.28685784,0.0,0.6622549529999999,1.0,0.652154117,0.0,0.25,True,,5f2c2b2e4d46190913d07955,,1812428,110,,evan-feature22,full_rf_a,,0
75,38050,111,,,,2,2,0.0,0.0,0.0,-1.0,,0.0-103.0,,0.0,451.23499979999997,0.0,0.304106554,1.0,0.631289538,0.0,0.707041942,0.0,0.29314237,True,,5f2c2b2e4d46190913d07955,,1822705,111,,evan-feature22,full_rf_a,,0
76,38051,112,,,,2,2,1.0,0.0,0.0,-1.0,,0.0-104.0,,0.0,1038.605,0.0,0.304806932,0.0,0.571167718,1.0,0.680472346,0.0,0.25,True,,5f2c2b2e4d46190913d07955,,1833553,112,,evan-feature22,full_rf_a,,0
77,38052,113,,,,2,2,0.0,0.0,0.0,-1.0,,0.0-105.0,,0.0,1759.53,0.0,0.37919861,1.0,0.5724849710000001,0.0,0.705638003,0.0,0.30179300600000003,True,,5f2c2b2e4d46190913d07955,,1845157,113,,evan-feature22,full_rf_a,,0
78,38053,114,,,,2,2,0.0,0.0,0.0,-1.0,,0.0-106.0,,0.0,2813.97,1.0,0.464277969,1.0,0.554034373,0.0,0.7372627340000001,0.0,0.264699741,True,,5f2c2b2e4d46190913d07955,,1857808,114,,evan-feature22,full_rf_a,,0
79,38054,115,,,,2,2,0.0,0.0,1.0,0.0,,0.0-107.0,,0.0,1719.715,1.0,0.465104323,1.0,0.530793115,0.0,0.75,0.0,0.31683071,True,,5f2c2b2e4d46190913d07955,,1869362,115,,evan-feature22,full_rf_a,,0
80,38055,116,,,,2,2,1.0,1.0,0.0,-1.0,,0.0-108.0,,-1.0,1702.765,0.0,0.465104323,0.0,0.530793115,1.0,0.75,1.0,0.31683071,True,,5f2c2b2e4d46190913d07955,,1880890,116,,evan-feature22,full_rf_a,,0
81,38056,117,,,,1,1,0.0,1.0,0.0,-1.0,,0.0-109.0,,-1.0,384.1600001,0.0,0.46833986,1.0,0.570249239,1.0,0.7244472590000001,0.0,0.364114163,True,,5f2c2b2e4d46190913d07955,,1891120,117,,evan-feature22,full_rf_a,,1
82,38057,118,,,,2,2,0.0,1.0,0.0,-1.0,,0.0-110.0,,-1.0,358.14500019999997,0.0,0.445444024,1.0,0.649673355,0.0,0.6845441290000001,1.0,0.300660449,True,,5f2c2b2e4d46190913d07955,,1901300,118,,evan-feature22,full_rf_a,,1
83,38058,119,,,,2,2,1.0,0.0,0.0,-1.0,,0.0-111.0,,0.0,1773.465,0.0,0.39909721299999995,0.0,0.6715179509999999,1.0,0.742310028,0.0,0.35496088299999995,True,,5f2c2b2e4d46190913d07955,,1912893,119,,evan-feature22,full_rf_a,,0
84,38059,120,,,,2,2,1.0,0.0,0.0,-1.0,,0.0-112.0,,0.0,2117.835,0.0,0.37956104799999996,0.0,0.694725302,1.0,0.7181651309999999,0.0,0.38726906299999997,True,,5f2c2b2e4d46190913d07955,,1924859,120,,evan-feature22,full_rf_a,,0
85,38060,121,,,,2,2,1.0,0.0,0.0,-1.0,,0.0-113.0,,0.0,2187.76,0.0,0.404995034,0.0,0.724375412,1.0,0.6910946859999999,0.0,0.387187347,True,,5f2c2b2e4d46190913d07955,,1936890,121,,evan-feature22,full_rf_a,,0
86,38061,122,,,,2,2,1.0,0.0,0.0,-1.0,,0.0-114.0,,0.0,1613.34,1.0,0.461740803,1.0,0.75,1.0,0.75,0.0,0.34872038200000005,True,,5f2c2b2e4d46190913d07955,,1948348,122,,evan-feature22,full_rf_a,,0
87,38062,123,,,,2,2,0.0,0.0,1.0,0.0,,0.0-115.0,,0.0,404.535,0.0,0.43821380600000004,1.0,0.738833273,0.0,0.728286963,0.0,0.399538128,True,,5f2c2b2e4d46190913d07955,,1958589,123,,evan-feature22,full_rf_a,,0
88,38063,124,,,,1,1,0.0,1.0,0.0,-1.0,,0.0-116.0,,-1.0,1691.78,0.0,0.41709882,1.0,0.736666736,1.0,0.75,1.0,0.389095584,True,,5f2c2b2e4d46190913d07955,,1970121,124,,evan-feature22,full_rf_a,,1
89,38064,125,,,,2,2,1.0,0.0,0.0,-1.0,,0.0-117.0,,0.0,491.32499979999994,0.0,0.39749009799999996,1.0,0.744320029,1.0,0.75,0.0,0.363848678,True,,5f2c2b2e4d46190913d07955,,1980424,125,,evan-feature22,full_rf_a,,1
90,38065,126,,,,2,2,1.0,1.0,1.0,0.0,,0.0-118.0,,1.0,1042.655,0.0,0.392653706,1.0,0.75,1.0,0.75,1.0,0.384386976,True,,5f2c2b2e4d46190913d07955,,1991297,126,,evan-feature22,full_rf_a,,0
91,38066,127,,,,2,2,0.0,1.0,1.0,0.0,,0.0-119.0,,0.0,2344.895,0.0,0.31190902600000003,1.0,0.75,0.0,0.732413819,1.0,0.413082932,True,,5f2c2b2e4d46190913d07955,,2003479,127,,evan-feature22,full_rf_a,,0
92,38067,128,,,,2,2,0.0,0.0,0.0,-1.0,,0.0-120.0,,0.0,1633.35,0.0,0.366917648,1.0,0.740073855,0.0,0.75,0.0,0.352861979,True,,5f2c2b2e4d46190913d07955,,2014921,128,,evan-feature22,full_rf_a,,0
93,38068,129,,,,1,1,0.0,1.0,0.0,-1.0,,0.0-121.0,,-1.0,1852.03,0.0,0.3645172,1.0,0.721770713,1.0,0.75,1.0,0.404074511,True,,5f2c2b2e4d46190913d07955,,2026603,129,,evan-feature22,full_rf_a,,1
94,38069,130,,,,2,2,1.0,1.0,0.0,-1.0,,0.0-122.0,,-1.0,494.7600001,0.0,0.35205600299999995,1.0,0.68983859,1.0,0.739735447,1.0,0.366895945,True,,5f2c2b2e4d46190913d07955,,2036898,130,,evan-feature22,full_rf_a,,1
95,38070,131,,,,1,1,1.0,0.0,0.0,-1.0,,0.0-123.0,,0.0,3138.375,1.0,0.40998722600000004,0.0,0.720859127,0.0,0.673854955,0.0,0.368528541,True,,5f2c2b2e4d46190913d07955,,2049849,131,,evan-feature22,full_rf_a,,1
96,38071,132,,,,1,1,0.0,1.0,1.0,0.0,,0.0-124.0,,0.0,1137.73,0.0,0.353625316,1.0,0.75,1.0,0.695605473,1.0,0.38303674200000004,True,,5f2c2b2e4d46190913d07955,,2060803,132,,evan-feature22,full_rf_a,,0
97,38072,133,,,,1,1,0.0,1.0,0.0,-1.0,,0.0-125.0,,-1.0,526.5800001,0.0,0.359216989,1.0,0.75,1.0,0.6987915090000001,1.0,0.35169046200000004,True,,5f2c2b2e4d46190913d07955,,2071137,133,,evan-feature22,full_rf_a,,0
98,38073,134,,,,2,2,0.0,1.0,1.0,0.0,,0.0-126.0,,0.0,436.19,0.0,0.35834496899999996,1.0,0.75,0.0,0.707067742,1.0,0.416763636,True,,5f2c2b2e4d46190913d07955,,2081425,134,,evan-feature22,full_rf_a,,1
99,38074,135,,,,2,2,1.0,1.0,1.0,0.0,,0.0-127.0,,1.0,625.025,1.0,0.38741613799999997,1.0,0.7177369570000001,1.0,0.734902455,1.0,0.49438664299999996,True,,5f2c2b2e4d46190913d07955,,2091857,135,,evan-feature22,full_rf_a,,0
100,38075,136,,,,2,2,1.0,0.0,0.0,-1.0,,0.0-128.0,,0.0,1696.2,0.0,0.405255252,1.0,0.7300466640000001,1.0,0.7027748070000001,0.0,0.504359668,True,,5f2c2b2e4d46190913d07955,,2103384,136,,evan-feature22,full_rf_a,,0
101,38076,137,,,,2,2,1.0,0.0,0.0,-1.0,,0.0-129.0,,0.0,1461.73,0.0,0.40697073,1.0,0.7260142190000001,1.0,0.724461982,0.0,0.522779179,True,,5f2c2b2e4d46190913d07955,,2114670,137,,evan-feature22,full_rf_a,,0
102,38077,138,,,,2,2,0.0,1.0,0.0,-1.0,,0.0-130.0,,-1.0,1796.745,1.0,0.43906215299999996,1.0,0.7252802340000001,0.0,0.719079934,1.0,0.5712990579999999,True,,5f2c2b2e4d46190913d07955,,2126304,138,,evan-feature22,full_rf_a,,0
103,38078,139,,,,1,1,1.0,1.0,0.0,-1.0,,0.0-131.0,,-1.0,438.95999989999996,1.0,0.4076705,1.0,0.73280499,1.0,0.681313127,1.0,0.523891346,True,,5f2c2b2e4d46190913d07955,,2136569,139,,evan-feature22,full_rf_a,,1
104,38079,140,,,,2,2,1.0,0.0,0.0,-1.0,,0.0-132.0,,0.0,455.36500010000003,1.0,0.399102911,1.0,0.730498344,1.0,0.661080239,0.0,0.46742603,True,,5f2c2b2e4d46190913d07955,,2146848,140,,evan-feature22,full_rf_a,,1
105,38080,141,,,,2,2,1.0,0.0,1.0,0.0,,0.0-133.0,,1.0,1542.865,1.0,0.356477282,1.0,0.712296395,1.0,0.641812684,0.0,0.44868414,True,,5f2c2b2e4d46190913d07955,,2158211,141,,evan-feature22,full_rf_a,,0
106,38081,142,,,,2,2,0.0,0.0,0.0,-1.0,,0.0-134.0,,0.0,346.195,0.0,0.462760722,0.0,0.692349322,0.0,0.700947931,0.0,0.394680266,True,,5f2c2b2e4d46190913d07955,,2168402,142,,evan-feature22,full_rf_a,,0
107,38082,143,,,,2,2,0.0,0.0,0.0,-1.0,,0.0-135.0,,0.0,1822.055,0.0,0.422306413,1.0,0.718375916,0.0,0.706340917,0.0,0.367787185,True,,5f2c2b2e4d46190913d07955,,2180048,143,,evan-feature22,full_rf_a,,0
108,38084,145,,,,1,1,0.0,0.0,0.0,-1.0,,0.0-137.0,,0.0,2083.915,0.0,0.4582233,0.0,0.643834117,1.0,0.75,1.0,0.39615823299999997,True,,5f2c2b2e4d46190913d07955,,2199563,145,,evan-feature22,full_rf_a,,1
109,38085,146,,,,1,1,0.0,1.0,0.0,-1.0,,0.0-138.0,,-1.0,2180.9,0.0,0.43813437899999996,1.0,0.651283804,1.0,0.729674191,1.0,0.37711048,True,,5f2c2b2e4d46190913d07955,,2211582,146,,evan-feature22,full_rf_a,,0
110,38086,147,,,,2,2,1.0,0.0,0.0,-1.0,,0.0-139.0,,0.0,386.745,1.0,0.471199094,1.0,0.6470010979999999,1.0,0.715008097,0.0,0.410656191,True,,5f2c2b2e4d46190913d07955,,2221790,147,,evan-feature22,full_rf_a,,1
111,38087,148,,,,2,2,1.0,1.0,1.0,0.0,,0.0-140.0,,1.0,1970.9,0.0,0.42486406,1.0,0.629771829,1.0,0.6550939960000001,1.0,0.459093873,True,,5f2c2b2e4d46190913d07955,,2233573,148,,evan-feature22,full_rf_a,,0
112,38088,149,,,,2,2,1.0,0.0,1.0,0.0,,0.0-141.0,,1.0,952.82,0.0,0.4803197,1.0,0.645842715,1.0,0.6421749920000001,0.0,0.443092151,True,,5f2c2b2e4d46190913d07955,,2244366,149,,evan-feature22,full_rf_a,,0
113,38089,150,,,,2,2,1.0,1.0,1.0,0.0,,0.0-142.0,,1.0,465.79,1.0,0.521848997,1.0,0.735801074,1.0,0.6691348460000001,1.0,0.45259351600000003,True,,5f2c2b2e4d46190913d07955,,2254662,150,,evan-feature22,full_rf_a,,0
114,38090,151,,,,2,2,1.0,1.0,0.0,-1.0,,0.0-143.0,,-1.0,417.225,0.0,0.49565621299999996,1.0,0.742400847,1.0,0.661512553,1.0,0.483110831,True,,5f2c2b2e4d46190913d07955,,2264923,151,,evan-feature22,full_rf_a,,0
115,38091,152,,,,1,1,1.0,1.0,1.0,0.0,,0.0-144.0,,1.0,332.1499999,1.0,0.521564361,1.0,0.731078632,0.0,0.6774886809999999,1.0,0.483263956,True,,5f2c2b2e4d46190913d07955,,2275087,152,,evan-feature22,full_rf_a,,1
116,38092,153,,,,1,1,0.0,0.0,1.0,0.0,,0.0-145.0,,0.0,391.395,0.0,0.558893102,0.0,0.719810023,1.0,0.67461031,0.0,0.499349834,True,,5f2c2b2e4d46190913d07955,,2285291,153,,evan-feature22,full_rf_a,,0
117,38093,154,,,,2,2,0.0,1.0,0.0,-1.0,,0.0-146.0,,-1.0,328.2349999,1.0,0.611031046,1.0,0.75,0.0,0.688072995,1.0,0.5321422729999999,True,,5f2c2b2e4d46190913d07955,,2295437,154,,evan-feature22,full_rf_a,,1
118,38094,155,,,,1,1,0.0,1.0,1.0,0.0,,0.0-147.0,,0.0,1009.755,0.0,0.633223941,1.0,0.713567728,1.0,0.75,0.0,0.48185314700000004,True,,5f2c2b2e4d46190913d07955,,2306271,155,,evan-feature22,full_rf_a,,1
119,38095,156,,,,2,2,0.0,1.0,1.0,0.0,,0.0-148.0,,0.0,359.9,1.0,0.664001694,0.0,0.705509768,0.0,0.75,1.0,0.500211065,True,,5f2c2b2e4d46190913d07955,,2316467,156,,evan-feature22,full_rf_a,,1
120,38096,157,,,,1,1,0.0,1.0,0.0,-1.0,,0.0-149.0,,-1.0,390.94499989999997,0.0,0.664001694,1.0,0.705509768,1.0,0.75,0.0,0.500211065,True,,5f2c2b2e4d46190913d07955,,2326663,157,,evan-feature22,full_rf_a,,1
121,38097,158,,,,1,1,1.0,1.0,0.0,-1.0,,0.0-150.0,,-1.0,323.94,1.0,0.696508041,1.0,0.71066027,0.0,0.717028709,0.0,0.49792991,True,,5f2c2b2e4d46190913d07955,,2336841,158,,evan-feature22,full_rf_a,,0
122,38098,159,,,,1,1,1.0,1.0,1.0,0.0,,0.0-151.0,,1.0,1641.105,1.0,0.699883272,1.0,0.75,1.0,0.713543895,0.0,0.496962643,True,,5f2c2b2e4d46190913d07955,,2348311,159,,evan-feature22,full_rf_a,,0
123,38099,160,,,,1,1,1.0,0.0,0.0,-1.0,,0.0-152.0,,0.0,490.2249998,1.0,0.741163419,0.0,0.75,1.0,0.64691024,0.0,0.513858197,True,,5f2c2b2e4d46190913d07955,,2358597,160,,evan-feature22,full_rf_a,,0
124,38100,161,,,,1,1,1.0,1.0,1.0,0.0,,0.0-153.0,,1.0,408.94,1.0,0.75,1.0,0.70816558,1.0,0.594499079,1.0,0.48502124,True,,5f2c2b2e4d46190913d07955,,2368849,161,,evan-feature22,full_rf_a,,0
125,38101,162,,,,1,1,1.0,1.0,0.0,-1.0,,0.0-154.0,,-1.0,2120.19,1.0,0.75,1.0,0.721848901,0.0,0.62197249,1.0,0.48263586399999997,True,,5f2c2b2e4d46190913d07955,,2380799,162,,evan-feature22,full_rf_a,,0
126,38102,163,,,,2,2,1.0,0.0,1.0,0.0,,0.0-155.0,,1.0,938.8950001000001,1.0,0.75,1.0,0.74813071,1.0,0.584357161,0.0,0.411477782,True,,5f2c2b2e4d46190913d07955,,2391551,163,,evan-feature22,full_rf_a,,1
127,38103,164,,,,1,1,1.0,0.0,0.0,-1.0,,0.0-156.0,,0.0,2408.845,1.0,0.75,0.0,0.75,1.0,0.52287236,0.0,0.488290656,True,,5f2c2b2e4d46190913d07955,,2403767,164,,evan-feature22,full_rf_a,,1
128,38104,165,,,,2,2,1.0,1.0,0.0,-1.0,,0.0-157.0,,-1.0,1646.205,1.0,0.75,1.0,0.75,1.0,0.544321581,1.0,0.53143059,True,,5f2c2b2e4d46190913d07955,,2415225,165,,evan-feature22,full_rf_a,,1
129,38105,166,,,,1,1,1.0,0.0,0.0,-1.0,,0.0-158.0,,0.0,1634.435,1.0,0.726754564,0.0,0.75,1.0,0.5129306370000001,1.0,0.530592445,True,,5f2c2b2e4d46190913d07955,,2426687,166,,evan-feature22,full_rf_a,,1
130,38106,167,,,,1,1,1.0,1.0,1.0,0.0,,0.0-159.0,,1.0,708.075,1.0,0.75,1.0,0.7392590729999999,0.0,0.479875835,0.0,0.547007051,True,,5f2c2b2e4d46190913d07955,,2437209,167,,evan-feature22,full_rf_a,,0
131,38107,168,,,,1,1,1.0,1.0,1.0,0.0,,0.0-160.0,,1.0,881.0400001,1.0,0.75,1.0,0.7393376979999999,1.0,0.546045419,0.0,0.541267353,True,,5f2c2b2e4d46190913d07955,,2447918,168,,evan-feature22,full_rf_a,,0
132,38108,169,,,,1,1,1.0,1.0,1.0,0.0,,0.0-161.0,,1.0,1412.6,1.0,0.75,1.0,0.75,1.0,0.485725895,1.0,0.527625395,True,,5f2c2b2e4d46190913d07955,,2459174,169,,evan-feature22,full_rf_a,,0
133,38109,170,,,,2,2,1.0,0.0,0.0,-1.0,,0.0-162.0,,0.0,2287.79,0.0,0.75,1.0,0.725087974,1.0,0.488603595,0.0,0.504019206,True,,5f2c2b2e4d46190913d07955,,2471286,170,,evan-feature22,full_rf_a,,1
134,38110,171,,,,2,2,0.0,1.0,0.0,-1.0,,0.0-163.0,,-1.0,1196.095,0.0,0.745504295,1.0,0.75,0.0,0.452379914,1.0,0.50131194,True,,5f2c2b2e4d46190913d07955,,2482286,171,,evan-feature22,full_rf_a,,0
135,38111,172,,,,1,1,1.0,0.0,0.0,-1.0,,0.0-164.0,,0.0,2635.595,1.0,0.728513874,0.0,0.75,1.0,0.44125567200000004,1.0,0.531454591,True,,5f2c2b2e4d46190913d07955,,2494754,172,,evan-feature22,full_rf_a,,1
136,38112,173,,,,1,1,1.0,1.0,1.0,0.0,,0.0-165.0,,1.0,2146.645,1.0,0.73790804,1.0,0.75,0.0,0.413036656,1.0,0.524619035,True,,5f2c2b2e4d46190913d07955,,2506735,173,,evan-feature22,full_rf_a,,0
137,38113,174,,,,2,2,0.0,0.0,0.0,-1.0,,0.0-166.0,,0.0,1988.395,0.0,0.7080961309999999,0.0,0.708666865,0.0,0.431915581,0.0,0.481819489,True,,5f2c2b2e4d46190913d07955,,2518551,174,,evan-feature22,full_rf_a,,1
138,38114,175,,,,2,2,0.0,0.0,0.0,-1.0,,0.0-167.0,,0.0,2085.0,1.0,0.721378003,0.0,0.71605913,0.0,0.36642387,0.0,0.5036739929999999,True,,5f2c2b2e4d46190913d07955,,2530467,175,,evan-feature22,full_rf_a,,0
139,38115,176,,,,1,1,0.0,1.0,0.0,-1.0,,0.0-168.0,,-1.0,2619.495,0.0,0.7340618959999999,1.0,0.699323252,0.0,0.35298046299999997,1.0,0.511241692,True,,5f2c2b2e4d46190913d07955,,2542907,176,,evan-feature22,full_rf_a,,1
140,38116,177,,,,2,2,0.0,0.0,1.0,0.0,,0.0-169.0,,0.0,632.9099999,1.0,0.75,0.0,0.70412698,0.0,0.380734814,0.0,0.529580116,True,,5f2c2b2e4d46190913d07955,,2553365,177,,evan-feature22,full_rf_a,,1
141,38117,178,,,,1,1,1.0,1.0,0.0,-1.0,,0.0-170.0,,-1.0,950.7899999,1.0,0.7436654909999999,1.0,0.711182751,1.0,0.41125331,0.0,0.49554405,True,,5f2c2b2e4d46190913d07955,,2564135,178,,evan-feature22,full_rf_a,,1
142,38118,179,,,,2,2,0.0,1.0,0.0,-1.0,,0.0-171.0,,-1.0,454.2650001,1.0,0.731607915,1.0,0.651774583,0.0,0.35688023,1.0,0.45194491600000003,True,,5f2c2b2e4d46190913d07955,,2574415,179,,evan-feature22,full_rf_a,,1
143,38119,180,,,,1,1,1.0,1.0,1.0,0.0,,0.0-172.0,,1.0,1821.895,1.0,0.75,1.0,0.75,0.0,0.283145374,1.0,0.528608005,True,,5f2c2b2e4d46190913d07955,,2586073,180,,evan-feature22,full_rf_a,,1
144,38120,181,,,,1,1,1.0,0.0,1.0,0.0,,0.0-173.0,,1.0,390.9349998,1.0,0.7491416890000001,0.0,0.7423785959999999,1.0,0.29135870399999997,0.0,0.498888318,True,,5f2c2b2e4d46190913d07955,,2596266,181,,evan-feature22,full_rf_a,,0
145,38121,182,,,,1,1,0.0,1.0,1.0,0.0,,0.0-174.0,,0.0,2011.795,0.0,0.708569387,1.0,0.717682277,1.0,0.294421699,1.0,0.493838163,True,,5f2c2b2e4d46190913d07955,,2608099,182,,evan-feature22,full_rf_a,,0
146,38122,183,,,,2,2,1.0,0.0,0.0,-1.0,,0.0-175.0,,0.0,2745.035,1.0,0.75,1.0,0.7383382159999999,1.0,0.356098707,0.0,0.442533405,True,,5f2c2b2e4d46190913d07955,,2620636,183,,evan-feature22,full_rf_a,,1
147,38123,184,,,,2,2,0.0,0.0,0.0,-1.0,,0.0-176.0,,0.0,1167.825,0.0,0.744527075,1.0,0.75,0.0,0.334127506,0.0,0.393165805,True,,5f2c2b2e4d46190913d07955,,2631613,184,,evan-feature22,full_rf_a,,0
148,38124,185,,,,2,2,1.0,0.0,0.0,-1.0,,0.0-177.0,,0.0,1595.68,1.0,0.75,1.0,0.75,1.0,0.33571021799999995,0.0,0.350393962,True,,5f2c2b2e4d46190913d07955,,2643044,185,,evan-feature22,full_rf_a,,0
149,38125,186,,,,2,2,0.0,0.0,0.0,-1.0,,0.0-178.0,,0.0,2070.425,1.0,0.75,1.0,0.75,0.0,0.313628297,0.0,0.36349657399999996,True,,5f2c2b2e4d46190913d07955,,2654962,186,,evan-feature22,full_rf_a,,0
150,38126,187,,,,2,2,0.0,0.0,1.0,0.0,,0.0-179.0,,0.0,2263.265,1.0,0.75,1.0,0.734284182,0.0,0.262667667,0.0,0.380199119,True,,5f2c2b2e4d46190913d07955,,2667054,187,,evan-feature22,full_rf_a,,0
151,38127,188,,,,2,2,1.0,1.0,0.0,-1.0,,0.0-180.0,,-1.0,3363.57,0.0,0.75,0.0,0.75,1.0,0.25,1.0,0.394494013,True,,5f2c2b2e4d46190913d07955,,2680249,188,,evan-feature22,full_rf_a,,0
152,38128,189,,,,1,1,1.0,1.0,1.0,0.0,,0.0-181.0,,1.0,511.54500010000004,1.0,0.722298145,1.0,0.7357822340000001,1.0,0.25,1.0,0.319142121,True,,5f2c2b2e4d46190913d07955,,2690577,189,,evan-feature22,full_rf_a,,1
153,38129,190,,,,1,1,1.0,1.0,1.0,0.0,,0.0-182.0,,1.0,558.6699999,1.0,0.73149275,1.0,0.724276446,1.0,0.305856907,0.0,0.281315057,True,,5f2c2b2e4d46190913d07955,,2700967,190,,evan-feature22,full_rf_a,,0
154,38130,191,,,,2,2,0.0,0.0,0.0,-1.0,,0.0-183.0,,0.0,2249.995,1.0,0.7458732690000001,0.0,0.7336382459999999,0.0,0.272571964,0.0,0.266021999,True,,5f2c2b2e4d46190913d07955,,2713052,191,,evan-feature22,full_rf_a,,1
155,38131,192,,,,2,2,0.0,0.0,0.0,-1.0,,0.0-184.0,,0.0,2589.235,1.0,0.705579037,1.0,0.720778292,0.0,0.320238144,0.0,0.30971744,True,,5f2c2b2e4d46190913d07955,,2725438,192,,evan-feature22,full_rf_a,,0
156,38132,193,,,,2,2,1.0,1.0,0.0,-1.0,,0.0-185.0,,-1.0,1986.0,1.0,0.700425648,1.0,0.7198784009999999,1.0,0.272590393,1.0,0.304182931,True,,5f2c2b2e4d46190913d07955,,2737275,193,,evan-feature22,full_rf_a,,0
157,38133,194,,,,1,1,1.0,1.0,0.0,-1.0,,0.0-186.0,,-1.0,2787.18,1.0,0.735590785,1.0,0.722714973,0.0,0.25,0.0,0.323421091,True,,5f2c2b2e4d46190913d07955,,2749883,194,,evan-feature22,full_rf_a,,1
158,38134,195,,,,2,2,0.0,1.0,0.0,-1.0,,0.0-187.0,,-1.0,1415.8,1.0,0.724807662,0.0,0.63146213,0.0,0.36836492600000004,1.0,0.34592153299999995,True,,5f2c2b2e4d46190913d07955,,2761160,195,,evan-feature22,full_rf_a,,1
159,38135,196,,,,1,1,1.0,1.0,0.0,-1.0,,0.0-188.0,,-1.0,2830.965,1.0,0.7352796909999999,1.0,0.555111392,0.0,0.36003922,1.0,0.31433779999999995,True,,5f2c2b2e4d46190913d07955,,2773808,196,,evan-feature22,full_rf_a,,1
160,38136,197,notice,,,,,,,,,,0.0-189.0,"{""Q0"":""yes but not sure what so probobly not a helpful answer""}",,58858.0,,,,,,,,,True,,5f2c2b2e4d46190913d07955,,2832671,197,Q,survey-text,full_rf_a,,1
161,38137,198,track1,,[1],,,,,,,,0.0-190.0,"{""Q0"":""no""}",,11968.0,,,,,,,,,True,,5f2c2b2e4d46190913d07955,,2844649,198,Q,evan-quiz,full_rf_a,,1
162,38138,199,track2,,[1],,,,,,,,0.0-191.0,"{""Q0"":""no""}",,16587.0,,,,,,,,,True,,5f2c2b2e4d46190913d07955,,2861242,199,Q,evan-quiz,full_rf_a,,1
163,38139,200,strat,,,,,,,,,,0.0-192.0,"{""Q0"":""not really. my respose was instinctive""}",,31049.0,,,,,,,,,True,,5f2c2b2e4d46190913d07955,,2892296,200,Q,survey-text,full_rf_a,,1
