,index,Unnamed: 0,Q_name,button_pressed,choice_idxs,chosen_pos,chosen_state,chosen_state_f_1_outcome,chosen_state_f_2_outcome,f_1_reward,f_2_reward,incor_questions,internal_node_id,responses,reward_received,rt,s_1_f_1_outcome,s_1_f_1_prob,s_1_f_2_outcome,s_1_f_2_prob,s_2_f_1_outcome,s_2_f_1_prob,s_2_f_2_outcome,s_2_f_2_prob,safe_first,stimulus,subjectID,success,time_elapsed,trial_index,trial_num,trial_type,version,view_history,switching
0,6471,25,,,,2,2,1.0,0.0,1.0,0.0,,0.0-27.0,,1.0,1410.995,0.0,0.6,1.0,0.6,1.0,0.4,0.0,0.4,True,,5f1701dd85408e035eb3bd73,,451480,25,,evan-feature22,full_rf_a,,0
1,6472,26,,,,2,2,0.0,1.0,1.0,0.0,,0.0-28.0,,0.0,803.885,1.0,0.608053294,1.0,0.63424552,0.0,0.397152172,1.0,0.347069101,True,,5f1701dd85408e035eb3bd73,,462045,26,,evan-feature22,full_rf_a,,0
2,6473,27,,,,2,2,1.0,0.0,1.0,0.0,,0.0-29.0,,1.0,628.975,0.0,0.642237155,0.0,0.648566321,1.0,0.389407674,0.0,0.285525717,True,,5f1701dd85408e035eb3bd73,,472435,27,,evan-feature22,full_rf_a,,0
3,6474,28,,,,2,2,0.0,1.0,1.0,0.0,,0.0-30.0,,0.0,618.605,1.0,0.661086576,0.0,0.630492543,0.0,0.399058924,1.0,0.25,True,,5f1701dd85408e035eb3bd73,,482815,28,,evan-feature22,full_rf_a,,0
4,6475,29,,,,2,2,0.0,0.0,0.0,-1.0,,0.0-31.0,,0.0,1342.845,1.0,0.631324137,1.0,0.6269842929999999,0.0,0.38734784299999997,0.0,0.25,True,,5f1701dd85408e035eb3bd73,,493916,29,,evan-feature22,full_rf_a,,0
5,6476,30,,,,2,2,0.0,0.0,0.0,-1.0,,0.0-32.0,,0.0,1065.125,1.0,0.6381991370000001,1.0,0.68987999,0.0,0.384107265,0.0,0.271332943,True,,5f1701dd85408e035eb3bd73,,504741,30,,evan-feature22,full_rf_a,,0
6,6477,31,,,,2,2,0.0,0.0,1.0,0.0,,0.0-33.0,,0.0,380.27,1.0,0.66034901,0.0,0.742641349,0.0,0.360225629,0.0,0.25,True,,5f1701dd85408e035eb3bd73,,514879,31,,evan-feature22,full_rf_a,,0
7,6478,32,,,,2,2,1.0,0.0,1.0,0.0,,0.0-34.0,,1.0,666.35,0.0,0.638612418,0.0,0.75,1.0,0.367273939,0.0,0.25,True,,5f1701dd85408e035eb3bd73,,525305,32,,evan-feature22,full_rf_a,,0
8,6479,33,,,,2,2,1.0,1.0,0.0,-1.0,,0.0-35.0,,-1.0,876.17,1.0,0.624340629,0.0,0.75,1.0,0.425829545,1.0,0.25,True,,5f1701dd85408e035eb3bd73,,535946,33,,evan-feature22,full_rf_a,,0
9,6480,34,,,,2,2,0.0,1.0,0.0,-1.0,,0.0-36.0,,-1.0,572.32,1.0,0.621999804,1.0,0.75,0.0,0.368609357,1.0,0.25,True,,5f1701dd85408e035eb3bd73,,546277,34,,evan-feature22,full_rf_a,,0
10,6481,35,,,,1,1,1.0,1.0,1.0,0.0,,0.0-37.0,,1.0,1128.43,1.0,0.62666403,1.0,0.75,1.0,0.311151498,0.0,0.25,True,,5f1701dd85408e035eb3bd73,,557171,35,,evan-feature22,full_rf_a,,1
11,6482,36,,,,2,2,0.0,0.0,0.0,-1.0,,0.0-38.0,,0.0,2706.365,0.0,0.6819650009999999,0.0,0.75,0.0,0.310763048,0.0,0.25,True,,5f1701dd85408e035eb3bd73,,569637,36,,evan-feature22,full_rf_a,,1
12,6483,37,,,,2,2,1.0,1.0,1.0,0.0,,0.0-39.0,,1.0,764.13,1.0,0.740626951,1.0,0.75,1.0,0.25,1.0,0.25,True,,5f1701dd85408e035eb3bd73,,580166,37,,evan-feature22,full_rf_a,,0
13,6484,38,,,,2,2,0.0,0.0,1.0,0.0,,0.0-40.0,,0.0,412.35,1.0,0.739599242,0.0,0.742034978,0.0,0.25397114600000004,0.0,0.25,True,,5f1701dd85408e035eb3bd73,,590338,38,,evan-feature22,full_rf_a,,0
14,6485,39,,,,2,2,0.0,0.0,1.0,0.0,,0.0-41.0,,0.0,748.315,0.0,0.732341315,1.0,0.72735643,0.0,0.25,0.0,0.25,True,,5f1701dd85408e035eb3bd73,,600845,39,,evan-feature22,full_rf_a,,0
15,6486,40,,,,2,2,1.0,0.0,1.0,0.0,,0.0-42.0,,1.0,425.795,1.0,0.7062287770000001,1.0,0.75,1.0,0.29002151,0.0,0.288256649,True,,5f1701dd85408e035eb3bd73,,611031,40,,evan-feature22,full_rf_a,,0
16,6487,41,,,,SLOW,SLOW,,,1.0,0.0,,0.0-43.0,,-3.0,,0.0,0.7086029209999999,1.0,0.75,0.0,0.274129113,0.0,0.262851608,True,,5f1701dd85408e035eb3bd73,,616835,41,,evan-feature22,full_rf_a,,1
17,6488,42,,,,2,2,0.0,0.0,1.0,0.0,,0.0-44.0,,0.0,1139.3,1.0,0.669189651,1.0,0.727614338,0.0,0.298444036,0.0,0.296944518,True,,5f1701dd85408e035eb3bd73,,627734,42,,evan-feature22,full_rf_a,,1
18,6489,43,,,,2,2,1.0,0.0,1.0,0.0,,0.0-45.0,,1.0,647.29,1.0,0.6819912929999999,0.0,0.7179434290000001,1.0,0.265003961,0.0,0.28157921199999997,True,,5f1701dd85408e035eb3bd73,,638143,43,,evan-feature22,full_rf_a,,0
19,6490,44,,,,2,2,0.0,0.0,0.0,-1.0,,0.0-46.0,,0.0,815.06,1.0,0.665275002,1.0,0.723065271,0.0,0.260414971,0.0,0.30973870000000003,True,,5f1701dd85408e035eb3bd73,,648717,44,,evan-feature22,full_rf_a,,0
20,6491,45,,,,2,2,0.0,1.0,1.0,0.0,,0.0-47.0,,0.0,524.495,1.0,0.6660593260000001,1.0,0.728032907,0.0,0.30922817,1.0,0.338778608,True,,5f1701dd85408e035eb3bd73,,659003,45,,evan-feature22,full_rf_a,,0
21,6492,46,,,,2,2,1.0,1.0,1.0,0.0,,0.0-48.0,,1.0,434.94,0.0,0.702068785,1.0,0.6528750879999999,1.0,0.287329608,1.0,0.35789613200000003,True,,5f1701dd85408e035eb3bd73,,669199,46,,evan-feature22,full_rf_a,,0
22,6493,47,,,,2,2,0.0,0.0,1.0,0.0,,0.0-49.0,,0.0,487.505,0.0,0.651939787,0.0,0.636725589,0.0,0.284834488,0.0,0.358563756,True,,5f1701dd85408e035eb3bd73,,679446,47,,evan-feature22,full_rf_a,,0
23,6494,48,,,,2,2,0.0,0.0,0.0,-1.0,,0.0-50.0,,0.0,379.54,0.0,0.67573929,0.0,0.612550049,0.0,0.37130387600000003,0.0,0.383542402,True,,5f1701dd85408e035eb3bd73,,689584,48,,evan-feature22,full_rf_a,,0
24,6495,49,,,,2,2,1.0,1.0,0.0,-1.0,,0.0-51.0,,-1.0,429.375,1.0,0.620753801,1.0,0.60513644,1.0,0.385529434,1.0,0.340361743,True,,5f1701dd85408e035eb3bd73,,699774,49,,evan-feature22,full_rf_a,,0
25,6496,50,,,,2,2,1.0,1.0,0.0,-1.0,,0.0-52.0,,-1.0,436.205,0.0,0.673564893,1.0,0.672437924,1.0,0.292955382,1.0,0.337633795,True,,5f1701dd85408e035eb3bd73,,709972,50,,evan-feature22,full_rf_a,,0
26,6497,51,,,,2,2,0.0,0.0,1.0,0.0,,0.0-53.0,,0.0,50.12,1.0,0.6749427,1.0,0.724197502,0.0,0.32391132100000003,0.0,0.350995264,True,,5f1701dd85408e035eb3bd73,,719782,51,,evan-feature22,full_rf_a,,0
27,6498,52,,,,2,2,0.0,1.0,1.0,0.0,,0.0-54.0,,0.0,1260.545,1.0,0.6940159379999999,1.0,0.75,0.0,0.31710554399999996,1.0,0.413450341,True,,5f1701dd85408e035eb3bd73,,730801,52,,evan-feature22,full_rf_a,,0
28,6499,53,,,,2,2,0.0,1.0,1.0,0.0,,0.0-55.0,,0.0,505.75,1.0,0.6916018270000001,0.0,0.69001187,0.0,0.261817804,1.0,0.40038635,True,,5f1701dd85408e035eb3bd73,,741070,53,,evan-feature22,full_rf_a,,0
29,6500,54,,,,2,2,0.0,1.0,1.0,0.0,,0.0-56.0,,0.0,143.74,1.0,0.641061544,1.0,0.71337992,0.0,0.277296461,1.0,0.47372791700000005,True,,5f1701dd85408e035eb3bd73,,750974,54,,evan-feature22,full_rf_a,,0
30,6501,55,,,,2,2,0.0,0.0,1.0,0.0,,0.0-57.0,,0.0,79.3,1.0,0.6082438520000001,0.0,0.708471106,0.0,0.28745137,0.0,0.564174476,True,,5f1701dd85408e035eb3bd73,,760812,55,,evan-feature22,full_rf_a,,0
31,6502,56,,,,2,2,0.0,1.0,1.0,0.0,,0.0-58.0,,0.0,688.67,0.0,0.6051112120000001,1.0,0.7118147229999999,0.0,0.272390611,1.0,0.5595149939999999,True,,5f1701dd85408e035eb3bd73,,771261,56,,evan-feature22,full_rf_a,,0
32,6503,57,,,,2,2,0.0,1.0,1.0,0.0,,0.0-59.0,,0.0,556.68,1.0,0.582420852,0.0,0.635867583,0.0,0.31089574,1.0,0.5227206520000001,True,,5f1701dd85408e035eb3bd73,,781577,57,,evan-feature22,full_rf_a,,0
33,6504,58,,,,1,1,0.0,1.0,0.0,-1.0,,0.0-60.0,,-1.0,740.67,0.0,0.623195575,1.0,0.655026044,0.0,0.25,0.0,0.560387538,True,,5f1701dd85408e035eb3bd73,,792080,58,,evan-feature22,full_rf_a,,1
34,6505,59,,,,1,1,1.0,1.0,1.0,0.0,,0.0-61.0,,1.0,309.11,1.0,0.601889598,1.0,0.678198724,0.0,0.25,0.0,0.559922936,True,,5f1701dd85408e035eb3bd73,,802152,59,,evan-feature22,full_rf_a,,0
35,6506,60,,,,2,2,1.0,1.0,1.0,0.0,,0.0-62.0,,1.0,761.435,1.0,0.601259914,1.0,0.704681482,1.0,0.33908969299999997,1.0,0.505003715,True,,5f1701dd85408e035eb3bd73,,812676,60,,evan-feature22,full_rf_a,,1
36,6507,61,,,,2,2,1.0,0.0,1.0,0.0,,0.0-63.0,,1.0,440.805,1.0,0.59645454,1.0,0.710437172,1.0,0.327441879,0.0,0.391749613,True,,5f1701dd85408e035eb3bd73,,822878,61,,evan-feature22,full_rf_a,,0
37,6508,62,,,,1,1,0.0,0.0,1.0,0.0,,0.0-64.0,,0.0,381.875,0.0,0.529473,0.0,0.636758527,0.0,0.301338063,0.0,0.365661481,True,,5f1701dd85408e035eb3bd73,,833019,62,,evan-feature22,full_rf_a,,1
38,6509,63,,,,2,2,0.0,0.0,0.0,-1.0,,0.0-65.0,,0.0,561.91,0.0,0.541657162,0.0,0.634541962,0.0,0.343535366,0.0,0.371763742,True,,5f1701dd85408e035eb3bd73,,843339,63,,evan-feature22,full_rf_a,,1
39,6510,64,,,,1,1,1.0,0.0,1.0,0.0,,0.0-66.0,,1.0,685.915,1.0,0.5707533260000001,0.0,0.589121171,1.0,0.326428396,1.0,0.43961622899999997,True,,5f1701dd85408e035eb3bd73,,853785,64,,evan-feature22,full_rf_a,,1
40,6511,65,,,,2,2,0.0,1.0,1.0,0.0,,0.0-67.0,,0.0,843.64,1.0,0.5707533260000001,1.0,0.589121171,0.0,0.326428396,1.0,0.43961622899999997,True,,5f1701dd85408e035eb3bd73,,864392,65,,evan-feature22,full_rf_a,,1
41,6512,66,,,,1,1,1.0,1.0,1.0,0.0,,0.0-68.0,,1.0,711.02,1.0,0.506271295,1.0,0.641775594,0.0,0.37149690700000004,0.0,0.404330166,True,,5f1701dd85408e035eb3bd73,,874868,66,,evan-feature22,full_rf_a,,1
42,6513,67,,,,2,2,0.0,0.0,0.0,-1.0,,0.0-69.0,,0.0,544.815,0.0,0.455642565,0.0,0.623605825,0.0,0.358753011,0.0,0.346174041,True,,5f1701dd85408e035eb3bd73,,885175,67,,evan-feature22,full_rf_a,,1
43,6514,68,,,,1,1,0.0,1.0,0.0,-1.0,,0.0-70.0,,-1.0,294.115,0.0,0.483677308,1.0,0.5904681070000001,0.0,0.402218411,1.0,0.35344697,True,,5f1701dd85408e035eb3bd73,,895230,68,,evan-feature22,full_rf_a,,1
44,6515,69,,,,2,2,1.0,0.0,0.0,-1.0,,0.0-71.0,,0.0,379.17,0.0,0.394210977,0.0,0.558925494,1.0,0.540052017,0.0,0.35182128700000004,True,,5f1701dd85408e035eb3bd73,,905372,69,,evan-feature22,full_rf_a,,1
45,6516,70,,,,1,1,1.0,0.0,1.0,0.0,,0.0-72.0,,1.0,357.53,1.0,0.382300414,0.0,0.577670603,0.0,0.607608448,1.0,0.378261578,True,,5f1701dd85408e035eb3bd73,,915492,70,,evan-feature22,full_rf_a,,1
46,6517,71,,,,2,2,1.0,1.0,1.0,0.0,,0.0-73.0,,1.0,969.83,1.0,0.357596762,1.0,0.5929076529999999,1.0,0.6579790010000001,1.0,0.401326777,True,,5f1701dd85408e035eb3bd73,,926223,71,,evan-feature22,full_rf_a,,1
47,6518,72,,,,2,2,1.0,1.0,1.0,0.0,,0.0-74.0,,1.0,762.77,0.0,0.362033495,0.0,0.582308608,1.0,0.649195052,1.0,0.355158505,True,,5f1701dd85408e035eb3bd73,,936744,72,,evan-feature22,full_rf_a,,0
48,6519,73,,,,1,1,0.0,1.0,1.0,0.0,,0.0-75.0,,0.0,809.555,0.0,0.369620635,1.0,0.669100864,1.0,0.706059111,0.0,0.362516241,True,,5f1701dd85408e035eb3bd73,,947315,73,,evan-feature22,full_rf_a,,1
49,6520,74,,,,2,2,1.0,1.0,1.0,0.0,,0.0-76.0,,1.0,311.14,1.0,0.41477751399999996,1.0,0.7284416779999999,1.0,0.7182656940000001,1.0,0.36228040899999997,True,,5f1701dd85408e035eb3bd73,,957388,74,,evan-feature22,full_rf_a,,1
50,6521,75,,,,1,1,0.0,1.0,0.0,-1.0,,0.0-77.0,,-1.0,425.615,0.0,0.37675460299999997,1.0,0.703250285,0.0,0.75,1.0,0.461979164,True,,5f1701dd85408e035eb3bd73,,967575,75,,evan-feature22,full_rf_a,,1
51,6522,76,,,,1,1,0.0,1.0,0.0,-1.0,,0.0-78.0,,-1.0,84.76,0.0,0.398716075,1.0,0.6723864890000001,1.0,0.674153818,1.0,0.519029516,True,,5f1701dd85408e035eb3bd73,,977426,76,,evan-feature22,full_rf_a,,0
52,6523,77,,,,2,2,0.0,1.0,1.0,0.0,,0.0-79.0,,0.0,600.175,1.0,0.34677856700000004,0.0,0.69057175,0.0,0.6822438540000001,1.0,0.477292237,True,,5f1701dd85408e035eb3bd73,,987787,77,,evan-feature22,full_rf_a,,1
53,6524,78,,,,2,2,1.0,0.0,0.0,-1.0,,0.0-80.0,,0.0,1389.82,1.0,0.28580469199999997,1.0,0.68408818,1.0,0.684207565,0.0,0.49780448299999996,True,,5f1701dd85408e035eb3bd73,,998939,78,,evan-feature22,full_rf_a,,0
54,6526,80,,,,2,2,0.0,0.0,1.0,0.0,,0.0-82.0,,0.0,3083.04,1.0,0.25,1.0,0.7405808970000001,0.0,0.679614108,0.0,0.436436964,True,,5f1701dd85408e035eb3bd73,,1014482,80,,evan-feature22,full_rf_a,,0
55,6527,81,,,,2,2,1.0,0.0,0.0,-1.0,,0.0-83.0,,0.0,751.275,0.0,0.29890393,1.0,0.730505706,1.0,0.7328203320000001,0.0,0.439256938,True,,5f1701dd85408e035eb3bd73,,1024997,81,,evan-feature22,full_rf_a,,0
56,6528,82,,,,2,2,0.0,0.0,1.0,0.0,,0.0-84.0,,0.0,1695.47,1.0,0.326762398,1.0,0.7148059609999999,0.0,0.75,0.0,0.44389608799999997,True,,5f1701dd85408e035eb3bd73,,1036455,82,,evan-feature22,full_rf_a,,0
57,6529,83,,,,1,1,0.0,1.0,1.0,0.0,,0.0-85.0,,0.0,317.52,0.0,0.295168515,1.0,0.739760854,0.0,0.719947008,0.0,0.35277284600000003,True,,5f1701dd85408e035eb3bd73,,1046533,83,,evan-feature22,full_rf_a,,1
58,6530,84,,,,2,2,1.0,0.0,1.0,0.0,,0.0-86.0,,1.0,2231.51,0.0,0.25,1.0,0.70781482,1.0,0.75,0.0,0.286095925,True,,5f1701dd85408e035eb3bd73,,1058526,84,,evan-feature22,full_rf_a,,1
59,6531,85,,,,2,2,1.0,1.0,0.0,-1.0,,0.0-87.0,,-1.0,2275.51,0.0,0.25638190899999996,1.0,0.704088163,1.0,0.75,1.0,0.26872601399999996,True,,5f1701dd85408e035eb3bd73,,1070559,85,,evan-feature22,full_rf_a,,0
60,6532,86,,,,1,1,0.0,0.0,0.0,-1.0,,0.0-88.0,,0.0,1000.925,0.0,0.271581126,0.0,0.669760107,0.0,0.733896663,0.0,0.273244572,True,,5f1701dd85408e035eb3bd73,,1081319,86,,evan-feature22,full_rf_a,,1
61,6533,87,,,,2,2,1.0,0.0,0.0,-1.0,,0.0-89.0,,0.0,333.37,0.0,0.257144401,0.0,0.600575706,1.0,0.74488122,0.0,0.25,True,,5f1701dd85408e035eb3bd73,,1091412,87,,evan-feature22,full_rf_a,,1
62,6534,88,,,,2,2,1.0,0.0,1.0,0.0,,0.0-90.0,,1.0,848.43,1.0,0.25,1.0,0.616870026,1.0,0.723610234,0.0,0.25,True,,5f1701dd85408e035eb3bd73,,1102022,88,,evan-feature22,full_rf_a,,0
63,6535,89,,,,2,2,0.0,0.0,0.0,-1.0,,0.0-91.0,,0.0,621.825,0.0,0.25,1.0,0.583540187,0.0,0.7041042559999999,0.0,0.285961995,True,,5f1701dd85408e035eb3bd73,,1112405,89,,evan-feature22,full_rf_a,,0
64,6536,90,,,,2,2,1.0,0.0,1.0,0.0,,0.0-92.0,,1.0,396.255,1.0,0.27254536,0.0,0.53875765,1.0,0.693783448,0.0,0.284961652,True,,5f1701dd85408e035eb3bd73,,1122560,90,,evan-feature22,full_rf_a,,0
65,6537,91,,,,2,2,1.0,0.0,0.0,-1.0,,0.0-93.0,,0.0,33.09,0.0,0.25,1.0,0.548431252,1.0,0.734221895,0.0,0.279445214,True,,5f1701dd85408e035eb3bd73,,1132356,91,,evan-feature22,full_rf_a,,0
66,6538,92,,,,1,1,0.0,0.0,1.0,0.0,,0.0-94.0,,0.0,257.01,0.0,0.258640684,0.0,0.545878066,1.0,0.725245965,1.0,0.31487537,True,,5f1701dd85408e035eb3bd73,,1142374,92,,evan-feature22,full_rf_a,,1
67,6539,93,,,,1,1,0.0,1.0,1.0,0.0,,0.0-95.0,,0.0,142.645,0.0,0.251103711,1.0,0.5776290629999999,0.0,0.696320133,1.0,0.317831047,True,,5f1701dd85408e035eb3bd73,,1152277,93,,evan-feature22,full_rf_a,,0
68,6540,94,,,,2,2,1.0,0.0,1.0,0.0,,0.0-96.0,,1.0,122.635,0.0,0.276630292,1.0,0.617329858,1.0,0.73838088,0.0,0.261471582,True,,5f1701dd85408e035eb3bd73,,1162165,94,,evan-feature22,full_rf_a,,1
69,6541,95,,,,2,2,0.0,0.0,0.0,-1.0,,0.0-97.0,,0.0,194.805,0.0,0.297716424,1.0,0.618863717,0.0,0.7402358259999999,0.0,0.262600834,True,,5f1701dd85408e035eb3bd73,,1172120,95,,evan-feature22,full_rf_a,,0
70,6542,96,,,,2,2,1.0,1.0,1.0,0.0,,0.0-98.0,,1.0,588.575,1.0,0.290935512,1.0,0.695370945,1.0,0.706570507,1.0,0.280030553,True,,5f1701dd85408e035eb3bd73,,1182471,96,,evan-feature22,full_rf_a,,0
71,6543,97,,,,2,2,1.0,0.0,1.0,0.0,,0.0-99.0,,1.0,77.515,1.0,0.25,1.0,0.6465277079999999,1.0,0.67766682,0.0,0.25,True,,5f1701dd85408e035eb3bd73,,1192308,97,,evan-feature22,full_rf_a,,0
72,6544,98,,,,2,2,0.0,0.0,1.0,0.0,,0.0-100.0,,0.0,36.435,0.0,0.26463816,1.0,0.636100213,0.0,0.646048507,0.0,0.265607101,True,,5f1701dd85408e035eb3bd73,,1202105,98,,evan-feature22,full_rf_a,,0
73,6545,99,,,,2,2,0.0,0.0,1.0,0.0,,0.0-101.0,,0.0,56.045,1.0,0.314340707,0.0,0.667795927,0.0,0.613630805,0.0,0.25,True,,5f1701dd85408e035eb3bd73,,1211919,99,,evan-feature22,full_rf_a,,0
74,6546,100,,,,1,1,0.0,1.0,1.0,0.0,,0.0-102.0,,0.0,118.28,0.0,0.28685784,1.0,0.6622549529999999,1.0,0.652154117,0.0,0.25,True,,5f1701dd85408e035eb3bd73,,1221798,100,,evan-feature22,full_rf_a,,1
75,6547,101,,,,2,2,1.0,1.0,0.0,-1.0,,0.0-103.0,,-1.0,167.34,0.0,0.304106554,1.0,0.631289538,1.0,0.707041942,1.0,0.29314237,True,,5f1701dd85408e035eb3bd73,,1231728,101,,evan-feature22,full_rf_a,,1
76,6548,102,,,,1,1,0.0,1.0,0.0,-1.0,,0.0-104.0,,-1.0,232.08,0.0,0.304806932,1.0,0.571167718,1.0,0.680472346,0.0,0.25,True,,5f1701dd85408e035eb3bd73,,1241723,102,,evan-feature22,full_rf_a,,1
77,6549,103,,,,1,1,1.0,0.0,0.0,-1.0,,0.0-105.0,,0.0,82.31,1.0,0.37919861,0.0,0.5724849710000001,1.0,0.705638003,0.0,0.30179300600000003,True,,5f1701dd85408e035eb3bd73,,1251569,103,,evan-feature22,full_rf_a,,0
78,6550,104,,,,2,2,1.0,0.0,0.0,-1.0,,0.0-106.0,,0.0,27.14,0.0,0.464277969,1.0,0.554034373,1.0,0.7372627340000001,0.0,0.264699741,True,,5f1701dd85408e035eb3bd73,,1261357,104,,evan-feature22,full_rf_a,,1
79,6551,105,,,,2,2,1.0,0.0,1.0,0.0,,0.0-107.0,,1.0,48.415,0.0,0.465104323,0.0,0.530793115,1.0,0.75,0.0,0.31683071,True,,5f1701dd85408e035eb3bd73,,1271167,105,,evan-feature22,full_rf_a,,0
80,6552,106,,,,2,2,0.0,0.0,0.0,-1.0,,0.0-108.0,,0.0,117.975,0.0,0.465104323,0.0,0.530793115,0.0,0.75,0.0,0.31683071,True,,5f1701dd85408e035eb3bd73,,1281044,106,,evan-feature22,full_rf_a,,0
81,6553,107,,,,1,1,1.0,1.0,0.0,-1.0,,0.0-109.0,,-1.0,708.04,1.0,0.46833986,1.0,0.570249239,1.0,0.7244472590000001,1.0,0.364114163,True,,5f1701dd85408e035eb3bd73,,1291513,107,,evan-feature22,full_rf_a,,1
82,6554,108,,,,2,2,1.0,1.0,0.0,-1.0,,0.0-110.0,,-1.0,75.86,1.0,0.445444024,1.0,0.649673355,1.0,0.6845441290000001,1.0,0.300660449,True,,5f1701dd85408e035eb3bd73,,1301352,108,,evan-feature22,full_rf_a,,1
83,6555,109,,,,1,1,0.0,0.0,0.0,-1.0,,0.0-111.0,,0.0,156.41,0.0,0.39909721299999995,0.0,0.6715179509999999,0.0,0.742310028,1.0,0.35496088299999995,True,,5f1701dd85408e035eb3bd73,,1311268,109,,evan-feature22,full_rf_a,,1
84,6556,110,,,,1,1,0.0,0.0,0.0,-1.0,,0.0-112.0,,0.0,72.83,0.0,0.37956104799999996,0.0,0.694725302,1.0,0.7181651309999999,0.0,0.38726906299999997,True,,5f1701dd85408e035eb3bd73,,1321100,110,,evan-feature22,full_rf_a,,0
85,6557,111,,,,1,1,1.0,1.0,0.0,-1.0,,0.0-113.0,,-1.0,68.585,1.0,0.404995034,1.0,0.724375412,1.0,0.6910946859999999,0.0,0.387187347,True,,5f1701dd85408e035eb3bd73,,1330930,111,,evan-feature22,full_rf_a,,0
86,6558,112,,,,1,1,0.0,1.0,0.0,-1.0,,0.0-114.0,,-1.0,118.465,0.0,0.461740803,1.0,0.75,1.0,0.75,0.0,0.34872038200000005,True,,5f1701dd85408e035eb3bd73,,1340811,112,,evan-feature22,full_rf_a,,0
87,6559,113,,,,2,2,1.0,0.0,1.0,0.0,,0.0-115.0,,1.0,149.53,0.0,0.43821380600000004,1.0,0.738833273,1.0,0.728286963,0.0,0.399538128,True,,5f1701dd85408e035eb3bd73,,1350723,113,,evan-feature22,full_rf_a,,1
88,6560,114,,,,1,1,1.0,0.0,0.0,-1.0,,0.0-116.0,,0.0,8.255000001,1.0,0.41709882,0.0,0.736666736,1.0,0.75,1.0,0.389095584,True,,5f1701dd85408e035eb3bd73,,1360495,114,,evan-feature22,full_rf_a,,1
89,6561,115,,,,2,2,1.0,0.0,0.0,-1.0,,0.0-117.0,,0.0,138.545,0.0,0.39749009799999996,1.0,0.744320029,1.0,0.75,0.0,0.363848678,True,,5f1701dd85408e035eb3bd73,,1370393,115,,evan-feature22,full_rf_a,,1
90,6562,116,,,,2,2,1.0,0.0,1.0,0.0,,0.0-118.0,,1.0,163.175,1.0,0.392653706,1.0,0.75,1.0,0.75,0.0,0.384386976,True,,5f1701dd85408e035eb3bd73,,1380320,116,,evan-feature22,full_rf_a,,0
91,6563,117,,,,1,1,1.0,1.0,1.0,0.0,,0.0-119.0,,1.0,332.735,1.0,0.31190902600000003,1.0,0.75,1.0,0.732413819,0.0,0.413082932,True,,5f1701dd85408e035eb3bd73,,1390416,117,,evan-feature22,full_rf_a,,1
92,6564,118,,,,2,2,1.0,0.0,0.0,-1.0,,0.0-120.0,,0.0,85.74,0.0,0.366917648,1.0,0.740073855,1.0,0.75,0.0,0.352861979,True,,5f1701dd85408e035eb3bd73,,1400263,118,,evan-feature22,full_rf_a,,1
93,6565,119,,,,1,1,1.0,0.0,0.0,-1.0,,0.0-121.0,,0.0,9.705,1.0,0.3645172,0.0,0.721770713,1.0,0.75,1.0,0.404074511,True,,5f1701dd85408e035eb3bd73,,1410035,119,,evan-feature22,full_rf_a,,1
94,6566,120,,,,2,2,1.0,0.0,0.0,-1.0,,0.0-122.0,,0.0,33.18,0.0,0.35205600299999995,1.0,0.68983859,1.0,0.739735447,0.0,0.366895945,True,,5f1701dd85408e035eb3bd73,,1419832,120,,evan-feature22,full_rf_a,,1
95,6567,121,,,,2,2,1.0,0.0,0.0,-1.0,,0.0-123.0,,0.0,164.33,0.0,0.40998722600000004,1.0,0.720859127,1.0,0.673854955,0.0,0.368528541,True,,5f1701dd85408e035eb3bd73,,1429758,121,,evan-feature22,full_rf_a,,0
96,6568,122,,,,2,2,1.0,0.0,1.0,0.0,,0.0-124.0,,1.0,173.52,0.0,0.353625316,0.0,0.75,1.0,0.695605473,0.0,0.38303674200000004,True,,5f1701dd85408e035eb3bd73,,1439697,122,,evan-feature22,full_rf_a,,0
97,6569,123,,,,2,2,1.0,0.0,0.0,-1.0,,0.0-125.0,,0.0,87.08,0.0,0.359216989,1.0,0.75,1.0,0.6987915090000001,0.0,0.35169046200000004,True,,5f1701dd85408e035eb3bd73,,1449543,123,,evan-feature22,full_rf_a,,0
98,6570,124,,,,2,2,1.0,1.0,1.0,0.0,,0.0-126.0,,1.0,220.975,0.0,0.35834496899999996,1.0,0.75,1.0,0.707067742,1.0,0.416763636,True,,5f1701dd85408e035eb3bd73,,1459528,124,,evan-feature22,full_rf_a,,0
99,6571,125,,,,1,1,0.0,1.0,1.0,0.0,,0.0-127.0,,0.0,292.44,0.0,0.38741613799999997,1.0,0.7177369570000001,0.0,0.734902455,0.0,0.49438664299999996,True,,5f1701dd85408e035eb3bd73,,1469581,125,,evan-feature22,full_rf_a,,1
100,6572,126,,,,1,1,1.0,1.0,0.0,-1.0,,0.0-128.0,,-1.0,272.845,1.0,0.405255252,1.0,0.7300466640000001,0.0,0.7027748070000001,1.0,0.504359668,True,,5f1701dd85408e035eb3bd73,,1479617,126,,evan-feature22,full_rf_a,,0
101,6573,127,,,,1,1,0.0,1.0,0.0,-1.0,,0.0-129.0,,-1.0,126.09,0.0,0.40697073,1.0,0.7260142190000001,1.0,0.724461982,1.0,0.522779179,True,,5f1701dd85408e035eb3bd73,,1489509,127,,evan-feature22,full_rf_a,,0
102,6574,128,,,,1,1,0.0,0.0,0.0,-1.0,,0.0-130.0,,0.0,159.16,0.0,0.43906215299999996,0.0,0.7252802340000001,0.0,0.719079934,1.0,0.5712990579999999,True,,5f1701dd85408e035eb3bd73,,1499430,128,,evan-feature22,full_rf_a,,0
103,6575,129,,,,2,2,0.0,1.0,0.0,-1.0,,0.0-131.0,,-1.0,30.215,0.0,0.4076705,1.0,0.73280499,0.0,0.681313127,1.0,0.523891346,True,,5f1701dd85408e035eb3bd73,,1509221,129,,evan-feature22,full_rf_a,,1
104,6576,130,,,,1,1,0.0,0.0,0.0,-1.0,,0.0-132.0,,0.0,59.05,0.0,0.399102911,0.0,0.730498344,1.0,0.661080239,0.0,0.46742603,True,,5f1701dd85408e035eb3bd73,,1519041,130,,evan-feature22,full_rf_a,,1
105,6577,131,,,,1,1,0.0,0.0,1.0,0.0,,0.0-133.0,,0.0,154.24,0.0,0.356477282,0.0,0.712296395,0.0,0.641812684,0.0,0.44868414,True,,5f1701dd85408e035eb3bd73,,1528956,131,,evan-feature22,full_rf_a,,0
106,6578,132,,,,1,1,1.0,1.0,0.0,-1.0,,0.0-134.0,,-1.0,159.5,1.0,0.462760722,1.0,0.692349322,1.0,0.700947931,0.0,0.394680266,True,,5f1701dd85408e035eb3bd73,,1538876,132,,evan-feature22,full_rf_a,,0
107,6579,133,,,,1,1,0.0,1.0,0.0,-1.0,,0.0-135.0,,-1.0,4.225000001000001,0.0,0.422306413,1.0,0.718375916,1.0,0.706340917,1.0,0.367787185,True,,5f1701dd85408e035eb3bd73,,1548643,133,,evan-feature22,full_rf_a,,0
108,6581,135,,,,1,1,0.0,0.0,0.0,-1.0,,0.0-137.0,,0.0,874.335,0.0,0.4582233,0.0,0.643834117,1.0,0.75,1.0,0.39615823299999997,True,,5f1701dd85408e035eb3bd73,,1561864,135,,evan-feature22,full_rf_a,,0
109,6582,136,,,,2,2,1.0,1.0,0.0,-1.0,,0.0-138.0,,-1.0,619.25,1.0,0.43813437899999996,1.0,0.651283804,1.0,0.729674191,1.0,0.37711048,True,,5f1701dd85408e035eb3bd73,,1572245,136,,evan-feature22,full_rf_a,,1
110,6583,137,,,,1,1,1.0,1.0,0.0,-1.0,,0.0-139.0,,-1.0,128.295,1.0,0.471199094,1.0,0.6470010979999999,1.0,0.715008097,1.0,0.410656191,True,,5f1701dd85408e035eb3bd73,,1582134,137,,evan-feature22,full_rf_a,,1
111,6584,138,,,,1,1,0.0,1.0,1.0,0.0,,0.0-140.0,,0.0,164.78,0.0,0.42486406,1.0,0.629771829,1.0,0.6550939960000001,0.0,0.459093873,True,,5f1701dd85408e035eb3bd73,,1592063,138,,evan-feature22,full_rf_a,,0
112,6585,139,,,,1,1,0.0,0.0,1.0,0.0,,0.0-141.0,,0.0,290.13,0.0,0.4803197,0.0,0.645842715,1.0,0.6421749920000001,1.0,0.443092151,True,,5f1701dd85408e035eb3bd73,,1602116,139,,evan-feature22,full_rf_a,,0
113,6586,140,,,,1,1,0.0,1.0,1.0,0.0,,0.0-142.0,,0.0,80.35,0.0,0.521848997,1.0,0.735801074,1.0,0.6691348460000001,0.0,0.45259351600000003,True,,5f1701dd85408e035eb3bd73,,1611959,140,,evan-feature22,full_rf_a,,0
114,6587,141,,,,1,1,1.0,1.0,0.0,-1.0,,0.0-143.0,,-1.0,150.165,1.0,0.49565621299999996,1.0,0.742400847,0.0,0.661512553,0.0,0.483110831,True,,5f1701dd85408e035eb3bd73,,1621870,141,,evan-feature22,full_rf_a,,0
115,6588,142,,,,1,1,0.0,0.0,1.0,0.0,,0.0-144.0,,0.0,202.99,0.0,0.521564361,0.0,0.731078632,0.0,0.6774886809999999,0.0,0.483263956,True,,5f1701dd85408e035eb3bd73,,1631834,142,,evan-feature22,full_rf_a,,0
116,6589,143,,,,1,1,1.0,1.0,1.0,0.0,,0.0-145.0,,1.0,82.545,1.0,0.558893102,1.0,0.719810023,0.0,0.67461031,0.0,0.499349834,True,,5f1701dd85408e035eb3bd73,,1641679,143,,evan-feature22,full_rf_a,,0
117,6590,144,,,,1,1,1.0,0.0,0.0,-1.0,,0.0-146.0,,0.0,241.525,1.0,0.611031046,0.0,0.75,0.0,0.688072995,1.0,0.5321422729999999,True,,5f1701dd85408e035eb3bd73,,1651683,144,,evan-feature22,full_rf_a,,0
118,6591,145,,,,1,1,1.0,0.0,1.0,0.0,,0.0-147.0,,1.0,137.42,1.0,0.633223941,0.0,0.713567728,1.0,0.75,1.0,0.48185314700000004,True,,5f1701dd85408e035eb3bd73,,1661590,145,,evan-feature22,full_rf_a,,0
119,6592,146,,,,2,2,0.0,1.0,1.0,0.0,,0.0-148.0,,0.0,136.92,1.0,0.664001694,1.0,0.705509768,0.0,0.75,1.0,0.500211065,True,,5f1701dd85408e035eb3bd73,,1671490,146,,evan-feature22,full_rf_a,,1
120,6593,147,,,,1,1,0.0,0.0,0.0,-1.0,,0.0-149.0,,0.0,1226.195,0.0,0.664001694,0.0,0.705509768,1.0,0.75,1.0,0.500211065,True,,5f1701dd85408e035eb3bd73,,1682476,147,,evan-feature22,full_rf_a,,1
121,6594,148,,,,1,1,0.0,1.0,0.0,-1.0,,0.0-150.0,,-1.0,123.155,0.0,0.696508041,1.0,0.71066027,1.0,0.717028709,1.0,0.49792991,True,,5f1701dd85408e035eb3bd73,,1692360,148,,evan-feature22,full_rf_a,,0
122,6595,149,,,,1,1,1.0,0.0,1.0,0.0,,0.0-151.0,,1.0,80.135,1.0,0.699883272,0.0,0.75,0.0,0.713543895,1.0,0.496962643,True,,5f1701dd85408e035eb3bd73,,1702202,149,,evan-feature22,full_rf_a,,0
123,6596,150,,,,2,2,1.0,0.0,0.0,-1.0,,0.0-152.0,,0.0,165.625,1.0,0.741163419,0.0,0.75,1.0,0.64691024,0.0,0.513858197,True,,5f1701dd85408e035eb3bd73,,1712128,150,,evan-feature22,full_rf_a,,1
124,6597,151,,,,2,2,1.0,1.0,1.0,0.0,,0.0-153.0,,1.0,67.135,1.0,0.75,0.0,0.70816558,1.0,0.594499079,1.0,0.48502124,True,,5f1701dd85408e035eb3bd73,,1721963,151,,evan-feature22,full_rf_a,,0
125,6598,152,,,,2,2,1.0,1.0,0.0,-1.0,,0.0-154.0,,-1.0,108.58,1.0,0.75,1.0,0.721848901,1.0,0.62197249,1.0,0.48263586399999997,True,,5f1701dd85408e035eb3bd73,,1731833,152,,evan-feature22,full_rf_a,,0
126,6599,153,,,,1,1,1.0,1.0,1.0,0.0,,0.0-155.0,,1.0,25.155,1.0,0.75,1.0,0.74813071,1.0,0.584357161,0.0,0.411477782,True,,5f1701dd85408e035eb3bd73,,1741623,153,,evan-feature22,full_rf_a,,1
127,6600,154,,,,2,2,0.0,0.0,0.0,-1.0,,0.0-156.0,,0.0,99.605,1.0,0.75,0.0,0.75,0.0,0.52287236,0.0,0.488290656,True,,5f1701dd85408e035eb3bd73,,1751482,154,,evan-feature22,full_rf_a,,1
128,6601,155,,,,1,1,0.0,1.0,0.0,-1.0,,0.0-157.0,,-1.0,126.38,0.0,0.75,1.0,0.75,1.0,0.544321581,0.0,0.53143059,True,,5f1701dd85408e035eb3bd73,,1761367,155,,evan-feature22,full_rf_a,,1
129,6602,156,,,,2,2,0.0,1.0,0.0,-1.0,,0.0-158.0,,-1.0,392.555,1.0,0.726754564,1.0,0.75,0.0,0.5129306370000001,1.0,0.530592445,True,,5f1701dd85408e035eb3bd73,,1771519,156,,evan-feature22,full_rf_a,,1
130,6603,157,,,,1,1,1.0,0.0,1.0,0.0,,0.0-159.0,,1.0,24.93,1.0,0.75,0.0,0.7392590729999999,0.0,0.479875835,0.0,0.547007051,True,,5f1701dd85408e035eb3bd73,,1781314,157,,evan-feature22,full_rf_a,,1
131,6604,158,,,,2,2,1.0,1.0,1.0,0.0,,0.0-160.0,,1.0,72.065,1.0,0.75,0.0,0.7393376979999999,1.0,0.546045419,1.0,0.541267353,True,,5f1701dd85408e035eb3bd73,,1791150,158,,evan-feature22,full_rf_a,,1
132,6605,159,,,,2,2,1.0,1.0,1.0,0.0,,0.0-161.0,,1.0,33.56,1.0,0.75,0.0,0.75,1.0,0.485725895,1.0,0.527625395,True,,5f1701dd85408e035eb3bd73,,1800946,159,,evan-feature22,full_rf_a,,0
133,6606,160,,,,1,1,0.0,1.0,0.0,-1.0,,0.0-162.0,,-1.0,96.765,0.0,0.75,1.0,0.725087974,0.0,0.488603595,0.0,0.504019206,True,,5f1701dd85408e035eb3bd73,,1810804,160,,evan-feature22,full_rf_a,,1
134,6607,161,,,,2,2,1.0,0.0,0.0,-1.0,,0.0-163.0,,0.0,152.49,0.0,0.745504295,1.0,0.75,1.0,0.452379914,0.0,0.50131194,True,,5f1701dd85408e035eb3bd73,,1820715,161,,evan-feature22,full_rf_a,,1
135,6608,162,,,,2,2,0.0,0.0,0.0,-1.0,,0.0-164.0,,0.0,173.275,1.0,0.728513874,1.0,0.75,0.0,0.44125567200000004,0.0,0.531454591,True,,5f1701dd85408e035eb3bd73,,1830646,162,,evan-feature22,full_rf_a,,0
136,6609,163,,,,2,2,1.0,1.0,1.0,0.0,,0.0-165.0,,1.0,230.12,0.0,0.73790804,1.0,0.75,1.0,0.413036656,1.0,0.524619035,True,,5f1701dd85408e035eb3bd73,,1840639,163,,evan-feature22,full_rf_a,,0
137,6610,164,,,,1,1,1.0,1.0,0.0,-1.0,,0.0-166.0,,-1.0,208.235,1.0,0.7080961309999999,1.0,0.708666865,1.0,0.431915581,0.0,0.481819489,True,,5f1701dd85408e035eb3bd73,,1850612,164,,evan-feature22,full_rf_a,,1
138,6611,165,,,,1,1,1.0,1.0,0.0,-1.0,,0.0-167.0,,-1.0,199.675,1.0,0.721378003,1.0,0.71605913,0.0,0.36642387,1.0,0.5036739929999999,True,,5f1701dd85408e035eb3bd73,,1860574,165,,evan-feature22,full_rf_a,,0
139,6612,166,,,,2,2,1.0,1.0,0.0,-1.0,,0.0-168.0,,-1.0,74.65,1.0,0.7340618959999999,1.0,0.699323252,1.0,0.35298046299999997,1.0,0.511241692,True,,5f1701dd85408e035eb3bd73,,1870411,166,,evan-feature22,full_rf_a,,1
140,6613,167,,,,2,2,1.0,0.0,1.0,0.0,,0.0-169.0,,1.0,92.565,1.0,0.75,1.0,0.70412698,1.0,0.380734814,0.0,0.529580116,True,,5f1701dd85408e035eb3bd73,,1880265,167,,evan-feature22,full_rf_a,,0
141,6614,168,,,,2,2,1.0,0.0,0.0,-1.0,,0.0-170.0,,0.0,6.835,1.0,0.7436654909999999,0.0,0.711182751,1.0,0.41125331,0.0,0.49554405,True,,5f1701dd85408e035eb3bd73,,1890036,168,,evan-feature22,full_rf_a,,0
142,6615,169,,,,1,1,1.0,1.0,0.0,-1.0,,0.0-171.0,,-1.0,62.86,1.0,0.731607915,1.0,0.651774583,0.0,0.35688023,1.0,0.45194491600000003,True,,5f1701dd85408e035eb3bd73,,1899863,169,,evan-feature22,full_rf_a,,1
143,6616,170,,,,1,1,1.0,0.0,1.0,0.0,,0.0-172.0,,1.0,178.205,1.0,0.75,0.0,0.75,0.0,0.283145374,0.0,0.528608005,True,,5f1701dd85408e035eb3bd73,,1909802,170,,evan-feature22,full_rf_a,,0
144,6617,171,,,,2,2,1.0,0.0,1.0,0.0,,0.0-173.0,,1.0,306.49,1.0,0.7491416890000001,0.0,0.7423785959999999,1.0,0.29135870399999997,0.0,0.498888318,True,,5f1701dd85408e035eb3bd73,,1919870,171,,evan-feature22,full_rf_a,,1
145,6618,172,,,,1,1,0.0,1.0,1.0,0.0,,0.0-174.0,,0.0,6.74,0.0,0.708569387,1.0,0.717682277,1.0,0.294421699,1.0,0.493838163,True,,5f1701dd85408e035eb3bd73,,1929640,172,,evan-feature22,full_rf_a,,1
146,6619,173,,,,1,1,1.0,1.0,0.0,-1.0,,0.0-175.0,,-1.0,76.005,1.0,0.75,1.0,0.7383382159999999,1.0,0.356098707,0.0,0.442533405,True,,5f1701dd85408e035eb3bd73,,1939478,173,,evan-feature22,full_rf_a,,0
147,6620,174,,,,2,2,0.0,1.0,0.0,-1.0,,0.0-176.0,,-1.0,117.465,1.0,0.744527075,1.0,0.75,0.0,0.334127506,1.0,0.393165805,True,,5f1701dd85408e035eb3bd73,,1949361,174,,evan-feature22,full_rf_a,,1
148,6621,175,,,,2,2,0.0,0.0,0.0,-1.0,,0.0-177.0,,0.0,26.91,1.0,0.75,1.0,0.75,0.0,0.33571021799999995,0.0,0.350393962,True,,5f1701dd85408e035eb3bd73,,1959149,175,,evan-feature22,full_rf_a,,0
149,6622,176,,,,2,2,0.0,0.0,0.0,-1.0,,0.0-178.0,,0.0,1203.28,1.0,0.75,0.0,0.75,0.0,0.313628297,0.0,0.36349657399999996,True,,5f1701dd85408e035eb3bd73,,1970112,176,,evan-feature22,full_rf_a,,0
150,6623,177,,,,2,2,0.0,0.0,1.0,0.0,,0.0-179.0,,0.0,400.115,0.0,0.75,1.0,0.734284182,0.0,0.262667667,0.0,0.380199119,True,,5f1701dd85408e035eb3bd73,,1980272,177,,evan-feature22,full_rf_a,,0
151,6624,178,,,,1,1,1.0,1.0,0.0,-1.0,,0.0-180.0,,-1.0,267.09,1.0,0.75,1.0,0.75,0.0,0.25,0.0,0.394494013,True,,5f1701dd85408e035eb3bd73,,1990300,178,,evan-feature22,full_rf_a,,1
152,6625,179,,,,2,2,0.0,0.0,1.0,0.0,,0.0-181.0,,0.0,128.425,0.0,0.722298145,1.0,0.7357822340000001,0.0,0.25,0.0,0.319142121,True,,5f1701dd85408e035eb3bd73,,2000187,179,,evan-feature22,full_rf_a,,1
153,6626,180,,,,1,1,1.0,1.0,1.0,0.0,,0.0-182.0,,1.0,148.725,1.0,0.73149275,1.0,0.724276446,0.0,0.305856907,1.0,0.281315057,True,,5f1701dd85408e035eb3bd73,,2010097,180,,evan-feature22,full_rf_a,,1
154,6627,181,,,,2,2,0.0,0.0,0.0,-1.0,,0.0-183.0,,0.0,1614.675,0.0,0.7458732690000001,0.0,0.7336382459999999,0.0,0.272571964,0.0,0.266021999,True,,5f1701dd85408e035eb3bd73,,2021471,181,,evan-feature22,full_rf_a,,1
155,6628,182,,,,2,2,0.0,0.0,0.0,-1.0,,0.0-184.0,,0.0,857.315,1.0,0.705579037,1.0,0.720778292,0.0,0.320238144,0.0,0.30971744,True,,5f1701dd85408e035eb3bd73,,2032090,182,,evan-feature22,full_rf_a,,0
156,6629,183,,,,2,2,0.0,0.0,0.0,-1.0,,0.0-185.0,,0.0,121.285,1.0,0.700425648,0.0,0.7198784009999999,0.0,0.272590393,0.0,0.304182931,True,,5f1701dd85408e035eb3bd73,,2041971,183,,evan-feature22,full_rf_a,,0
157,6630,184,,,,1,1,0.0,1.0,0.0,-1.0,,0.0-186.0,,-1.0,155.73,0.0,0.735590785,1.0,0.722714973,0.0,0.25,1.0,0.323421091,True,,5f1701dd85408e035eb3bd73,,2051890,184,,evan-feature22,full_rf_a,,1
158,6631,185,,,,1,1,1.0,0.0,0.0,-1.0,,0.0-187.0,,0.0,81.675,1.0,0.724807662,0.0,0.63146213,0.0,0.36836492600000004,1.0,0.34592153299999995,True,,5f1701dd85408e035eb3bd73,,2061735,185,,evan-feature22,full_rf_a,,0
159,6632,186,,,,1,1,1.0,0.0,0.0,-1.0,,0.0-188.0,,0.0,2564.54,1.0,0.7352796909999999,0.0,0.555111392,0.0,0.36003922,0.0,0.31433779999999995,True,,5f1701dd85408e035eb3bd73,,2074059,186,,evan-feature22,full_rf_a,,0
160,6633,187,notice,,,,,,,,,,0.0-189.0,"{""Q0"":""no""}",,10718.0,,,,,,,,,True,,5f1701dd85408e035eb3bd73,,2084778,187,Q,survey-text,full_rf_a,,1
161,6634,188,track1,,[0],,,,,,,,0.0-190.0,"{""Q0"":""yes""}",,4249.0,,,,,,,,,True,,5f1701dd85408e035eb3bd73,,2089031,188,Q,evan-quiz,full_rf_a,,1
162,6635,189,track2,,[1],,,,,,,,0.0-191.0,"{""Q0"":""no""}",,4901.0,,,,,,,,,True,,5f1701dd85408e035eb3bd73,,2093937,189,Q,evan-quiz,full_rf_a,,1
163,6636,190,strat,,,,,,,,,,0.0-192.0,"{""Q0"":""Random selection""}",,6518.0,,,,,,,,,True,,5f1701dd85408e035eb3bd73,,2100458,190,Q,survey-text,full_rf_a,,1
