,index,Unnamed: 0,Q_name,button_pressed,choice_idxs,chosen_pos,chosen_state,chosen_state_f_1_outcome,chosen_state_f_2_outcome,f_1_reward,f_2_reward,incor_questions,internal_node_id,responses,reward_received,rt,s_1_f_1_outcome,s_1_f_1_prob,s_1_f_2_outcome,s_1_f_2_prob,s_2_f_1_outcome,s_2_f_1_prob,s_2_f_2_outcome,s_2_f_2_prob,safe_first,stimulus,subjectID,success,time_elapsed,trial_index,trial_num,trial_type,version,view_history,switching
0,27133,30,,,,1,1,0.0,0.0,-1.0,0.0,,0.0-27.0,,0.0,851.12,0.0,0.6,0.0,0.6,1.0,0.4,1.0,0.4,False,,5c4602713d08e80001369876,,649714,30,,evan-feature22,full_pf_b,,0
1,27134,31,,,,1,1,0.0,1.0,-1.0,0.0,,0.0-28.0,,0.0,1052.525,0.0,0.608053294,1.0,0.63424552,0.0,0.397152172,0.0,0.347069101,False,,5c4602713d08e80001369876,,660528,31,,evan-feature22,full_pf_b,,0
2,27135,32,,,,1,1,1.0,0.0,-1.0,0.0,,0.0-29.0,,-1.0,1255.51,1.0,0.642237155,0.0,0.648566321,1.0,0.389407674,0.0,0.285525717,False,,5c4602713d08e80001369876,,671545,32,,evan-feature22,full_pf_b,,0
3,27136,33,,,,2,2,0.0,1.0,-1.0,0.0,,0.0-30.0,,0.0,1325.505,1.0,0.661086576,1.0,0.630492543,0.0,0.399058924,1.0,0.25,False,,5c4602713d08e80001369876,,682634,33,,evan-feature22,full_pf_b,,1
4,27137,34,,,,2,2,1.0,1.0,0.0,1.0,,0.0-31.0,,1.0,1837.69,1.0,0.631324137,1.0,0.6269842929999999,1.0,0.38734784299999997,1.0,0.25,False,,5c4602713d08e80001369876,,694235,34,,evan-feature22,full_pf_b,,0
5,27138,35,,,,1,1,1.0,1.0,0.0,1.0,,0.0-32.0,,1.0,1988.68,1.0,0.6381991370000001,1.0,0.68987999,1.0,0.384107265,0.0,0.271332943,False,,5c4602713d08e80001369876,,705985,35,,evan-feature22,full_pf_b,,1
6,27139,36,,,,2,2,0.0,0.0,-1.0,0.0,,0.0-33.0,,0.0,2613.26,1.0,0.66034901,1.0,0.742641349,0.0,0.360225629,0.0,0.25,False,,5c4602713d08e80001369876,,718360,36,,evan-feature22,full_pf_b,,1
7,27140,37,,,,2,2,0.0,0.0,-1.0,0.0,,0.0-34.0,,0.0,1685.48,1.0,0.638612418,1.0,0.75,0.0,0.367273939,0.0,0.25,False,,5c4602713d08e80001369876,,729807,37,,evan-feature22,full_pf_b,,0
8,27141,38,,,,1,1,1.0,1.0,0.0,1.0,,0.0-35.0,,1.0,1718.02,1.0,0.624340629,1.0,0.75,0.0,0.425829545,0.0,0.25,False,,5c4602713d08e80001369876,,741287,38,,evan-feature22,full_pf_b,,1
9,27142,39,,,,1,1,1.0,1.0,0.0,1.0,,0.0-36.0,,1.0,1654.6,1.0,0.621999804,1.0,0.75,0.0,0.368609357,0.0,0.25,False,,5c4602713d08e80001369876,,752706,39,,evan-feature22,full_pf_b,,0
10,27143,40,,,,2,2,1.0,0.0,-1.0,0.0,,0.0-37.0,,-1.0,2147.29,1.0,0.62666403,1.0,0.75,1.0,0.311151498,0.0,0.25,False,,5c4602713d08e80001369876,,764614,40,,evan-feature22,full_pf_b,,1
11,27144,41,,,,1,1,1.0,1.0,0.0,1.0,,0.0-38.0,,1.0,1621.885,1.0,0.6819650009999999,1.0,0.75,0.0,0.310763048,1.0,0.25,False,,5c4602713d08e80001369876,,775999,41,,evan-feature22,full_pf_b,,1
12,27145,42,,,,2,2,0.0,0.0,-1.0,0.0,,0.0-39.0,,0.0,1769.855,1.0,0.740626951,1.0,0.75,0.0,0.25,0.0,0.25,False,,5c4602713d08e80001369876,,787532,42,,evan-feature22,full_pf_b,,1
13,27146,43,,,,2,2,0.0,0.0,-1.0,0.0,,0.0-40.0,,0.0,1519.72,1.0,0.739599242,1.0,0.742034978,0.0,0.25397114600000004,0.0,0.25,False,,5c4602713d08e80001369876,,798814,43,,evan-feature22,full_pf_b,,0
14,27147,44,,,,2,2,0.0,0.0,-1.0,0.0,,0.0-41.0,,0.0,1293.925,1.0,0.732341315,0.0,0.72735643,0.0,0.25,0.0,0.25,False,,5c4602713d08e80001369876,,809868,44,,evan-feature22,full_pf_b,,0
15,27148,45,,,,2,2,0.0,0.0,-1.0,0.0,,0.0-42.0,,0.0,1223.695,1.0,0.7062287770000001,0.0,0.75,0.0,0.29002151,0.0,0.288256649,False,,5c4602713d08e80001369876,,820852,45,,evan-feature22,full_pf_b,,0
16,27149,46,,,,2,2,0.0,1.0,-1.0,0.0,,0.0-43.0,,0.0,1606.785,1.0,0.7086029209999999,0.0,0.75,0.0,0.274129113,1.0,0.262851608,False,,5c4602713d08e80001369876,,832220,46,,evan-feature22,full_pf_b,,0
17,27150,47,,,,2,2,1.0,0.0,-1.0,0.0,,0.0-44.0,,-1.0,1398.635,0.0,0.669189651,1.0,0.727614338,1.0,0.298444036,0.0,0.296944518,False,,5c4602713d08e80001369876,,843378,47,,evan-feature22,full_pf_b,,0
18,27151,48,,,,1,1,1.0,1.0,-1.0,0.0,,0.0-45.0,,-1.0,967.67,1.0,0.6819912929999999,1.0,0.7179434290000001,1.0,0.265003961,0.0,0.28157921199999997,False,,5c4602713d08e80001369876,,854108,48,,evan-feature22,full_pf_b,,1
19,27152,49,,,,1,1,0.0,0.0,0.0,1.0,,0.0-46.0,,0.0,1435.825,0.0,0.665275002,0.0,0.723065271,0.0,0.260414971,0.0,0.30973870000000003,False,,5c4602713d08e80001369876,,865308,49,,evan-feature22,full_pf_b,,0
20,27153,50,,,,2,2,0.0,1.0,-1.0,0.0,,0.0-47.0,,0.0,2469.31,0.0,0.6660593260000001,1.0,0.728032907,0.0,0.30922817,1.0,0.338778608,False,,5c4602713d08e80001369876,,877539,50,,evan-feature22,full_pf_b,,1
21,27154,51,,,,1,1,1.0,1.0,-1.0,0.0,,0.0-48.0,,-1.0,1237.345,1.0,0.702068785,1.0,0.6528750879999999,0.0,0.287329608,0.0,0.35789613200000003,False,,5c4602713d08e80001369876,,888539,51,,evan-feature22,full_pf_b,,1
22,27155,52,,,,2,2,0.0,1.0,-1.0,0.0,,0.0-49.0,,0.0,1036.19,1.0,0.651939787,0.0,0.636725589,0.0,0.284834488,1.0,0.358563756,False,,5c4602713d08e80001369876,,899339,52,,evan-feature22,full_pf_b,,1
23,27156,53,,,,2,2,0.0,1.0,0.0,1.0,,0.0-50.0,,1.0,2052.57,1.0,0.67573929,1.0,0.612550049,0.0,0.37130387600000003,1.0,0.383542402,False,,5c4602713d08e80001369876,,911152,53,,evan-feature22,full_pf_b,,0
24,27157,54,,,,2,2,0.0,1.0,0.0,1.0,,0.0-51.0,,1.0,1510.74,0.0,0.620753801,1.0,0.60513644,0.0,0.385529434,1.0,0.340361743,False,,5c4602713d08e80001369876,,922426,54,,evan-feature22,full_pf_b,,0
25,27158,55,,,,1,1,1.0,0.0,0.0,1.0,,0.0-52.0,,0.0,1230.1,1.0,0.673564893,0.0,0.672437924,0.0,0.292955382,0.0,0.337633795,False,,5c4602713d08e80001369876,,933418,55,,evan-feature22,full_pf_b,,1
26,27159,56,,,,2,2,1.0,0.0,-1.0,0.0,,0.0-53.0,,-1.0,1948.605,1.0,0.6749427,1.0,0.724197502,1.0,0.32391132100000003,0.0,0.350995264,False,,5c4602713d08e80001369876,,945128,56,,evan-feature22,full_pf_b,,1
27,27160,57,,,,1,1,0.0,1.0,-1.0,0.0,,0.0-54.0,,0.0,934.385,0.0,0.6940159379999999,1.0,0.75,0.0,0.31710554399999996,1.0,0.413450341,False,,5c4602713d08e80001369876,,955823,57,,evan-feature22,full_pf_b,,1
28,27161,58,,,,1,1,0.0,0.0,-1.0,0.0,,0.0-55.0,,0.0,1151.465,0.0,0.6916018270000001,0.0,0.69001187,0.0,0.261817804,0.0,0.40038635,False,,5c4602713d08e80001369876,,966734,58,,evan-feature22,full_pf_b,,0
29,27162,59,,,,1,1,0.0,0.0,-1.0,0.0,,0.0-56.0,,0.0,943.52,0.0,0.641061544,0.0,0.71337992,0.0,0.277296461,0.0,0.47372791700000005,False,,5c4602713d08e80001369876,,977437,59,,evan-feature22,full_pf_b,,0
30,27163,60,,,,1,1,1.0,1.0,-1.0,0.0,,0.0-57.0,,-1.0,1341.9,1.0,0.6082438520000001,1.0,0.708471106,0.0,0.28745137,0.0,0.564174476,False,,5c4602713d08e80001369876,,988544,60,,evan-feature22,full_pf_b,,0
31,27164,61,,,,2,2,0.0,0.0,-1.0,0.0,,0.0-58.0,,0.0,692.435,1.0,0.6051112120000001,1.0,0.7118147229999999,0.0,0.272390611,0.0,0.5595149939999999,False,,5c4602713d08e80001369876,,998998,61,,evan-feature22,full_pf_b,,1
32,27165,62,,,,2,2,0.0,0.0,-1.0,0.0,,0.0-59.0,,0.0,742.585,1.0,0.582420852,0.0,0.635867583,0.0,0.31089574,0.0,0.5227206520000001,False,,5c4602713d08e80001369876,,1009501,62,,evan-feature22,full_pf_b,,0
33,27166,63,,,,1,1,1.0,0.0,0.0,1.0,,0.0-60.0,,0.0,1423.205,1.0,0.623195575,0.0,0.655026044,0.0,0.25,1.0,0.560387538,False,,5c4602713d08e80001369876,,1020684,63,,evan-feature22,full_pf_b,,1
34,27167,64,,,,2,2,0.0,0.0,-1.0,0.0,,0.0-61.0,,0.0,775.325,0.0,0.601889598,1.0,0.678198724,0.0,0.25,0.0,0.559922936,False,,5c4602713d08e80001369876,,1031220,64,,evan-feature22,full_pf_b,,1
35,27168,65,,,,2,2,0.0,0.0,-1.0,0.0,,0.0-62.0,,0.0,1270.325,1.0,0.601259914,1.0,0.704681482,0.0,0.33908969299999997,0.0,0.505003715,False,,5c4602713d08e80001369876,,1042252,65,,evan-feature22,full_pf_b,,0
36,27169,66,,,,2,2,0.0,0.0,-1.0,0.0,,0.0-63.0,,0.0,743.335,0.0,0.59645454,1.0,0.710437172,0.0,0.327441879,0.0,0.391749613,False,,5c4602713d08e80001369876,,1052756,66,,evan-feature22,full_pf_b,,0
37,27170,67,,,,1,1,0.0,1.0,-1.0,0.0,,0.0-64.0,,0.0,1566.39,0.0,0.529473,1.0,0.636758527,0.0,0.301338063,1.0,0.365661481,False,,5c4602713d08e80001369876,,1064083,67,,evan-feature22,full_pf_b,,1
38,27171,68,,,,1,1,1.0,1.0,0.0,1.0,,0.0-65.0,,1.0,1070.53,1.0,0.541657162,1.0,0.634541962,1.0,0.343535366,0.0,0.371763742,False,,5c4602713d08e80001369876,,1074916,68,,evan-feature22,full_pf_b,,0
39,27172,69,,,,1,1,1.0,1.0,-1.0,0.0,,0.0-66.0,,-1.0,1748.55,1.0,0.5707533260000001,1.0,0.589121171,0.0,0.326428396,0.0,0.43961622899999997,False,,5c4602713d08e80001369876,,1086427,69,,evan-feature22,full_pf_b,,0
40,27173,70,,,,2,2,0.0,1.0,-1.0,0.0,,0.0-67.0,,0.0,1029.23,1.0,0.5707533260000001,1.0,0.589121171,0.0,0.326428396,1.0,0.43961622899999997,False,,5c4602713d08e80001369876,,1097217,70,,evan-feature22,full_pf_b,,1
41,27174,71,,,,2,2,1.0,1.0,-1.0,0.0,,0.0-68.0,,-1.0,1634.365,0.0,0.506271295,0.0,0.641775594,1.0,0.37149690700000004,1.0,0.404330166,False,,5c4602713d08e80001369876,,1108620,71,,evan-feature22,full_pf_b,,0
42,27175,72,,,,1,1,0.0,1.0,0.0,1.0,,0.0-69.0,,1.0,1413.315,0.0,0.455642565,1.0,0.623605825,0.0,0.358753011,0.0,0.346174041,False,,5c4602713d08e80001369876,,1119794,72,,evan-feature22,full_pf_b,,1
43,27176,73,,,,1,1,0.0,1.0,0.0,1.0,,0.0-70.0,,1.0,1111.085,0.0,0.483677308,1.0,0.5904681070000001,1.0,0.402218411,0.0,0.35344697,False,,5c4602713d08e80001369876,,1130665,73,,evan-feature22,full_pf_b,,0
44,27177,74,,,,1,1,1.0,1.0,0.0,1.0,,0.0-71.0,,1.0,1590.36,1.0,0.394210977,1.0,0.558925494,1.0,0.540052017,1.0,0.35182128700000004,False,,5c4602713d08e80001369876,,1142018,74,,evan-feature22,full_pf_b,,0
45,27178,75,,,,1,1,0.0,1.0,-1.0,0.0,,0.0-72.0,,0.0,1724.225,0.0,0.382300414,1.0,0.577670603,1.0,0.607608448,1.0,0.378261578,False,,5c4602713d08e80001369876,,1153506,75,,evan-feature22,full_pf_b,,0
46,27179,76,,,,1,1,0.0,0.0,-1.0,0.0,,0.0-73.0,,0.0,1139.155,0.0,0.357596762,0.0,0.5929076529999999,1.0,0.6579790010000001,0.0,0.401326777,False,,5c4602713d08e80001369876,,1164409,76,,evan-feature22,full_pf_b,,0
47,27180,77,,,,1,1,0.0,0.0,-1.0,0.0,,0.0-74.0,,0.0,1262.78,0.0,0.362033495,0.0,0.582308608,0.0,0.649195052,0.0,0.355158505,False,,5c4602713d08e80001369876,,1175432,77,,evan-feature22,full_pf_b,,0
48,27181,78,,,,2,2,0.0,0.0,-1.0,0.0,,0.0-75.0,,0.0,1582.315,0.0,0.369620635,1.0,0.669100864,0.0,0.706059111,0.0,0.362516241,False,,5c4602713d08e80001369876,,1186774,78,,evan-feature22,full_pf_b,,1
49,27182,79,,,,1,1,1.0,1.0,-1.0,0.0,,0.0-76.0,,-1.0,1871.735,1.0,0.41477751399999996,1.0,0.7284416779999999,1.0,0.7182656940000001,0.0,0.36228040899999997,False,,5c4602713d08e80001369876,,1198408,79,,evan-feature22,full_pf_b,,1
50,27183,80,,,,1,1,1.0,0.0,0.0,1.0,,0.0-77.0,,0.0,1424.98,1.0,0.37675460299999997,0.0,0.703250285,1.0,0.75,0.0,0.461979164,False,,5c4602713d08e80001369876,,1209598,80,,evan-feature22,full_pf_b,,0
51,27184,81,,,,1,1,0.0,0.0,0.0,1.0,,0.0-78.0,,0.0,1068.365,0.0,0.398716075,0.0,0.6723864890000001,1.0,0.674153818,1.0,0.519029516,False,,5c4602713d08e80001369876,,1220431,81,,evan-feature22,full_pf_b,,0
52,27185,82,,,,1,1,0.0,1.0,-1.0,0.0,,0.0-79.0,,0.0,1301.445,0.0,0.34677856700000004,1.0,0.69057175,1.0,0.6822438540000001,1.0,0.477292237,False,,5c4602713d08e80001369876,,1231494,82,,evan-feature22,full_pf_b,,0
53,27186,83,,,,1,1,0.0,1.0,0.0,1.0,,0.0-80.0,,1.0,1510.72,0.0,0.28580469199999997,1.0,0.68408818,1.0,0.684207565,1.0,0.49780448299999996,False,,5c4602713d08e80001369876,,1242766,83,,evan-feature22,full_pf_b,,0
54,27188,85,,,,1,1,0.0,1.0,-1.0,0.0,,0.0-82.0,,0.0,809.815,0.0,0.25,1.0,0.7405808970000001,1.0,0.679614108,1.0,0.436436964,False,,5c4602713d08e80001369876,,1259484,85,,evan-feature22,full_pf_b,,0
55,27189,86,,,,1,1,0.0,1.0,0.0,1.0,,0.0-83.0,,1.0,1350.235,0.0,0.29890393,1.0,0.730505706,1.0,0.7328203320000001,1.0,0.439256938,False,,5c4602713d08e80001369876,,1270595,86,,evan-feature22,full_pf_b,,0
56,27190,87,,,,2,2,0.0,0.0,-1.0,0.0,,0.0-84.0,,0.0,1510.305,1.0,0.326762398,1.0,0.7148059609999999,0.0,0.75,0.0,0.44389608799999997,False,,5c4602713d08e80001369876,,1281869,87,,evan-feature22,full_pf_b,,1
57,27191,88,,,,2,2,1.0,1.0,-1.0,0.0,,0.0-85.0,,-1.0,1150.37,1.0,0.295168515,1.0,0.739760854,1.0,0.719947008,1.0,0.35277284600000003,False,,5c4602713d08e80001369876,,1292782,88,,evan-feature22,full_pf_b,,0
58,27192,89,,,,1,1,1.0,1.0,-1.0,0.0,,0.0-86.0,,-1.0,1269.745,1.0,0.25,1.0,0.70781482,0.0,0.75,1.0,0.286095925,False,,5c4602713d08e80001369876,,1303813,89,,evan-feature22,full_pf_b,,1
59,27193,90,,,,1,1,0.0,1.0,0.0,1.0,,0.0-87.0,,1.0,1253.18,0.0,0.25638190899999996,1.0,0.704088163,1.0,0.75,0.0,0.26872601399999996,False,,5c4602713d08e80001369876,,1314828,90,,evan-feature22,full_pf_b,,0
60,27194,91,,,,1,1,1.0,0.0,0.0,1.0,,0.0-88.0,,0.0,812.305,1.0,0.271581126,0.0,0.669760107,0.0,0.733896663,0.0,0.273244572,False,,5c4602713d08e80001369876,,1325401,91,,evan-feature22,full_pf_b,,0
61,27195,92,,,,2,2,1.0,0.0,0.0,1.0,,0.0-89.0,,0.0,895.1,0.0,0.257144401,1.0,0.600575706,1.0,0.74488122,0.0,0.25,False,,5c4602713d08e80001369876,,1336057,92,,evan-feature22,full_pf_b,,1
62,27196,93,,,,1,1,1.0,1.0,-1.0,0.0,,0.0-90.0,,-1.0,1583.22,1.0,0.25,1.0,0.616870026,1.0,0.723610234,0.0,0.25,False,,5c4602713d08e80001369876,,1347403,93,,evan-feature22,full_pf_b,,1
63,27197,94,,,,1,1,0.0,0.0,0.0,1.0,,0.0-91.0,,0.0,1070.11,0.0,0.25,0.0,0.583540187,0.0,0.7041042559999999,0.0,0.285961995,False,,5c4602713d08e80001369876,,1358232,94,,evan-feature22,full_pf_b,,0
64,27198,95,,,,2,2,1.0,0.0,-1.0,0.0,,0.0-92.0,,-1.0,1471.66,0.0,0.27254536,1.0,0.53875765,1.0,0.693783448,0.0,0.284961652,False,,5c4602713d08e80001369876,,1369464,95,,evan-feature22,full_pf_b,,1
65,27199,96,,,,1,1,0.0,0.0,0.0,1.0,,0.0-93.0,,0.0,1238.935,0.0,0.25,0.0,0.548431252,1.0,0.734221895,1.0,0.279445214,False,,5c4602713d08e80001369876,,1380464,96,,evan-feature22,full_pf_b,,1
66,27200,97,,,,1,1,0.0,0.0,-1.0,0.0,,0.0-94.0,,0.0,1958.095,0.0,0.258640684,0.0,0.545878066,0.0,0.725245965,0.0,0.31487537,False,,5c4602713d08e80001369876,,1392183,97,,evan-feature22,full_pf_b,,0
67,27201,98,,,,1,1,0.0,1.0,-1.0,0.0,,0.0-95.0,,0.0,1390.905,0.0,0.251103711,1.0,0.5776290629999999,1.0,0.696320133,0.0,0.317831047,False,,5c4602713d08e80001369876,,1403338,98,,evan-feature22,full_pf_b,,0
68,27202,99,,,,1,1,1.0,0.0,-1.0,0.0,,0.0-96.0,,-1.0,1588.62,1.0,0.276630292,0.0,0.617329858,1.0,0.73838088,0.0,0.261471582,False,,5c4602713d08e80001369876,,1414688,99,,evan-feature22,full_pf_b,,0
69,27203,100,,,,1,1,0.0,1.0,0.0,1.0,,0.0-97.0,,1.0,1270.4,0.0,0.297716424,1.0,0.618863717,0.0,0.7402358259999999,0.0,0.262600834,False,,5c4602713d08e80001369876,,1425719,100,,evan-feature22,full_pf_b,,0
70,27204,101,,,,1,1,0.0,1.0,-1.0,0.0,,0.0-98.0,,0.0,1245.825,0.0,0.290935512,1.0,0.695370945,1.0,0.706570507,1.0,0.280030553,False,,5c4602713d08e80001369876,,1436726,101,,evan-feature22,full_pf_b,,0
71,27205,102,,,,1,1,0.0,0.0,-1.0,0.0,,0.0-99.0,,0.0,1268.615,0.0,0.25,0.0,0.6465277079999999,0.0,0.67766682,1.0,0.25,False,,5c4602713d08e80001369876,,1447756,102,,evan-feature22,full_pf_b,,0
72,27206,103,,,,1,1,1.0,1.0,-1.0,0.0,,0.0-100.0,,-1.0,1151.72,1.0,0.26463816,1.0,0.636100213,0.0,0.646048507,0.0,0.265607101,False,,5c4602713d08e80001369876,,1458670,103,,evan-feature22,full_pf_b,,0
73,27207,104,,,,2,2,0.0,0.0,-1.0,0.0,,0.0-101.0,,0.0,1133.665,1.0,0.314340707,1.0,0.667795927,0.0,0.613630805,0.0,0.25,False,,5c4602713d08e80001369876,,1469566,104,,evan-feature22,full_pf_b,,1
74,27208,105,,,,1,1,0.0,0.0,-1.0,0.0,,0.0-102.0,,0.0,1694.685,0.0,0.28685784,0.0,0.6622549529999999,1.0,0.652154117,0.0,0.25,False,,5c4602713d08e80001369876,,1481019,105,,evan-feature22,full_pf_b,,1
75,27209,106,,,,1,1,0.0,1.0,0.0,1.0,,0.0-103.0,,1.0,1312.58,0.0,0.304106554,1.0,0.631289538,1.0,0.707041942,1.0,0.29314237,False,,5c4602713d08e80001369876,,1492093,106,,evan-feature22,full_pf_b,,0
76,27210,107,,,,1,1,1.0,1.0,0.0,1.0,,0.0-104.0,,1.0,1414.585,1.0,0.304806932,1.0,0.571167718,1.0,0.680472346,0.0,0.25,False,,5c4602713d08e80001369876,,1503270,107,,evan-feature22,full_pf_b,,0
77,27211,108,,,,2,2,1.0,1.0,0.0,1.0,,0.0-105.0,,1.0,1228.675,0.0,0.37919861,1.0,0.5724849710000001,1.0,0.705638003,1.0,0.30179300600000003,False,,5c4602713d08e80001369876,,1514260,108,,evan-feature22,full_pf_b,,1
78,27212,109,,,,2,2,1.0,1.0,0.0,1.0,,0.0-106.0,,1.0,1492.67,1.0,0.464277969,0.0,0.554034373,1.0,0.7372627340000001,1.0,0.264699741,False,,5c4602713d08e80001369876,,1525517,109,,evan-feature22,full_pf_b,,0
79,27213,110,,,,1,1,0.0,0.0,-1.0,0.0,,0.0-107.0,,0.0,2109.285,0.0,0.465104323,0.0,0.530793115,1.0,0.75,1.0,0.31683071,False,,5c4602713d08e80001369876,,1537387,110,,evan-feature22,full_pf_b,,1
80,27214,111,,,,1,1,1.0,1.0,0.0,1.0,,0.0-108.0,,1.0,1031.5,1.0,0.465104323,1.0,0.530793115,0.0,0.75,0.0,0.31683071,False,,5c4602713d08e80001369876,,1548180,111,,evan-feature22,full_pf_b,,0
81,27215,112,,,,1,1,0.0,0.0,0.0,1.0,,0.0-109.0,,0.0,1026.135,0.0,0.46833986,0.0,0.570249239,1.0,0.7244472590000001,0.0,0.364114163,False,,5c4602713d08e80001369876,,1558969,112,,evan-feature22,full_pf_b,,0
82,27216,113,,,,2,2,1.0,0.0,0.0,1.0,,0.0-110.0,,0.0,1095.63,1.0,0.445444024,0.0,0.649673355,1.0,0.6845441290000001,0.0,0.300660449,False,,5c4602713d08e80001369876,,1569824,113,,evan-feature22,full_pf_b,,1
83,27217,114,,,,1,1,1.0,1.0,0.0,1.0,,0.0-111.0,,1.0,583.465,1.0,0.39909721299999995,1.0,0.6715179509999999,1.0,0.742310028,0.0,0.35496088299999995,False,,5c4602713d08e80001369876,,1580170,114,,evan-feature22,full_pf_b,,1
84,27218,115,,,,1,1,1.0,0.0,0.0,1.0,,0.0-112.0,,0.0,572.68,1.0,0.37956104799999996,0.0,0.694725302,1.0,0.7181651309999999,1.0,0.38726906299999997,False,,5c4602713d08e80001369876,,1590508,115,,evan-feature22,full_pf_b,,0
85,27219,116,,,,2,2,1.0,0.0,0.0,1.0,,0.0-113.0,,0.0,780.59,0.0,0.404995034,0.0,0.724375412,1.0,0.6910946859999999,0.0,0.387187347,False,,5c4602713d08e80001369876,,1601048,116,,evan-feature22,full_pf_b,,1
86,27220,117,,,,1,1,1.0,1.0,0.0,1.0,,0.0-114.0,,1.0,919.515,1.0,0.461740803,1.0,0.75,1.0,0.75,0.0,0.34872038200000005,False,,5c4602713d08e80001369876,,1611729,117,,evan-feature22,full_pf_b,,1
87,27221,118,,,,2,2,1.0,1.0,-1.0,0.0,,0.0-115.0,,-1.0,1060.99,1.0,0.43821380600000004,1.0,0.738833273,1.0,0.728286963,1.0,0.399538128,False,,5c4602713d08e80001369876,,1622553,118,,evan-feature22,full_pf_b,,1
88,27222,119,,,,1,1,0.0,1.0,0.0,1.0,,0.0-116.0,,1.0,1172.615,0.0,0.41709882,1.0,0.736666736,0.0,0.75,0.0,0.389095584,False,,5c4602713d08e80001369876,,1633486,119,,evan-feature22,full_pf_b,,1
89,27223,120,,,,1,1,0.0,0.0,0.0,1.0,,0.0-117.0,,0.0,1446.335,0.0,0.39749009799999996,0.0,0.744320029,1.0,0.75,1.0,0.363848678,False,,5c4602713d08e80001369876,,1644697,120,,evan-feature22,full_pf_b,,0
90,27224,121,,,,2,2,0.0,0.0,-1.0,0.0,,0.0-118.0,,0.0,1276.815,0.0,0.392653706,0.0,0.75,0.0,0.75,0.0,0.384386976,False,,5c4602713d08e80001369876,,1655735,121,,evan-feature22,full_pf_b,,1
91,27225,122,,,,1,1,1.0,0.0,-1.0,0.0,,0.0-119.0,,-1.0,1121.425,1.0,0.31190902600000003,0.0,0.75,1.0,0.732413819,0.0,0.413082932,False,,5c4602713d08e80001369876,,1666622,122,,evan-feature22,full_pf_b,,1
92,27226,123,,,,1,1,0.0,0.0,0.0,1.0,,0.0-120.0,,0.0,1438.63,0.0,0.366917648,0.0,0.740073855,1.0,0.75,0.0,0.352861979,False,,5c4602713d08e80001369876,,1677821,123,,evan-feature22,full_pf_b,,0
93,27227,124,,,,1,1,0.0,1.0,0.0,1.0,,0.0-121.0,,1.0,831.485,0.0,0.3645172,1.0,0.721770713,1.0,0.75,1.0,0.404074511,False,,5c4602713d08e80001369876,,1688412,124,,evan-feature22,full_pf_b,,0
94,27228,125,,,,1,1,0.0,1.0,0.0,1.0,,0.0-122.0,,1.0,1127.245,0.0,0.35205600299999995,1.0,0.68983859,0.0,0.739735447,1.0,0.366895945,False,,5c4602713d08e80001369876,,1699300,125,,evan-feature22,full_pf_b,,0
95,27229,126,,,,1,1,0.0,1.0,0.0,1.0,,0.0-123.0,,1.0,847.585,0.0,0.40998722600000004,1.0,0.720859127,1.0,0.673854955,1.0,0.368528541,False,,5c4602713d08e80001369876,,1709909,126,,evan-feature22,full_pf_b,,0
96,27230,127,,,,1,1,1.0,0.0,-1.0,0.0,,0.0-124.0,,-1.0,1294.71,1.0,0.353625316,0.0,0.75,1.0,0.695605473,0.0,0.38303674200000004,False,,5c4602713d08e80001369876,,1720964,127,,evan-feature22,full_pf_b,,0
97,27231,128,,,,1,1,0.0,0.0,0.0,1.0,,0.0-125.0,,0.0,1287.565,0.0,0.359216989,0.0,0.75,1.0,0.6987915090000001,1.0,0.35169046200000004,False,,5c4602713d08e80001369876,,1732011,128,,evan-feature22,full_pf_b,,0
98,27232,129,,,,1,1,1.0,0.0,-1.0,0.0,,0.0-126.0,,-1.0,838.68,1.0,0.35834496899999996,0.0,0.75,1.0,0.707067742,1.0,0.416763636,False,,5c4602713d08e80001369876,,1742611,129,,evan-feature22,full_pf_b,,0
99,27233,130,,,,2,2,1.0,1.0,-1.0,0.0,,0.0-127.0,,-1.0,543.54,0.0,0.38741613799999997,1.0,0.7177369570000001,1.0,0.734902455,1.0,0.49438664299999996,False,,5c4602713d08e80001369876,,1752916,130,,evan-feature22,full_pf_b,,1
100,27234,131,,,,1,1,0.0,0.0,0.0,1.0,,0.0-128.0,,0.0,844.66,0.0,0.405255252,0.0,0.7300466640000001,0.0,0.7027748070000001,0.0,0.504359668,False,,5c4602713d08e80001369876,,1763523,131,,evan-feature22,full_pf_b,,1
101,27235,132,,,,1,1,0.0,1.0,0.0,1.0,,0.0-129.0,,1.0,1084.505,0.0,0.40697073,1.0,0.7260142190000001,0.0,0.724461982,1.0,0.522779179,False,,5c4602713d08e80001369876,,1774370,132,,evan-feature22,full_pf_b,,0
102,27236,133,,,,2,2,0.0,0.0,0.0,1.0,,0.0-130.0,,0.0,1246.765,0.0,0.43906215299999996,0.0,0.7252802340000001,0.0,0.719079934,0.0,0.5712990579999999,False,,5c4602713d08e80001369876,,1785377,133,,evan-feature22,full_pf_b,,1
103,27237,134,,,,2,2,1.0,1.0,0.0,1.0,,0.0-131.0,,1.0,839.53,0.0,0.4076705,0.0,0.73280499,1.0,0.681313127,1.0,0.523891346,False,,5c4602713d08e80001369876,,1795979,134,,evan-feature22,full_pf_b,,0
104,27238,135,,,,2,2,1.0,1.0,0.0,1.0,,0.0-132.0,,1.0,845.685,0.0,0.399102911,1.0,0.730498344,1.0,0.661080239,1.0,0.46742603,False,,5c4602713d08e80001369876,,1806587,135,,evan-feature22,full_pf_b,,0
105,27239,136,,,,1,1,1.0,1.0,-1.0,0.0,,0.0-133.0,,-1.0,1363.05,1.0,0.356477282,1.0,0.712296395,1.0,0.641812684,0.0,0.44868414,False,,5c4602713d08e80001369876,,1817712,136,,evan-feature22,full_pf_b,,1
106,27240,137,,,,1,1,0.0,0.0,0.0,1.0,,0.0-134.0,,0.0,982.535,0.0,0.462760722,0.0,0.692349322,1.0,0.700947931,0.0,0.394680266,False,,5c4602713d08e80001369876,,1828456,137,,evan-feature22,full_pf_b,,0
107,27241,138,,,,1,1,1.0,1.0,0.0,1.0,,0.0-135.0,,1.0,1111.535,1.0,0.422306413,1.0,0.718375916,1.0,0.706340917,0.0,0.367787185,False,,5c4602713d08e80001369876,,1839331,138,,evan-feature22,full_pf_b,,0
108,27243,140,,,,1,1,0.0,1.0,0.0,1.0,,0.0-137.0,,1.0,1116.11,0.0,0.4582233,1.0,0.643834117,1.0,0.75,0.0,0.39615823299999997,False,,5c4602713d08e80001369876,,1880725,140,,evan-feature22,full_pf_b,,0
109,27244,141,,,,1,1,1.0,1.0,0.0,1.0,,0.0-138.0,,1.0,1214.455,1.0,0.43813437899999996,1.0,0.651283804,1.0,0.729674191,0.0,0.37711048,False,,5c4602713d08e80001369876,,1891706,141,,evan-feature22,full_pf_b,,0
110,27245,142,,,,2,2,1.0,1.0,0.0,1.0,,0.0-139.0,,1.0,1314.47,1.0,0.471199094,1.0,0.6470010979999999,1.0,0.715008097,1.0,0.410656191,False,,5c4602713d08e80001369876,,1902784,142,,evan-feature22,full_pf_b,,1
111,27246,143,,,,1,1,1.0,1.0,-1.0,0.0,,0.0-140.0,,-1.0,1449.17,1.0,0.42486406,1.0,0.629771829,1.0,0.6550939960000001,0.0,0.459093873,False,,5c4602713d08e80001369876,,1913998,143,,evan-feature22,full_pf_b,,1
112,27247,144,,,,2,2,1.0,0.0,-1.0,0.0,,0.0-141.0,,-1.0,854.89,0.0,0.4803197,0.0,0.645842715,1.0,0.6421749920000001,0.0,0.443092151,False,,5c4602713d08e80001369876,,1924612,144,,evan-feature22,full_pf_b,,1
113,27248,145,,,,1,1,1.0,1.0,-1.0,0.0,,0.0-142.0,,-1.0,1102.705,1.0,0.521848997,1.0,0.735801074,0.0,0.6691348460000001,0.0,0.45259351600000003,False,,5c4602713d08e80001369876,,1935477,145,,evan-feature22,full_pf_b,,1
114,27249,146,,,,1,1,0.0,1.0,0.0,1.0,,0.0-143.0,,1.0,989.52,0.0,0.49565621299999996,1.0,0.742400847,1.0,0.661512553,1.0,0.483110831,False,,5c4602713d08e80001369876,,1946229,146,,evan-feature22,full_pf_b,,0
115,27250,147,,,,2,2,1.0,0.0,-1.0,0.0,,0.0-144.0,,-1.0,1150.715,0.0,0.521564361,1.0,0.731078632,1.0,0.6774886809999999,0.0,0.483263956,False,,5c4602713d08e80001369876,,1957141,147,,evan-feature22,full_pf_b,,1
116,27251,148,,,,2,2,1.0,1.0,-1.0,0.0,,0.0-145.0,,-1.0,558.565,0.0,0.558893102,1.0,0.719810023,1.0,0.67461031,1.0,0.499349834,False,,5c4602713d08e80001369876,,1967461,148,,evan-feature22,full_pf_b,,0
117,27252,149,,,,1,1,0.0,1.0,0.0,1.0,,0.0-146.0,,1.0,749.61,0.0,0.611031046,1.0,0.75,1.0,0.688072995,0.0,0.5321422729999999,False,,5c4602713d08e80001369876,,1977970,149,,evan-feature22,full_pf_b,,1
118,27253,150,,,,1,1,1.0,1.0,-1.0,0.0,,0.0-147.0,,-1.0,1727.58,1.0,0.633223941,1.0,0.713567728,1.0,0.75,1.0,0.48185314700000004,False,,5c4602713d08e80001369876,,1989460,150,,evan-feature22,full_pf_b,,0
119,27254,151,,,,2,2,1.0,1.0,-1.0,0.0,,0.0-148.0,,-1.0,653.55,0.0,0.664001694,0.0,0.705509768,1.0,0.75,1.0,0.500211065,False,,5c4602713d08e80001369876,,1999874,151,,evan-feature22,full_pf_b,,1
120,27255,152,,,,1,1,0.0,1.0,0.0,1.0,,0.0-149.0,,1.0,877.7,0.0,0.664001694,1.0,0.705509768,1.0,0.75,1.0,0.500211065,False,,5c4602713d08e80001369876,,2010514,152,,evan-feature22,full_pf_b,,1
121,27256,153,,,,2,2,1.0,0.0,0.0,1.0,,0.0-150.0,,0.0,1116.605,1.0,0.696508041,1.0,0.71066027,1.0,0.717028709,0.0,0.49792991,False,,5c4602713d08e80001369876,,2021394,153,,evan-feature22,full_pf_b,,1
122,27257,154,,,,2,2,0.0,1.0,-1.0,0.0,,0.0-151.0,,0.0,1757.67,1.0,0.699883272,1.0,0.75,0.0,0.713543895,1.0,0.496962643,False,,5c4602713d08e80001369876,,2032913,154,,evan-feature22,full_pf_b,,0
123,27258,155,,,,1,1,1.0,1.0,0.0,1.0,,0.0-152.0,,1.0,1623.585,1.0,0.741163419,1.0,0.75,0.0,0.64691024,0.0,0.513858197,False,,5c4602713d08e80001369876,,2044299,155,,evan-feature22,full_pf_b,,1
124,27259,156,,,,1,1,1.0,1.0,-1.0,0.0,,0.0-153.0,,-1.0,1229.16,1.0,0.75,1.0,0.70816558,0.0,0.594499079,0.0,0.48502124,False,,5c4602713d08e80001369876,,2055288,156,,evan-feature22,full_pf_b,,0
125,27260,157,,,,1,1,1.0,0.0,0.0,1.0,,0.0-154.0,,0.0,869.725,1.0,0.75,0.0,0.721848901,1.0,0.62197249,0.0,0.48263586399999997,False,,5c4602713d08e80001369876,,2065921,157,,evan-feature22,full_pf_b,,0
126,27261,158,,,,1,1,1.0,0.0,-1.0,0.0,,0.0-155.0,,-1.0,1278.59,1.0,0.75,0.0,0.74813071,0.0,0.584357161,0.0,0.411477782,False,,5c4602713d08e80001369876,,2076960,158,,evan-feature22,full_pf_b,,0
127,27262,159,,,,1,1,1.0,1.0,0.0,1.0,,0.0-156.0,,1.0,1727.565,1.0,0.75,1.0,0.75,0.0,0.52287236,0.0,0.488290656,False,,5c4602713d08e80001369876,,2088451,159,,evan-feature22,full_pf_b,,0
128,27263,160,,,,1,1,1.0,1.0,0.0,1.0,,0.0-157.0,,1.0,1394.715,1.0,0.75,1.0,0.75,1.0,0.544321581,0.0,0.53143059,False,,5c4602713d08e80001369876,,2099608,160,,evan-feature22,full_pf_b,,0
129,27264,161,,,,2,2,1.0,1.0,0.0,1.0,,0.0-158.0,,1.0,1108.415,0.0,0.726754564,1.0,0.75,1.0,0.5129306370000001,1.0,0.530592445,False,,5c4602713d08e80001369876,,2110480,161,,evan-feature22,full_pf_b,,1
130,27265,162,,,,2,2,1.0,1.0,-1.0,0.0,,0.0-159.0,,-1.0,564.66,1.0,0.75,0.0,0.7392590729999999,1.0,0.479875835,1.0,0.547007051,False,,5c4602713d08e80001369876,,2120807,162,,evan-feature22,full_pf_b,,0
131,27266,163,,,,2,2,0.0,1.0,-1.0,0.0,,0.0-160.0,,0.0,714.415,1.0,0.75,1.0,0.7393376979999999,0.0,0.546045419,1.0,0.541267353,False,,5c4602713d08e80001369876,,2131285,163,,evan-feature22,full_pf_b,,0
132,27267,164,,,,1,1,1.0,1.0,-1.0,0.0,,0.0-161.0,,-1.0,1150.635,1.0,0.75,1.0,0.75,0.0,0.485725895,0.0,0.527625395,False,,5c4602713d08e80001369876,,2142201,164,,evan-feature22,full_pf_b,,1
133,27268,165,,,,1,1,1.0,1.0,0.0,1.0,,0.0-162.0,,1.0,954.56,1.0,0.75,1.0,0.725087974,0.0,0.488603595,1.0,0.504019206,False,,5c4602713d08e80001369876,,2152919,165,,evan-feature22,full_pf_b,,0
134,27269,166,,,,1,1,1.0,0.0,0.0,1.0,,0.0-163.0,,0.0,500.605,1.0,0.745504295,0.0,0.75,1.0,0.452379914,1.0,0.50131194,False,,5c4602713d08e80001369876,,2163179,166,,evan-feature22,full_pf_b,,0
135,27270,167,,,,2,2,1.0,1.0,0.0,1.0,,0.0-164.0,,1.0,871.525,1.0,0.728513874,0.0,0.75,1.0,0.44125567200000004,1.0,0.531454591,False,,5c4602713d08e80001369876,,2173812,167,,evan-feature22,full_pf_b,,1
136,27271,168,,,,2,2,0.0,1.0,-1.0,0.0,,0.0-165.0,,0.0,725.44,1.0,0.73790804,1.0,0.75,0.0,0.413036656,1.0,0.524619035,False,,5c4602713d08e80001369876,,2184300,168,,evan-feature22,full_pf_b,,0
137,27272,169,,,,1,1,1.0,1.0,0.0,1.0,,0.0-166.0,,1.0,1157.52,1.0,0.7080961309999999,1.0,0.708666865,1.0,0.431915581,0.0,0.481819489,False,,5c4602713d08e80001369876,,2195219,169,,evan-feature22,full_pf_b,,1
138,27273,170,,,,2,2,0.0,1.0,0.0,1.0,,0.0-167.0,,1.0,566.805,0.0,0.721378003,1.0,0.71605913,0.0,0.36642387,1.0,0.5036739929999999,False,,5c4602713d08e80001369876,,2205547,170,,evan-feature22,full_pf_b,,1
139,27274,171,,,,1,1,1.0,1.0,0.0,1.0,,0.0-168.0,,1.0,974.545,1.0,0.7340618959999999,1.0,0.699323252,0.0,0.35298046299999997,1.0,0.511241692,False,,5c4602713d08e80001369876,,2216284,171,,evan-feature22,full_pf_b,,1
140,27275,172,,,,2,2,0.0,0.0,-1.0,0.0,,0.0-169.0,,0.0,1411.7,1.0,0.75,1.0,0.70412698,0.0,0.380734814,0.0,0.529580116,False,,5c4602713d08e80001369876,,2227457,172,,evan-feature22,full_pf_b,,1
141,27276,173,,,,1,1,1.0,1.0,0.0,1.0,,0.0-170.0,,1.0,928.525,1.0,0.7436654909999999,1.0,0.711182751,0.0,0.41125331,1.0,0.49554405,False,,5c4602713d08e80001369876,,2238151,173,,evan-feature22,full_pf_b,,1
142,27277,174,,,,2,2,1.0,1.0,0.0,1.0,,0.0-171.0,,1.0,919.68,1.0,0.731607915,0.0,0.651774583,1.0,0.35688023,1.0,0.45194491600000003,False,,5c4602713d08e80001369876,,2248834,174,,evan-feature22,full_pf_b,,1
143,27278,175,,,,2,2,0.0,1.0,-1.0,0.0,,0.0-172.0,,0.0,1653.51,1.0,0.75,1.0,0.75,0.0,0.283145374,1.0,0.528608005,False,,5c4602713d08e80001369876,,2260247,175,,evan-feature22,full_pf_b,,0
144,27279,176,,,,1,1,1.0,1.0,-1.0,0.0,,0.0-173.0,,-1.0,511.615,1.0,0.7491416890000001,1.0,0.7423785959999999,1.0,0.29135870399999997,1.0,0.498888318,False,,5c4602713d08e80001369876,,2270520,176,,evan-feature22,full_pf_b,,1
145,27280,177,,,,1,1,1.0,1.0,-1.0,0.0,,0.0-174.0,,-1.0,452.77,1.0,0.708569387,1.0,0.717682277,0.0,0.294421699,0.0,0.493838163,False,,5c4602713d08e80001369876,,2280736,177,,evan-feature22,full_pf_b,,0
146,27281,178,,,,1,1,0.0,1.0,0.0,1.0,,0.0-175.0,,1.0,1188.685,0.0,0.75,1.0,0.7383382159999999,0.0,0.356098707,0.0,0.442533405,False,,5c4602713d08e80001369876,,2291685,178,,evan-feature22,full_pf_b,,0
147,27282,179,,,,2,2,0.0,1.0,0.0,1.0,,0.0-176.0,,1.0,671.785,0.0,0.744527075,0.0,0.75,0.0,0.334127506,1.0,0.393165805,False,,5c4602713d08e80001369876,,2302120,179,,evan-feature22,full_pf_b,,1
148,27283,180,,,,1,1,1.0,1.0,0.0,1.0,,0.0-177.0,,1.0,1076.705,1.0,0.75,1.0,0.75,1.0,0.33571021799999995,0.0,0.350393962,False,,5c4602713d08e80001369876,,2312960,180,,evan-feature22,full_pf_b,,1
149,27284,181,,,,2,2,0.0,0.0,0.0,1.0,,0.0-178.0,,0.0,1363.695,1.0,0.75,0.0,0.75,0.0,0.313628297,0.0,0.36349657399999996,False,,5c4602713d08e80001369876,,2324084,181,,evan-feature22,full_pf_b,,1
150,27285,182,,,,1,1,1.0,1.0,-1.0,0.0,,0.0-179.0,,-1.0,1262.685,1.0,0.75,1.0,0.734284182,0.0,0.262667667,0.0,0.380199119,False,,5c4602713d08e80001369876,,2335111,182,,evan-feature22,full_pf_b,,1
151,27286,183,,,,1,1,1.0,1.0,0.0,1.0,,0.0-180.0,,1.0,1192.535,1.0,0.75,1.0,0.75,0.0,0.25,0.0,0.394494013,False,,5c4602713d08e80001369876,,2346069,183,,evan-feature22,full_pf_b,,0
152,27287,184,,,,2,2,0.0,1.0,-1.0,0.0,,0.0-181.0,,0.0,1069.61,1.0,0.722298145,0.0,0.7357822340000001,0.0,0.25,1.0,0.319142121,False,,5c4602713d08e80001369876,,2356898,184,,evan-feature22,full_pf_b,,1
153,27288,185,,,,1,1,1.0,1.0,-1.0,0.0,,0.0-182.0,,-1.0,991.625,1.0,0.73149275,1.0,0.724276446,1.0,0.305856907,0.0,0.281315057,False,,5c4602713d08e80001369876,,2367655,185,,evan-feature22,full_pf_b,,1
154,27289,186,,,,1,1,1.0,1.0,0.0,1.0,,0.0-183.0,,1.0,1156.525,1.0,0.7458732690000001,1.0,0.7336382459999999,1.0,0.272571964,0.0,0.266021999,False,,5c4602713d08e80001369876,,2378573,186,,evan-feature22,full_pf_b,,0
155,27290,187,,,,1,1,0.0,1.0,0.0,1.0,,0.0-184.0,,1.0,789.625,0.0,0.705579037,1.0,0.720778292,0.0,0.320238144,1.0,0.30971744,False,,5c4602713d08e80001369876,,2389123,187,,evan-feature22,full_pf_b,,0
156,27291,188,,,,1,1,0.0,1.0,0.0,1.0,,0.0-185.0,,1.0,1077.52,0.0,0.700425648,1.0,0.7198784009999999,1.0,0.272590393,1.0,0.304182931,False,,5c4602713d08e80001369876,,2399962,188,,evan-feature22,full_pf_b,,0
157,27292,189,,,,2,2,0.0,0.0,0.0,1.0,,0.0-186.0,,0.0,902.7,1.0,0.735590785,1.0,0.722714973,0.0,0.25,0.0,0.323421091,False,,5c4602713d08e80001369876,,2410625,189,,evan-feature22,full_pf_b,,1
158,27293,190,,,,2,2,1.0,0.0,0.0,1.0,,0.0-187.0,,0.0,751.525,1.0,0.724807662,0.0,0.63146213,1.0,0.36836492600000004,0.0,0.34592153299999995,False,,5c4602713d08e80001369876,,2421139,190,,evan-feature22,full_pf_b,,0
159,27294,191,,,,1,1,1.0,1.0,0.0,1.0,,0.0-188.0,,1.0,1076.365,1.0,0.7352796909999999,1.0,0.555111392,1.0,0.36003922,0.0,0.31433779999999995,False,,5c4602713d08e80001369876,,2431979,191,,evan-feature22,full_pf_b,,1
160,27295,192,notice,,,,,,,,,,0.0-189.0,"{""Q0"":""not particularly ""}",,10261.0,,,,,,,,,False,,5c4602713d08e80001369876,,2442242,192,Q,survey-text,full_pf_b,,1
161,27296,193,track1,,[1],,,,,,,,0.0-190.0,"{""Q0"":""no""}",,4358.0,,,,,,,,,False,,5c4602713d08e80001369876,,2446610,193,Q,evan-quiz,full_pf_b,,1
162,27297,194,track2,,[0],,,,,,,,0.0-191.0,"{""Q0"":""yes""}",,6246.0,,,,,,,,,False,,5c4602713d08e80001369876,,2452875,194,Q,evan-quiz,full_pf_b,,1
163,27298,195,strat,,,,,,,,,,0.0-192.0,"{""Q0"":""black alien seemed to be more so on the G ""}",,23648.0,,,,,,,,,False,,5c4602713d08e80001369876,,2476542,195,Q,survey-text,full_pf_b,,1
