,index,Unnamed: 0,Q_name,button_pressed,choice_idxs,chosen_pos,chosen_state,chosen_state_f_1_outcome,chosen_state_f_2_outcome,f_1_reward,f_2_reward,incor_questions,internal_node_id,responses,reward_received,rt,s_1_f_1_outcome,s_1_f_1_prob,s_1_f_2_outcome,s_1_f_2_prob,s_2_f_1_outcome,s_2_f_1_prob,s_2_f_2_outcome,s_2_f_2_prob,safe_first,stimulus,subjectID,success,time_elapsed,trial_index,trial_num,trial_type,version,view_history,switching
0,19200,25,,,,1,1,1.0,0.0,1.0,0.0,,0.0-27.0,,1.0,3528.11,1.0,0.6,0.0,0.6,0.0,0.4,0.0,0.4,True,,5f1de226b5c0873193a834ed,,797667,25,,evan-feature22,full_rf_a,,0
1,19201,26,,,,1,1,0.0,1.0,1.0,0.0,,0.0-28.0,,0.0,1477.155,0.0,0.608053294,1.0,0.63424552,0.0,0.397152172,0.0,0.347069101,True,,5f1de226b5c0873193a834ed,,808916,26,,evan-feature22,full_rf_a,,0
2,19202,27,,,,1,1,1.0,1.0,1.0,0.0,,0.0-29.0,,1.0,1271.74,1.0,0.642237155,1.0,0.648566321,1.0,0.389407674,0.0,0.285525717,True,,5f1de226b5c0873193a834ed,,819961,27,,evan-feature22,full_rf_a,,0
3,19203,28,,,,2,2,0.0,0.0,1.0,0.0,,0.0-30.0,,0.0,1674.785,1.0,0.661086576,0.0,0.630492543,0.0,0.399058924,0.0,0.25,True,,5f1de226b5c0873193a834ed,,831402,28,,evan-feature22,full_rf_a,,1
4,19204,29,,,,1,1,1.0,0.0,0.0,-1.0,,0.0-31.0,,0.0,1846.93,1.0,0.631324137,0.0,0.6269842929999999,1.0,0.38734784299999997,0.0,0.25,True,,5f1de226b5c0873193a834ed,,843020,29,,evan-feature22,full_rf_a,,1
5,19205,30,,,,2,2,0.0,0.0,0.0,-1.0,,0.0-32.0,,0.0,2983.59,1.0,0.6381991370000001,0.0,0.68987999,0.0,0.384107265,0.0,0.271332943,True,,5f1de226b5c0873193a834ed,,855769,30,,evan-feature22,full_rf_a,,1
6,19206,31,,,,1,1,0.0,1.0,1.0,0.0,,0.0-33.0,,0.0,2651.185,0.0,0.66034901,1.0,0.742641349,1.0,0.360225629,1.0,0.25,True,,5f1de226b5c0873193a834ed,,868192,31,,evan-feature22,full_rf_a,,1
7,19207,32,,,,2,2,0.0,0.0,1.0,0.0,,0.0-34.0,,0.0,2801.71,1.0,0.638612418,1.0,0.75,0.0,0.367273939,0.0,0.25,True,,5f1de226b5c0873193a834ed,,880760,32,,evan-feature22,full_rf_a,,1
8,19208,33,,,,1,1,1.0,1.0,0.0,-1.0,,0.0-35.0,,-1.0,1461.215,1.0,0.624340629,1.0,0.75,1.0,0.425829545,0.0,0.25,True,,5f1de226b5c0873193a834ed,,891994,33,,evan-feature22,full_rf_a,,1
9,19209,34,,,,1,1,0.0,0.0,0.0,-1.0,,0.0-36.0,,0.0,1389.31,0.0,0.621999804,0.0,0.75,0.0,0.368609357,0.0,0.25,True,,5f1de226b5c0873193a834ed,,903148,34,,evan-feature22,full_rf_a,,0
10,19210,35,,,,2,2,0.0,0.0,1.0,0.0,,0.0-37.0,,0.0,2139.705,1.0,0.62666403,0.0,0.75,0.0,0.311151498,0.0,0.25,True,,5f1de226b5c0873193a834ed,,915065,35,,evan-feature22,full_rf_a,,1
11,19211,36,,,,1,1,1.0,1.0,0.0,-1.0,,0.0-38.0,,-1.0,1859.58,1.0,0.6819650009999999,1.0,0.75,0.0,0.310763048,0.0,0.25,True,,5f1de226b5c0873193a834ed,,926700,36,,evan-feature22,full_rf_a,,1
12,19212,37,,,,2,2,0.0,0.0,1.0,0.0,,0.0-39.0,,0.0,1341.295,1.0,0.740626951,1.0,0.75,0.0,0.25,0.0,0.25,True,,5f1de226b5c0873193a834ed,,937810,37,,evan-feature22,full_rf_a,,1
13,19213,38,,,,2,2,0.0,1.0,1.0,0.0,,0.0-40.0,,0.0,2269.19,0.0,0.739599242,1.0,0.742034978,0.0,0.25397114600000004,1.0,0.25,True,,5f1de226b5c0873193a834ed,,949852,38,,evan-feature22,full_rf_a,,0
14,19214,39,,,,1,1,0.0,0.0,1.0,0.0,,0.0-41.0,,0.0,1400.98,0.0,0.732341315,0.0,0.72735643,0.0,0.25,0.0,0.25,True,,5f1de226b5c0873193a834ed,,961020,39,,evan-feature22,full_rf_a,,1
15,19215,40,,,,1,1,1.0,0.0,1.0,0.0,,0.0-42.0,,1.0,2067.94,1.0,0.7062287770000001,0.0,0.75,1.0,0.29002151,1.0,0.288256649,True,,5f1de226b5c0873193a834ed,,972861,40,,evan-feature22,full_rf_a,,0
16,19216,41,,,,1,1,0.0,1.0,1.0,0.0,,0.0-43.0,,0.0,2353.875,0.0,0.7086029209999999,1.0,0.75,0.0,0.274129113,0.0,0.262851608,True,,5f1de226b5c0873193a834ed,,984989,41,,evan-feature22,full_rf_a,,0
17,19217,42,,,,2,2,0.0,0.0,1.0,0.0,,0.0-44.0,,0.0,1122.66,0.0,0.669189651,0.0,0.727614338,0.0,0.298444036,0.0,0.296944518,True,,5f1de226b5c0873193a834ed,,995875,42,,evan-feature22,full_rf_a,,1
18,19218,43,,,,1,1,1.0,1.0,1.0,0.0,,0.0-45.0,,1.0,2456.685,1.0,0.6819912929999999,1.0,0.7179434290000001,1.0,0.265003961,0.0,0.28157921199999997,True,,5f1de226b5c0873193a834ed,,1008104,43,,evan-feature22,full_rf_a,,1
19,19219,44,,,,2,2,0.0,1.0,0.0,-1.0,,0.0-46.0,,-1.0,3174.765,0.0,0.665275002,1.0,0.723065271,0.0,0.260414971,1.0,0.30973870000000003,True,,5f1de226b5c0873193a834ed,,1021053,44,,evan-feature22,full_rf_a,,1
20,19220,45,,,,1,1,0.0,0.0,1.0,0.0,,0.0-47.0,,0.0,1069.335,0.0,0.6660593260000001,0.0,0.728032907,0.0,0.30922817,0.0,0.338778608,True,,5f1de226b5c0873193a834ed,,1031890,45,,evan-feature22,full_rf_a,,1
21,19221,46,,,,1,1,1.0,1.0,1.0,0.0,,0.0-48.0,,1.0,2816.645,1.0,0.702068785,1.0,0.6528750879999999,0.0,0.287329608,1.0,0.35789613200000003,True,,5f1de226b5c0873193a834ed,,1044481,46,,evan-feature22,full_rf_a,,0
22,19222,47,,,,2,2,0.0,0.0,1.0,0.0,,0.0-49.0,,0.0,1764.63,1.0,0.651939787,0.0,0.636725589,0.0,0.284834488,0.0,0.358563756,True,,5f1de226b5c0873193a834ed,,1056012,47,,evan-feature22,full_rf_a,,1
23,19223,48,,,,1,1,1.0,1.0,0.0,-1.0,,0.0-50.0,,-1.0,2884.37,1.0,0.67573929,1.0,0.612550049,0.0,0.37130387600000003,0.0,0.383542402,True,,5f1de226b5c0873193a834ed,,1068669,48,,evan-feature22,full_rf_a,,1
24,19224,49,,,,2,2,1.0,0.0,0.0,-1.0,,0.0-51.0,,0.0,1540.33,0.0,0.620753801,1.0,0.60513644,1.0,0.385529434,0.0,0.340361743,True,,5f1de226b5c0873193a834ed,,1079980,49,,evan-feature22,full_rf_a,,1
25,19225,50,,,,1,1,0.0,1.0,0.0,-1.0,,0.0-52.0,,-1.0,1386.465,0.0,0.673564893,1.0,0.672437924,1.0,0.292955382,0.0,0.337633795,True,,5f1de226b5c0873193a834ed,,1091137,50,,evan-feature22,full_rf_a,,1
26,19226,51,,,,2,2,0.0,0.0,1.0,0.0,,0.0-53.0,,0.0,1178.065,1.0,0.6749427,1.0,0.724197502,0.0,0.32391132100000003,0.0,0.350995264,True,,5f1de226b5c0873193a834ed,,1102080,51,,evan-feature22,full_rf_a,,1
27,19227,52,,,,1,1,1.0,0.0,1.0,0.0,,0.0-54.0,,1.0,2095.205,1.0,0.6940159379999999,0.0,0.75,0.0,0.31710554399999996,1.0,0.413450341,True,,5f1de226b5c0873193a834ed,,1113949,52,,evan-feature22,full_rf_a,,1
28,19228,53,,,,SLOW,SLOW,,,1.0,0.0,,0.0-55.0,,-3.0,,1.0,0.6916018270000001,0.0,0.69001187,0.0,0.261817804,0.0,0.40038635,True,,5f1de226b5c0873193a834ed,,1119759,53,,evan-feature22,full_rf_a,,1
29,19229,54,,,,2,2,0.0,1.0,1.0,0.0,,0.0-56.0,,0.0,3620.305,1.0,0.641061544,1.0,0.71337992,0.0,0.277296461,1.0,0.47372791700000005,True,,5f1de226b5c0873193a834ed,,1133153,54,,evan-feature22,full_rf_a,,1
30,19230,55,,,,1,1,1.0,0.0,1.0,0.0,,0.0-57.0,,1.0,1679.8,1.0,0.6082438520000001,0.0,0.708471106,1.0,0.28745137,1.0,0.564174476,True,,5f1de226b5c0873193a834ed,,1144606,55,,evan-feature22,full_rf_a,,1
31,19231,56,,,,1,1,1.0,0.0,1.0,0.0,,0.0-58.0,,1.0,896.73,1.0,0.6051112120000001,0.0,0.7118147229999999,0.0,0.272390611,1.0,0.5595149939999999,True,,5f1de226b5c0873193a834ed,,1155276,56,,evan-feature22,full_rf_a,,0
32,19232,57,,,,2,2,0.0,0.0,1.0,0.0,,0.0-59.0,,0.0,1371.49,1.0,0.582420852,1.0,0.635867583,0.0,0.31089574,0.0,0.5227206520000001,True,,5f1de226b5c0873193a834ed,,1166414,57,,evan-feature22,full_rf_a,,1
33,19233,58,,,,1,1,0.0,1.0,0.0,-1.0,,0.0-60.0,,-1.0,839.005,0.0,0.623195575,1.0,0.655026044,1.0,0.25,1.0,0.560387538,True,,5f1de226b5c0873193a834ed,,1177026,58,,evan-feature22,full_rf_a,,1
34,19234,59,,,,2,2,1.0,0.0,1.0,0.0,,0.0-61.0,,1.0,442.36,1.0,0.601889598,1.0,0.678198724,1.0,0.25,0.0,0.559922936,True,,5f1de226b5c0873193a834ed,,1187233,59,,evan-feature22,full_rf_a,,1
35,19235,60,,,,2,2,1.0,0.0,1.0,0.0,,0.0-62.0,,1.0,1134.56,1.0,0.601259914,0.0,0.704681482,1.0,0.33908969299999997,0.0,0.505003715,True,,5f1de226b5c0873193a834ed,,1198139,60,,evan-feature22,full_rf_a,,0
36,19236,61,,,,1,1,1.0,1.0,1.0,0.0,,0.0-63.0,,1.0,1278.695,1.0,0.59645454,1.0,0.710437172,0.0,0.327441879,0.0,0.391749613,True,,5f1de226b5c0873193a834ed,,1209184,61,,evan-feature22,full_rf_a,,1
37,19237,62,,,,2,2,0.0,0.0,1.0,0.0,,0.0-64.0,,0.0,906.27,1.0,0.529473,1.0,0.636758527,0.0,0.301338063,0.0,0.365661481,True,,5f1de226b5c0873193a834ed,,1219856,62,,evan-feature22,full_rf_a,,1
38,19238,63,,,,1,1,1.0,0.0,0.0,-1.0,,0.0-65.0,,0.0,742.835,1.0,0.541657162,0.0,0.634541962,0.0,0.343535366,0.0,0.371763742,True,,5f1de226b5c0873193a834ed,,1230364,63,,evan-feature22,full_rf_a,,1
39,19239,64,,,,2,2,0.0,0.0,1.0,0.0,,0.0-66.0,,0.0,1241.65,1.0,0.5707533260000001,0.0,0.589121171,0.0,0.326428396,0.0,0.43961622899999997,True,,5f1de226b5c0873193a834ed,,1241373,64,,evan-feature22,full_rf_a,,1
40,19240,65,,,,1,1,1.0,1.0,1.0,0.0,,0.0-67.0,,1.0,1138.355,1.0,0.5707533260000001,1.0,0.589121171,0.0,0.326428396,1.0,0.43961622899999997,True,,5f1de226b5c0873193a834ed,,1252284,65,,evan-feature22,full_rf_a,,1
41,19241,66,,,,1,1,1.0,1.0,1.0,0.0,,0.0-68.0,,1.0,1151.455,1.0,0.506271295,1.0,0.641775594,0.0,0.37149690700000004,1.0,0.404330166,True,,5f1de226b5c0873193a834ed,,1263203,66,,evan-feature22,full_rf_a,,0
42,19242,67,,,,2,2,0.0,0.0,0.0,-1.0,,0.0-69.0,,0.0,883.92,0.0,0.455642565,1.0,0.623605825,0.0,0.358753011,0.0,0.346174041,True,,5f1de226b5c0873193a834ed,,1273851,67,,evan-feature22,full_rf_a,,1
43,19243,68,,,,2,2,0.0,0.0,0.0,-1.0,,0.0-70.0,,0.0,1735.135,1.0,0.483677308,1.0,0.5904681070000001,0.0,0.402218411,0.0,0.35344697,True,,5f1de226b5c0873193a834ed,,1285348,68,,evan-feature22,full_rf_a,,0
44,19244,69,,,,1,1,0.0,1.0,0.0,-1.0,,0.0-71.0,,-1.0,809.735,0.0,0.394210977,1.0,0.558925494,1.0,0.540052017,0.0,0.35182128700000004,True,,5f1de226b5c0873193a834ed,,1295934,69,,evan-feature22,full_rf_a,,1
45,19245,70,,,,2,2,1.0,0.0,1.0,0.0,,0.0-72.0,,1.0,608.7,1.0,0.382300414,1.0,0.577670603,1.0,0.607608448,0.0,0.378261578,True,,5f1de226b5c0873193a834ed,,1306321,70,,evan-feature22,full_rf_a,,1
46,19246,71,,,,1,1,0.0,1.0,1.0,0.0,,0.0-73.0,,0.0,861.065,0.0,0.357596762,1.0,0.5929076529999999,1.0,0.6579790010000001,1.0,0.401326777,True,,5f1de226b5c0873193a834ed,,1316946,71,,evan-feature22,full_rf_a,,1
47,19247,72,,,,1,1,0.0,1.0,1.0,0.0,,0.0-74.0,,0.0,1133.45,0.0,0.362033495,1.0,0.582308608,0.0,0.649195052,0.0,0.355158505,True,,5f1de226b5c0873193a834ed,,1327849,72,,evan-feature22,full_rf_a,,0
48,19248,73,,,,1,1,0.0,1.0,1.0,0.0,,0.0-75.0,,0.0,1272.515,0.0,0.369620635,1.0,0.669100864,1.0,0.706059111,0.0,0.362516241,True,,5f1de226b5c0873193a834ed,,1338887,73,,evan-feature22,full_rf_a,,0
49,19249,74,,,,2,2,1.0,0.0,1.0,0.0,,0.0-76.0,,1.0,832.21,1.0,0.41477751399999996,0.0,0.7284416779999999,1.0,0.7182656940000001,0.0,0.36228040899999997,True,,5f1de226b5c0873193a834ed,,1349491,74,,evan-feature22,full_rf_a,,1
50,19250,75,,,,2,2,0.0,0.0,0.0,-1.0,,0.0-77.0,,0.0,1196.805,1.0,0.37675460299999997,1.0,0.703250285,0.0,0.75,0.0,0.461979164,True,,5f1de226b5c0873193a834ed,,1360454,75,,evan-feature22,full_rf_a,,0
51,19251,76,,,,1,1,0.0,0.0,0.0,-1.0,,0.0-78.0,,0.0,1039.315,0.0,0.398716075,0.0,0.6723864890000001,0.0,0.674153818,1.0,0.519029516,True,,5f1de226b5c0873193a834ed,,1371260,76,,evan-feature22,full_rf_a,,1
52,19252,77,,,,2,2,1.0,1.0,1.0,0.0,,0.0-79.0,,1.0,757.515,0.0,0.34677856700000004,0.0,0.69057175,1.0,0.6822438540000001,1.0,0.477292237,True,,5f1de226b5c0873193a834ed,,1381784,77,,evan-feature22,full_rf_a,,1
53,19253,78,,,,1,1,0.0,1.0,0.0,-1.0,,0.0-80.0,,-1.0,755.385,0.0,0.28580469199999997,1.0,0.68408818,1.0,0.684207565,1.0,0.49780448299999996,True,,5f1de226b5c0873193a834ed,,1392304,78,,evan-feature22,full_rf_a,,1
54,19255,80,,,,2,2,1.0,1.0,1.0,0.0,,0.0-82.0,,1.0,1937.815,1.0,0.25,1.0,0.7405808970000001,1.0,0.679614108,1.0,0.436436964,True,,5f1de226b5c0873193a834ed,,1409683,80,,evan-feature22,full_rf_a,,1
55,19256,81,,,,1,1,0.0,1.0,0.0,-1.0,,0.0-83.0,,-1.0,2654.05,0.0,0.29890393,1.0,0.730505706,0.0,0.7328203320000001,1.0,0.439256938,True,,5f1de226b5c0873193a834ed,,1422100,81,,evan-feature22,full_rf_a,,1
56,19257,82,,,,2,2,1.0,0.0,1.0,0.0,,0.0-84.0,,1.0,601.54,1.0,0.326762398,1.0,0.7148059609999999,1.0,0.75,0.0,0.44389608799999997,True,,5f1de226b5c0873193a834ed,,1432466,82,,evan-feature22,full_rf_a,,1
57,19258,83,,,,2,2,1.0,0.0,1.0,0.0,,0.0-85.0,,1.0,611.535,0.0,0.295168515,1.0,0.739760854,1.0,0.719947008,0.0,0.35277284600000003,True,,5f1de226b5c0873193a834ed,,1442845,83,,evan-feature22,full_rf_a,,0
58,19259,84,,,,1,1,1.0,0.0,1.0,0.0,,0.0-86.0,,1.0,882.805,1.0,0.25,0.0,0.70781482,1.0,0.75,0.0,0.286095925,True,,5f1de226b5c0873193a834ed,,1453511,84,,evan-feature22,full_rf_a,,1
59,19260,85,,,,2,2,1.0,0.0,0.0,-1.0,,0.0-87.0,,0.0,617.56,0.0,0.25638190899999996,1.0,0.704088163,1.0,0.75,0.0,0.26872601399999996,True,,5f1de226b5c0873193a834ed,,1463895,85,,evan-feature22,full_rf_a,,1
60,19261,86,,,,2,2,0.0,0.0,0.0,-1.0,,0.0-88.0,,0.0,680.545,0.0,0.271581126,0.0,0.669760107,0.0,0.733896663,0.0,0.273244572,True,,5f1de226b5c0873193a834ed,,1474335,86,,evan-feature22,full_rf_a,,0
61,19262,87,,,,2,2,0.0,1.0,0.0,-1.0,,0.0-89.0,,-1.0,906.505,0.0,0.257144401,1.0,0.600575706,0.0,0.74488122,1.0,0.25,True,,5f1de226b5c0873193a834ed,,1485013,87,,evan-feature22,full_rf_a,,0
62,19263,88,,,,1,1,1.0,1.0,1.0,0.0,,0.0-90.0,,1.0,545.035,1.0,0.25,1.0,0.616870026,0.0,0.723610234,0.0,0.25,True,,5f1de226b5c0873193a834ed,,1495321,88,,evan-feature22,full_rf_a,,1
63,19264,89,,,,1,1,0.0,1.0,0.0,-1.0,,0.0-91.0,,-1.0,2361.74,0.0,0.25,1.0,0.583540187,1.0,0.7041042559999999,0.0,0.285961995,True,,5f1de226b5c0873193a834ed,,1507446,89,,evan-feature22,full_rf_a,,0
64,19265,90,,,,2,2,0.0,1.0,1.0,0.0,,0.0-92.0,,0.0,357.865,1.0,0.27254536,1.0,0.53875765,0.0,0.693783448,1.0,0.284961652,True,,5f1de226b5c0873193a834ed,,1517573,90,,evan-feature22,full_rf_a,,1
65,19266,91,,,,1,1,0.0,1.0,0.0,-1.0,,0.0-93.0,,-1.0,492.09,0.0,0.25,1.0,0.548431252,1.0,0.734221895,0.0,0.279445214,True,,5f1de226b5c0873193a834ed,,1527826,91,,evan-feature22,full_rf_a,,1
66,19267,92,,,,2,2,0.0,0.0,1.0,0.0,,0.0-94.0,,0.0,433.11,0.0,0.258640684,0.0,0.545878066,0.0,0.725245965,0.0,0.31487537,True,,5f1de226b5c0873193a834ed,,1538022,92,,evan-feature22,full_rf_a,,1
67,19268,93,,,,1,1,1.0,0.0,1.0,0.0,,0.0-95.0,,1.0,730.19,1.0,0.251103711,0.0,0.5776290629999999,1.0,0.696320133,1.0,0.317831047,True,,5f1de226b5c0873193a834ed,,1548528,93,,evan-feature22,full_rf_a,,1
68,19269,94,,,,1,1,0.0,0.0,1.0,0.0,,0.0-96.0,,0.0,1258.955,0.0,0.276630292,0.0,0.617329858,1.0,0.73838088,0.0,0.261471582,True,,5f1de226b5c0873193a834ed,,1559552,94,,evan-feature22,full_rf_a,,0
69,19270,95,,,,2,2,0.0,1.0,0.0,-1.0,,0.0-97.0,,-1.0,487.085,1.0,0.297716424,0.0,0.618863717,0.0,0.7402358259999999,1.0,0.262600834,True,,5f1de226b5c0873193a834ed,,1569809,95,,evan-feature22,full_rf_a,,1
70,19271,96,,,,1,1,0.0,1.0,1.0,0.0,,0.0-98.0,,0.0,702.345,0.0,0.290935512,1.0,0.695370945,1.0,0.706570507,1.0,0.280030553,True,,5f1de226b5c0873193a834ed,,1580278,96,,evan-feature22,full_rf_a,,1
71,19272,97,,,,2,2,0.0,0.0,1.0,0.0,,0.0-99.0,,0.0,483.21,0.0,0.25,1.0,0.6465277079999999,0.0,0.67766682,0.0,0.25,True,,5f1de226b5c0873193a834ed,,1590531,97,,evan-feature22,full_rf_a,,1
72,19273,98,,,,2,2,1.0,0.0,1.0,0.0,,0.0-100.0,,1.0,825.395,0.0,0.26463816,1.0,0.636100213,1.0,0.646048507,0.0,0.265607101,True,,5f1de226b5c0873193a834ed,,1601128,98,,evan-feature22,full_rf_a,,0
73,19274,99,,,,2,2,0.0,0.0,1.0,0.0,,0.0-101.0,,0.0,1452.365,0.0,0.314340707,1.0,0.667795927,0.0,0.613630805,0.0,0.25,True,,5f1de226b5c0873193a834ed,,1612345,99,,evan-feature22,full_rf_a,,0
74,19275,100,,,,1,1,0.0,1.0,1.0,0.0,,0.0-102.0,,0.0,496.825,0.0,0.28685784,1.0,0.6622549529999999,0.0,0.652154117,1.0,0.25,True,,5f1de226b5c0873193a834ed,,1622605,100,,evan-feature22,full_rf_a,,1
75,19276,101,,,,2,2,1.0,0.0,0.0,-1.0,,0.0-103.0,,0.0,847.37,1.0,0.304106554,1.0,0.631289538,1.0,0.707041942,0.0,0.29314237,True,,5f1de226b5c0873193a834ed,,1633219,101,,evan-feature22,full_rf_a,,1
76,19277,102,,,,1,1,0.0,0.0,0.0,-1.0,,0.0-104.0,,0.0,1552.175,0.0,0.304806932,0.0,0.571167718,1.0,0.680472346,0.0,0.25,True,,5f1de226b5c0873193a834ed,,1644541,102,,evan-feature22,full_rf_a,,1
77,19278,103,,,,2,2,1.0,0.0,0.0,-1.0,,0.0-105.0,,0.0,431.17,0.0,0.37919861,1.0,0.5724849710000001,1.0,0.705638003,0.0,0.30179300600000003,True,,5f1de226b5c0873193a834ed,,1654737,103,,evan-feature22,full_rf_a,,1
78,19279,104,,,,2,2,1.0,1.0,0.0,-1.0,,0.0-106.0,,-1.0,657.67,1.0,0.464277969,1.0,0.554034373,1.0,0.7372627340000001,1.0,0.264699741,True,,5f1de226b5c0873193a834ed,,1665162,104,,evan-feature22,full_rf_a,,0
79,19280,105,,,,1,1,0.0,1.0,1.0,0.0,,0.0-107.0,,0.0,786.065,0.0,0.465104323,1.0,0.530793115,1.0,0.75,0.0,0.31683071,True,,5f1de226b5c0873193a834ed,,1675712,105,,evan-feature22,full_rf_a,,1
80,19281,106,,,,2,2,1.0,0.0,0.0,-1.0,,0.0-108.0,,0.0,781.49,0.0,0.465104323,1.0,0.530793115,1.0,0.75,0.0,0.31683071,True,,5f1de226b5c0873193a834ed,,1686265,106,,evan-feature22,full_rf_a,,1
81,19282,107,,,,2,2,1.0,0.0,0.0,-1.0,,0.0-109.0,,0.0,1116.41,1.0,0.46833986,1.0,0.570249239,1.0,0.7244472590000001,0.0,0.364114163,True,,5f1de226b5c0873193a834ed,,1697161,107,,evan-feature22,full_rf_a,,0
82,19283,108,,,,1,1,1.0,1.0,0.0,-1.0,,0.0-110.0,,-1.0,706.64,1.0,0.445444024,1.0,0.649673355,0.0,0.6845441290000001,0.0,0.300660449,True,,5f1de226b5c0873193a834ed,,1707640,108,,evan-feature22,full_rf_a,,1
83,19284,109,,,,2,2,0.0,1.0,0.0,-1.0,,0.0-111.0,,-1.0,995.61,0.0,0.39909721299999995,1.0,0.6715179509999999,0.0,0.742310028,1.0,0.35496088299999995,True,,5f1de226b5c0873193a834ed,,1718407,109,,evan-feature22,full_rf_a,,1
84,19285,110,,,,1,1,0.0,1.0,0.0,-1.0,,0.0-112.0,,-1.0,407.44,0.0,0.37956104799999996,1.0,0.694725302,1.0,0.7181651309999999,0.0,0.38726906299999997,True,,5f1de226b5c0873193a834ed,,1728582,110,,evan-feature22,full_rf_a,,1
85,19286,111,,,,2,2,1.0,0.0,0.0,-1.0,,0.0-113.0,,0.0,800.25,1.0,0.404995034,0.0,0.724375412,1.0,0.6910946859999999,0.0,0.387187347,True,,5f1de226b5c0873193a834ed,,1739152,111,,evan-feature22,full_rf_a,,1
86,19287,112,,,,1,1,1.0,1.0,0.0,-1.0,,0.0-114.0,,-1.0,491.655,1.0,0.461740803,1.0,0.75,1.0,0.75,0.0,0.34872038200000005,True,,5f1de226b5c0873193a834ed,,1749408,112,,evan-feature22,full_rf_a,,1
87,19288,113,,,,2,2,0.0,0.0,1.0,0.0,,0.0-115.0,,0.0,690.95,1.0,0.43821380600000004,0.0,0.738833273,0.0,0.728286963,0.0,0.399538128,True,,5f1de226b5c0873193a834ed,,1759863,113,,evan-feature22,full_rf_a,,1
88,19289,114,,,,2,2,1.0,0.0,0.0,-1.0,,0.0-116.0,,0.0,482.94,1.0,0.41709882,1.0,0.736666736,1.0,0.75,0.0,0.389095584,True,,5f1de226b5c0873193a834ed,,1770124,114,,evan-feature22,full_rf_a,,0
89,19290,115,,,,2,2,1.0,1.0,0.0,-1.0,,0.0-117.0,,-1.0,1171.39,1.0,0.39749009799999996,0.0,0.744320029,1.0,0.75,1.0,0.363848678,True,,5f1de226b5c0873193a834ed,,1781062,115,,evan-feature22,full_rf_a,,0
90,19291,116,,,,1,1,0.0,0.0,1.0,0.0,,0.0-118.0,,0.0,391.825,0.0,0.392653706,0.0,0.75,1.0,0.75,0.0,0.384386976,True,,5f1de226b5c0873193a834ed,,1791214,116,,evan-feature22,full_rf_a,,1
91,19292,117,,,,1,1,0.0,1.0,1.0,0.0,,0.0-119.0,,0.0,1493.92,0.0,0.31190902600000003,1.0,0.75,0.0,0.732413819,0.0,0.413082932,True,,5f1de226b5c0873193a834ed,,1802475,117,,evan-feature22,full_rf_a,,0
92,19293,118,,,,2,2,1.0,0.0,0.0,-1.0,,0.0-120.0,,0.0,694.92,0.0,0.366917648,1.0,0.740073855,1.0,0.75,0.0,0.352861979,True,,5f1de226b5c0873193a834ed,,1812939,118,,evan-feature22,full_rf_a,,1
93,19294,119,,,,1,1,1.0,1.0,0.0,-1.0,,0.0-121.0,,-1.0,1112.96,1.0,0.3645172,1.0,0.721770713,1.0,0.75,1.0,0.404074511,True,,5f1de226b5c0873193a834ed,,1823817,119,,evan-feature22,full_rf_a,,1
94,19295,120,,,,2,2,1.0,1.0,0.0,-1.0,,0.0-122.0,,-1.0,631.14,0.0,0.35205600299999995,1.0,0.68983859,1.0,0.739735447,1.0,0.366895945,True,,5f1de226b5c0873193a834ed,,1834217,120,,evan-feature22,full_rf_a,,1
95,19296,121,,,,1,1,1.0,1.0,0.0,-1.0,,0.0-123.0,,-1.0,407.655,1.0,0.40998722600000004,1.0,0.720859127,1.0,0.673854955,1.0,0.368528541,True,,5f1de226b5c0873193a834ed,,1844392,121,,evan-feature22,full_rf_a,,1
96,19297,122,,,,2,2,1.0,1.0,1.0,0.0,,0.0-124.0,,1.0,619.36,1.0,0.353625316,0.0,0.75,1.0,0.695605473,1.0,0.38303674200000004,True,,5f1de226b5c0873193a834ed,,1854781,122,,evan-feature22,full_rf_a,,1
97,19298,123,,,,1,1,0.0,1.0,0.0,-1.0,,0.0-125.0,,-1.0,631.535,0.0,0.359216989,1.0,0.75,0.0,0.6987915090000001,0.0,0.35169046200000004,True,,5f1de226b5c0873193a834ed,,1865173,123,,evan-feature22,full_rf_a,,1
98,19299,124,,,,2,2,1.0,0.0,1.0,0.0,,0.0-126.0,,1.0,408.305,1.0,0.35834496899999996,1.0,0.75,1.0,0.707067742,0.0,0.416763636,True,,5f1de226b5c0873193a834ed,,1875343,124,,evan-feature22,full_rf_a,,1
99,19300,125,,,,2,2,0.0,0.0,1.0,0.0,,0.0-127.0,,0.0,775.485,0.0,0.38741613799999997,1.0,0.7177369570000001,0.0,0.734902455,0.0,0.49438664299999996,True,,5f1de226b5c0873193a834ed,,1885877,125,,evan-feature22,full_rf_a,,0
100,19301,126,,,,2,2,1.0,1.0,0.0,-1.0,,0.0-128.0,,-1.0,1099.68,1.0,0.405255252,1.0,0.7300466640000001,1.0,0.7027748070000001,1.0,0.504359668,True,,5f1de226b5c0873193a834ed,,1896738,126,,evan-feature22,full_rf_a,,0
101,19302,127,,,,1,1,1.0,1.0,0.0,-1.0,,0.0-129.0,,-1.0,368.615,1.0,0.40697073,1.0,0.7260142190000001,1.0,0.724461982,1.0,0.522779179,True,,5f1de226b5c0873193a834ed,,1906881,127,,evan-feature22,full_rf_a,,1
102,19303,128,,,,1,1,1.0,1.0,0.0,-1.0,,0.0-130.0,,-1.0,419.285,1.0,0.43906215299999996,1.0,0.7252802340000001,1.0,0.719079934,1.0,0.5712990579999999,True,,5f1de226b5c0873193a834ed,,1917065,128,,evan-feature22,full_rf_a,,0
103,19304,129,,,,2,2,1.0,1.0,0.0,-1.0,,0.0-131.0,,-1.0,666.375,0.0,0.4076705,1.0,0.73280499,1.0,0.681313127,1.0,0.523891346,True,,5f1de226b5c0873193a834ed,,1927496,129,,evan-feature22,full_rf_a,,1
104,19305,130,,,,2,2,1.0,0.0,0.0,-1.0,,0.0-132.0,,0.0,753.485,0.0,0.399102911,1.0,0.730498344,1.0,0.661080239,0.0,0.46742603,True,,5f1de226b5c0873193a834ed,,1938015,130,,evan-feature22,full_rf_a,,0
105,19306,131,,,,1,1,1.0,1.0,1.0,0.0,,0.0-133.0,,1.0,702.22,1.0,0.356477282,1.0,0.712296395,0.0,0.641812684,0.0,0.44868414,True,,5f1de226b5c0873193a834ed,,1948484,131,,evan-feature22,full_rf_a,,1
106,19307,132,,,,2,2,1.0,0.0,0.0,-1.0,,0.0-134.0,,0.0,720.19,1.0,0.462760722,1.0,0.692349322,1.0,0.700947931,0.0,0.394680266,True,,5f1de226b5c0873193a834ed,,1958970,132,,evan-feature22,full_rf_a,,1
107,19308,133,,,,2,2,1.0,1.0,0.0,-1.0,,0.0-135.0,,-1.0,954.465,0.0,0.422306413,0.0,0.718375916,1.0,0.706340917,1.0,0.367787185,True,,5f1de226b5c0873193a834ed,,1969692,133,,evan-feature22,full_rf_a,,0
108,19310,135,,,,1,1,0.0,0.0,0.0,-1.0,,0.0-137.0,,0.0,1564.32,0.0,0.4582233,0.0,0.643834117,1.0,0.75,0.0,0.39615823299999997,True,,5f1de226b5c0873193a834ed,,2011594,135,,evan-feature22,full_rf_a,,1
109,19311,136,,,,2,2,1.0,1.0,0.0,-1.0,,0.0-138.0,,-1.0,555.605,0.0,0.43813437899999996,0.0,0.651283804,1.0,0.729674191,1.0,0.37711048,True,,5f1de226b5c0873193a834ed,,2021913,136,,evan-feature22,full_rf_a,,1
110,19312,137,,,,SLOW,SLOW,,,0.0,-1.0,,0.0-139.0,,-3.0,,1.0,0.471199094,0.0,0.6470010979999999,0.0,0.715008097,1.0,0.410656191,True,,5f1de226b5c0873193a834ed,,2027720,137,,evan-feature22,full_rf_a,,1
111,19313,138,,,,2,2,0.0,0.0,1.0,0.0,,0.0-140.0,,0.0,370.49,1.0,0.42486406,1.0,0.629771829,0.0,0.6550939960000001,0.0,0.459093873,True,,5f1de226b5c0873193a834ed,,2037859,138,,evan-feature22,full_rf_a,,1
112,19314,139,,,,2,2,0.0,1.0,1.0,0.0,,0.0-141.0,,0.0,584.095,1.0,0.4803197,0.0,0.645842715,0.0,0.6421749920000001,1.0,0.443092151,True,,5f1de226b5c0873193a834ed,,2048210,139,,evan-feature22,full_rf_a,,0
113,19315,140,,,,2,2,0.0,0.0,1.0,0.0,,0.0-142.0,,0.0,1652.57,0.0,0.521848997,1.0,0.735801074,0.0,0.6691348460000001,0.0,0.45259351600000003,True,,5f1de226b5c0873193a834ed,,2059624,140,,evan-feature22,full_rf_a,,0
114,19316,141,,,,1,1,0.0,1.0,0.0,-1.0,,0.0-143.0,,-1.0,433.485,0.0,0.49565621299999996,1.0,0.742400847,1.0,0.661512553,0.0,0.483110831,True,,5f1de226b5c0873193a834ed,,2069826,141,,evan-feature22,full_rf_a,,1
115,19317,142,,,,2,2,1.0,0.0,1.0,0.0,,0.0-144.0,,1.0,450.735,0.0,0.521564361,1.0,0.731078632,1.0,0.6774886809999999,0.0,0.483263956,True,,5f1de226b5c0873193a834ed,,2080046,142,,evan-feature22,full_rf_a,,1
116,19318,143,,,,2,2,1.0,0.0,1.0,0.0,,0.0-145.0,,1.0,736.18,1.0,0.558893102,1.0,0.719810023,1.0,0.67461031,0.0,0.499349834,True,,5f1de226b5c0873193a834ed,,2090554,143,,evan-feature22,full_rf_a,,0
117,19319,144,,,,1,1,0.0,0.0,0.0,-1.0,,0.0-146.0,,0.0,531.455,0.0,0.611031046,0.0,0.75,0.0,0.688072995,0.0,0.5321422729999999,True,,5f1de226b5c0873193a834ed,,2100849,144,,evan-feature22,full_rf_a,,1
118,19320,145,,,,2,2,0.0,1.0,1.0,0.0,,0.0-147.0,,0.0,747.975,1.0,0.633223941,1.0,0.713567728,0.0,0.75,1.0,0.48185314700000004,True,,5f1de226b5c0873193a834ed,,2111366,145,,evan-feature22,full_rf_a,,1
119,19321,146,,,,1,1,1.0,1.0,1.0,0.0,,0.0-148.0,,1.0,1051.145,1.0,0.664001694,1.0,0.705509768,1.0,0.75,1.0,0.500211065,True,,5f1de226b5c0873193a834ed,,2122183,146,,evan-feature22,full_rf_a,,1
120,19322,147,,,,2,2,1.0,1.0,0.0,-1.0,,0.0-149.0,,-1.0,780.39,1.0,0.664001694,0.0,0.705509768,1.0,0.75,1.0,0.500211065,True,,5f1de226b5c0873193a834ed,,2132736,147,,evan-feature22,full_rf_a,,1
121,19323,148,,,,1,1,1.0,0.0,0.0,-1.0,,0.0-150.0,,0.0,389.365,1.0,0.696508041,0.0,0.71066027,1.0,0.717028709,0.0,0.49792991,True,,5f1de226b5c0873193a834ed,,2142904,148,,evan-feature22,full_rf_a,,1
122,19324,149,,,,2,2,1.0,1.0,1.0,0.0,,0.0-151.0,,1.0,800.98,1.0,0.699883272,1.0,0.75,1.0,0.713543895,1.0,0.496962643,True,,5f1de226b5c0873193a834ed,,2153475,149,,evan-feature22,full_rf_a,,1
123,19325,150,,,,1,1,0.0,1.0,0.0,-1.0,,0.0-152.0,,-1.0,430.81,0.0,0.741163419,1.0,0.75,1.0,0.64691024,1.0,0.513858197,True,,5f1de226b5c0873193a834ed,,2163672,150,,evan-feature22,full_rf_a,,1
124,19326,151,,,,2,2,1.0,0.0,1.0,0.0,,0.0-153.0,,1.0,454.205,1.0,0.75,0.0,0.70816558,1.0,0.594499079,0.0,0.48502124,True,,5f1de226b5c0873193a834ed,,2173898,151,,evan-feature22,full_rf_a,,1
125,19327,152,,,,1,1,1.0,0.0,0.0,-1.0,,0.0-154.0,,0.0,1082.29,1.0,0.75,0.0,0.721848901,0.0,0.62197249,0.0,0.48263586399999997,True,,5f1de226b5c0873193a834ed,,2184746,152,,evan-feature22,full_rf_a,,1
126,19328,153,,,,2,2,1.0,0.0,1.0,0.0,,0.0-155.0,,1.0,838.205,0.0,0.75,1.0,0.74813071,1.0,0.584357161,0.0,0.411477782,True,,5f1de226b5c0873193a834ed,,2195350,153,,evan-feature22,full_rf_a,,1
127,19329,154,,,,2,2,0.0,0.0,0.0,-1.0,,0.0-156.0,,0.0,608.955,1.0,0.75,1.0,0.75,0.0,0.52287236,0.0,0.488290656,True,,5f1de226b5c0873193a834ed,,2205724,154,,evan-feature22,full_rf_a,,0
128,19330,155,,,,1,1,1.0,1.0,0.0,-1.0,,0.0-157.0,,-1.0,463.075,1.0,0.75,1.0,0.75,1.0,0.544321581,1.0,0.53143059,True,,5f1de226b5c0873193a834ed,,2215960,155,,evan-feature22,full_rf_a,,1
129,19331,156,,,,2,2,0.0,1.0,0.0,-1.0,,0.0-158.0,,-1.0,1068.035,0.0,0.726754564,1.0,0.75,0.0,0.5129306370000001,1.0,0.530592445,True,,5f1de226b5c0873193a834ed,,2226797,156,,evan-feature22,full_rf_a,,1
130,19332,157,,,,2,2,0.0,0.0,1.0,0.0,,0.0-159.0,,0.0,344.06,0.0,0.75,1.0,0.7392590729999999,0.0,0.479875835,0.0,0.547007051,True,,5f1de226b5c0873193a834ed,,2236904,157,,evan-feature22,full_rf_a,,0
131,19333,158,,,,1,1,0.0,1.0,1.0,0.0,,0.0-160.0,,0.0,1337.935,0.0,0.75,1.0,0.7393376979999999,1.0,0.546045419,1.0,0.541267353,True,,5f1de226b5c0873193a834ed,,2248009,158,,evan-feature22,full_rf_a,,1
132,19334,159,,,,2,2,0.0,1.0,1.0,0.0,,0.0-161.0,,0.0,542.475,1.0,0.75,1.0,0.75,0.0,0.485725895,1.0,0.527625395,True,,5f1de226b5c0873193a834ed,,2258324,159,,evan-feature22,full_rf_a,,1
133,19335,160,,,,1,1,0.0,1.0,0.0,-1.0,,0.0-162.0,,-1.0,1041.53,0.0,0.75,1.0,0.725087974,1.0,0.488603595,0.0,0.504019206,True,,5f1de226b5c0873193a834ed,,2269131,160,,evan-feature22,full_rf_a,,1
134,19336,161,,,,2,2,1.0,1.0,0.0,-1.0,,0.0-163.0,,-1.0,725.85,0.0,0.745504295,0.0,0.75,1.0,0.452379914,1.0,0.50131194,True,,5f1de226b5c0873193a834ed,,2279635,161,,evan-feature22,full_rf_a,,1
135,19337,162,,,,1,1,0.0,1.0,0.0,-1.0,,0.0-164.0,,-1.0,767.22,0.0,0.728513874,1.0,0.75,0.0,0.44125567200000004,1.0,0.531454591,True,,5f1de226b5c0873193a834ed,,2290174,162,,evan-feature22,full_rf_a,,1
136,19338,163,,,,2,2,0.0,0.0,1.0,0.0,,0.0-165.0,,0.0,489.185,1.0,0.73790804,1.0,0.75,0.0,0.413036656,0.0,0.524619035,True,,5f1de226b5c0873193a834ed,,2300426,163,,evan-feature22,full_rf_a,,1
137,19339,164,,,,2,2,1.0,0.0,0.0,-1.0,,0.0-166.0,,0.0,517.99,1.0,0.7080961309999999,1.0,0.708666865,1.0,0.431915581,0.0,0.481819489,True,,5f1de226b5c0873193a834ed,,2310710,164,,evan-feature22,full_rf_a,,0
138,19340,165,,,,1,1,1.0,1.0,0.0,-1.0,,0.0-167.0,,-1.0,1387.52,1.0,0.721378003,1.0,0.71605913,0.0,0.36642387,1.0,0.5036739929999999,True,,5f1de226b5c0873193a834ed,,2321870,165,,evan-feature22,full_rf_a,,1
139,19341,166,,,,2,2,0.0,1.0,0.0,-1.0,,0.0-168.0,,-1.0,1766.92,1.0,0.7340618959999999,1.0,0.699323252,0.0,0.35298046299999997,1.0,0.511241692,True,,5f1de226b5c0873193a834ed,,2333401,166,,evan-feature22,full_rf_a,,1
140,19342,167,,,,1,1,0.0,1.0,1.0,0.0,,0.0-169.0,,0.0,609.235,0.0,0.75,1.0,0.70412698,1.0,0.380734814,1.0,0.529580116,True,,5f1de226b5c0873193a834ed,,2343777,167,,evan-feature22,full_rf_a,,1
141,19343,168,,,,2,2,0.0,1.0,0.0,-1.0,,0.0-170.0,,-1.0,359.66,1.0,0.7436654909999999,1.0,0.711182751,0.0,0.41125331,1.0,0.49554405,True,,5f1de226b5c0873193a834ed,,2353907,168,,evan-feature22,full_rf_a,,1
142,19344,169,,,,1,1,1.0,1.0,0.0,-1.0,,0.0-171.0,,-1.0,985.075,1.0,0.731607915,1.0,0.651774583,0.0,0.35688023,1.0,0.45194491600000003,True,,5f1de226b5c0873193a834ed,,2364654,169,,evan-feature22,full_rf_a,,1
143,19345,170,,,,2,2,1.0,0.0,1.0,0.0,,0.0-172.0,,1.0,1119.84,1.0,0.75,0.0,0.75,1.0,0.283145374,0.0,0.528608005,True,,5f1de226b5c0873193a834ed,,2375536,170,,evan-feature22,full_rf_a,,1
144,19346,171,,,,1,1,1.0,1.0,1.0,0.0,,0.0-173.0,,1.0,1552.93,1.0,0.7491416890000001,1.0,0.7423785959999999,1.0,0.29135870399999997,1.0,0.498888318,True,,5f1de226b5c0873193a834ed,,2386864,171,,evan-feature22,full_rf_a,,1
145,19347,172,,,,2,2,1.0,0.0,1.0,0.0,,0.0-174.0,,1.0,683.755,0.0,0.708569387,1.0,0.717682277,1.0,0.294421699,0.0,0.493838163,True,,5f1de226b5c0873193a834ed,,2397309,172,,evan-feature22,full_rf_a,,1
146,19348,173,,,,2,2,0.0,1.0,0.0,-1.0,,0.0-175.0,,-1.0,639.44,1.0,0.75,1.0,0.7383382159999999,0.0,0.356098707,1.0,0.442533405,True,,5f1de226b5c0873193a834ed,,2407711,173,,evan-feature22,full_rf_a,,0
147,19349,174,,,,1,1,1.0,1.0,0.0,-1.0,,0.0-176.0,,-1.0,985.775,1.0,0.744527075,1.0,0.75,1.0,0.334127506,1.0,0.393165805,True,,5f1de226b5c0873193a834ed,,2418461,174,,evan-feature22,full_rf_a,,1
148,19350,175,,,,2,2,1.0,1.0,0.0,-1.0,,0.0-177.0,,-1.0,458.285,0.0,0.75,1.0,0.75,1.0,0.33571021799999995,1.0,0.350393962,True,,5f1de226b5c0873193a834ed,,2428688,175,,evan-feature22,full_rf_a,,1
149,19351,176,,,,1,1,1.0,1.0,0.0,-1.0,,0.0-178.0,,-1.0,612.855,1.0,0.75,1.0,0.75,1.0,0.313628297,1.0,0.36349657399999996,True,,5f1de226b5c0873193a834ed,,2439072,176,,evan-feature22,full_rf_a,,1
150,19352,177,,,,2,2,0.0,0.0,1.0,0.0,,0.0-179.0,,0.0,708.395,1.0,0.75,1.0,0.734284182,0.0,0.262667667,0.0,0.380199119,True,,5f1de226b5c0873193a834ed,,2449544,177,,evan-feature22,full_rf_a,,1
151,19353,178,,,,1,1,0.0,1.0,0.0,-1.0,,0.0-180.0,,-1.0,408.94,0.0,0.75,1.0,0.75,0.0,0.25,0.0,0.394494013,True,,5f1de226b5c0873193a834ed,,2459727,178,,evan-feature22,full_rf_a,,1
152,19354,179,,,,2,2,0.0,1.0,1.0,0.0,,0.0-181.0,,0.0,550.795,1.0,0.722298145,0.0,0.7357822340000001,0.0,0.25,1.0,0.319142121,True,,5f1de226b5c0873193a834ed,,2470046,179,,evan-feature22,full_rf_a,,1
153,19355,180,,,,2,2,0.0,0.0,1.0,0.0,,0.0-182.0,,0.0,1541.975,1.0,0.73149275,0.0,0.724276446,0.0,0.305856907,0.0,0.281315057,True,,5f1de226b5c0873193a834ed,,2481351,180,,evan-feature22,full_rf_a,,0
154,19356,181,,,,SLOW,SLOW,,,0.0,-1.0,,0.0-183.0,,-3.0,,1.0,0.7458732690000001,1.0,0.7336382459999999,0.0,0.272571964,0.0,0.266021999,True,,5f1de226b5c0873193a834ed,,2487161,181,,evan-feature22,full_rf_a,,1
155,19357,182,,,,1,1,1.0,1.0,0.0,-1.0,,0.0-184.0,,-1.0,664.64,1.0,0.705579037,1.0,0.720778292,0.0,0.320238144,0.0,0.30971744,True,,5f1de226b5c0873193a834ed,,2497597,182,,evan-feature22,full_rf_a,,1
156,19358,183,,,,2,2,0.0,0.0,0.0,-1.0,,0.0-185.0,,0.0,439.125,1.0,0.700425648,1.0,0.7198784009999999,0.0,0.272590393,0.0,0.304182931,True,,5f1de226b5c0873193a834ed,,2507800,183,,evan-feature22,full_rf_a,,1
157,19359,184,,,,2,2,0.0,0.0,0.0,-1.0,,0.0-186.0,,0.0,470.12,0.0,0.735590785,1.0,0.722714973,0.0,0.25,0.0,0.323421091,True,,5f1de226b5c0873193a834ed,,2518031,184,,evan-feature22,full_rf_a,,0
158,19360,185,,,,2,2,0.0,0.0,0.0,-1.0,,0.0-187.0,,0.0,2529.3,0.0,0.724807662,1.0,0.63146213,0.0,0.36836492600000004,0.0,0.34592153299999995,True,,5f1de226b5c0873193a834ed,,2530326,185,,evan-feature22,full_rf_a,,0
159,19361,186,,,,1,1,1.0,0.0,0.0,-1.0,,0.0-188.0,,0.0,708.065,1.0,0.7352796909999999,0.0,0.555111392,1.0,0.36003922,0.0,0.31433779999999995,True,,5f1de226b5c0873193a834ed,,2540798,186,,evan-feature22,full_rf_a,,1
160,19362,187,notice,,,,,,,,,,0.0-189.0,"{""Q0"":""none""}",,35054.0,,,,,,,,,True,,5f1de226b5c0873193a834ed,,2575855,187,Q,survey-text,full_rf_a,,1
161,19363,188,track1,,[1],,,,,,,,0.0-190.0,"{""Q0"":""no""}",,9225.0,,,,,,,,,True,,5f1de226b5c0873193a834ed,,2585088,188,Q,evan-quiz,full_rf_a,,1
162,19364,189,track2,,[0],,,,,,,,0.0-191.0,"{""Q0"":""yes""}",,9637.0,,,,,,,,,True,,5f1de226b5c0873193a834ed,,2594732,189,Q,evan-quiz,full_rf_a,,1
163,19365,190,strat,,,,,,,,,,0.0-192.0,"{""Q0"":""none there seemed to be no strategy or pattern to follow""}",,30498.0,,,,,,,,,True,,5f1de226b5c0873193a834ed,,2625236,190,Q,survey-text,full_rf_a,,1
