,index,Unnamed: 0,Q_name,button_pressed,choice_idxs,chosen_pos,chosen_state,chosen_state_f_1_outcome,chosen_state_f_2_outcome,f_1_reward,f_2_reward,incor_questions,internal_node_id,responses,reward_received,rt,s_1_f_1_outcome,s_1_f_1_prob,s_1_f_2_outcome,s_1_f_2_prob,s_2_f_1_outcome,s_2_f_1_prob,s_2_f_2_outcome,s_2_f_2_prob,safe_first,stimulus,subjectID,success,time_elapsed,trial_index,trial_num,trial_type,version,view_history,switching
0,33631,25,,,,1,1,0.0,1.0,0.0,-1.0,,0.0-27.0,,-1.0,1395.595,0.0,0.6,1.0,0.6,1.0,0.4,0.0,0.4,False,,5d6d6c5105e693001aa1461b,,449348,25,,evan-feature22,full_pf_a,,0
1,33632,26,,,,2,2,0.0,1.0,0.0,-1.0,,0.0-28.0,,-1.0,1062.16,1.0,0.608053294,1.0,0.63424552,0.0,0.397152172,1.0,0.347069101,False,,5d6d6c5105e693001aa1461b,,460179,26,,evan-feature22,full_pf_a,,1
2,33633,27,,,,1,1,0.0,0.0,0.0,-1.0,,0.0-29.0,,0.0,883.745,0.0,0.642237155,0.0,0.648566321,1.0,0.389407674,1.0,0.285525717,False,,5d6d6c5105e693001aa1461b,,470827,27,,evan-feature22,full_pf_a,,1
3,33634,28,,,,1,1,1.0,0.0,0.0,-1.0,,0.0-30.0,,0.0,697.475,1.0,0.661086576,0.0,0.630492543,1.0,0.399058924,0.0,0.25,False,,5d6d6c5105e693001aa1461b,,481289,28,,evan-feature22,full_pf_a,,0
4,33635,29,,,,1,1,0.0,0.0,0.0,-1.0,,0.0-31.0,,0.0,525.38,0.0,0.631324137,0.0,0.6269842929999999,1.0,0.38734784299999997,0.0,0.25,False,,5d6d6c5105e693001aa1461b,,491578,29,,evan-feature22,full_pf_a,,0
5,33636,30,,,,1,1,0.0,0.0,0.0,-1.0,,0.0-32.0,,0.0,761.425,0.0,0.6381991370000001,0.0,0.68987999,0.0,0.384107265,0.0,0.271332943,False,,5d6d6c5105e693001aa1461b,,502101,30,,evan-feature22,full_pf_a,,0
6,33637,31,,,,1,1,1.0,1.0,0.0,-1.0,,0.0-33.0,,-1.0,1139.715,1.0,0.66034901,1.0,0.742641349,0.0,0.360225629,1.0,0.25,False,,5d6d6c5105e693001aa1461b,,513002,31,,evan-feature22,full_pf_a,,0
7,33638,32,,,,1,1,0.0,1.0,1.0,0.0,,0.0-34.0,,0.0,1114.795,0.0,0.638612418,1.0,0.75,0.0,0.367273939,0.0,0.25,False,,5d6d6c5105e693001aa1461b,,523882,32,,evan-feature22,full_pf_a,,0
8,33639,33,,,,2,2,0.0,0.0,0.0,-1.0,,0.0-35.0,,0.0,840.735,1.0,0.624340629,1.0,0.75,0.0,0.425829545,0.0,0.25,False,,5d6d6c5105e693001aa1461b,,534488,33,,evan-feature22,full_pf_a,,1
9,33640,34,,,,2,2,0.0,0.0,0.0,-1.0,,0.0-36.0,,0.0,917.985,0.0,0.621999804,0.0,0.75,0.0,0.368609357,0.0,0.25,False,,5d6d6c5105e693001aa1461b,,545169,34,,evan-feature22,full_pf_a,,0
10,33641,35,,,,2,2,0.0,1.0,1.0,0.0,,0.0-37.0,,0.0,704.985,1.0,0.62666403,1.0,0.75,0.0,0.311151498,1.0,0.25,False,,5d6d6c5105e693001aa1461b,,555640,35,,evan-feature22,full_pf_a,,0
11,33642,36,,,,1,1,1.0,0.0,1.0,0.0,,0.0-38.0,,1.0,430.47,1.0,0.6819650009999999,0.0,0.75,0.0,0.310763048,1.0,0.25,False,,5d6d6c5105e693001aa1461b,,565834,36,,evan-feature22,full_pf_a,,1
12,33643,37,,,,1,1,1.0,0.0,0.0,-1.0,,0.0-39.0,,0.0,1150.25,1.0,0.740626951,0.0,0.75,1.0,0.25,0.0,0.25,False,,5d6d6c5105e693001aa1461b,,576750,37,,evan-feature22,full_pf_a,,0
13,33644,38,,,,1,1,0.0,1.0,0.0,-1.0,,0.0-40.0,,-1.0,641.175,0.0,0.739599242,1.0,0.742034978,0.0,0.25397114600000004,0.0,0.25,False,,5d6d6c5105e693001aa1461b,,587156,38,,evan-feature22,full_pf_a,,0
14,33645,39,,,,1,1,1.0,1.0,0.0,-1.0,,0.0-41.0,,-1.0,735.23,1.0,0.732341315,1.0,0.72735643,0.0,0.25,0.0,0.25,False,,5d6d6c5105e693001aa1461b,,597655,39,,evan-feature22,full_pf_a,,0
15,33646,40,,,,2,2,0.0,0.0,0.0,-1.0,,0.0-42.0,,0.0,861.46,0.0,0.7062287770000001,1.0,0.75,0.0,0.29002151,0.0,0.288256649,False,,5d6d6c5105e693001aa1461b,,608280,40,,evan-feature22,full_pf_a,,1
16,33647,41,,,,2,2,0.0,0.0,1.0,0.0,,0.0-43.0,,0.0,400.05,0.0,0.7086029209999999,0.0,0.75,0.0,0.274129113,0.0,0.262851608,False,,5d6d6c5105e693001aa1461b,,618445,41,,evan-feature22,full_pf_a,,0
17,33648,42,,,,2,2,0.0,0.0,0.0,-1.0,,0.0-44.0,,0.0,1042.555,0.0,0.669189651,1.0,0.727614338,0.0,0.298444036,0.0,0.296944518,False,,5d6d6c5105e693001aa1461b,,629250,42,,evan-feature22,full_pf_a,,0
18,33649,43,,,,1,1,0.0,1.0,1.0,0.0,,0.0-45.0,,0.0,416.195,0.0,0.6819912929999999,1.0,0.7179434290000001,0.0,0.265003961,0.0,0.28157921199999997,False,,5d6d6c5105e693001aa1461b,,639428,43,,evan-feature22,full_pf_a,,1
19,33650,44,,,,1,1,0.0,1.0,1.0,0.0,,0.0-46.0,,0.0,470.585,0.0,0.665275002,1.0,0.723065271,0.0,0.260414971,0.0,0.30973870000000003,False,,5d6d6c5105e693001aa1461b,,649661,44,,evan-feature22,full_pf_a,,0
20,33651,45,,,,2,2,0.0,1.0,0.0,-1.0,,0.0-47.0,,-1.0,972.195,1.0,0.6660593260000001,1.0,0.728032907,0.0,0.30922817,1.0,0.338778608,False,,5d6d6c5105e693001aa1461b,,660399,45,,evan-feature22,full_pf_a,,1
21,33652,46,,,,1,1,0.0,1.0,0.0,-1.0,,0.0-48.0,,-1.0,384.45,0.0,0.702068785,1.0,0.6528750879999999,0.0,0.287329608,1.0,0.35789613200000003,False,,5d6d6c5105e693001aa1461b,,670546,46,,evan-feature22,full_pf_a,,1
22,33653,47,,,,1,1,0.0,1.0,0.0,-1.0,,0.0-49.0,,-1.0,632.425,0.0,0.651939787,1.0,0.636725589,0.0,0.284834488,1.0,0.358563756,False,,5d6d6c5105e693001aa1461b,,680948,47,,evan-feature22,full_pf_a,,0
23,33654,48,,,,2,2,0.0,1.0,0.0,-1.0,,0.0-50.0,,-1.0,658.285,0.0,0.67573929,0.0,0.612550049,0.0,0.37130387600000003,1.0,0.383542402,False,,5d6d6c5105e693001aa1461b,,691369,48,,evan-feature22,full_pf_a,,1
24,33655,49,,,,1,1,0.0,1.0,0.0,-1.0,,0.0-51.0,,-1.0,1050.795,0.0,0.620753801,1.0,0.60513644,1.0,0.385529434,0.0,0.340361743,False,,5d6d6c5105e693001aa1461b,,702185,49,,evan-feature22,full_pf_a,,1
25,33656,50,,,,1,1,0.0,0.0,1.0,0.0,,0.0-52.0,,0.0,447.055,0.0,0.673564893,0.0,0.672437924,0.0,0.292955382,0.0,0.337633795,False,,5d6d6c5105e693001aa1461b,,712394,50,,evan-feature22,full_pf_a,,0
26,33657,51,,,,1,1,1.0,1.0,0.0,-1.0,,0.0-53.0,,-1.0,341.025,1.0,0.6749427,1.0,0.724197502,0.0,0.32391132100000003,0.0,0.350995264,False,,5d6d6c5105e693001aa1461b,,722498,51,,evan-feature22,full_pf_a,,0
27,33658,52,,,,2,2,0.0,1.0,0.0,-1.0,,0.0-54.0,,-1.0,638.985,0.0,0.6940159379999999,1.0,0.75,0.0,0.31710554399999996,1.0,0.413450341,False,,5d6d6c5105e693001aa1461b,,732901,52,,evan-feature22,full_pf_a,,1
28,33659,53,,,,2,2,0.0,0.0,0.0,-1.0,,0.0-55.0,,0.0,440.055,1.0,0.6916018270000001,1.0,0.69001187,0.0,0.261817804,0.0,0.40038635,False,,5d6d6c5105e693001aa1461b,,743105,53,,evan-feature22,full_pf_a,,0
29,33660,54,,,,2,2,0.0,0.0,0.0,-1.0,,0.0-56.0,,0.0,611.195,1.0,0.641061544,1.0,0.71337992,0.0,0.277296461,0.0,0.47372791700000005,False,,5d6d6c5105e693001aa1461b,,753480,54,,evan-feature22,full_pf_a,,0
30,33661,55,,,,2,2,0.0,1.0,0.0,-1.0,,0.0-57.0,,-1.0,383.39,0.0,0.6082438520000001,0.0,0.708471106,0.0,0.28745137,1.0,0.564174476,False,,5d6d6c5105e693001aa1461b,,763627,55,,evan-feature22,full_pf_a,,0
31,33662,56,,,,1,1,0.0,1.0,1.0,0.0,,0.0-58.0,,0.0,83.615,0.0,0.6051112120000001,1.0,0.7118147229999999,0.0,0.272390611,1.0,0.5595149939999999,False,,5d6d6c5105e693001aa1461b,,773473,56,,evan-feature22,full_pf_a,,1
32,33663,57,,,,1,1,0.0,1.0,1.0,0.0,,0.0-59.0,,0.0,317.755,0.0,0.582420852,1.0,0.635867583,0.0,0.31089574,0.0,0.5227206520000001,False,,5d6d6c5105e693001aa1461b,,783558,57,,evan-feature22,full_pf_a,,0
33,33664,58,,,,1,1,1.0,0.0,1.0,0.0,,0.0-60.0,,1.0,420.955,1.0,0.623195575,0.0,0.655026044,0.0,0.25,0.0,0.560387538,False,,5d6d6c5105e693001aa1461b,,793742,58,,evan-feature22,full_pf_a,,0
34,33665,59,,,,1,1,1.0,1.0,0.0,-1.0,,0.0-61.0,,-1.0,386.11,1.0,0.601889598,1.0,0.678198724,0.0,0.25,0.0,0.559922936,False,,5d6d6c5105e693001aa1461b,,803893,59,,evan-feature22,full_pf_a,,0
35,33666,60,,,,1,1,1.0,0.0,1.0,0.0,,0.0-62.0,,1.0,344.435,1.0,0.601259914,0.0,0.704681482,0.0,0.33908969299999997,1.0,0.505003715,False,,5d6d6c5105e693001aa1461b,,814000,60,,evan-feature22,full_pf_a,,0
36,33667,61,,,,1,1,0.0,1.0,1.0,0.0,,0.0-63.0,,0.0,457.12,0.0,0.59645454,1.0,0.710437172,0.0,0.327441879,1.0,0.391749613,False,,5d6d6c5105e693001aa1461b,,824220,61,,evan-feature22,full_pf_a,,0
37,33668,62,,,,2,2,1.0,0.0,0.0,-1.0,,0.0-64.0,,0.0,614.35,1.0,0.529473,1.0,0.636758527,1.0,0.301338063,0.0,0.365661481,False,,5d6d6c5105e693001aa1461b,,834596,62,,evan-feature22,full_pf_a,,1
38,33669,63,,,,1,1,1.0,0.0,1.0,0.0,,0.0-65.0,,1.0,529.215,1.0,0.541657162,0.0,0.634541962,0.0,0.343535366,0.0,0.371763742,False,,5d6d6c5105e693001aa1461b,,844886,63,,evan-feature22,full_pf_a,,1
39,33670,64,,,,1,1,0.0,0.0,1.0,0.0,,0.0-66.0,,0.0,616.95,0.0,0.5707533260000001,0.0,0.589121171,1.0,0.326428396,1.0,0.43961622899999997,False,,5d6d6c5105e693001aa1461b,,855265,64,,evan-feature22,full_pf_a,,0
40,33671,65,,,,2,2,1.0,1.0,0.0,-1.0,,0.0-67.0,,-1.0,1635.95,1.0,0.5707533260000001,1.0,0.589121171,1.0,0.326428396,1.0,0.43961622899999997,False,,5d6d6c5105e693001aa1461b,,866667,65,,evan-feature22,full_pf_a,,1
41,33672,66,,,,2,2,1.0,1.0,0.0,-1.0,,0.0-68.0,,-1.0,668.045,1.0,0.506271295,1.0,0.641775594,1.0,0.37149690700000004,1.0,0.404330166,False,,5d6d6c5105e693001aa1461b,,877101,66,,evan-feature22,full_pf_a,,0
42,33673,67,,,,1,1,0.0,0.0,1.0,0.0,,0.0-69.0,,0.0,273.43,0.0,0.455642565,0.0,0.623605825,0.0,0.358753011,1.0,0.346174041,False,,5d6d6c5105e693001aa1461b,,887138,67,,evan-feature22,full_pf_a,,1
43,33674,68,,,,1,1,1.0,1.0,0.0,-1.0,,0.0-70.0,,-1.0,525.985,1.0,0.483677308,1.0,0.5904681070000001,0.0,0.402218411,1.0,0.35344697,False,,5d6d6c5105e693001aa1461b,,897432,68,,evan-feature22,full_pf_a,,0
44,33675,69,,,,1,1,1.0,0.0,1.0,0.0,,0.0-71.0,,1.0,941.3,1.0,0.394210977,0.0,0.558925494,1.0,0.540052017,0.0,0.35182128700000004,False,,5d6d6c5105e693001aa1461b,,908137,69,,evan-feature22,full_pf_a,,0
45,33676,70,,,,SLOW,SLOW,,,0.0,-1.0,,0.0-72.0,,-3.0,,0.0,0.382300414,1.0,0.577670603,0.0,0.607608448,0.0,0.378261578,False,,5d6d6c5105e693001aa1461b,,913945,70,,evan-feature22,full_pf_a,,1
46,33677,71,,,,2,2,1.0,0.0,1.0,0.0,,0.0-73.0,,1.0,1330.28,0.0,0.357596762,1.0,0.5929076529999999,1.0,0.6579790010000001,0.0,0.401326777,False,,5d6d6c5105e693001aa1461b,,925040,71,,evan-feature22,full_pf_a,,1
47,33678,72,,,,2,2,1.0,0.0,0.0,-1.0,,0.0-74.0,,0.0,287.99,0.0,0.362033495,1.0,0.582308608,1.0,0.649195052,0.0,0.355158505,False,,5d6d6c5105e693001aa1461b,,935092,72,,evan-feature22,full_pf_a,,0
48,33679,73,,,,2,2,1.0,1.0,0.0,-1.0,,0.0-75.0,,-1.0,292.99,0.0,0.369620635,0.0,0.669100864,1.0,0.706059111,1.0,0.362516241,False,,5d6d6c5105e693001aa1461b,,945149,73,,evan-feature22,full_pf_a,,0
49,33680,74,,,,1,1,0.0,1.0,0.0,-1.0,,0.0-76.0,,-1.0,280.38,0.0,0.41477751399999996,1.0,0.7284416779999999,0.0,0.7182656940000001,0.0,0.36228040899999997,False,,5d6d6c5105e693001aa1461b,,955192,74,,evan-feature22,full_pf_a,,1
50,33681,75,,,,1,1,1.0,1.0,1.0,0.0,,0.0-77.0,,1.0,578.09,1.0,0.37675460299999997,1.0,0.703250285,0.0,0.75,1.0,0.461979164,False,,5d6d6c5105e693001aa1461b,,965539,75,,evan-feature22,full_pf_a,,0
51,33682,76,,,,1,1,0.0,1.0,1.0,0.0,,0.0-78.0,,0.0,420.965,0.0,0.398716075,1.0,0.6723864890000001,1.0,0.674153818,0.0,0.519029516,False,,5d6d6c5105e693001aa1461b,,975725,76,,evan-feature22,full_pf_a,,0
52,33683,77,,,,2,2,1.0,1.0,1.0,0.0,,0.0-79.0,,1.0,335.4,1.0,0.34677856700000004,0.0,0.69057175,1.0,0.6822438540000001,1.0,0.477292237,False,,5d6d6c5105e693001aa1461b,,985826,77,,evan-feature22,full_pf_a,,1
53,33684,78,,,,2,2,0.0,0.0,0.0,-1.0,,0.0-80.0,,0.0,391.275,1.0,0.28580469199999997,1.0,0.68408818,0.0,0.684207565,0.0,0.49780448299999996,False,,5d6d6c5105e693001aa1461b,,995982,78,,evan-feature22,full_pf_a,,0
54,33686,80,,,,1,1,0.0,1.0,0.0,-1.0,,0.0-82.0,,-1.0,842.375,0.0,0.25,1.0,0.7405808970000001,0.0,0.679614108,1.0,0.436436964,False,,5d6d6c5105e693001aa1461b,,1009903,80,,evan-feature22,full_pf_a,,1
55,33687,81,,,,2,2,1.0,1.0,0.0,-1.0,,0.0-83.0,,-1.0,540.24,0.0,0.29890393,1.0,0.730505706,1.0,0.7328203320000001,1.0,0.439256938,False,,5d6d6c5105e693001aa1461b,,1020205,81,,evan-feature22,full_pf_a,,1
56,33688,82,,,,1,1,0.0,1.0,1.0,0.0,,0.0-84.0,,0.0,393.21,0.0,0.326762398,1.0,0.7148059609999999,1.0,0.75,0.0,0.44389608799999997,False,,5d6d6c5105e693001aa1461b,,1030361,82,,evan-feature22,full_pf_a,,1
57,33689,83,,,,2,2,0.0,0.0,0.0,-1.0,,0.0-85.0,,0.0,1593.75,1.0,0.295168515,1.0,0.739760854,0.0,0.719947008,0.0,0.35277284600000003,False,,5d6d6c5105e693001aa1461b,,1041716,83,,evan-feature22,full_pf_a,,1
58,33690,84,,,,1,1,0.0,1.0,0.0,-1.0,,0.0-86.0,,-1.0,1087.675,0.0,0.25,1.0,0.70781482,1.0,0.75,0.0,0.286095925,False,,5d6d6c5105e693001aa1461b,,1052568,84,,evan-feature22,full_pf_a,,1
59,33691,85,,,,2,2,1.0,0.0,0.0,-1.0,,0.0-87.0,,0.0,351.74,1.0,0.25638190899999996,1.0,0.704088163,1.0,0.75,0.0,0.26872601399999996,False,,5d6d6c5105e693001aa1461b,,1062683,85,,evan-feature22,full_pf_a,,1
60,33692,86,,,,1,1,1.0,0.0,1.0,0.0,,0.0-88.0,,1.0,1460.545,1.0,0.271581126,0.0,0.669760107,0.0,0.733896663,0.0,0.273244572,False,,5d6d6c5105e693001aa1461b,,1073905,86,,evan-feature22,full_pf_a,,1
61,33693,87,,,,2,2,1.0,0.0,0.0,-1.0,,0.0-89.0,,0.0,1060.855,0.0,0.257144401,0.0,0.600575706,1.0,0.74488122,0.0,0.25,False,,5d6d6c5105e693001aa1461b,,1084730,87,,evan-feature22,full_pf_a,,1
62,33694,88,,,,1,1,0.0,1.0,0.0,-1.0,,0.0-90.0,,-1.0,586.555,0.0,0.25,1.0,0.616870026,1.0,0.723610234,0.0,0.25,False,,5d6d6c5105e693001aa1461b,,1095080,88,,evan-feature22,full_pf_a,,1
63,33695,89,,,,1,1,1.0,1.0,1.0,0.0,,0.0-91.0,,1.0,1403.84,1.0,0.25,1.0,0.583540187,1.0,0.7041042559999999,0.0,0.285961995,False,,5d6d6c5105e693001aa1461b,,1106252,89,,evan-feature22,full_pf_a,,0
64,33696,90,,,,1,1,1.0,0.0,1.0,0.0,,0.0-92.0,,1.0,480.01,1.0,0.27254536,0.0,0.53875765,1.0,0.693783448,1.0,0.284961652,False,,5d6d6c5105e693001aa1461b,,1116495,90,,evan-feature22,full_pf_a,,0
65,33697,91,,,,1,1,0.0,0.0,1.0,0.0,,0.0-93.0,,0.0,865.185,0.0,0.25,0.0,0.548431252,1.0,0.734221895,0.0,0.279445214,False,,5d6d6c5105e693001aa1461b,,1127124,91,,evan-feature22,full_pf_a,,0
66,33698,92,,,,2,2,1.0,0.0,0.0,-1.0,,0.0-94.0,,0.0,1370.105,1.0,0.258640684,1.0,0.545878066,1.0,0.725245965,0.0,0.31487537,False,,5d6d6c5105e693001aa1461b,,1138260,92,,evan-feature22,full_pf_a,,1
67,33699,93,,,,1,1,0.0,0.0,0.0,-1.0,,0.0-95.0,,0.0,373.675,0.0,0.251103711,0.0,0.5776290629999999,0.0,0.696320133,0.0,0.317831047,False,,5d6d6c5105e693001aa1461b,,1148396,93,,evan-feature22,full_pf_a,,1
68,33700,94,,,,2,2,1.0,1.0,0.0,-1.0,,0.0-96.0,,-1.0,606.045,1.0,0.276630292,1.0,0.617329858,1.0,0.73838088,1.0,0.261471582,False,,5d6d6c5105e693001aa1461b,,1158765,94,,evan-feature22,full_pf_a,,1
69,33701,95,,,,1,1,0.0,0.0,0.0,-1.0,,0.0-97.0,,0.0,304.655,0.0,0.297716424,0.0,0.618863717,1.0,0.7402358259999999,0.0,0.262600834,False,,5d6d6c5105e693001aa1461b,,1168830,95,,evan-feature22,full_pf_a,,1
70,33702,96,,,,2,2,0.0,0.0,1.0,0.0,,0.0-98.0,,0.0,282.145,0.0,0.290935512,1.0,0.695370945,0.0,0.706570507,0.0,0.280030553,False,,5d6d6c5105e693001aa1461b,,1178879,96,,evan-feature22,full_pf_a,,1
71,33703,97,,,,2,2,0.0,0.0,0.0,-1.0,,0.0-99.0,,0.0,305.75,0.0,0.25,1.0,0.6465277079999999,0.0,0.67766682,0.0,0.25,False,,5d6d6c5105e693001aa1461b,,1188950,97,,evan-feature22,full_pf_a,,0
72,33704,98,,,,1,1,0.0,0.0,1.0,0.0,,0.0-100.0,,0.0,454.745,0.0,0.26463816,0.0,0.636100213,1.0,0.646048507,0.0,0.265607101,False,,5d6d6c5105e693001aa1461b,,1199166,98,,evan-feature22,full_pf_a,,1
73,33705,99,,,,2,2,1.0,0.0,1.0,0.0,,0.0-101.0,,1.0,726.825,0.0,0.314340707,1.0,0.667795927,1.0,0.613630805,0.0,0.25,False,,5d6d6c5105e693001aa1461b,,1209656,99,,evan-feature22,full_pf_a,,1
74,33706,100,,,,2,2,0.0,0.0,0.0,-1.0,,0.0-102.0,,0.0,1087.025,0.0,0.28685784,1.0,0.6622549529999999,0.0,0.652154117,0.0,0.25,False,,5d6d6c5105e693001aa1461b,,1220506,100,,evan-feature22,full_pf_a,,0
75,33707,101,,,,2,2,0.0,0.0,0.0,-1.0,,0.0-103.0,,0.0,1212.99,0.0,0.304106554,0.0,0.631289538,0.0,0.707041942,0.0,0.29314237,False,,5d6d6c5105e693001aa1461b,,1231480,101,,evan-feature22,full_pf_a,,0
76,33708,102,,,,1,1,0.0,0.0,0.0,-1.0,,0.0-104.0,,0.0,450.22,0.0,0.304806932,0.0,0.571167718,0.0,0.680472346,0.0,0.25,False,,5d6d6c5105e693001aa1461b,,1241694,102,,evan-feature22,full_pf_a,,1
77,33709,103,,,,1,1,0.0,1.0,0.0,-1.0,,0.0-105.0,,-1.0,1224.685,0.0,0.37919861,1.0,0.5724849710000001,0.0,0.705638003,0.0,0.30179300600000003,False,,5d6d6c5105e693001aa1461b,,1252682,103,,evan-feature22,full_pf_a,,0
78,33710,104,,,,1,1,0.0,1.0,0.0,-1.0,,0.0-106.0,,-1.0,358.125,0.0,0.464277969,1.0,0.554034373,1.0,0.7372627340000001,0.0,0.264699741,False,,5d6d6c5105e693001aa1461b,,1262805,104,,evan-feature22,full_pf_a,,0
79,33711,105,,,,2,2,1.0,1.0,0.0,-1.0,,0.0-107.0,,-1.0,630.145,0.0,0.465104323,1.0,0.530793115,1.0,0.75,1.0,0.31683071,False,,5d6d6c5105e693001aa1461b,,1273199,105,,evan-feature22,full_pf_a,,1
80,33712,106,,,,2,2,1.0,1.0,1.0,0.0,,0.0-108.0,,1.0,449.61,0.0,0.465104323,0.0,0.530793115,1.0,0.75,1.0,0.31683071,False,,5d6d6c5105e693001aa1461b,,1283415,106,,evan-feature22,full_pf_a,,0
81,33713,107,,,,2,2,0.0,1.0,1.0,0.0,,0.0-109.0,,0.0,1274.02,1.0,0.46833986,0.0,0.570249239,0.0,0.7244472590000001,1.0,0.364114163,False,,5d6d6c5105e693001aa1461b,,1294454,107,,evan-feature22,full_pf_a,,0
82,33714,108,,,,1,1,0.0,1.0,1.0,0.0,,0.0-110.0,,0.0,1533.535,0.0,0.445444024,1.0,0.649673355,0.0,0.6845441290000001,1.0,0.300660449,False,,5d6d6c5105e693001aa1461b,,1305751,108,,evan-feature22,full_pf_a,,1
83,33715,109,,,,2,2,1.0,1.0,1.0,0.0,,0.0-111.0,,1.0,1195.58,0.0,0.39909721299999995,0.0,0.6715179509999999,1.0,0.742310028,1.0,0.35496088299999995,False,,5d6d6c5105e693001aa1461b,,1316710,109,,evan-feature22,full_pf_a,,1
84,33716,110,,,,2,2,1.0,1.0,0.0,-1.0,,0.0-112.0,,-1.0,1451.6,1.0,0.37956104799999996,0.0,0.694725302,1.0,0.7181651309999999,1.0,0.38726906299999997,False,,5d6d6c5105e693001aa1461b,,1327923,110,,evan-feature22,full_pf_a,,0
85,33717,111,,,,2,2,1.0,1.0,0.0,-1.0,,0.0-113.0,,-1.0,1530.27,0.0,0.404995034,1.0,0.724375412,1.0,0.6910946859999999,1.0,0.387187347,False,,5d6d6c5105e693001aa1461b,,1339222,111,,evan-feature22,full_pf_a,,0
86,33718,112,,,,2,2,1.0,0.0,1.0,0.0,,0.0-114.0,,1.0,367.48,1.0,0.461740803,1.0,0.75,1.0,0.75,0.0,0.34872038200000005,False,,5d6d6c5105e693001aa1461b,,1349352,112,,evan-feature22,full_pf_a,,0
87,33719,113,,,,2,2,0.0,1.0,1.0,0.0,,0.0-115.0,,0.0,885.005,1.0,0.43821380600000004,1.0,0.738833273,0.0,0.728286963,1.0,0.399538128,False,,5d6d6c5105e693001aa1461b,,1360003,113,,evan-feature22,full_pf_a,,0
88,33720,114,,,,1,1,1.0,1.0,0.0,-1.0,,0.0-116.0,,-1.0,1510.255,1.0,0.41709882,1.0,0.736666736,1.0,0.75,0.0,0.389095584,False,,5d6d6c5105e693001aa1461b,,1371278,114,,evan-feature22,full_pf_a,,1
89,33721,115,,,,1,1,0.0,0.0,0.0,-1.0,,0.0-117.0,,0.0,1313.265,0.0,0.39749009799999996,0.0,0.744320029,1.0,0.75,1.0,0.363848678,False,,5d6d6c5105e693001aa1461b,,1382355,115,,evan-feature22,full_pf_a,,0
90,33722,116,,,,1,1,1.0,1.0,1.0,0.0,,0.0-118.0,,1.0,276.465,1.0,0.392653706,1.0,0.75,1.0,0.75,0.0,0.384386976,False,,5d6d6c5105e693001aa1461b,,1392396,116,,evan-feature22,full_pf_a,,0
91,33723,117,,,,1,1,1.0,1.0,0.0,-1.0,,0.0-119.0,,-1.0,1012.53,1.0,0.31190902600000003,1.0,0.75,1.0,0.732413819,0.0,0.413082932,False,,5d6d6c5105e693001aa1461b,,1403175,117,,evan-feature22,full_pf_a,,0
92,33724,118,,,,2,2,1.0,0.0,1.0,0.0,,0.0-120.0,,1.0,1379.19,0.0,0.366917648,1.0,0.740073855,1.0,0.75,0.0,0.352861979,False,,5d6d6c5105e693001aa1461b,,1414321,118,,evan-feature22,full_pf_a,,1
93,33725,119,,,,1,1,0.0,1.0,1.0,0.0,,0.0-121.0,,0.0,1129.755,0.0,0.3645172,1.0,0.721770713,1.0,0.75,0.0,0.404074511,False,,5d6d6c5105e693001aa1461b,,1425213,119,,evan-feature22,full_pf_a,,1
94,33726,120,,,,2,2,1.0,0.0,1.0,0.0,,0.0-122.0,,1.0,268.965,1.0,0.35205600299999995,1.0,0.68983859,1.0,0.739735447,0.0,0.366895945,False,,5d6d6c5105e693001aa1461b,,1435244,120,,evan-feature22,full_pf_a,,1
95,33727,121,,,,2,2,1.0,0.0,1.0,0.0,,0.0-123.0,,1.0,348.69,0.0,0.40998722600000004,1.0,0.720859127,1.0,0.673854955,0.0,0.368528541,False,,5d6d6c5105e693001aa1461b,,1445354,121,,evan-feature22,full_pf_a,,0
96,33728,122,,,,2,2,0.0,0.0,1.0,0.0,,0.0-124.0,,0.0,328.51,0.0,0.353625316,0.0,0.75,0.0,0.695605473,0.0,0.38303674200000004,False,,5d6d6c5105e693001aa1461b,,1455446,122,,evan-feature22,full_pf_a,,0
97,33729,123,,,,2,2,0.0,1.0,1.0,0.0,,0.0-125.0,,0.0,264.32,0.0,0.359216989,0.0,0.75,0.0,0.6987915090000001,1.0,0.35169046200000004,False,,5d6d6c5105e693001aa1461b,,1465473,123,,evan-feature22,full_pf_a,,0
98,33730,124,,,,1,1,1.0,0.0,1.0,0.0,,0.0-126.0,,1.0,379.965,1.0,0.35834496899999996,0.0,0.75,1.0,0.707067742,1.0,0.416763636,False,,5d6d6c5105e693001aa1461b,,1475620,124,,evan-feature22,full_pf_a,,1
99,33731,125,,,,1,1,0.0,1.0,0.0,-1.0,,0.0-127.0,,-1.0,463.4,0.0,0.38741613799999997,1.0,0.7177369570000001,0.0,0.734902455,0.0,0.49438664299999996,False,,5d6d6c5105e693001aa1461b,,1485846,125,,evan-feature22,full_pf_a,,0
100,33732,126,,,,2,2,1.0,0.0,1.0,0.0,,0.0-128.0,,1.0,331.34,0.0,0.405255252,1.0,0.7300466640000001,1.0,0.7027748070000001,0.0,0.504359668,False,,5d6d6c5105e693001aa1461b,,1495942,126,,evan-feature22,full_pf_a,,1
101,33733,127,,,,2,2,0.0,0.0,1.0,0.0,,0.0-129.0,,0.0,466.12,1.0,0.40697073,0.0,0.7260142190000001,0.0,0.724461982,0.0,0.522779179,False,,5d6d6c5105e693001aa1461b,,1506175,127,,evan-feature22,full_pf_a,,0
102,33734,128,,,,1,1,1.0,1.0,1.0,0.0,,0.0-130.0,,1.0,222.375,1.0,0.43906215299999996,1.0,0.7252802340000001,1.0,0.719079934,0.0,0.5712990579999999,False,,5d6d6c5105e693001aa1461b,,1516162,128,,evan-feature22,full_pf_a,,1
103,33735,129,,,,1,1,1.0,1.0,0.0,-1.0,,0.0-131.0,,-1.0,244.34,1.0,0.4076705,1.0,0.73280499,1.0,0.681313127,0.0,0.523891346,False,,5d6d6c5105e693001aa1461b,,1526170,129,,evan-feature22,full_pf_a,,0
104,33736,130,,,,2,2,1.0,0.0,0.0,-1.0,,0.0-132.0,,0.0,277.775,0.0,0.399102911,1.0,0.730498344,1.0,0.661080239,0.0,0.46742603,False,,5d6d6c5105e693001aa1461b,,1536211,130,,evan-feature22,full_pf_a,,1
105,33737,131,,,,1,1,1.0,1.0,0.0,-1.0,,0.0-133.0,,-1.0,655.035,1.0,0.356477282,1.0,0.712296395,1.0,0.641812684,0.0,0.44868414,False,,5d6d6c5105e693001aa1461b,,1546629,131,,evan-feature22,full_pf_a,,1
106,33738,132,,,,2,2,0.0,0.0,1.0,0.0,,0.0-134.0,,0.0,540.305,0.0,0.462760722,1.0,0.692349322,0.0,0.700947931,0.0,0.394680266,False,,5d6d6c5105e693001aa1461b,,1556933,132,,evan-feature22,full_pf_a,,1
107,33739,133,,,,2,2,0.0,1.0,1.0,0.0,,0.0-135.0,,0.0,250.535,0.0,0.422306413,1.0,0.718375916,0.0,0.706340917,1.0,0.367787185,False,,5d6d6c5105e693001aa1461b,,1566947,133,,evan-feature22,full_pf_a,,0
108,33741,135,,,,1,1,0.0,1.0,1.0,0.0,,0.0-137.0,,0.0,995.81,0.0,0.4582233,1.0,0.643834117,1.0,0.75,0.0,0.39615823299999997,False,,5d6d6c5105e693001aa1461b,,1582028,135,,evan-feature22,full_pf_a,,1
109,33742,136,,,,2,2,1.0,0.0,1.0,0.0,,0.0-138.0,,1.0,403.825,0.0,0.43813437899999996,1.0,0.651283804,1.0,0.729674191,0.0,0.37711048,False,,5d6d6c5105e693001aa1461b,,1592197,136,,evan-feature22,full_pf_a,,1
110,33743,137,,,,2,2,0.0,0.0,1.0,0.0,,0.0-139.0,,0.0,364.725,1.0,0.471199094,0.0,0.6470010979999999,0.0,0.715008097,0.0,0.410656191,False,,5d6d6c5105e693001aa1461b,,1602325,137,,evan-feature22,full_pf_a,,0
111,33744,138,,,,1,1,0.0,1.0,1.0,0.0,,0.0-140.0,,0.0,322.16,0.0,0.42486406,1.0,0.629771829,1.0,0.6550939960000001,1.0,0.459093873,False,,5d6d6c5105e693001aa1461b,,1612411,138,,evan-feature22,full_pf_a,,1
112,33745,139,,,,2,2,0.0,1.0,1.0,0.0,,0.0-141.0,,0.0,454.19,1.0,0.4803197,0.0,0.645842715,0.0,0.6421749920000001,1.0,0.443092151,False,,5d6d6c5105e693001aa1461b,,1622629,139,,evan-feature22,full_pf_a,,1
113,33746,140,,,,2,2,1.0,0.0,0.0,-1.0,,0.0-142.0,,0.0,386.585,1.0,0.521848997,0.0,0.735801074,1.0,0.6691348460000001,0.0,0.45259351600000003,False,,5d6d6c5105e693001aa1461b,,1632781,140,,evan-feature22,full_pf_a,,0
114,33747,141,,,,2,2,1.0,1.0,1.0,0.0,,0.0-143.0,,1.0,306.3,1.0,0.49565621299999996,1.0,0.742400847,1.0,0.661512553,1.0,0.483110831,False,,5d6d6c5105e693001aa1461b,,1642853,141,,evan-feature22,full_pf_a,,0
115,33748,142,,,,2,2,1.0,0.0,1.0,0.0,,0.0-144.0,,1.0,987.505,1.0,0.521564361,1.0,0.731078632,1.0,0.6774886809999999,0.0,0.483263956,False,,5d6d6c5105e693001aa1461b,,1653603,142,,evan-feature22,full_pf_a,,0
116,33749,143,,,,2,2,1.0,1.0,1.0,0.0,,0.0-145.0,,1.0,353.97,1.0,0.558893102,1.0,0.719810023,1.0,0.67461031,1.0,0.499349834,False,,5d6d6c5105e693001aa1461b,,1663723,143,,evan-feature22,full_pf_a,,0
117,33750,144,,,,2,2,1.0,1.0,1.0,0.0,,0.0-146.0,,1.0,439.585,1.0,0.611031046,1.0,0.75,1.0,0.688072995,1.0,0.5321422729999999,False,,5d6d6c5105e693001aa1461b,,1673928,144,,evan-feature22,full_pf_a,,0
118,33751,145,,,,2,2,1.0,1.0,0.0,-1.0,,0.0-147.0,,-1.0,793.92,1.0,0.633223941,1.0,0.713567728,1.0,0.75,1.0,0.48185314700000004,False,,5d6d6c5105e693001aa1461b,,1684485,145,,evan-feature22,full_pf_a,,0
119,33752,146,,,,2,2,1.0,0.0,1.0,0.0,,0.0-148.0,,1.0,180.805,1.0,0.664001694,0.0,0.705509768,1.0,0.75,0.0,0.500211065,False,,5d6d6c5105e693001aa1461b,,1694429,146,,evan-feature22,full_pf_a,,0
120,33753,147,,,,2,2,0.0,0.0,1.0,0.0,,0.0-149.0,,0.0,303.58,0.0,0.664001694,1.0,0.705509768,0.0,0.75,0.0,0.500211065,False,,5d6d6c5105e693001aa1461b,,1704496,147,,evan-feature22,full_pf_a,,0
121,33754,148,,,,2,2,1.0,1.0,1.0,0.0,,0.0-150.0,,1.0,187.315,0.0,0.696508041,1.0,0.71066027,1.0,0.717028709,1.0,0.49792991,False,,5d6d6c5105e693001aa1461b,,1714459,148,,evan-feature22,full_pf_a,,0
122,33755,149,,,,2,2,0.0,0.0,0.0,-1.0,,0.0-151.0,,0.0,328.35,0.0,0.699883272,1.0,0.75,0.0,0.713543895,0.0,0.496962643,False,,5d6d6c5105e693001aa1461b,,1724551,149,,evan-feature22,full_pf_a,,0
123,33756,150,,,,1,1,1.0,1.0,0.0,-1.0,,0.0-152.0,,-1.0,793.975,1.0,0.741163419,1.0,0.75,1.0,0.64691024,1.0,0.513858197,False,,5d6d6c5105e693001aa1461b,,1735110,150,,evan-feature22,full_pf_a,,1
124,33757,151,,,,2,2,1.0,1.0,0.0,-1.0,,0.0-153.0,,-1.0,550.41,1.0,0.75,1.0,0.70816558,1.0,0.594499079,1.0,0.48502124,False,,5d6d6c5105e693001aa1461b,,1745426,151,,evan-feature22,full_pf_a,,1
125,33758,152,,,,2,2,0.0,1.0,1.0,0.0,,0.0-154.0,,0.0,869.005,1.0,0.75,0.0,0.721848901,0.0,0.62197249,1.0,0.48263586399999997,False,,5d6d6c5105e693001aa1461b,,1756058,152,,evan-feature22,full_pf_a,,0
126,33759,153,,,,2,2,1.0,0.0,1.0,0.0,,0.0-155.0,,1.0,793.11,1.0,0.75,1.0,0.74813071,1.0,0.584357161,0.0,0.411477782,False,,5d6d6c5105e693001aa1461b,,1766615,153,,evan-feature22,full_pf_a,,0
127,33760,154,,,,2,2,0.0,1.0,1.0,0.0,,0.0-156.0,,0.0,352.2,0.0,0.75,1.0,0.75,0.0,0.52287236,1.0,0.488290656,False,,5d6d6c5105e693001aa1461b,,1776732,154,,evan-feature22,full_pf_a,,0
128,33761,155,,,,SLOW,SLOW,,,1.0,0.0,,0.0-157.0,,-3.0,,1.0,0.75,1.0,0.75,0.0,0.544321581,1.0,0.53143059,False,,5d6d6c5105e693001aa1461b,,1782537,155,,evan-feature22,full_pf_a,,1
129,33762,156,,,,2,2,0.0,1.0,1.0,0.0,,0.0-158.0,,0.0,322.465,1.0,0.726754564,0.0,0.75,0.0,0.5129306370000001,1.0,0.530592445,False,,5d6d6c5105e693001aa1461b,,1792623,156,,evan-feature22,full_pf_a,,1
130,33763,157,,,,1,1,0.0,1.0,0.0,-1.0,,0.0-159.0,,-1.0,290.755,0.0,0.75,1.0,0.7392590729999999,1.0,0.479875835,1.0,0.547007051,False,,5d6d6c5105e693001aa1461b,,1802679,157,,evan-feature22,full_pf_a,,1
131,33764,158,,,,2,2,1.0,1.0,0.0,-1.0,,0.0-160.0,,-1.0,679.42,1.0,0.75,1.0,0.7393376979999999,1.0,0.546045419,1.0,0.541267353,False,,5d6d6c5105e693001aa1461b,,1813127,158,,evan-feature22,full_pf_a,,1
132,33765,159,,,,2,2,0.0,0.0,1.0,0.0,,0.0-161.0,,0.0,253.93,1.0,0.75,1.0,0.75,0.0,0.485725895,0.0,0.527625395,False,,5d6d6c5105e693001aa1461b,,1823145,159,,evan-feature22,full_pf_a,,0
133,33766,160,,,,2,2,1.0,1.0,0.0,-1.0,,0.0-162.0,,-1.0,261.515,1.0,0.75,1.0,0.725087974,1.0,0.488603595,1.0,0.504019206,False,,5d6d6c5105e693001aa1461b,,1833167,160,,evan-feature22,full_pf_a,,0
134,33767,161,,,,2,2,0.0,1.0,1.0,0.0,,0.0-163.0,,0.0,286.97,1.0,0.745504295,0.0,0.75,0.0,0.452379914,1.0,0.50131194,False,,5d6d6c5105e693001aa1461b,,1843218,161,,evan-feature22,full_pf_a,,0
135,33768,162,,,,2,2,1.0,1.0,0.0,-1.0,,0.0-164.0,,-1.0,265.505,1.0,0.728513874,0.0,0.75,1.0,0.44125567200000004,1.0,0.531454591,False,,5d6d6c5105e693001aa1461b,,1853245,162,,evan-feature22,full_pf_a,,0
136,33769,163,,,,1,1,0.0,1.0,1.0,0.0,,0.0-165.0,,0.0,342.085,0.0,0.73790804,1.0,0.75,0.0,0.413036656,1.0,0.524619035,False,,5d6d6c5105e693001aa1461b,,1863356,163,,evan-feature22,full_pf_a,,1
137,33770,164,,,,2,2,0.0,1.0,1.0,0.0,,0.0-166.0,,0.0,447.545,1.0,0.7080961309999999,1.0,0.708666865,0.0,0.431915581,1.0,0.481819489,False,,5d6d6c5105e693001aa1461b,,1873565,164,,evan-feature22,full_pf_a,,1
138,33771,165,,,,2,2,1.0,0.0,1.0,0.0,,0.0-167.0,,1.0,256.355,1.0,0.721378003,1.0,0.71605913,1.0,0.36642387,0.0,0.5036739929999999,False,,5d6d6c5105e693001aa1461b,,1883589,165,,evan-feature22,full_pf_a,,0
139,33772,166,,,,2,2,0.0,1.0,0.0,-1.0,,0.0-168.0,,-1.0,484.17,0.0,0.7340618959999999,1.0,0.699323252,0.0,0.35298046299999997,1.0,0.511241692,False,,5d6d6c5105e693001aa1461b,,1893835,166,,evan-feature22,full_pf_a,,0
140,33773,167,,,,1,1,1.0,0.0,0.0,-1.0,,0.0-169.0,,0.0,489.795,1.0,0.75,0.0,0.70412698,0.0,0.380734814,1.0,0.529580116,False,,5d6d6c5105e693001aa1461b,,1904089,167,,evan-feature22,full_pf_a,,1
141,33774,168,,,,2,2,1.0,1.0,0.0,-1.0,,0.0-170.0,,-1.0,549.385,0.0,0.7436654909999999,1.0,0.711182751,1.0,0.41125331,1.0,0.49554405,False,,5d6d6c5105e693001aa1461b,,1914408,168,,evan-feature22,full_pf_a,,1
142,33775,169,,,,2,2,0.0,0.0,1.0,0.0,,0.0-171.0,,0.0,336.89,1.0,0.731607915,1.0,0.651774583,0.0,0.35688023,0.0,0.45194491600000003,False,,5d6d6c5105e693001aa1461b,,1924507,169,,evan-feature22,full_pf_a,,0
143,33776,170,,,,2,2,0.0,1.0,0.0,-1.0,,0.0-172.0,,-1.0,681.645,1.0,0.75,1.0,0.75,0.0,0.283145374,1.0,0.528608005,False,,5d6d6c5105e693001aa1461b,,1934953,170,,evan-feature22,full_pf_a,,0
144,33777,171,,,,1,1,0.0,1.0,1.0,0.0,,0.0-173.0,,0.0,245.935,0.0,0.7491416890000001,1.0,0.7423785959999999,0.0,0.29135870399999997,0.0,0.498888318,False,,5d6d6c5105e693001aa1461b,,1944965,171,,evan-feature22,full_pf_a,,1
145,33778,172,,,,2,2,0.0,0.0,0.0,-1.0,,0.0-174.0,,0.0,862.365,1.0,0.708569387,1.0,0.717682277,0.0,0.294421699,0.0,0.493838163,False,,5d6d6c5105e693001aa1461b,,1955592,172,,evan-feature22,full_pf_a,,1
146,33779,173,,,,1,1,1.0,1.0,1.0,0.0,,0.0-175.0,,1.0,268.25,1.0,0.75,1.0,0.7383382159999999,0.0,0.356098707,1.0,0.442533405,False,,5d6d6c5105e693001aa1461b,,1965624,173,,evan-feature22,full_pf_a,,1
147,33780,174,,,,2,2,0.0,0.0,1.0,0.0,,0.0-176.0,,0.0,315.465,1.0,0.744527075,1.0,0.75,0.0,0.334127506,0.0,0.393165805,False,,5d6d6c5105e693001aa1461b,,1975703,174,,evan-feature22,full_pf_a,,1
148,33781,175,,,,2,2,1.0,0.0,1.0,0.0,,0.0-177.0,,1.0,365.875,1.0,0.75,0.0,0.75,1.0,0.33571021799999995,0.0,0.350393962,False,,5d6d6c5105e693001aa1461b,,1985832,175,,evan-feature22,full_pf_a,,0
149,33782,176,,,,2,2,0.0,1.0,0.0,-1.0,,0.0-178.0,,-1.0,791.065,1.0,0.75,0.0,0.75,0.0,0.313628297,1.0,0.36349657399999996,False,,5d6d6c5105e693001aa1461b,,1996386,176,,evan-feature22,full_pf_a,,0
150,33783,177,,,,1,1,0.0,1.0,1.0,0.0,,0.0-179.0,,0.0,811.08,0.0,0.75,1.0,0.734284182,0.0,0.262667667,1.0,0.380199119,False,,5d6d6c5105e693001aa1461b,,2006964,177,,evan-feature22,full_pf_a,,1
151,33784,178,,,,2,2,0.0,1.0,1.0,0.0,,0.0-180.0,,0.0,248.865,1.0,0.75,0.0,0.75,0.0,0.25,1.0,0.394494013,False,,5d6d6c5105e693001aa1461b,,2016980,178,,evan-feature22,full_pf_a,,1
152,33785,179,,,,2,2,0.0,0.0,1.0,0.0,,0.0-181.0,,0.0,890.885,0.0,0.722298145,0.0,0.7357822340000001,0.0,0.25,0.0,0.319142121,False,,5d6d6c5105e693001aa1461b,,2027633,179,,evan-feature22,full_pf_a,,0
153,33786,180,,,,1,1,1.0,1.0,1.0,0.0,,0.0-182.0,,1.0,532.17,1.0,0.73149275,1.0,0.724276446,0.0,0.305856907,0.0,0.281315057,False,,5d6d6c5105e693001aa1461b,,2037930,180,,evan-feature22,full_pf_a,,1
154,33787,181,,,,2,2,1.0,0.0,1.0,0.0,,0.0-183.0,,1.0,457.71,0.0,0.7458732690000001,1.0,0.7336382459999999,1.0,0.272571964,0.0,0.266021999,False,,5d6d6c5105e693001aa1461b,,2048152,181,,evan-feature22,full_pf_a,,1
155,33788,182,,,,2,2,0.0,0.0,0.0,-1.0,,0.0-184.0,,0.0,592.315,0.0,0.705579037,0.0,0.720778292,0.0,0.320238144,0.0,0.30971744,False,,5d6d6c5105e693001aa1461b,,2058506,182,,evan-feature22,full_pf_a,,0
156,33789,183,,,,2,2,1.0,1.0,0.0,-1.0,,0.0-185.0,,-1.0,226.12,0.0,0.700425648,0.0,0.7198784009999999,1.0,0.272590393,1.0,0.304182931,False,,5d6d6c5105e693001aa1461b,,2068498,183,,evan-feature22,full_pf_a,,0
157,33790,184,,,,1,1,1.0,0.0,0.0,-1.0,,0.0-186.0,,0.0,494.815,1.0,0.735590785,0.0,0.722714973,0.0,0.25,1.0,0.323421091,False,,5d6d6c5105e693001aa1461b,,2078756,184,,evan-feature22,full_pf_a,,1
158,33791,185,,,,2,2,1.0,1.0,0.0,-1.0,,0.0-187.0,,-1.0,405.425,1.0,0.724807662,1.0,0.63146213,1.0,0.36836492600000004,1.0,0.34592153299999995,False,,5d6d6c5105e693001aa1461b,,2088927,185,,evan-feature22,full_pf_a,,1
159,33792,186,,,,2,2,1.0,1.0,1.0,0.0,,0.0-188.0,,1.0,264.35,0.0,0.7352796909999999,0.0,0.555111392,1.0,0.36003922,1.0,0.31433779999999995,False,,5d6d6c5105e693001aa1461b,,2098957,186,,evan-feature22,full_pf_a,,0
160,33793,187,notice,,,,,,,,,,0.0-189.0,"{""Q0"":""Felt like left door gave better rewards in first half""}",,14174.0,,,,,,,,,False,,5d6d6c5105e693001aa1461b,,2113134,187,Q,survey-text,full_pf_a,,1
161,33794,188,track1,,[1],,,,,,,,0.0-190.0,"{""Q0"":""no""}",,2550.0,,,,,,,,,False,,5d6d6c5105e693001aa1461b,,2115694,188,Q,evan-quiz,full_pf_a,,1
162,33795,189,track2,,[0],,,,,,,,0.0-191.0,"{""Q0"":""yes""}",,2757.0,,,,,,,,,False,,5d6d6c5105e693001aa1461b,,2118456,189,Q,evan-quiz,full_pf_a,,1
163,33796,190,strat,,,,,,,,,,0.0-192.0,"{""Q0"":""Tried to spot patterns in where the aliens appeared""}",,16814.0,,,,,,,,,False,,5d6d6c5105e693001aa1461b,,2135277,190,Q,survey-text,full_pf_a,,1
