,index,Unnamed: 0,Q_name,button_pressed,choice_idxs,chosen_pos,chosen_state,chosen_state_f_1_outcome,chosen_state_f_2_outcome,f_1_reward,f_2_reward,incor_questions,internal_node_id,responses,reward_received,rt,s_1_f_1_outcome,s_1_f_1_prob,s_1_f_2_outcome,s_1_f_2_prob,s_2_f_1_outcome,s_2_f_1_prob,s_2_f_2_outcome,s_2_f_2_prob,safe_first,stimulus,subjectID,success,time_elapsed,trial_index,trial_num,trial_type,version,view_history,switching
0,5129,25,,,,2,2,0.0,0.0,1.0,0.0,,0.0-27.0,,0.0,975.9800001,0.0,0.6,1.0,0.6,0.0,0.4,0.0,0.4,True,,5d21228723c079001923a6ba,,542361,25,,evan-feature22,full_rf_a,,0
1,5130,26,,,,2,2,1.0,0.0,1.0,0.0,,0.0-28.0,,1.0,923.8200001,1.0,0.608053294,1.0,0.63424552,1.0,0.397152172,0.0,0.347069101,True,,5d21228723c079001923a6ba,,553123,26,,evan-feature22,full_rf_a,,0
2,5131,27,,,,2,2,0.0,0.0,1.0,0.0,,0.0-29.0,,0.0,491.69999989999997,0.0,0.642237155,1.0,0.648566321,0.0,0.389407674,0.0,0.285525717,True,,5d21228723c079001923a6ba,,563490,27,,evan-feature22,full_rf_a,,0
3,5132,28,,,,2,2,0.0,0.0,1.0,0.0,,0.0-30.0,,0.0,434.41,1.0,0.661086576,1.0,0.630492543,0.0,0.399058924,0.0,0.25,True,,5d21228723c079001923a6ba,,573772,28,,evan-feature22,full_rf_a,,0
4,5133,29,,,,1,1,1.0,0.0,0.0,-1.0,,0.0-31.0,,0.0,762.0249997999999,1.0,0.631324137,0.0,0.6269842929999999,0.0,0.38734784299999997,0.0,0.25,True,,5d21228723c079001923a6ba,,584336,29,,evan-feature22,full_rf_a,,1
5,5134,30,,,,1,1,0.0,1.0,0.0,-1.0,,0.0-32.0,,-1.0,928.4649999,0.0,0.6381991370000001,1.0,0.68987999,1.0,0.384107265,0.0,0.271332943,True,,5d21228723c079001923a6ba,,595113,30,,evan-feature22,full_rf_a,,0
6,5135,31,,,,2,2,0.0,0.0,1.0,0.0,,0.0-33.0,,0.0,953.345,1.0,0.66034901,1.0,0.742641349,0.0,0.360225629,0.0,0.25,True,,5d21228723c079001923a6ba,,605870,31,,evan-feature22,full_rf_a,,1
7,5136,32,,,,2,2,0.0,0.0,1.0,0.0,,0.0-34.0,,0.0,525.5900002000001,1.0,0.638612418,1.0,0.75,0.0,0.367273939,0.0,0.25,True,,5d21228723c079001923a6ba,,616213,32,,evan-feature22,full_rf_a,,0
8,5137,33,,,,2,2,1.0,1.0,0.0,-1.0,,0.0-35.0,,-1.0,1011.205,1.0,0.624340629,1.0,0.75,1.0,0.425829545,1.0,0.25,True,,5d21228723c079001923a6ba,,627024,33,,evan-feature22,full_rf_a,,0
9,5138,34,,,,1,1,1.0,1.0,0.0,-1.0,,0.0-36.0,,-1.0,536.9900002,1.0,0.621999804,1.0,0.75,1.0,0.368609357,0.0,0.25,True,,5d21228723c079001923a6ba,,637411,34,,evan-feature22,full_rf_a,,1
10,5139,35,,,,2,2,1.0,0.0,1.0,0.0,,0.0-37.0,,1.0,664.05,0.0,0.62666403,1.0,0.75,1.0,0.311151498,0.0,0.25,True,,5d21228723c079001923a6ba,,647895,35,,evan-feature22,full_rf_a,,1
11,5140,36,,,,2,2,0.0,0.0,0.0,-1.0,,0.0-38.0,,0.0,622.55,1.0,0.6819650009999999,1.0,0.75,0.0,0.310763048,0.0,0.25,True,,5d21228723c079001923a6ba,,658325,36,,evan-feature22,full_rf_a,,0
12,5141,37,,,,2,2,1.0,0.0,1.0,0.0,,0.0-39.0,,1.0,309.445,1.0,0.740626951,1.0,0.75,1.0,0.25,0.0,0.25,True,,5d21228723c079001923a6ba,,668426,37,,evan-feature22,full_rf_a,,0
13,5142,38,,,,2,2,0.0,1.0,1.0,0.0,,0.0-40.0,,0.0,757.2049999,0.0,0.739599242,0.0,0.742034978,0.0,0.25397114600000004,1.0,0.25,True,,5d21228723c079001923a6ba,,679003,38,,evan-feature22,full_rf_a,,0
14,5143,39,,,,2,2,0.0,0.0,1.0,0.0,,0.0-41.0,,0.0,997.9350001,1.0,0.732341315,1.0,0.72735643,0.0,0.25,0.0,0.25,True,,5d21228723c079001923a6ba,,689825,39,,evan-feature22,full_rf_a,,0
15,5144,40,,,,1,1,1.0,1.0,1.0,0.0,,0.0-42.0,,1.0,632.8399999,1.0,0.7062287770000001,1.0,0.75,0.0,0.29002151,0.0,0.288256649,True,,5d21228723c079001923a6ba,,700306,40,,evan-feature22,full_rf_a,,1
16,5145,41,,,,2,2,1.0,0.0,1.0,0.0,,0.0-43.0,,1.0,676.9050001,0.0,0.7086029209999999,0.0,0.75,1.0,0.274129113,0.0,0.262851608,True,,5d21228723c079001923a6ba,,710814,41,,evan-feature22,full_rf_a,,1
17,5146,42,,,,2,2,1.0,1.0,1.0,0.0,,0.0-44.0,,1.0,373.39499989999996,1.0,0.669189651,1.0,0.727614338,1.0,0.298444036,1.0,0.296944518,True,,5d21228723c079001923a6ba,,721001,42,,evan-feature22,full_rf_a,,0
18,5147,43,,,,2,2,0.0,0.0,1.0,0.0,,0.0-45.0,,0.0,365.035,1.0,0.6819912929999999,1.0,0.7179434290000001,0.0,0.265003961,0.0,0.28157921199999997,True,,5d21228723c079001923a6ba,,731198,43,,evan-feature22,full_rf_a,,0
19,5148,44,,,,1,1,1.0,0.0,0.0,-1.0,,0.0-46.0,,0.0,1590.08,1.0,0.665275002,0.0,0.723065271,0.0,0.260414971,0.0,0.30973870000000003,True,,5d21228723c079001923a6ba,,742626,44,,evan-feature22,full_rf_a,,1
20,5149,45,,,,1,1,1.0,1.0,1.0,0.0,,0.0-47.0,,1.0,833.6,1.0,0.6660593260000001,1.0,0.728032907,1.0,0.30922817,0.0,0.338778608,True,,5d21228723c079001923a6ba,,753287,45,,evan-feature22,full_rf_a,,0
21,5150,46,,,,1,1,1.0,1.0,1.0,0.0,,0.0-48.0,,1.0,1593.45,1.0,0.702068785,1.0,0.6528750879999999,0.0,0.287329608,0.0,0.35789613200000003,True,,5d21228723c079001923a6ba,,764712,46,,evan-feature22,full_rf_a,,0
22,5151,47,,,,1,1,1.0,1.0,1.0,0.0,,0.0-49.0,,1.0,763.5250001,1.0,0.651939787,1.0,0.636725589,0.0,0.284834488,1.0,0.358563756,True,,5d21228723c079001923a6ba,,775323,47,,evan-feature22,full_rf_a,,0
23,5152,48,,,,2,2,1.0,0.0,0.0,-1.0,,0.0-50.0,,0.0,790.09,1.0,0.67573929,1.0,0.612550049,1.0,0.37130387600000003,0.0,0.383542402,True,,5d21228723c079001923a6ba,,785946,48,,evan-feature22,full_rf_a,,1
24,5153,49,,,,2,2,1.0,0.0,0.0,-1.0,,0.0-51.0,,0.0,681.445,1.0,0.620753801,1.0,0.60513644,1.0,0.385529434,0.0,0.340361743,True,,5d21228723c079001923a6ba,,796471,49,,evan-feature22,full_rf_a,,0
25,5154,50,,,,2,2,0.0,0.0,0.0,-1.0,,0.0-52.0,,0.0,1375.43,1.0,0.673564893,1.0,0.672437924,0.0,0.292955382,0.0,0.337633795,True,,5d21228723c079001923a6ba,,807667,50,,evan-feature22,full_rf_a,,0
26,5155,51,,,,1,1,1.0,1.0,1.0,0.0,,0.0-53.0,,1.0,479.57,1.0,0.6749427,1.0,0.724197502,0.0,0.32391132100000003,1.0,0.350995264,True,,5d21228723c079001923a6ba,,817964,51,,evan-feature22,full_rf_a,,1
27,5156,52,,,,1,1,0.0,1.0,1.0,0.0,,0.0-54.0,,0.0,410.745,0.0,0.6940159379999999,1.0,0.75,0.0,0.31710554399999996,0.0,0.413450341,True,,5d21228723c079001923a6ba,,828167,52,,evan-feature22,full_rf_a,,0
28,5157,53,,,,1,1,1.0,0.0,1.0,0.0,,0.0-55.0,,1.0,470.7850001,1.0,0.6916018270000001,0.0,0.69001187,1.0,0.261817804,1.0,0.40038635,True,,5d21228723c079001923a6ba,,838455,53,,evan-feature22,full_rf_a,,0
29,5158,54,,,,1,1,0.0,1.0,1.0,0.0,,0.0-56.0,,0.0,501.30000010000003,0.0,0.641061544,1.0,0.71337992,1.0,0.277296461,1.0,0.47372791700000005,True,,5d21228723c079001923a6ba,,848774,54,,evan-feature22,full_rf_a,,0
30,5159,55,,,,2,2,0.0,1.0,1.0,0.0,,0.0-57.0,,0.0,1752.45,1.0,0.6082438520000001,0.0,0.708471106,0.0,0.28745137,1.0,0.564174476,True,,5d21228723c079001923a6ba,,860334,55,,evan-feature22,full_rf_a,,1
31,5160,56,,,,1,1,0.0,1.0,1.0,0.0,,0.0-58.0,,0.0,471.8800001,0.0,0.6051112120000001,1.0,0.7118147229999999,0.0,0.272390611,0.0,0.5595149939999999,True,,5d21228723c079001923a6ba,,870672,56,,evan-feature22,full_rf_a,,1
32,5161,57,,,,1,1,0.0,1.0,1.0,0.0,,0.0-59.0,,0.0,876.92,0.0,0.582420852,1.0,0.635867583,1.0,0.31089574,1.0,0.5227206520000001,True,,5d21228723c079001923a6ba,,881348,57,,evan-feature22,full_rf_a,,0
33,5162,58,,,,2,2,0.0,1.0,0.0,-1.0,,0.0-60.0,,-1.0,1465.85,0.0,0.623195575,1.0,0.655026044,0.0,0.25,1.0,0.560387538,True,,5d21228723c079001923a6ba,,892642,58,,evan-feature22,full_rf_a,,1
34,5163,59,,,,2,2,1.0,0.0,1.0,0.0,,0.0-61.0,,1.0,590.145,1.0,0.601889598,1.0,0.678198724,1.0,0.25,0.0,0.559922936,True,,5d21228723c079001923a6ba,,903105,59,,evan-feature22,full_rf_a,,0
35,5164,60,,,,2,2,1.0,1.0,1.0,0.0,,0.0-62.0,,1.0,1484.155,1.0,0.601259914,0.0,0.704681482,1.0,0.33908969299999997,1.0,0.505003715,True,,5d21228723c079001923a6ba,,914438,60,,evan-feature22,full_rf_a,,0
36,5165,61,,,,2,2,0.0,1.0,1.0,0.0,,0.0-63.0,,0.0,486.885,1.0,0.59645454,1.0,0.710437172,0.0,0.327441879,1.0,0.391749613,True,,5d21228723c079001923a6ba,,924724,61,,evan-feature22,full_rf_a,,0
37,5166,62,,,,1,1,0.0,1.0,1.0,0.0,,0.0-64.0,,0.0,424.4849999,0.0,0.529473,1.0,0.636758527,0.0,0.301338063,0.0,0.365661481,True,,5d21228723c079001923a6ba,,934991,62,,evan-feature22,full_rf_a,,1
38,5167,63,,,,2,2,0.0,0.0,0.0,-1.0,,0.0-65.0,,0.0,1890.525,1.0,0.541657162,1.0,0.634541962,0.0,0.343535366,0.0,0.371763742,True,,5d21228723c079001923a6ba,,946731,63,,evan-feature22,full_rf_a,,1
39,5168,64,,,,2,2,1.0,0.0,1.0,0.0,,0.0-66.0,,1.0,1285.975,1.0,0.5707533260000001,1.0,0.589121171,1.0,0.326428396,0.0,0.43961622899999997,True,,5d21228723c079001923a6ba,,957832,64,,evan-feature22,full_rf_a,,0
40,5169,65,,,,1,1,1.0,1.0,1.0,0.0,,0.0-67.0,,1.0,1167.29,1.0,0.5707533260000001,1.0,0.589121171,1.0,0.326428396,1.0,0.43961622899999997,True,,5d21228723c079001923a6ba,,968819,65,,evan-feature22,full_rf_a,,1
41,5170,66,,,,1,1,0.0,0.0,1.0,0.0,,0.0-68.0,,0.0,1114.855,0.0,0.506271295,0.0,0.641775594,1.0,0.37149690700000004,1.0,0.404330166,True,,5d21228723c079001923a6ba,,979719,66,,evan-feature22,full_rf_a,,0
42,5171,67,,,,1,1,0.0,1.0,0.0,-1.0,,0.0-69.0,,-1.0,2121.8,0.0,0.455642565,1.0,0.623605825,1.0,0.358753011,0.0,0.346174041,True,,5d21228723c079001923a6ba,,991648,67,,evan-feature22,full_rf_a,,0
43,5172,68,,,,2,2,0.0,0.0,0.0,-1.0,,0.0-70.0,,0.0,374.2799999,1.0,0.483677308,1.0,0.5904681070000001,0.0,0.402218411,0.0,0.35344697,True,,5d21228723c079001923a6ba,,1001860,68,,evan-feature22,full_rf_a,,1
44,5173,69,,,,2,2,1.0,0.0,0.0,-1.0,,0.0-71.0,,0.0,1270.255,0.0,0.394210977,0.0,0.558925494,1.0,0.540052017,0.0,0.35182128700000004,True,,5d21228723c079001923a6ba,,1012951,69,,evan-feature22,full_rf_a,,0
45,5174,70,,,,2,2,0.0,1.0,1.0,0.0,,0.0-72.0,,0.0,957.3850001000001,1.0,0.382300414,1.0,0.577670603,0.0,0.607608448,1.0,0.378261578,True,,5d21228723c079001923a6ba,,1023753,70,,evan-feature22,full_rf_a,,0
46,5175,71,,,,1,1,0.0,1.0,1.0,0.0,,0.0-73.0,,0.0,1997.39,0.0,0.357596762,1.0,0.5929076529999999,0.0,0.6579790010000001,1.0,0.401326777,True,,5d21228723c079001923a6ba,,1035566,71,,evan-feature22,full_rf_a,,1
47,5176,72,,,,2,2,1.0,0.0,1.0,0.0,,0.0-74.0,,1.0,1029.065,0.0,0.362033495,0.0,0.582308608,1.0,0.649195052,0.0,0.355158505,True,,5d21228723c079001923a6ba,,1046428,72,,evan-feature22,full_rf_a,,1
48,5177,73,,,,1,1,1.0,0.0,1.0,0.0,,0.0-75.0,,1.0,1233.05,1.0,0.369620635,0.0,0.669100864,0.0,0.706059111,1.0,0.362516241,True,,5d21228723c079001923a6ba,,1057468,73,,evan-feature22,full_rf_a,,1
49,5178,74,,,,1,1,0.0,1.0,1.0,0.0,,0.0-76.0,,0.0,908.145,0.0,0.41477751399999996,1.0,0.7284416779999999,0.0,0.7182656940000001,1.0,0.36228040899999997,True,,5d21228723c079001923a6ba,,1068212,74,,evan-feature22,full_rf_a,,0
50,5179,75,,,,2,2,1.0,1.0,0.0,-1.0,,0.0-77.0,,-1.0,2165.605,1.0,0.37675460299999997,1.0,0.703250285,1.0,0.75,1.0,0.461979164,True,,5d21228723c079001923a6ba,,1080197,75,,evan-feature22,full_rf_a,,1
51,5180,76,,,,1,1,0.0,1.0,0.0,-1.0,,0.0-78.0,,-1.0,1144.245,0.0,0.398716075,1.0,0.6723864890000001,1.0,0.674153818,0.0,0.519029516,True,,5d21228723c079001923a6ba,,1091184,76,,evan-feature22,full_rf_a,,1
52,5181,77,,,,2,2,0.0,1.0,1.0,0.0,,0.0-79.0,,0.0,363.7899999,0.0,0.34677856700000004,1.0,0.69057175,0.0,0.6822438540000001,1.0,0.477292237,True,,5d21228723c079001923a6ba,,1101374,77,,evan-feature22,full_rf_a,,1
53,5182,78,,,,1,1,0.0,1.0,0.0,-1.0,,0.0-80.0,,-1.0,1561.895,0.0,0.28580469199999997,1.0,0.68408818,1.0,0.684207565,1.0,0.49780448299999996,True,,5d21228723c079001923a6ba,,1112763,78,,evan-feature22,full_rf_a,,1
54,5184,80,,,,2,2,1.0,0.0,1.0,0.0,,0.0-82.0,,1.0,1027.0,0.0,0.25,0.0,0.7405808970000001,1.0,0.679614108,0.0,0.436436964,True,,5d21228723c079001923a6ba,,1127096,80,,evan-feature22,full_rf_a,,1
55,5185,81,,,,1,1,0.0,1.0,0.0,-1.0,,0.0-83.0,,-1.0,1151.52,0.0,0.29890393,1.0,0.730505706,1.0,0.7328203320000001,0.0,0.439256938,True,,5d21228723c079001923a6ba,,1138067,81,,evan-feature22,full_rf_a,,1
56,5186,82,,,,2,2,1.0,0.0,1.0,0.0,,0.0-84.0,,1.0,432.7700001,0.0,0.326762398,0.0,0.7148059609999999,1.0,0.75,0.0,0.44389608799999997,True,,5d21228723c079001923a6ba,,1148338,82,,evan-feature22,full_rf_a,,1
57,5187,83,,,,2,2,0.0,0.0,1.0,0.0,,0.0-85.0,,0.0,700.3949999,0.0,0.295168515,0.0,0.739760854,0.0,0.719947008,0.0,0.35277284600000003,True,,5d21228723c079001923a6ba,,1158871,83,,evan-feature22,full_rf_a,,0
58,5188,84,,,,2,2,1.0,0.0,1.0,0.0,,0.0-86.0,,1.0,488.82999989999996,0.0,0.25,0.0,0.70781482,1.0,0.75,0.0,0.286095925,True,,5d21228723c079001923a6ba,,1169178,84,,evan-feature22,full_rf_a,,0
59,5189,85,,,,1,1,1.0,0.0,0.0,-1.0,,0.0-87.0,,0.0,1320.685,1.0,0.25638190899999996,0.0,0.704088163,1.0,0.75,0.0,0.26872601399999996,True,,5d21228723c079001923a6ba,,1180297,85,,evan-feature22,full_rf_a,,1
60,5190,86,,,,1,1,0.0,1.0,0.0,-1.0,,0.0-88.0,,-1.0,549.6799999,0.0,0.271581126,1.0,0.669760107,1.0,0.733896663,0.0,0.273244572,True,,5d21228723c079001923a6ba,,1190658,86,,evan-feature22,full_rf_a,,0
61,5191,87,,,,2,2,1.0,0.0,0.0,-1.0,,0.0-89.0,,0.0,665.0400001,1.0,0.257144401,0.0,0.600575706,1.0,0.74488122,0.0,0.25,True,,5d21228723c079001923a6ba,,1201126,87,,evan-feature22,full_rf_a,,1
62,5192,88,,,,2,2,0.0,0.0,1.0,0.0,,0.0-90.0,,0.0,553.7649997999999,0.0,0.25,1.0,0.616870026,0.0,0.723610234,0.0,0.25,True,,5d21228723c079001923a6ba,,1211512,88,,evan-feature22,full_rf_a,,0
63,5193,89,,,,1,1,1.0,1.0,0.0,-1.0,,0.0-91.0,,-1.0,1395.575,1.0,0.25,1.0,0.583540187,1.0,0.7041042559999999,0.0,0.285961995,True,,5d21228723c079001923a6ba,,1222724,89,,evan-feature22,full_rf_a,,1
64,5194,90,,,,2,2,1.0,0.0,1.0,0.0,,0.0-92.0,,1.0,485.0250001,0.0,0.27254536,1.0,0.53875765,1.0,0.693783448,0.0,0.284961652,True,,5d21228723c079001923a6ba,,1233016,90,,evan-feature22,full_rf_a,,1
65,5195,91,,,,2,2,1.0,0.0,0.0,-1.0,,0.0-93.0,,0.0,489.18,0.0,0.25,1.0,0.548431252,1.0,0.734221895,0.0,0.279445214,True,,5d21228723c079001923a6ba,,1243322,91,,evan-feature22,full_rf_a,,0
66,5196,92,,,,2,2,0.0,0.0,1.0,0.0,,0.0-94.0,,0.0,391.1550001,0.0,0.258640684,0.0,0.545878066,0.0,0.725245965,0.0,0.31487537,True,,5d21228723c079001923a6ba,,1253532,92,,evan-feature22,full_rf_a,,0
67,5197,93,,,,2,2,1.0,1.0,1.0,0.0,,0.0-95.0,,1.0,957.2050001,0.0,0.251103711,0.0,0.5776290629999999,1.0,0.696320133,1.0,0.317831047,True,,5d21228723c079001923a6ba,,1264319,93,,evan-feature22,full_rf_a,,0
68,5198,94,,,,2,2,0.0,0.0,1.0,0.0,,0.0-96.0,,0.0,538.165,0.0,0.276630292,1.0,0.617329858,0.0,0.73838088,0.0,0.261471582,True,,5d21228723c079001923a6ba,,1274684,94,,evan-feature22,full_rf_a,,0
69,5199,95,,,,2,2,1.0,0.0,0.0,-1.0,,0.0-97.0,,0.0,1468.165,0.0,0.297716424,1.0,0.618863717,1.0,0.7402358259999999,0.0,0.262600834,True,,5d21228723c079001923a6ba,,1285953,95,,evan-feature22,full_rf_a,,0
70,5200,96,,,,2,2,1.0,0.0,1.0,0.0,,0.0-98.0,,1.0,456.945,0.0,0.290935512,1.0,0.695370945,1.0,0.706570507,0.0,0.280030553,True,,5d21228723c079001923a6ba,,1296250,96,,evan-feature22,full_rf_a,,0
71,5201,97,,,,2,2,1.0,0.0,1.0,0.0,,0.0-99.0,,1.0,1056.88,0.0,0.25,1.0,0.6465277079999999,1.0,0.67766682,0.0,0.25,True,,5d21228723c079001923a6ba,,1307129,97,,evan-feature22,full_rf_a,,0
72,5202,98,,,,2,2,1.0,1.0,1.0,0.0,,0.0-100.0,,1.0,514.0799999,1.0,0.26463816,0.0,0.636100213,1.0,0.646048507,1.0,0.265607101,True,,5d21228723c079001923a6ba,,1317457,98,,evan-feature22,full_rf_a,,0
73,5203,99,,,,2,2,0.0,0.0,1.0,0.0,,0.0-101.0,,0.0,739.475,1.0,0.314340707,0.0,0.667795927,0.0,0.613630805,0.0,0.25,True,,5d21228723c079001923a6ba,,1328010,99,,evan-feature22,full_rf_a,,0
74,5204,100,,,,2,2,1.0,0.0,1.0,0.0,,0.0-102.0,,1.0,598.6550001,0.0,0.28685784,1.0,0.6622549529999999,1.0,0.652154117,0.0,0.25,True,,5d21228723c079001923a6ba,,1338436,100,,evan-feature22,full_rf_a,,0
75,5205,101,,,,2,2,1.0,0.0,0.0,-1.0,,0.0-103.0,,0.0,1823.03,1.0,0.304106554,1.0,0.631289538,1.0,0.707041942,0.0,0.29314237,True,,5d21228723c079001923a6ba,,1350069,101,,evan-feature22,full_rf_a,,0
76,5206,102,,,,2,2,1.0,0.0,0.0,-1.0,,0.0-104.0,,0.0,1168.37,0.0,0.304806932,1.0,0.571167718,1.0,0.680472346,0.0,0.25,True,,5d21228723c079001923a6ba,,1361068,102,,evan-feature22,full_rf_a,,0
77,5207,103,,,,2,2,1.0,0.0,0.0,-1.0,,0.0-105.0,,0.0,1206.605,1.0,0.37919861,1.0,0.5724849710000001,1.0,0.705638003,0.0,0.30179300600000003,True,,5d21228723c079001923a6ba,,1372097,103,,evan-feature22,full_rf_a,,0
78,5208,104,,,,2,2,1.0,0.0,0.0,-1.0,,0.0-106.0,,0.0,1401.64,1.0,0.464277969,0.0,0.554034373,1.0,0.7372627340000001,0.0,0.264699741,True,,5d21228723c079001923a6ba,,1383298,104,,evan-feature22,full_rf_a,,0
79,5209,105,,,,2,2,1.0,0.0,1.0,0.0,,0.0-107.0,,1.0,602.715,1.0,0.465104323,1.0,0.530793115,1.0,0.75,0.0,0.31683071,True,,5d21228723c079001923a6ba,,1393708,105,,evan-feature22,full_rf_a,,0
80,5210,106,,,,2,2,1.0,0.0,0.0,-1.0,,0.0-108.0,,0.0,980.68,1.0,0.465104323,1.0,0.530793115,1.0,0.75,0.0,0.31683071,True,,5d21228723c079001923a6ba,,1404502,106,,evan-feature22,full_rf_a,,0
81,5211,107,,,,2,2,1.0,0.0,0.0,-1.0,,0.0-109.0,,0.0,1241.985,0.0,0.46833986,1.0,0.570249239,1.0,0.7244472590000001,0.0,0.364114163,True,,5d21228723c079001923a6ba,,1415586,107,,evan-feature22,full_rf_a,,0
82,5212,108,,,,2,2,1.0,1.0,0.0,-1.0,,0.0-110.0,,-1.0,1328.605,0.0,0.445444024,1.0,0.649673355,1.0,0.6845441290000001,1.0,0.300660449,True,,5d21228723c079001923a6ba,,1426730,108,,evan-feature22,full_rf_a,,0
83,5213,109,,,,2,2,1.0,0.0,0.0,-1.0,,0.0-111.0,,0.0,2412.11,0.0,0.39909721299999995,1.0,0.6715179509999999,1.0,0.742310028,0.0,0.35496088299999995,True,,5d21228723c079001923a6ba,,1438948,109,,evan-feature22,full_rf_a,,0
84,5214,110,,,,2,2,1.0,1.0,0.0,-1.0,,0.0-112.0,,-1.0,729.7199999,0.0,0.37956104799999996,0.0,0.694725302,1.0,0.7181651309999999,1.0,0.38726906299999997,True,,5d21228723c079001923a6ba,,1449497,110,,evan-feature22,full_rf_a,,0
85,5215,111,,,,2,2,1.0,0.0,0.0,-1.0,,0.0-113.0,,0.0,1361.925,1.0,0.404995034,1.0,0.724375412,1.0,0.6910946859999999,0.0,0.387187347,True,,5d21228723c079001923a6ba,,1460661,111,,evan-feature22,full_rf_a,,0
86,5216,112,,,,1,1,1.0,1.0,0.0,-1.0,,0.0-114.0,,-1.0,1028.605,1.0,0.461740803,1.0,0.75,0.0,0.75,0.0,0.34872038200000005,True,,5d21228723c079001923a6ba,,1471509,112,,evan-feature22,full_rf_a,,1
87,5217,113,,,,2,2,1.0,0.0,1.0,0.0,,0.0-115.0,,1.0,473.58,0.0,0.43821380600000004,1.0,0.738833273,1.0,0.728286963,0.0,0.399538128,True,,5d21228723c079001923a6ba,,1481805,113,,evan-feature22,full_rf_a,,1
88,5218,114,,,,1,1,0.0,1.0,0.0,-1.0,,0.0-116.0,,-1.0,1385.445,0.0,0.41709882,1.0,0.736666736,0.0,0.75,0.0,0.389095584,True,,5d21228723c079001923a6ba,,1492992,114,,evan-feature22,full_rf_a,,1
89,5219,115,,,,2,2,1.0,1.0,0.0,-1.0,,0.0-117.0,,-1.0,1493.19,0.0,0.39749009799999996,1.0,0.744320029,1.0,0.75,1.0,0.363848678,True,,5d21228723c079001923a6ba,,1504307,115,,evan-feature22,full_rf_a,,1
90,5220,116,,,,2,2,1.0,0.0,1.0,0.0,,0.0-118.0,,1.0,912.9349999,0.0,0.392653706,1.0,0.75,1.0,0.75,0.0,0.384386976,True,,5d21228723c079001923a6ba,,1515043,116,,evan-feature22,full_rf_a,,0
91,5221,117,,,,2,2,1.0,1.0,1.0,0.0,,0.0-119.0,,1.0,628.61,0.0,0.31190902600000003,1.0,0.75,1.0,0.732413819,1.0,0.413082932,True,,5d21228723c079001923a6ba,,1525516,117,,evan-feature22,full_rf_a,,0
92,5222,118,,,,1,1,1.0,0.0,0.0,-1.0,,0.0-120.0,,0.0,1150.695,1.0,0.366917648,0.0,0.740073855,1.0,0.75,1.0,0.352861979,True,,5d21228723c079001923a6ba,,1536498,118,,evan-feature22,full_rf_a,,1
93,5223,119,,,,1,1,1.0,1.0,0.0,-1.0,,0.0-121.0,,-1.0,791.37,1.0,0.3645172,1.0,0.721770713,0.0,0.75,0.0,0.404074511,True,,5d21228723c079001923a6ba,,1547104,119,,evan-feature22,full_rf_a,,0
94,5224,120,,,,2,2,1.0,1.0,0.0,-1.0,,0.0-122.0,,-1.0,2081.68,0.0,0.35205600299999995,0.0,0.68983859,1.0,0.739735447,1.0,0.366895945,True,,5d21228723c079001923a6ba,,1559016,120,,evan-feature22,full_rf_a,,1
95,5225,121,,,,1,1,1.0,1.0,0.0,-1.0,,0.0-123.0,,-1.0,1290.785,1.0,0.40998722600000004,1.0,0.720859127,1.0,0.673854955,1.0,0.368528541,True,,5d21228723c079001923a6ba,,1570133,121,,evan-feature22,full_rf_a,,1
96,5226,122,,,,2,2,1.0,0.0,1.0,0.0,,0.0-124.0,,1.0,1310.305,0.0,0.353625316,1.0,0.75,1.0,0.695605473,0.0,0.38303674200000004,True,,5d21228723c079001923a6ba,,1581258,122,,evan-feature22,full_rf_a,,1
97,5227,123,,,,1,1,0.0,1.0,0.0,-1.0,,0.0-125.0,,-1.0,1433.005,0.0,0.359216989,1.0,0.75,1.0,0.6987915090000001,1.0,0.35169046200000004,True,,5d21228723c079001923a6ba,,1592530,123,,evan-feature22,full_rf_a,,1
98,5228,124,,,,2,2,0.0,0.0,1.0,0.0,,0.0-126.0,,0.0,854.5850001,1.0,0.35834496899999996,0.0,0.75,0.0,0.707067742,0.0,0.416763636,True,,5d21228723c079001923a6ba,,1603207,124,,evan-feature22,full_rf_a,,1
99,5229,125,,,,2,2,1.0,1.0,1.0,0.0,,0.0-127.0,,1.0,806.3699999,1.0,0.38741613799999997,1.0,0.7177369570000001,1.0,0.734902455,1.0,0.49438664299999996,True,,5d21228723c079001923a6ba,,1613838,125,,evan-feature22,full_rf_a,,0
100,5230,126,,,,1,1,1.0,1.0,0.0,-1.0,,0.0-128.0,,-1.0,1086.275,1.0,0.405255252,1.0,0.7300466640000001,1.0,0.7027748070000001,1.0,0.504359668,True,,5d21228723c079001923a6ba,,1624730,126,,evan-feature22,full_rf_a,,1
101,5231,127,,,,1,1,0.0,0.0,0.0,-1.0,,0.0-129.0,,0.0,994.5749999,0.0,0.40697073,0.0,0.7260142190000001,1.0,0.724461982,1.0,0.522779179,True,,5d21228723c079001923a6ba,,1635561,127,,evan-feature22,full_rf_a,,0
102,5232,128,,,,1,1,1.0,0.0,0.0,-1.0,,0.0-130.0,,0.0,1127.95,1.0,0.43906215299999996,0.0,0.7252802340000001,1.0,0.719079934,0.0,0.5712990579999999,True,,5d21228723c079001923a6ba,,1646497,128,,evan-feature22,full_rf_a,,0
103,5233,129,,,,1,1,1.0,1.0,0.0,-1.0,,0.0-131.0,,-1.0,1207.53,1.0,0.4076705,1.0,0.73280499,1.0,0.681313127,1.0,0.523891346,True,,5d21228723c079001923a6ba,,1657547,129,,evan-feature22,full_rf_a,,0
104,5234,130,,,,1,1,0.0,1.0,0.0,-1.0,,0.0-132.0,,-1.0,1310.205,0.0,0.399102911,1.0,0.730498344,1.0,0.661080239,1.0,0.46742603,True,,5d21228723c079001923a6ba,,1668666,130,,evan-feature22,full_rf_a,,0
105,5235,131,,,,2,2,0.0,1.0,1.0,0.0,,0.0-133.0,,0.0,970.92,0.0,0.356477282,0.0,0.712296395,0.0,0.641812684,1.0,0.44868414,True,,5d21228723c079001923a6ba,,1679437,131,,evan-feature22,full_rf_a,,1
106,5236,132,,,,1,1,0.0,0.0,0.0,-1.0,,0.0-134.0,,0.0,1068.055,0.0,0.462760722,0.0,0.692349322,1.0,0.700947931,1.0,0.394680266,True,,5d21228723c079001923a6ba,,1690311,132,,evan-feature22,full_rf_a,,1
107,5237,133,,,,1,1,0.0,1.0,0.0,-1.0,,0.0-135.0,,-1.0,1054.76,0.0,0.422306413,1.0,0.718375916,1.0,0.706340917,0.0,0.367787185,True,,5d21228723c079001923a6ba,,1701182,133,,evan-feature22,full_rf_a,,0
108,5239,135,,,,1,1,0.0,0.0,0.0,-1.0,,0.0-137.0,,0.0,926.13,0.0,0.4582233,0.0,0.643834117,1.0,0.75,1.0,0.39615823299999997,True,,5d21228723c079001923a6ba,,1720667,135,,evan-feature22,full_rf_a,,0
109,5240,136,,,,1,1,1.0,0.0,0.0,-1.0,,0.0-138.0,,0.0,681.2249999,1.0,0.43813437899999996,0.0,0.651283804,1.0,0.729674191,1.0,0.37711048,True,,5d21228723c079001923a6ba,,1731151,136,,evan-feature22,full_rf_a,,0
110,5241,137,,,,1,1,1.0,1.0,0.0,-1.0,,0.0-139.0,,-1.0,1632.86,1.0,0.471199094,1.0,0.6470010979999999,1.0,0.715008097,1.0,0.410656191,True,,5d21228723c079001923a6ba,,1742604,137,,evan-feature22,full_rf_a,,0
111,5242,138,,,,2,2,1.0,0.0,1.0,0.0,,0.0-140.0,,1.0,512.2499999,1.0,0.42486406,0.0,0.629771829,1.0,0.6550939960000001,0.0,0.459093873,True,,5d21228723c079001923a6ba,,1752937,138,,evan-feature22,full_rf_a,,1
112,5243,139,,,,1,1,0.0,1.0,1.0,0.0,,0.0-141.0,,0.0,1272.445,0.0,0.4803197,1.0,0.645842715,1.0,0.6421749920000001,0.0,0.443092151,True,,5d21228723c079001923a6ba,,1764025,139,,evan-feature22,full_rf_a,,1
113,5244,140,,,,2,2,1.0,1.0,1.0,0.0,,0.0-142.0,,1.0,430.925,1.0,0.521848997,1.0,0.735801074,1.0,0.6691348460000001,1.0,0.45259351600000003,True,,5d21228723c079001923a6ba,,1774254,140,,evan-feature22,full_rf_a,,1
114,5245,141,,,,1,1,1.0,0.0,0.0,-1.0,,0.0-143.0,,0.0,1194.805,1.0,0.49565621299999996,0.0,0.742400847,1.0,0.661512553,0.0,0.483110831,True,,5d21228723c079001923a6ba,,1785252,141,,evan-feature22,full_rf_a,,1
115,5246,142,,,,2,2,1.0,0.0,1.0,0.0,,0.0-144.0,,1.0,832.155,0.0,0.521564361,0.0,0.731078632,1.0,0.6774886809999999,0.0,0.483263956,True,,5d21228723c079001923a6ba,,1795905,142,,evan-feature22,full_rf_a,,1
116,5247,143,,,,2,2,1.0,1.0,1.0,0.0,,0.0-145.0,,1.0,812.0500001,0.0,0.558893102,1.0,0.719810023,1.0,0.67461031,1.0,0.499349834,True,,5d21228723c079001923a6ba,,1806561,143,,evan-feature22,full_rf_a,,0
117,5248,144,,,,1,1,1.0,1.0,0.0,-1.0,,0.0-146.0,,-1.0,904.1549999,1.0,0.611031046,1.0,0.75,1.0,0.688072995,0.0,0.5321422729999999,True,,5d21228723c079001923a6ba,,1817315,144,,evan-feature22,full_rf_a,,1
118,5249,145,,,,2,2,1.0,0.0,1.0,0.0,,0.0-147.0,,1.0,939.3249999,1.0,0.633223941,0.0,0.713567728,1.0,0.75,0.0,0.48185314700000004,True,,5d21228723c079001923a6ba,,1828068,145,,evan-feature22,full_rf_a,,1
119,5250,146,,,,2,2,1.0,0.0,1.0,0.0,,0.0-148.0,,1.0,730.5950001,1.0,0.664001694,1.0,0.705509768,1.0,0.75,0.0,0.500211065,True,,5d21228723c079001923a6ba,,1838626,146,,evan-feature22,full_rf_a,,0
120,5251,147,,,,1,1,0.0,1.0,0.0,-1.0,,0.0-149.0,,-1.0,647.63,0.0,0.664001694,1.0,0.705509768,1.0,0.75,1.0,0.500211065,True,,5d21228723c079001923a6ba,,1849103,147,,evan-feature22,full_rf_a,,1
121,5252,148,,,,1,1,0.0,1.0,0.0,-1.0,,0.0-150.0,,-1.0,1905.41,0.0,0.696508041,1.0,0.71066027,1.0,0.717028709,1.0,0.49792991,True,,5d21228723c079001923a6ba,,1860845,148,,evan-feature22,full_rf_a,,0
122,5253,149,,,,2,2,0.0,1.0,1.0,0.0,,0.0-151.0,,0.0,1715.91,1.0,0.699883272,0.0,0.75,0.0,0.713543895,1.0,0.496962643,True,,5d21228723c079001923a6ba,,1872370,149,,evan-feature22,full_rf_a,,1
123,5254,150,,,,1,1,0.0,0.0,0.0,-1.0,,0.0-152.0,,0.0,677.4900001,0.0,0.741163419,0.0,0.75,1.0,0.64691024,1.0,0.513858197,True,,5d21228723c079001923a6ba,,1882850,150,,evan-feature22,full_rf_a,,1
124,5255,151,,,,2,2,0.0,1.0,1.0,0.0,,0.0-153.0,,0.0,493.7750001,1.0,0.75,0.0,0.70816558,0.0,0.594499079,1.0,0.48502124,True,,5d21228723c079001923a6ba,,1893163,151,,evan-feature22,full_rf_a,,1
125,5256,152,,,,1,1,0.0,0.0,0.0,-1.0,,0.0-154.0,,0.0,1315.83,0.0,0.75,0.0,0.721848901,0.0,0.62197249,0.0,0.48263586399999997,True,,5d21228723c079001923a6ba,,1904322,152,,evan-feature22,full_rf_a,,1
126,5257,153,,,,2,2,1.0,1.0,1.0,0.0,,0.0-155.0,,1.0,470.53,1.0,0.75,0.0,0.74813071,1.0,0.584357161,1.0,0.411477782,True,,5d21228723c079001923a6ba,,1914619,153,,evan-feature22,full_rf_a,,1
127,5258,154,,,,1,1,1.0,1.0,0.0,-1.0,,0.0-156.0,,-1.0,792.1200001,1.0,0.75,1.0,0.75,1.0,0.52287236,1.0,0.488290656,True,,5d21228723c079001923a6ba,,1925232,154,,evan-feature22,full_rf_a,,1
128,5259,155,,,,1,1,0.0,1.0,0.0,-1.0,,0.0-157.0,,-1.0,1590.52,0.0,0.75,1.0,0.75,0.0,0.544321581,1.0,0.53143059,True,,5d21228723c079001923a6ba,,1936628,155,,evan-feature22,full_rf_a,,0
129,5260,156,,,,1,1,1.0,1.0,0.0,-1.0,,0.0-158.0,,-1.0,1472.41,1.0,0.726754564,1.0,0.75,1.0,0.5129306370000001,0.0,0.530592445,True,,5d21228723c079001923a6ba,,1947923,156,,evan-feature22,full_rf_a,,0
130,5261,157,,,,2,2,0.0,1.0,1.0,0.0,,0.0-159.0,,0.0,247.2399999,1.0,0.75,0.0,0.7392590729999999,0.0,0.479875835,1.0,0.547007051,True,,5d21228723c079001923a6ba,,1957989,157,,evan-feature22,full_rf_a,,1
131,5262,158,,,,1,1,1.0,0.0,1.0,0.0,,0.0-160.0,,1.0,712.7749999,1.0,0.75,0.0,0.7393376979999999,1.0,0.546045419,0.0,0.541267353,True,,5d21228723c079001923a6ba,,1968541,158,,evan-feature22,full_rf_a,,1
132,5263,159,,,,1,1,0.0,0.0,1.0,0.0,,0.0-161.0,,0.0,511.4899999,0.0,0.75,0.0,0.75,1.0,0.485725895,0.0,0.527625395,True,,5d21228723c079001923a6ba,,1978874,159,,evan-feature22,full_rf_a,,0
133,5264,160,,,,1,1,0.0,1.0,0.0,-1.0,,0.0-162.0,,-1.0,2078.585,0.0,0.75,1.0,0.725087974,1.0,0.488603595,1.0,0.504019206,True,,5d21228723c079001923a6ba,,1990758,160,,evan-feature22,full_rf_a,,0
134,5265,161,,,,2,2,0.0,0.0,0.0,-1.0,,0.0-163.0,,0.0,2483.8,0.0,0.745504295,1.0,0.75,0.0,0.452379914,0.0,0.50131194,True,,5d21228723c079001923a6ba,,2003078,161,,evan-feature22,full_rf_a,,1
135,5266,162,,,,2,2,1.0,1.0,0.0,-1.0,,0.0-164.0,,-1.0,1639.705,0.0,0.728513874,1.0,0.75,1.0,0.44125567200000004,1.0,0.531454591,True,,5d21228723c079001923a6ba,,2014538,162,,evan-feature22,full_rf_a,,0
136,5267,163,,,,2,2,1.0,0.0,1.0,0.0,,0.0-165.0,,1.0,2024.485,0.0,0.73790804,0.0,0.75,1.0,0.413036656,0.0,0.524619035,True,,5d21228723c079001923a6ba,,2026385,163,,evan-feature22,full_rf_a,,0
137,5268,164,,,,1,1,1.0,1.0,0.0,-1.0,,0.0-166.0,,-1.0,1006.36,1.0,0.7080961309999999,1.0,0.708666865,0.0,0.431915581,0.0,0.481819489,True,,5d21228723c079001923a6ba,,2037236,164,,evan-feature22,full_rf_a,,1
138,5269,165,,,,2,2,1.0,1.0,0.0,-1.0,,0.0-167.0,,-1.0,2367.575,1.0,0.721378003,1.0,0.71605913,1.0,0.36642387,1.0,0.5036739929999999,True,,5d21228723c079001923a6ba,,2049441,165,,evan-feature22,full_rf_a,,1
139,5270,166,,,,1,1,0.0,1.0,0.0,-1.0,,0.0-168.0,,-1.0,1587.8,0.0,0.7340618959999999,1.0,0.699323252,1.0,0.35298046299999997,0.0,0.511241692,True,,5d21228723c079001923a6ba,,2060873,166,,evan-feature22,full_rf_a,,1
140,5271,167,,,,2,2,0.0,0.0,1.0,0.0,,0.0-169.0,,0.0,486.8099999,0.0,0.75,0.0,0.70412698,0.0,0.380734814,0.0,0.529580116,True,,5d21228723c079001923a6ba,,2071167,167,,evan-feature22,full_rf_a,,1
141,5272,168,,,,1,1,1.0,0.0,0.0,-1.0,,0.0-170.0,,0.0,1526.095,1.0,0.7436654909999999,0.0,0.711182751,0.0,0.41125331,1.0,0.49554405,True,,5d21228723c079001923a6ba,,2082512,168,,evan-feature22,full_rf_a,,1
142,5273,169,,,,1,1,1.0,1.0,0.0,-1.0,,0.0-171.0,,-1.0,1663.185,1.0,0.731607915,1.0,0.651774583,0.0,0.35688023,0.0,0.45194491600000003,True,,5d21228723c079001923a6ba,,2094006,169,,evan-feature22,full_rf_a,,0
143,5274,170,,,,2,2,0.0,0.0,1.0,0.0,,0.0-172.0,,0.0,477.3800001,0.0,0.75,1.0,0.75,0.0,0.283145374,0.0,0.528608005,True,,5d21228723c079001923a6ba,,2104331,170,,evan-feature22,full_rf_a,,1
144,5275,171,,,,1,1,0.0,1.0,1.0,0.0,,0.0-173.0,,0.0,753.9949999,0.0,0.7491416890000001,1.0,0.7423785959999999,0.0,0.29135870399999997,1.0,0.498888318,True,,5d21228723c079001923a6ba,,2114912,171,,evan-feature22,full_rf_a,,1
145,5276,172,,,,1,1,0.0,0.0,1.0,0.0,,0.0-174.0,,0.0,901.3050001,0.0,0.708569387,0.0,0.717682277,0.0,0.294421699,0.0,0.493838163,True,,5d21228723c079001923a6ba,,2125658,172,,evan-feature22,full_rf_a,,0
146,5277,173,,,,2,2,0.0,0.0,0.0,-1.0,,0.0-175.0,,0.0,737.9149999,0.0,0.75,1.0,0.7383382159999999,0.0,0.356098707,0.0,0.442533405,True,,5d21228723c079001923a6ba,,2136198,173,,evan-feature22,full_rf_a,,1
147,5278,174,,,,2,2,0.0,0.0,0.0,-1.0,,0.0-176.0,,0.0,798.0900002000001,1.0,0.744527075,1.0,0.75,0.0,0.334127506,0.0,0.393165805,True,,5d21228723c079001923a6ba,,2146849,174,,evan-feature22,full_rf_a,,0
148,5279,175,,,,2,2,0.0,0.0,0.0,-1.0,,0.0-177.0,,0.0,933.6349999,1.0,0.75,1.0,0.75,0.0,0.33571021799999995,0.0,0.350393962,True,,5d21228723c079001923a6ba,,2157598,175,,evan-feature22,full_rf_a,,0
149,5280,176,,,,2,2,1.0,0.0,0.0,-1.0,,0.0-178.0,,0.0,946.1649999,1.0,0.75,1.0,0.75,1.0,0.313628297,0.0,0.36349657399999996,True,,5d21228723c079001923a6ba,,2168367,176,,evan-feature22,full_rf_a,,0
150,5281,177,,,,2,2,1.0,0.0,1.0,0.0,,0.0-179.0,,1.0,1722.77,1.0,0.75,1.0,0.734284182,1.0,0.262667667,0.0,0.380199119,True,,5d21228723c079001923a6ba,,2179900,177,,evan-feature22,full_rf_a,,0
151,5282,178,,,,1,1,1.0,1.0,0.0,-1.0,,0.0-180.0,,-1.0,2529.535,1.0,0.75,1.0,0.75,0.0,0.25,0.0,0.394494013,True,,5d21228723c079001923a6ba,,2192278,178,,evan-feature22,full_rf_a,,1
152,5283,179,,,,2,2,0.0,1.0,1.0,0.0,,0.0-181.0,,0.0,2375.465,0.0,0.722298145,1.0,0.7357822340000001,0.0,0.25,1.0,0.319142121,True,,5d21228723c079001923a6ba,,2204458,179,,evan-feature22,full_rf_a,,1
153,5284,180,,,,1,1,1.0,0.0,1.0,0.0,,0.0-182.0,,1.0,1107.465,1.0,0.73149275,0.0,0.724276446,0.0,0.305856907,1.0,0.281315057,True,,5d21228723c079001923a6ba,,2215368,180,,evan-feature22,full_rf_a,,1
154,5285,181,,,,1,1,1.0,1.0,0.0,-1.0,,0.0-183.0,,-1.0,765.29,1.0,0.7458732690000001,1.0,0.7336382459999999,1.0,0.272571964,0.0,0.266021999,True,,5d21228723c079001923a6ba,,2225959,181,,evan-feature22,full_rf_a,,0
155,5286,182,,,,2,2,0.0,0.0,0.0,-1.0,,0.0-184.0,,0.0,833.6800002,1.0,0.705579037,1.0,0.720778292,0.0,0.320238144,0.0,0.30971744,True,,5d21228723c079001923a6ba,,2236636,182,,evan-feature22,full_rf_a,,1
156,5287,183,,,,2,2,0.0,1.0,0.0,-1.0,,0.0-185.0,,-1.0,485.24000010000003,1.0,0.700425648,1.0,0.7198784009999999,0.0,0.272590393,1.0,0.304182931,True,,5d21228723c079001923a6ba,,2246946,183,,evan-feature22,full_rf_a,,0
157,5288,184,,,,2,2,0.0,0.0,0.0,-1.0,,0.0-186.0,,0.0,386.04,1.0,0.735590785,1.0,0.722714973,0.0,0.25,0.0,0.323421091,True,,5d21228723c079001923a6ba,,2257160,184,,evan-feature22,full_rf_a,,0
158,5289,185,,,,2,2,0.0,0.0,0.0,-1.0,,0.0-187.0,,0.0,705.5599999,1.0,0.724807662,1.0,0.63146213,0.0,0.36836492600000004,0.0,0.34592153299999995,True,,5d21228723c079001923a6ba,,2267669,185,,evan-feature22,full_rf_a,,0
159,5290,186,,,,2,2,1.0,0.0,0.0,-1.0,,0.0-188.0,,0.0,619.13,0.0,0.7352796909999999,0.0,0.555111392,1.0,0.36003922,0.0,0.31433779999999995,True,,5d21228723c079001923a6ba,,2278107,186,,evan-feature22,full_rf_a,,0
160,5291,187,notice,,,,,,,,,,0.0-189.0,"{""Q0"":""no""}",,9750.0,,,,,,,,,True,,5d21228723c079001923a6ba,,2287861,187,Q,survey-text,full_rf_a,,1
161,5292,188,track1,,[1],,,,,,,,0.0-190.0,"{""Q0"":""no""}",,5225.0,,,,,,,,,True,,5d21228723c079001923a6ba,,2293098,188,Q,evan-quiz,full_rf_a,,1
162,5293,189,track2,,[0],,,,,,,,0.0-191.0,"{""Q0"":""yes""}",,8609.0,,,,,,,,,True,,5d21228723c079001923a6ba,,2301712,189,Q,evan-quiz,full_rf_a,,1
163,5294,190,strat,,,,,,,,,,0.0-192.0,"{""Q0"":""If there was a 0 on the black i tried to go for the door that brought both up but if there was a -1 on the black i tried to choose the one that had no aliens""}",,51400.0,,,,,,,,,True,,5d21228723c079001923a6ba,,2353116,190,Q,survey-text,full_rf_a,,1
