,index,Unnamed: 0,Q_name,button_pressed,choice_idxs,chosen_pos,chosen_state,chosen_state_f_1_outcome,chosen_state_f_2_outcome,f_1_reward,f_2_reward,incor_questions,internal_node_id,responses,reward_received,rt,s_1_f_1_outcome,s_1_f_1_prob,s_1_f_2_outcome,s_1_f_2_prob,s_2_f_1_outcome,s_2_f_1_prob,s_2_f_2_outcome,s_2_f_2_prob,safe_first,stimulus,subjectID,success,time_elapsed,trial_index,trial_num,trial_type,version,view_history,switching
0,11104,25,,,,2,2,0.0,0.0,0.0,-1.0,,0.0-27.0,,0.0,768.0,1.0,0.6,0.0,0.6,0.0,0.4,0.0,0.4,False,,5ecf68de4145c639871d90d6,,460708,25,,evan-feature22,full_pf_a,,0
1,11105,26,,,,2,2,1.0,1.0,0.0,-1.0,,0.0-28.0,,-1.0,956.0,1.0,0.608053294,0.0,0.63424552,1.0,0.397152172,1.0,0.347069101,False,,5ecf68de4145c639871d90d6,,471431,26,,evan-feature22,full_pf_a,,0
2,11106,27,,,,1,1,1.0,1.0,0.0,-1.0,,0.0-29.0,,-1.0,840.0,1.0,0.642237155,1.0,0.648566321,1.0,0.389407674,0.0,0.285525717,False,,5ecf68de4145c639871d90d6,,482035,27,,evan-feature22,full_pf_a,,1
3,11107,28,,,,1,1,1.0,1.0,0.0,-1.0,,0.0-30.0,,-1.0,1179.0,1.0,0.661086576,1.0,0.630492543,0.0,0.399058924,0.0,0.25,False,,5ecf68de4145c639871d90d6,,492978,28,,evan-feature22,full_pf_a,,0
4,11108,29,,,,1,1,1.0,1.0,0.0,-1.0,,0.0-31.0,,-1.0,834.0,1.0,0.631324137,1.0,0.6269842929999999,1.0,0.38734784299999997,1.0,0.25,False,,5ecf68de4145c639871d90d6,,503577,29,,evan-feature22,full_pf_a,,0
5,11109,30,,,,1,1,1.0,1.0,0.0,-1.0,,0.0-32.0,,-1.0,1068.0,1.0,0.6381991370000001,1.0,0.68987999,1.0,0.384107265,0.0,0.271332943,False,,5ecf68de4145c639871d90d6,,514410,30,,evan-feature22,full_pf_a,,0
6,11110,31,,,,2,2,0.0,0.0,0.0,-1.0,,0.0-33.0,,0.0,651.0,1.0,0.66034901,1.0,0.742641349,0.0,0.360225629,0.0,0.25,False,,5ecf68de4145c639871d90d6,,524825,31,,evan-feature22,full_pf_a,,1
7,11111,32,,,,2,2,0.0,1.0,1.0,0.0,,0.0-34.0,,0.0,656.0,0.0,0.638612418,1.0,0.75,0.0,0.367273939,1.0,0.25,False,,5ecf68de4145c639871d90d6,,535246,32,,evan-feature22,full_pf_a,,0
8,11112,33,,,,2,2,0.0,1.0,0.0,-1.0,,0.0-35.0,,-1.0,1346.0,1.0,0.624340629,0.0,0.75,0.0,0.425829545,1.0,0.25,False,,5ecf68de4145c639871d90d6,,546356,33,,evan-feature22,full_pf_a,,0
9,11113,34,,,,1,1,1.0,0.0,0.0,-1.0,,0.0-36.0,,0.0,1175.0,1.0,0.621999804,0.0,0.75,0.0,0.368609357,0.0,0.25,False,,5ecf68de4145c639871d90d6,,557294,34,,evan-feature22,full_pf_a,,1
10,11114,35,,,,1,1,1.0,1.0,1.0,0.0,,0.0-37.0,,1.0,995.0,1.0,0.62666403,1.0,0.75,0.0,0.311151498,0.0,0.25,False,,5ecf68de4145c639871d90d6,,568054,35,,evan-feature22,full_pf_a,,0
11,11115,36,,,,1,1,0.0,1.0,1.0,0.0,,0.0-38.0,,0.0,714.0,0.0,0.6819650009999999,1.0,0.75,0.0,0.310763048,0.0,0.25,False,,5ecf68de4145c639871d90d6,,578533,36,,evan-feature22,full_pf_a,,0
12,11116,37,,,,2,2,0.0,0.0,0.0,-1.0,,0.0-39.0,,0.0,1163.0,1.0,0.740626951,1.0,0.75,0.0,0.25,0.0,0.25,False,,5ecf68de4145c639871d90d6,,589460,37,,evan-feature22,full_pf_a,,1
13,11117,38,,,,2,2,0.0,1.0,0.0,-1.0,,0.0-40.0,,-1.0,861.0,1.0,0.739599242,1.0,0.742034978,0.0,0.25397114600000004,1.0,0.25,False,,5ecf68de4145c639871d90d6,,600082,38,,evan-feature22,full_pf_a,,0
14,11118,39,,,,1,1,1.0,0.0,0.0,-1.0,,0.0-41.0,,0.0,839.0,1.0,0.732341315,0.0,0.72735643,0.0,0.25,0.0,0.25,False,,5ecf68de4145c639871d90d6,,610682,39,,evan-feature22,full_pf_a,,1
15,11119,40,,,,1,1,0.0,1.0,0.0,-1.0,,0.0-42.0,,-1.0,704.0,0.0,0.7062287770000001,1.0,0.75,0.0,0.29002151,0.0,0.288256649,False,,5ecf68de4145c639871d90d6,,621150,40,,evan-feature22,full_pf_a,,0
16,11120,41,,,,SLOW,SLOW,,,1.0,0.0,,0.0-43.0,,-3.0,,1.0,0.7086029209999999,1.0,0.75,1.0,0.274129113,1.0,0.262851608,False,,5ecf68de4145c639871d90d6,,626956,41,,evan-feature22,full_pf_a,,1
17,11121,42,,,,1,1,0.0,1.0,0.0,-1.0,,0.0-44.0,,-1.0,488.0,0.0,0.669189651,1.0,0.727614338,0.0,0.298444036,0.0,0.296944518,False,,5ecf68de4145c639871d90d6,,637207,42,,evan-feature22,full_pf_a,,1
18,11122,43,,,,2,2,0.0,0.0,1.0,0.0,,0.0-45.0,,0.0,431.0,1.0,0.6819912929999999,0.0,0.7179434290000001,0.0,0.265003961,0.0,0.28157921199999997,False,,5ecf68de4145c639871d90d6,,647401,43,,evan-feature22,full_pf_a,,1
19,11123,44,,,,2,2,0.0,1.0,1.0,0.0,,0.0-46.0,,0.0,358.0,1.0,0.665275002,1.0,0.723065271,0.0,0.260414971,1.0,0.30973870000000003,False,,5ecf68de4145c639871d90d6,,657523,44,,evan-feature22,full_pf_a,,0
20,11124,45,,,,2,2,0.0,0.0,0.0,-1.0,,0.0-47.0,,0.0,806.0,1.0,0.6660593260000001,1.0,0.728032907,0.0,0.30922817,0.0,0.338778608,False,,5ecf68de4145c639871d90d6,,668094,45,,evan-feature22,full_pf_a,,0
21,11125,46,,,,2,2,0.0,0.0,0.0,-1.0,,0.0-48.0,,0.0,357.0,0.0,0.702068785,1.0,0.6528750879999999,0.0,0.287329608,0.0,0.35789613200000003,False,,5ecf68de4145c639871d90d6,,678217,46,,evan-feature22,full_pf_a,,0
22,11126,47,,,,2,2,1.0,0.0,0.0,-1.0,,0.0-49.0,,0.0,771.0,1.0,0.651939787,0.0,0.636725589,1.0,0.284834488,0.0,0.358563756,False,,5ecf68de4145c639871d90d6,,688753,47,,evan-feature22,full_pf_a,,0
23,11127,48,,,,2,2,1.0,1.0,0.0,-1.0,,0.0-50.0,,-1.0,775.0,0.0,0.67573929,0.0,0.612550049,1.0,0.37130387600000003,1.0,0.383542402,False,,5ecf68de4145c639871d90d6,,699293,48,,evan-feature22,full_pf_a,,0
24,11128,49,,,,1,1,1.0,1.0,0.0,-1.0,,0.0-51.0,,-1.0,1465.0,1.0,0.620753801,1.0,0.60513644,1.0,0.385529434,1.0,0.340361743,False,,5ecf68de4145c639871d90d6,,710521,49,,evan-feature22,full_pf_a,,1
25,11129,50,,,,2,2,0.0,0.0,1.0,0.0,,0.0-52.0,,0.0,677.0,1.0,0.673564893,1.0,0.672437924,0.0,0.292955382,0.0,0.337633795,False,,5ecf68de4145c639871d90d6,,720959,50,,evan-feature22,full_pf_a,,1
26,11130,51,,,,1,1,1.0,1.0,0.0,-1.0,,0.0-53.0,,-1.0,1396.0,1.0,0.6749427,1.0,0.724197502,0.0,0.32391132100000003,1.0,0.350995264,False,,5ecf68de4145c639871d90d6,,732119,51,,evan-feature22,full_pf_a,,1
27,11131,52,,,,2,2,0.0,1.0,0.0,-1.0,,0.0-54.0,,-1.0,696.0,1.0,0.6940159379999999,1.0,0.75,0.0,0.31710554399999996,1.0,0.413450341,False,,5ecf68de4145c639871d90d6,,742578,52,,evan-feature22,full_pf_a,,1
28,11132,53,,,,1,1,1.0,1.0,0.0,-1.0,,0.0-55.0,,-1.0,1070.0,1.0,0.6916018270000001,1.0,0.69001187,0.0,0.261817804,1.0,0.40038635,False,,5ecf68de4145c639871d90d6,,753409,53,,evan-feature22,full_pf_a,,1
29,11133,54,,,,2,2,1.0,1.0,0.0,-1.0,,0.0-56.0,,-1.0,672.0,0.0,0.641061544,1.0,0.71337992,1.0,0.277296461,1.0,0.47372791700000005,False,,5ecf68de4145c639871d90d6,,763846,54,,evan-feature22,full_pf_a,,1
30,11134,55,,,,2,2,0.0,0.0,0.0,-1.0,,0.0-57.0,,0.0,148.0,0.0,0.6082438520000001,1.0,0.708471106,0.0,0.28745137,0.0,0.564174476,False,,5ecf68de4145c639871d90d6,,773754,55,,evan-feature22,full_pf_a,,0
31,11135,56,,,,2,2,1.0,1.0,1.0,0.0,,0.0-58.0,,1.0,1099.0,1.0,0.6051112120000001,0.0,0.7118147229999999,1.0,0.272390611,1.0,0.5595149939999999,False,,5ecf68de4145c639871d90d6,,784616,56,,evan-feature22,full_pf_a,,0
32,11136,57,,,,2,2,0.0,0.0,1.0,0.0,,0.0-59.0,,0.0,984.0,1.0,0.582420852,1.0,0.635867583,0.0,0.31089574,0.0,0.5227206520000001,False,,5ecf68de4145c639871d90d6,,795359,57,,evan-feature22,full_pf_a,,0
33,11137,58,,,,2,2,1.0,0.0,1.0,0.0,,0.0-60.0,,1.0,1142.0,1.0,0.623195575,1.0,0.655026044,1.0,0.25,0.0,0.560387538,False,,5ecf68de4145c639871d90d6,,806263,58,,evan-feature22,full_pf_a,,0
34,11138,59,,,,1,1,1.0,0.0,0.0,-1.0,,0.0-61.0,,0.0,1386.0,1.0,0.601889598,0.0,0.678198724,0.0,0.25,1.0,0.559922936,False,,5ecf68de4145c639871d90d6,,817408,59,,evan-feature22,full_pf_a,,1
35,11139,60,,,,2,2,1.0,0.0,1.0,0.0,,0.0-62.0,,1.0,1367.0,1.0,0.601259914,0.0,0.704681482,1.0,0.33908969299999997,0.0,0.505003715,False,,5ecf68de4145c639871d90d6,,828537,60,,evan-feature22,full_pf_a,,1
36,11140,61,,,,2,2,0.0,0.0,1.0,0.0,,0.0-63.0,,0.0,2062.0,1.0,0.59645454,1.0,0.710437172,0.0,0.327441879,0.0,0.391749613,False,,5ecf68de4145c639871d90d6,,840360,61,,evan-feature22,full_pf_a,,0
37,11141,62,,,,1,1,0.0,0.0,0.0,-1.0,,0.0-64.0,,0.0,1323.0,0.0,0.529473,0.0,0.636758527,0.0,0.301338063,1.0,0.365661481,False,,5ecf68de4145c639871d90d6,,851445,62,,evan-feature22,full_pf_a,,1
38,11142,63,,,,1,1,1.0,1.0,1.0,0.0,,0.0-65.0,,1.0,679.0,1.0,0.541657162,1.0,0.634541962,0.0,0.343535366,0.0,0.371763742,False,,5ecf68de4145c639871d90d6,,861884,63,,evan-feature22,full_pf_a,,0
39,11143,64,,,,2,2,0.0,1.0,1.0,0.0,,0.0-66.0,,0.0,607.0,1.0,0.5707533260000001,1.0,0.589121171,0.0,0.326428396,1.0,0.43961622899999997,False,,5ecf68de4145c639871d90d6,,872252,64,,evan-feature22,full_pf_a,,1
40,11144,65,,,,1,1,1.0,0.0,0.0,-1.0,,0.0-67.0,,0.0,953.0,1.0,0.5707533260000001,0.0,0.589121171,0.0,0.326428396,1.0,0.43961622899999997,False,,5ecf68de4145c639871d90d6,,882969,65,,evan-feature22,full_pf_a,,1
41,11145,66,,,,1,1,1.0,1.0,0.0,-1.0,,0.0-68.0,,-1.0,1428.0,1.0,0.506271295,1.0,0.641775594,0.0,0.37149690700000004,1.0,0.404330166,False,,5ecf68de4145c639871d90d6,,894162,66,,evan-feature22,full_pf_a,,0
42,11146,67,,,,2,2,0.0,0.0,1.0,0.0,,0.0-69.0,,0.0,580.0,1.0,0.455642565,1.0,0.623605825,0.0,0.358753011,0.0,0.346174041,False,,5ecf68de4145c639871d90d6,,904506,67,,evan-feature22,full_pf_a,,1
43,11147,68,,,,1,1,0.0,0.0,0.0,-1.0,,0.0-70.0,,0.0,1326.0,0.0,0.483677308,0.0,0.5904681070000001,1.0,0.402218411,0.0,0.35344697,False,,5ecf68de4145c639871d90d6,,915594,68,,evan-feature22,full_pf_a,,1
44,11148,69,,,,2,2,0.0,0.0,1.0,0.0,,0.0-71.0,,0.0,1186.0,1.0,0.394210977,0.0,0.558925494,0.0,0.540052017,0.0,0.35182128700000004,False,,5ecf68de4145c639871d90d6,,926542,69,,evan-feature22,full_pf_a,,1
45,11149,70,,,,1,1,1.0,0.0,0.0,-1.0,,0.0-72.0,,0.0,1515.0,1.0,0.382300414,0.0,0.577670603,0.0,0.607608448,1.0,0.378261578,False,,5ecf68de4145c639871d90d6,,937836,70,,evan-feature22,full_pf_a,,1
46,11150,71,,,,1,1,0.0,0.0,1.0,0.0,,0.0-73.0,,0.0,1354.0,0.0,0.357596762,0.0,0.5929076529999999,0.0,0.6579790010000001,0.0,0.401326777,False,,5ecf68de4145c639871d90d6,,948952,71,,evan-feature22,full_pf_a,,0
47,11151,72,,,,2,2,0.0,0.0,0.0,-1.0,,0.0-74.0,,0.0,1890.0,1.0,0.362033495,1.0,0.582308608,0.0,0.649195052,0.0,0.355158505,False,,5ecf68de4145c639871d90d6,,960608,72,,evan-feature22,full_pf_a,,1
48,11152,73,,,,1,1,1.0,1.0,0.0,-1.0,,0.0-75.0,,-1.0,1596.0,1.0,0.369620635,1.0,0.669100864,0.0,0.706059111,1.0,0.362516241,False,,5ecf68de4145c639871d90d6,,971970,73,,evan-feature22,full_pf_a,,1
49,11153,74,,,,2,2,1.0,0.0,0.0,-1.0,,0.0-76.0,,0.0,1457.0,1.0,0.41477751399999996,1.0,0.7284416779999999,1.0,0.7182656940000001,0.0,0.36228040899999997,False,,5ecf68de4145c639871d90d6,,983191,74,,evan-feature22,full_pf_a,,1
50,11154,75,,,,2,2,1.0,1.0,1.0,0.0,,0.0-77.0,,1.0,1443.0,0.0,0.37675460299999997,1.0,0.703250285,1.0,0.75,1.0,0.461979164,False,,5ecf68de4145c639871d90d6,,994400,75,,evan-feature22,full_pf_a,,0
51,11155,76,,,,2,2,0.0,1.0,1.0,0.0,,0.0-78.0,,0.0,1270.0,0.0,0.398716075,0.0,0.6723864890000001,0.0,0.674153818,1.0,0.519029516,False,,5ecf68de4145c639871d90d6,,1005437,76,,evan-feature22,full_pf_a,,0
52,11156,77,,,,2,2,1.0,0.0,1.0,0.0,,0.0-79.0,,1.0,1533.0,0.0,0.34677856700000004,1.0,0.69057175,1.0,0.6822438540000001,0.0,0.477292237,False,,5ecf68de4145c639871d90d6,,1016735,77,,evan-feature22,full_pf_a,,0
53,11157,78,,,,1,1,0.0,1.0,0.0,-1.0,,0.0-80.0,,-1.0,813.0,0.0,0.28580469199999997,1.0,0.68408818,0.0,0.684207565,0.0,0.49780448299999996,False,,5ecf68de4145c639871d90d6,,1027310,78,,evan-feature22,full_pf_a,,1
54,11159,80,,,,2,2,0.0,0.0,0.0,-1.0,,0.0-82.0,,0.0,1124.0,0.0,0.25,1.0,0.7405808970000001,0.0,0.679614108,0.0,0.436436964,False,,5ecf68de4145c639871d90d6,,1041028,80,,evan-feature22,full_pf_a,,1
55,11160,81,,,,1,1,0.0,1.0,0.0,-1.0,,0.0-83.0,,-1.0,1418.0,0.0,0.29890393,1.0,0.730505706,0.0,0.7328203320000001,1.0,0.439256938,False,,5ecf68de4145c639871d90d6,,1052210,81,,evan-feature22,full_pf_a,,1
56,11161,82,,,,2,2,1.0,0.0,1.0,0.0,,0.0-84.0,,1.0,1153.0,0.0,0.326762398,1.0,0.7148059609999999,1.0,0.75,0.0,0.44389608799999997,False,,5ecf68de4145c639871d90d6,,1063127,82,,evan-feature22,full_pf_a,,1
57,11162,83,,,,1,1,1.0,1.0,0.0,-1.0,,0.0-85.0,,-1.0,746.0,1.0,0.295168515,1.0,0.739760854,1.0,0.719947008,0.0,0.35277284600000003,False,,5ecf68de4145c639871d90d6,,1073639,83,,evan-feature22,full_pf_a,,1
58,11163,84,,,,2,2,1.0,0.0,0.0,-1.0,,0.0-86.0,,0.0,1353.0,0.0,0.25,0.0,0.70781482,1.0,0.75,0.0,0.286095925,False,,5ecf68de4145c639871d90d6,,1084757,84,,evan-feature22,full_pf_a,,1
59,11164,85,,,,SLOW,SLOW,,,0.0,-1.0,,0.0-87.0,,-3.0,,1.0,0.25638190899999996,1.0,0.704088163,1.0,0.75,1.0,0.26872601399999996,False,,5ecf68de4145c639871d90d6,,1090563,85,,evan-feature22,full_pf_a,,1
60,11165,86,,,,2,2,1.0,0.0,1.0,0.0,,0.0-88.0,,1.0,862.0,0.0,0.271581126,0.0,0.669760107,1.0,0.733896663,0.0,0.273244572,False,,5ecf68de4145c639871d90d6,,1101190,86,,evan-feature22,full_pf_a,,1
61,11166,87,,,,2,2,0.0,0.0,0.0,-1.0,,0.0-89.0,,0.0,2277.0,0.0,0.257144401,0.0,0.600575706,0.0,0.74488122,0.0,0.25,False,,5ecf68de4145c639871d90d6,,1113232,87,,evan-feature22,full_pf_a,,0
62,11167,88,,,,2,2,0.0,0.0,0.0,-1.0,,0.0-90.0,,0.0,649.0,1.0,0.25,1.0,0.616870026,0.0,0.723610234,0.0,0.25,False,,5ecf68de4145c639871d90d6,,1123646,88,,evan-feature22,full_pf_a,,0
63,11168,89,,,,2,2,0.0,0.0,1.0,0.0,,0.0-91.0,,0.0,2259.0,0.0,0.25,1.0,0.583540187,0.0,0.7041042559999999,0.0,0.285961995,False,,5ecf68de4145c639871d90d6,,1135671,89,,evan-feature22,full_pf_a,,0
64,11169,90,,,,2,2,1.0,1.0,1.0,0.0,,0.0-92.0,,1.0,586.0,0.0,0.27254536,0.0,0.53875765,1.0,0.693783448,1.0,0.284961652,False,,5ecf68de4145c639871d90d6,,1146022,90,,evan-feature22,full_pf_a,,0
65,11170,91,,,,2,2,0.0,0.0,1.0,0.0,,0.0-93.0,,0.0,1043.0,0.0,0.25,0.0,0.548431252,0.0,0.734221895,0.0,0.279445214,False,,5ecf68de4145c639871d90d6,,1156829,91,,evan-feature22,full_pf_a,,0
66,11171,92,,,,2,2,0.0,1.0,0.0,-1.0,,0.0-94.0,,-1.0,1235.0,0.0,0.258640684,1.0,0.545878066,0.0,0.725245965,1.0,0.31487537,False,,5ecf68de4145c639871d90d6,,1167831,92,,evan-feature22,full_pf_a,,0
67,11172,93,,,,2,2,0.0,0.0,0.0,-1.0,,0.0-95.0,,0.0,1430.0,1.0,0.251103711,1.0,0.5776290629999999,0.0,0.696320133,0.0,0.317831047,False,,5ecf68de4145c639871d90d6,,1179027,93,,evan-feature22,full_pf_a,,0
68,11173,94,,,,2,2,0.0,0.0,0.0,-1.0,,0.0-96.0,,0.0,1310.0,0.0,0.276630292,1.0,0.617329858,0.0,0.73838088,0.0,0.261471582,False,,5ecf68de4145c639871d90d6,,1190103,94,,evan-feature22,full_pf_a,,0
69,11174,95,,,,2,2,1.0,1.0,0.0,-1.0,,0.0-97.0,,-1.0,1724.0,1.0,0.297716424,1.0,0.618863717,1.0,0.7402358259999999,1.0,0.262600834,False,,5ecf68de4145c639871d90d6,,1201598,95,,evan-feature22,full_pf_a,,0
70,11175,96,,,,2,2,1.0,0.0,1.0,0.0,,0.0-98.0,,1.0,1341.0,0.0,0.290935512,0.0,0.695370945,1.0,0.706570507,0.0,0.280030553,False,,5ecf68de4145c639871d90d6,,1212705,96,,evan-feature22,full_pf_a,,0
71,11176,97,,,,2,2,1.0,0.0,0.0,-1.0,,0.0-99.0,,0.0,1102.0,1.0,0.25,1.0,0.6465277079999999,1.0,0.67766682,0.0,0.25,False,,5ecf68de4145c639871d90d6,,1223574,97,,evan-feature22,full_pf_a,,0
72,11177,98,,,,2,2,1.0,0.0,1.0,0.0,,0.0-100.0,,1.0,1255.0,0.0,0.26463816,0.0,0.636100213,1.0,0.646048507,0.0,0.265607101,False,,5ecf68de4145c639871d90d6,,1234602,98,,evan-feature22,full_pf_a,,0
73,11178,99,,,,2,2,0.0,0.0,1.0,0.0,,0.0-101.0,,0.0,1048.0,1.0,0.314340707,0.0,0.667795927,0.0,0.613630805,0.0,0.25,False,,5ecf68de4145c639871d90d6,,1245416,99,,evan-feature22,full_pf_a,,0
74,11179,100,,,,2,2,1.0,1.0,0.0,-1.0,,0.0-102.0,,-1.0,1160.0,0.0,0.28685784,1.0,0.6622549529999999,1.0,0.652154117,1.0,0.25,False,,5ecf68de4145c639871d90d6,,1256339,100,,evan-feature22,full_pf_a,,0
75,11180,101,,,,2,2,1.0,1.0,0.0,-1.0,,0.0-103.0,,-1.0,2886.0,0.0,0.304106554,0.0,0.631289538,1.0,0.707041942,1.0,0.29314237,False,,5ecf68de4145c639871d90d6,,1268989,101,,evan-feature22,full_pf_a,,0
76,11181,102,,,,2,2,1.0,1.0,0.0,-1.0,,0.0-104.0,,-1.0,1226.0,0.0,0.304806932,1.0,0.571167718,1.0,0.680472346,1.0,0.25,False,,5ecf68de4145c639871d90d6,,1279980,102,,evan-feature22,full_pf_a,,0
77,11182,103,,,,2,2,1.0,1.0,0.0,-1.0,,0.0-105.0,,-1.0,919.0,0.0,0.37919861,0.0,0.5724849710000001,1.0,0.705638003,1.0,0.30179300600000003,False,,5ecf68de4145c639871d90d6,,1290662,103,,evan-feature22,full_pf_a,,0
78,11183,104,,,,2,2,1.0,1.0,0.0,-1.0,,0.0-106.0,,-1.0,952.0,0.0,0.464277969,0.0,0.554034373,1.0,0.7372627340000001,1.0,0.264699741,False,,5ecf68de4145c639871d90d6,,1301379,104,,evan-feature22,full_pf_a,,0
79,11184,105,,,,2,2,1.0,1.0,0.0,-1.0,,0.0-107.0,,-1.0,1206.0,0.0,0.465104323,0.0,0.530793115,1.0,0.75,1.0,0.31683071,False,,5ecf68de4145c639871d90d6,,1312351,105,,evan-feature22,full_pf_a,,0
80,11185,106,,,,2,2,1.0,0.0,1.0,0.0,,0.0-108.0,,1.0,988.0,0.0,0.465104323,0.0,0.530793115,1.0,0.75,0.0,0.31683071,False,,5ecf68de4145c639871d90d6,,1323105,106,,evan-feature22,full_pf_a,,0
81,11186,107,,,,2,2,1.0,0.0,1.0,0.0,,0.0-109.0,,1.0,1399.0,0.0,0.46833986,1.0,0.570249239,1.0,0.7244472590000001,0.0,0.364114163,False,,5ecf68de4145c639871d90d6,,1334268,107,,evan-feature22,full_pf_a,,0
82,11187,108,,,,2,2,1.0,1.0,1.0,0.0,,0.0-110.0,,1.0,1872.0,1.0,0.445444024,1.0,0.649673355,1.0,0.6845441290000001,1.0,0.300660449,False,,5ecf68de4145c639871d90d6,,1345906,108,,evan-feature22,full_pf_a,,0
83,11188,109,,,,2,2,1.0,0.0,1.0,0.0,,0.0-111.0,,1.0,635.0,1.0,0.39909721299999995,1.0,0.6715179509999999,1.0,0.742310028,0.0,0.35496088299999995,False,,5ecf68de4145c639871d90d6,,1356305,109,,evan-feature22,full_pf_a,,0
84,11189,110,,,,2,2,0.0,1.0,0.0,-1.0,,0.0-112.0,,-1.0,2023.0,1.0,0.37956104799999996,0.0,0.694725302,0.0,0.7181651309999999,1.0,0.38726906299999997,False,,5ecf68de4145c639871d90d6,,1368091,110,,evan-feature22,full_pf_a,,0
85,11190,111,,,,1,1,1.0,1.0,0.0,-1.0,,0.0-113.0,,-1.0,2148.0,1.0,0.404995034,1.0,0.724375412,1.0,0.6910946859999999,0.0,0.387187347,False,,5ecf68de4145c639871d90d6,,1380004,111,,evan-feature22,full_pf_a,,1
86,11191,112,,,,2,2,1.0,1.0,1.0,0.0,,0.0-114.0,,1.0,1040.0,1.0,0.461740803,1.0,0.75,1.0,0.75,1.0,0.34872038200000005,False,,5ecf68de4145c639871d90d6,,1390809,112,,evan-feature22,full_pf_a,,1
87,11192,113,,,,2,2,1.0,0.0,1.0,0.0,,0.0-115.0,,1.0,1104.0,0.0,0.43821380600000004,1.0,0.738833273,1.0,0.728286963,0.0,0.399538128,False,,5ecf68de4145c639871d90d6,,1401679,113,,evan-feature22,full_pf_a,,0
88,11193,114,,,,2,2,1.0,1.0,0.0,-1.0,,0.0-116.0,,-1.0,1448.0,0.0,0.41709882,1.0,0.736666736,1.0,0.75,1.0,0.389095584,False,,5ecf68de4145c639871d90d6,,1412891,114,,evan-feature22,full_pf_a,,0
89,11194,115,,,,2,2,1.0,0.0,0.0,-1.0,,0.0-117.0,,0.0,1306.0,0.0,0.39749009799999996,1.0,0.744320029,1.0,0.75,0.0,0.363848678,False,,5ecf68de4145c639871d90d6,,1423961,115,,evan-feature22,full_pf_a,,0
90,11195,116,,,,2,2,1.0,1.0,1.0,0.0,,0.0-118.0,,1.0,1507.0,0.0,0.392653706,1.0,0.75,1.0,0.75,1.0,0.384386976,False,,5ecf68de4145c639871d90d6,,1435233,116,,evan-feature22,full_pf_a,,0
91,11196,117,,,,2,2,0.0,1.0,0.0,-1.0,,0.0-119.0,,-1.0,726.0,1.0,0.31190902600000003,1.0,0.75,0.0,0.732413819,1.0,0.413082932,False,,5ecf68de4145c639871d90d6,,1445725,117,,evan-feature22,full_pf_a,,0
92,11197,118,,,,2,2,1.0,0.0,1.0,0.0,,0.0-120.0,,1.0,1146.0,0.0,0.366917648,1.0,0.740073855,1.0,0.75,0.0,0.352861979,False,,5ecf68de4145c639871d90d6,,1456636,118,,evan-feature22,full_pf_a,,0
93,11198,119,,,,2,2,1.0,0.0,1.0,0.0,,0.0-121.0,,1.0,1831.0,0.0,0.3645172,0.0,0.721770713,1.0,0.75,0.0,0.404074511,False,,5ecf68de4145c639871d90d6,,1468230,119,,evan-feature22,full_pf_a,,0
94,11199,120,,,,2,2,0.0,0.0,1.0,0.0,,0.0-122.0,,0.0,1763.0,1.0,0.35205600299999995,0.0,0.68983859,0.0,0.739735447,0.0,0.366895945,False,,5ecf68de4145c639871d90d6,,1479756,120,,evan-feature22,full_pf_a,,0
95,11200,121,,,,2,2,0.0,0.0,1.0,0.0,,0.0-123.0,,0.0,2172.0,1.0,0.40998722600000004,0.0,0.720859127,0.0,0.673854955,0.0,0.368528541,False,,5ecf68de4145c639871d90d6,,1491692,121,,evan-feature22,full_pf_a,,0
96,11201,122,,,,1,1,0.0,1.0,1.0,0.0,,0.0-124.0,,0.0,624.0,0.0,0.353625316,1.0,0.75,0.0,0.695605473,1.0,0.38303674200000004,False,,5ecf68de4145c639871d90d6,,1502081,122,,evan-feature22,full_pf_a,,1
97,11202,123,,,,1,1,0.0,1.0,1.0,0.0,,0.0-125.0,,0.0,807.0,0.0,0.359216989,1.0,0.75,1.0,0.6987915090000001,1.0,0.35169046200000004,False,,5ecf68de4145c639871d90d6,,1512653,123,,evan-feature22,full_pf_a,,0
98,11203,124,,,,2,2,1.0,0.0,1.0,0.0,,0.0-126.0,,1.0,896.0,0.0,0.35834496899999996,1.0,0.75,1.0,0.707067742,0.0,0.416763636,False,,5ecf68de4145c639871d90d6,,1523314,124,,evan-feature22,full_pf_a,,1
99,11204,125,,,,2,2,1.0,0.0,0.0,-1.0,,0.0-127.0,,0.0,3111.0,0.0,0.38741613799999997,1.0,0.7177369570000001,1.0,0.734902455,0.0,0.49438664299999996,False,,5ecf68de4145c639871d90d6,,1536190,125,,evan-feature22,full_pf_a,,0
100,11205,126,,,,2,2,1.0,1.0,1.0,0.0,,0.0-128.0,,1.0,1498.0,1.0,0.405255252,1.0,0.7300466640000001,1.0,0.7027748070000001,1.0,0.504359668,False,,5ecf68de4145c639871d90d6,,1547454,126,,evan-feature22,full_pf_a,,0
101,11206,127,,,,2,2,1.0,1.0,1.0,0.0,,0.0-129.0,,1.0,942.0,0.0,0.40697073,1.0,0.7260142190000001,1.0,0.724461982,1.0,0.522779179,False,,5ecf68de4145c639871d90d6,,1558165,127,,evan-feature22,full_pf_a,,0
102,11207,128,,,,2,2,1.0,1.0,1.0,0.0,,0.0-130.0,,1.0,1061.0,1.0,0.43906215299999996,1.0,0.7252802340000001,1.0,0.719079934,1.0,0.5712990579999999,False,,5ecf68de4145c639871d90d6,,1568991,128,,evan-feature22,full_pf_a,,0
103,11208,129,,,,1,1,0.0,0.0,0.0,-1.0,,0.0-131.0,,0.0,1376.0,0.0,0.4076705,0.0,0.73280499,1.0,0.681313127,1.0,0.523891346,False,,5ecf68de4145c639871d90d6,,1580133,129,,evan-feature22,full_pf_a,,1
104,11209,130,,,,1,1,0.0,1.0,0.0,-1.0,,0.0-132.0,,-1.0,800.0,0.0,0.399102911,1.0,0.730498344,1.0,0.661080239,0.0,0.46742603,False,,5ecf68de4145c639871d90d6,,1590697,130,,evan-feature22,full_pf_a,,0
105,11210,131,,,,2,2,0.0,1.0,0.0,-1.0,,0.0-133.0,,-1.0,999.0,0.0,0.356477282,0.0,0.712296395,0.0,0.641812684,1.0,0.44868414,False,,5ecf68de4145c639871d90d6,,1601455,131,,evan-feature22,full_pf_a,,1
106,11211,132,,,,2,2,0.0,1.0,1.0,0.0,,0.0-134.0,,0.0,980.0,0.0,0.462760722,0.0,0.692349322,0.0,0.700947931,1.0,0.394680266,False,,5ecf68de4145c639871d90d6,,1612196,132,,evan-feature22,full_pf_a,,0
107,11212,133,,,,2,2,1.0,0.0,1.0,0.0,,0.0-135.0,,1.0,1189.0,0.0,0.422306413,0.0,0.718375916,1.0,0.706340917,0.0,0.367787185,False,,5ecf68de4145c639871d90d6,,1623150,133,,evan-feature22,full_pf_a,,0
108,11214,135,,,,2,2,1.0,1.0,1.0,0.0,,0.0-137.0,,1.0,725.0,1.0,0.4582233,0.0,0.643834117,1.0,0.75,1.0,0.39615823299999997,False,,5ecf68de4145c639871d90d6,,1636174,135,,evan-feature22,full_pf_a,,0
109,11215,136,,,,2,2,0.0,0.0,1.0,0.0,,0.0-138.0,,0.0,951.0,1.0,0.43813437899999996,1.0,0.651283804,0.0,0.729674191,0.0,0.37711048,False,,5ecf68de4145c639871d90d6,,1646889,136,,evan-feature22,full_pf_a,,0
110,11216,137,,,,2,2,1.0,0.0,1.0,0.0,,0.0-139.0,,1.0,1284.0,1.0,0.471199094,1.0,0.6470010979999999,1.0,0.715008097,0.0,0.410656191,False,,5ecf68de4145c639871d90d6,,1657940,137,,evan-feature22,full_pf_a,,0
111,11217,138,,,,2,2,0.0,0.0,1.0,0.0,,0.0-140.0,,0.0,1174.0,1.0,0.42486406,1.0,0.629771829,0.0,0.6550939960000001,0.0,0.459093873,False,,5ecf68de4145c639871d90d6,,1668883,138,,evan-feature22,full_pf_a,,0
112,11218,139,,,,2,2,1.0,0.0,1.0,0.0,,0.0-141.0,,1.0,1572.0,0.0,0.4803197,0.0,0.645842715,1.0,0.6421749920000001,0.0,0.443092151,False,,5ecf68de4145c639871d90d6,,1680220,139,,evan-feature22,full_pf_a,,0
113,11219,140,,,,1,1,0.0,1.0,0.0,-1.0,,0.0-142.0,,-1.0,2076.0,0.0,0.521848997,1.0,0.735801074,1.0,0.6691348460000001,0.0,0.45259351600000003,False,,5ecf68de4145c639871d90d6,,1692061,140,,evan-feature22,full_pf_a,,1
114,11220,141,,,,2,2,1.0,1.0,1.0,0.0,,0.0-143.0,,1.0,1189.0,1.0,0.49565621299999996,1.0,0.742400847,1.0,0.661512553,1.0,0.483110831,False,,5ecf68de4145c639871d90d6,,1703014,141,,evan-feature22,full_pf_a,,1
115,11221,142,,,,2,2,0.0,0.0,1.0,0.0,,0.0-144.0,,0.0,1006.0,0.0,0.521564361,1.0,0.731078632,0.0,0.6774886809999999,0.0,0.483263956,False,,5ecf68de4145c639871d90d6,,1713784,142,,evan-feature22,full_pf_a,,0
116,11222,143,,,,2,2,1.0,0.0,1.0,0.0,,0.0-145.0,,1.0,993.0,0.0,0.558893102,1.0,0.719810023,1.0,0.67461031,0.0,0.499349834,False,,5ecf68de4145c639871d90d6,,1724541,143,,evan-feature22,full_pf_a,,0
117,11223,144,,,,2,2,0.0,1.0,1.0,0.0,,0.0-146.0,,0.0,1590.0,0.0,0.611031046,0.0,0.75,0.0,0.688072995,1.0,0.5321422729999999,False,,5ecf68de4145c639871d90d6,,1735896,144,,evan-feature22,full_pf_a,,0
118,11224,145,,,,2,2,1.0,0.0,0.0,-1.0,,0.0-147.0,,0.0,960.0,0.0,0.633223941,1.0,0.713567728,1.0,0.75,0.0,0.48185314700000004,False,,5ecf68de4145c639871d90d6,,1746621,145,,evan-feature22,full_pf_a,,0
119,11225,146,,,,2,2,1.0,1.0,1.0,0.0,,0.0-148.0,,1.0,1279.0,1.0,0.664001694,0.0,0.705509768,1.0,0.75,1.0,0.500211065,False,,5ecf68de4145c639871d90d6,,1757664,146,,evan-feature22,full_pf_a,,0
120,11226,147,,,,2,2,0.0,0.0,1.0,0.0,,0.0-149.0,,0.0,1134.0,1.0,0.664001694,1.0,0.705509768,0.0,0.75,0.0,0.500211065,False,,5ecf68de4145c639871d90d6,,1768562,147,,evan-feature22,full_pf_a,,0
121,11227,148,,,,2,2,0.0,0.0,1.0,0.0,,0.0-150.0,,0.0,1154.0,1.0,0.696508041,1.0,0.71066027,0.0,0.717028709,0.0,0.49792991,False,,5ecf68de4145c639871d90d6,,1779483,148,,evan-feature22,full_pf_a,,0
122,11228,149,,,,2,2,1.0,0.0,0.0,-1.0,,0.0-151.0,,0.0,1446.0,1.0,0.699883272,0.0,0.75,1.0,0.713543895,0.0,0.496962643,False,,5ecf68de4145c639871d90d6,,1790693,149,,evan-feature22,full_pf_a,,0
123,11229,150,,,,2,2,1.0,0.0,0.0,-1.0,,0.0-152.0,,0.0,966.0,0.0,0.741163419,1.0,0.75,1.0,0.64691024,0.0,0.513858197,False,,5ecf68de4145c639871d90d6,,1801424,150,,evan-feature22,full_pf_a,,0
124,11230,151,,,,2,2,1.0,0.0,0.0,-1.0,,0.0-153.0,,0.0,1156.0,1.0,0.75,1.0,0.70816558,1.0,0.594499079,0.0,0.48502124,False,,5ecf68de4145c639871d90d6,,1812345,151,,evan-feature22,full_pf_a,,0
125,11231,152,,,,2,2,0.0,1.0,1.0,0.0,,0.0-154.0,,0.0,1543.0,1.0,0.75,1.0,0.721848901,0.0,0.62197249,1.0,0.48263586399999997,False,,5ecf68de4145c639871d90d6,,1823652,152,,evan-feature22,full_pf_a,,0
126,11232,153,,,,2,2,0.0,0.0,1.0,0.0,,0.0-155.0,,0.0,1325.0,1.0,0.75,1.0,0.74813071,0.0,0.584357161,0.0,0.411477782,False,,5ecf68de4145c639871d90d6,,1834740,153,,evan-feature22,full_pf_a,,0
127,11233,154,,,,2,2,0.0,1.0,1.0,0.0,,0.0-156.0,,0.0,3240.0,1.0,0.75,0.0,0.75,0.0,0.52287236,1.0,0.488290656,False,,5ecf68de4145c639871d90d6,,1847744,154,,evan-feature22,full_pf_a,,0
128,11234,155,,,,1,1,1.0,1.0,1.0,0.0,,0.0-157.0,,1.0,1106.0,1.0,0.75,1.0,0.75,0.0,0.544321581,0.0,0.53143059,False,,5ecf68de4145c639871d90d6,,1858617,155,,evan-feature22,full_pf_a,,1
129,11235,156,,,,1,1,1.0,1.0,1.0,0.0,,0.0-158.0,,1.0,1214.0,1.0,0.726754564,1.0,0.75,1.0,0.5129306370000001,1.0,0.530592445,False,,5ecf68de4145c639871d90d6,,1869597,156,,evan-feature22,full_pf_a,,0
130,11236,157,,,,2,2,0.0,0.0,0.0,-1.0,,0.0-159.0,,0.0,1243.0,1.0,0.75,1.0,0.7392590729999999,0.0,0.479875835,0.0,0.547007051,False,,5ecf68de4145c639871d90d6,,1880607,157,,evan-feature22,full_pf_a,,1
131,11237,158,,,,2,2,0.0,1.0,0.0,-1.0,,0.0-160.0,,-1.0,931.0,1.0,0.75,1.0,0.7393376979999999,0.0,0.546045419,1.0,0.541267353,False,,5ecf68de4145c639871d90d6,,1891307,158,,evan-feature22,full_pf_a,,0
132,11238,159,,,,1,1,1.0,0.0,1.0,0.0,,0.0-161.0,,1.0,950.0,1.0,0.75,0.0,0.75,1.0,0.485725895,0.0,0.527625395,False,,5ecf68de4145c639871d90d6,,1902024,159,,evan-feature22,full_pf_a,,1
133,11239,160,,,,2,2,1.0,0.0,0.0,-1.0,,0.0-162.0,,0.0,775.0,1.0,0.75,1.0,0.725087974,1.0,0.488603595,0.0,0.504019206,False,,5ecf68de4145c639871d90d6,,1912566,160,,evan-feature22,full_pf_a,,1
134,11240,161,,,,1,1,1.0,1.0,1.0,0.0,,0.0-163.0,,1.0,775.0,1.0,0.745504295,1.0,0.75,0.0,0.452379914,0.0,0.50131194,False,,5ecf68de4145c639871d90d6,,1923105,161,,evan-feature22,full_pf_a,,1
135,11241,162,,,,2,2,0.0,0.0,0.0,-1.0,,0.0-164.0,,0.0,830.0,1.0,0.728513874,1.0,0.75,0.0,0.44125567200000004,0.0,0.531454591,False,,5ecf68de4145c639871d90d6,,1933700,162,,evan-feature22,full_pf_a,,1
136,11242,163,,,,1,1,1.0,1.0,1.0,0.0,,0.0-165.0,,1.0,895.0,1.0,0.73790804,1.0,0.75,1.0,0.413036656,1.0,0.524619035,False,,5ecf68de4145c639871d90d6,,1944363,163,,evan-feature22,full_pf_a,,1
137,11243,164,,,,1,1,1.0,1.0,1.0,0.0,,0.0-166.0,,1.0,780.0,1.0,0.7080961309999999,1.0,0.708666865,0.0,0.431915581,1.0,0.481819489,False,,5ecf68de4145c639871d90d6,,1954910,164,,evan-feature22,full_pf_a,,0
138,11244,165,,,,1,1,0.0,1.0,1.0,0.0,,0.0-167.0,,0.0,919.0,0.0,0.721378003,1.0,0.71605913,1.0,0.36642387,1.0,0.5036739929999999,False,,5ecf68de4145c639871d90d6,,1965593,165,,evan-feature22,full_pf_a,,0
139,11245,166,,,,2,2,0.0,1.0,0.0,-1.0,,0.0-168.0,,-1.0,1583.0,1.0,0.7340618959999999,1.0,0.699323252,0.0,0.35298046299999997,1.0,0.511241692,False,,5ecf68de4145c639871d90d6,,1976943,166,,evan-feature22,full_pf_a,,1
140,11246,167,,,,2,2,1.0,0.0,0.0,-1.0,,0.0-169.0,,0.0,1339.0,0.0,0.75,1.0,0.70412698,1.0,0.380734814,0.0,0.529580116,False,,5ecf68de4145c639871d90d6,,1988048,167,,evan-feature22,full_pf_a,,0
141,11247,168,,,,2,2,0.0,1.0,0.0,-1.0,,0.0-170.0,,-1.0,674.0,0.0,0.7436654909999999,1.0,0.711182751,0.0,0.41125331,1.0,0.49554405,False,,5ecf68de4145c639871d90d6,,1998489,168,,evan-feature22,full_pf_a,,0
142,11248,169,,,,1,1,0.0,1.0,1.0,0.0,,0.0-171.0,,0.0,1364.0,0.0,0.731607915,1.0,0.651774583,0.0,0.35688023,1.0,0.45194491600000003,False,,5ecf68de4145c639871d90d6,,2009621,169,,evan-feature22,full_pf_a,,1
143,11249,170,,,,2,2,0.0,0.0,0.0,-1.0,,0.0-172.0,,0.0,691.0,0.0,0.75,1.0,0.75,0.0,0.283145374,0.0,0.528608005,False,,5ecf68de4145c639871d90d6,,2020078,170,,evan-feature22,full_pf_a,,1
144,11250,171,,,,1,1,1.0,1.0,1.0,0.0,,0.0-173.0,,1.0,1241.0,1.0,0.7491416890000001,1.0,0.7423785959999999,0.0,0.29135870399999997,1.0,0.498888318,False,,5ecf68de4145c639871d90d6,,2031086,171,,evan-feature22,full_pf_a,,1
145,11251,172,,,,2,2,0.0,0.0,0.0,-1.0,,0.0-174.0,,0.0,877.0,1.0,0.708569387,1.0,0.717682277,0.0,0.294421699,0.0,0.493838163,False,,5ecf68de4145c639871d90d6,,2041727,172,,evan-feature22,full_pf_a,,1
146,11252,173,,,,SLOW,SLOW,,,1.0,0.0,,0.0-175.0,,-3.0,,1.0,0.75,1.0,0.7383382159999999,0.0,0.356098707,0.0,0.442533405,False,,5ecf68de4145c639871d90d6,,2047534,173,,evan-feature22,full_pf_a,,1
147,11253,174,,,,1,1,0.0,1.0,1.0,0.0,,0.0-176.0,,0.0,888.0,0.0,0.744527075,1.0,0.75,0.0,0.334127506,0.0,0.393165805,False,,5ecf68de4145c639871d90d6,,2058187,174,,evan-feature22,full_pf_a,,1
148,11254,175,,,,1,1,1.0,0.0,1.0,0.0,,0.0-177.0,,1.0,1892.0,1.0,0.75,0.0,0.75,0.0,0.33571021799999995,0.0,0.350393962,False,,5ecf68de4145c639871d90d6,,2069844,175,,evan-feature22,full_pf_a,,0
149,11255,176,,,,2,2,0.0,0.0,0.0,-1.0,,0.0-178.0,,0.0,735.0,0.0,0.75,1.0,0.75,0.0,0.313628297,0.0,0.36349657399999996,False,,5ecf68de4145c639871d90d6,,2080346,176,,evan-feature22,full_pf_a,,1
150,11256,177,,,,1,1,1.0,1.0,1.0,0.0,,0.0-179.0,,1.0,640.0,1.0,0.75,1.0,0.734284182,0.0,0.262667667,0.0,0.380199119,False,,5ecf68de4145c639871d90d6,,2090749,177,,evan-feature22,full_pf_a,,1
151,11257,178,,,,1,1,1.0,1.0,1.0,0.0,,0.0-180.0,,1.0,1191.0,1.0,0.75,1.0,0.75,1.0,0.25,0.0,0.394494013,False,,5ecf68de4145c639871d90d6,,2101708,178,,evan-feature22,full_pf_a,,0
152,11258,179,,,,1,1,1.0,0.0,1.0,0.0,,0.0-181.0,,1.0,635.0,1.0,0.722298145,0.0,0.7357822340000001,0.0,0.25,1.0,0.319142121,False,,5ecf68de4145c639871d90d6,,2112110,179,,evan-feature22,full_pf_a,,0
153,11259,180,,,,1,1,1.0,0.0,1.0,0.0,,0.0-182.0,,1.0,786.0,1.0,0.73149275,0.0,0.724276446,0.0,0.305856907,1.0,0.281315057,False,,5ecf68de4145c639871d90d6,,2122661,180,,evan-feature22,full_pf_a,,0
154,11260,181,,,,1,1,1.0,1.0,1.0,0.0,,0.0-183.0,,1.0,1810.0,1.0,0.7458732690000001,1.0,0.7336382459999999,0.0,0.272571964,1.0,0.266021999,False,,5ecf68de4145c639871d90d6,,2134237,181,,evan-feature22,full_pf_a,,0
155,11261,182,,,,2,2,1.0,1.0,0.0,-1.0,,0.0-184.0,,-1.0,646.0,1.0,0.705579037,1.0,0.720778292,1.0,0.320238144,1.0,0.30971744,False,,5ecf68de4145c639871d90d6,,2144650,182,,evan-feature22,full_pf_a,,1
156,11262,183,,,,1,1,1.0,1.0,0.0,-1.0,,0.0-185.0,,-1.0,2006.0,1.0,0.700425648,1.0,0.7198784009999999,0.0,0.272590393,0.0,0.304182931,False,,5ecf68de4145c639871d90d6,,2156422,183,,evan-feature22,full_pf_a,,1
157,11263,184,,,,2,2,1.0,0.0,0.0,-1.0,,0.0-186.0,,0.0,1391.0,0.0,0.735590785,0.0,0.722714973,1.0,0.25,0.0,0.323421091,False,,5ecf68de4145c639871d90d6,,2167579,184,,evan-feature22,full_pf_a,,1
158,11264,185,,,,2,2,0.0,0.0,0.0,-1.0,,0.0-187.0,,0.0,1730.0,1.0,0.724807662,1.0,0.63146213,0.0,0.36836492600000004,0.0,0.34592153299999995,False,,5ecf68de4145c639871d90d6,,2179074,185,,evan-feature22,full_pf_a,,0
159,11265,186,,,,1,1,1.0,1.0,1.0,0.0,,0.0-188.0,,1.0,1169.0,1.0,0.7352796909999999,1.0,0.555111392,0.0,0.36003922,0.0,0.31433779999999995,False,,5ecf68de4145c639871d90d6,,2190008,186,,evan-feature22,full_pf_a,,1
160,11266,187,notice,,,,,,,,,,0.0-189.0,"{""Q0"":""the first seemed more random, whereas the second the probability seemed more defined""}",,32872.0,,,,,,,,,False,,5ecf68de4145c639871d90d6,,2222883,187,Q,survey-text,full_pf_a,,1
161,11267,188,track1,,[0],,,,,,,,0.0-190.0,"{""Q0"":""yes""}",,3409.0,,,,,,,,,False,,5ecf68de4145c639871d90d6,,2226297,188,Q,evan-quiz,full_pf_a,,1
162,11268,189,track2,,[0],,,,,,,,0.0-191.0,"{""Q0"":""yes""}",,5390.0,,,,,,,,,False,,5ecf68de4145c639871d90d6,,2231689,189,Q,evan-quiz,full_pf_a,,1
163,11269,190,strat,,,,,,,,,,0.0-192.0,"{""Q0"":""stuck to one door and then if I had bad luck there after a few rounds I would switch""}",,31305.0,,,,,,,,,False,,5ecf68de4145c639871d90d6,,2262998,190,Q,survey-text,full_pf_a,,1
