,index,Unnamed: 0,Q_name,button_pressed,choice_idxs,chosen_pos,chosen_state,chosen_state_f_1_outcome,chosen_state_f_2_outcome,f_1_reward,f_2_reward,incor_questions,internal_node_id,responses,reward_received,rt,s_1_f_1_outcome,s_1_f_1_prob,s_1_f_2_outcome,s_1_f_2_prob,s_2_f_1_outcome,s_2_f_1_prob,s_2_f_2_outcome,s_2_f_2_prob,safe_first,stimulus,subjectID,success,time_elapsed,trial_index,trial_num,trial_type,version,view_history,switching
0,30890,35,,,,1,1,1.0,1.0,1.0,0.0,,0.0-27.0,,1.0,3022.2,1.0,0.6,1.0,0.6,0.0,0.4,1.0,0.4,True,,5f74a934c78e6208615393b7,,1088941,35,,evan-feature22,full_rf_a,,0
1,30891,36,,,,1,1,1.0,1.0,1.0,0.0,,0.0-28.0,,1.0,1516.875,1.0,0.608053294,1.0,0.63424552,1.0,0.397152172,1.0,0.347069101,True,,5f74a934c78e6208615393b7,,1100303,36,,evan-feature22,full_rf_a,,0
2,30892,37,,,,1,1,1.0,1.0,1.0,0.0,,0.0-29.0,,1.0,491.295,1.0,0.642237155,1.0,0.648566321,1.0,0.389407674,1.0,0.285525717,True,,5f74a934c78e6208615393b7,,1110576,37,,evan-feature22,full_rf_a,,0
3,30893,38,,,,1,1,0.0,1.0,1.0,0.0,,0.0-30.0,,0.0,979.285,0.0,0.661086576,1.0,0.630492543,1.0,0.399058924,1.0,0.25,True,,5f74a934c78e6208615393b7,,1121368,38,,evan-feature22,full_rf_a,,0
4,30894,39,,,,1,1,1.0,1.0,0.0,-1.0,,0.0-31.0,,-1.0,1124.17,1.0,0.631324137,1.0,0.6269842929999999,1.0,0.38734784299999997,0.0,0.25,True,,5f74a934c78e6208615393b7,,1132309,39,,evan-feature22,full_rf_a,,0
5,30895,40,,,,2,2,1.0,0.0,0.0,-1.0,,0.0-32.0,,0.0,796.21,1.0,0.6381991370000001,1.0,0.68987999,1.0,0.384107265,0.0,0.271332943,True,,5f74a934c78e6208615393b7,,1142896,40,,evan-feature22,full_rf_a,,1
6,30896,41,,,,2,2,0.0,0.0,1.0,0.0,,0.0-33.0,,0.0,855.96,1.0,0.66034901,0.0,0.742641349,0.0,0.360225629,0.0,0.25,True,,5f74a934c78e6208615393b7,,1153544,41,,evan-feature22,full_rf_a,,0
7,30897,42,,,,2,2,0.0,0.0,1.0,0.0,,0.0-34.0,,0.0,1011.88,0.0,0.638612418,1.0,0.75,0.0,0.367273939,0.0,0.25,True,,5f74a934c78e6208615393b7,,1164356,42,,evan-feature22,full_rf_a,,0
8,30898,43,,,,2,2,0.0,0.0,0.0,-1.0,,0.0-35.0,,0.0,1760.57,1.0,0.624340629,1.0,0.75,0.0,0.425829545,0.0,0.25,True,,5f74a934c78e6208615393b7,,1175900,43,,evan-feature22,full_rf_a,,0
9,30899,44,,,,1,1,1.0,1.0,0.0,-1.0,,0.0-36.0,,-1.0,717.85,1.0,0.621999804,1.0,0.75,1.0,0.368609357,0.0,0.25,True,,5f74a934c78e6208615393b7,,1186423,44,,evan-feature22,full_rf_a,,1
10,30900,45,,,,2,2,0.0,0.0,1.0,0.0,,0.0-37.0,,0.0,289.975,1.0,0.62666403,1.0,0.75,0.0,0.311151498,0.0,0.25,True,,5f74a934c78e6208615393b7,,1196515,45,,evan-feature22,full_rf_a,,1
11,30901,46,,,,2,2,1.0,0.0,0.0,-1.0,,0.0-38.0,,0.0,883.46,1.0,0.6819650009999999,1.0,0.75,1.0,0.310763048,0.0,0.25,True,,5f74a934c78e6208615393b7,,1207198,46,,evan-feature22,full_rf_a,,0
12,30902,47,,,,2,2,0.0,0.0,1.0,0.0,,0.0-39.0,,0.0,901.43,1.0,0.740626951,1.0,0.75,0.0,0.25,0.0,0.25,True,,5f74a934c78e6208615393b7,,1217896,47,,evan-feature22,full_rf_a,,0
13,30903,48,,,,1,1,1.0,1.0,1.0,0.0,,0.0-40.0,,1.0,400.03,1.0,0.739599242,1.0,0.742034978,1.0,0.25397114600000004,0.0,0.25,True,,5f74a934c78e6208615393b7,,1228092,48,,evan-feature22,full_rf_a,,1
14,30904,49,,,,1,1,1.0,1.0,1.0,0.0,,0.0-41.0,,1.0,396.435,1.0,0.732341315,1.0,0.72735643,0.0,0.25,0.0,0.25,True,,5f74a934c78e6208615393b7,,1238304,49,,evan-feature22,full_rf_a,,0
15,30905,50,,,,1,1,1.0,0.0,1.0,0.0,,0.0-42.0,,1.0,714.49,1.0,0.7062287770000001,0.0,0.75,0.0,0.29002151,0.0,0.288256649,True,,5f74a934c78e6208615393b7,,1248830,50,,evan-feature22,full_rf_a,,0
16,30906,51,,,,1,1,1.0,0.0,1.0,0.0,,0.0-43.0,,1.0,98.86,1.0,0.7086029209999999,0.0,0.75,1.0,0.274129113,1.0,0.262851608,True,,5f74a934c78e6208615393b7,,1258737,51,,evan-feature22,full_rf_a,,0
17,30907,52,,,,1,1,1.0,0.0,1.0,0.0,,0.0-44.0,,1.0,378.195,1.0,0.669189651,0.0,0.727614338,0.0,0.298444036,0.0,0.296944518,True,,5f74a934c78e6208615393b7,,1268901,52,,evan-feature22,full_rf_a,,0
18,30908,53,,,,1,1,1.0,1.0,1.0,0.0,,0.0-45.0,,1.0,482.195,1.0,0.6819912929999999,1.0,0.7179434290000001,0.0,0.265003961,0.0,0.28157921199999997,True,,5f74a934c78e6208615393b7,,1279220,53,,evan-feature22,full_rf_a,,0
19,30909,54,,,,1,1,0.0,0.0,0.0,-1.0,,0.0-46.0,,0.0,682.44,0.0,0.665275002,0.0,0.723065271,0.0,0.260414971,1.0,0.30973870000000003,True,,5f74a934c78e6208615393b7,,1289701,54,,evan-feature22,full_rf_a,,0
20,30910,55,,,,2,2,0.0,0.0,1.0,0.0,,0.0-47.0,,0.0,584.125,1.0,0.6660593260000001,1.0,0.728032907,0.0,0.30922817,0.0,0.338778608,True,,5f74a934c78e6208615393b7,,1300086,55,,evan-feature22,full_rf_a,,1
21,30911,56,,,,1,1,1.0,1.0,1.0,0.0,,0.0-48.0,,1.0,683.695,1.0,0.702068785,1.0,0.6528750879999999,1.0,0.287329608,0.0,0.35789613200000003,True,,5f74a934c78e6208615393b7,,1310557,56,,evan-feature22,full_rf_a,,1
22,30912,57,,,,1,1,0.0,0.0,1.0,0.0,,0.0-49.0,,0.0,324.79,0.0,0.651939787,0.0,0.636725589,0.0,0.284834488,0.0,0.358563756,True,,5f74a934c78e6208615393b7,,1320672,57,,evan-feature22,full_rf_a,,0
23,30913,58,,,,1,1,0.0,1.0,0.0,-1.0,,0.0-50.0,,-1.0,435.64,0.0,0.67573929,1.0,0.612550049,0.0,0.37130387600000003,0.0,0.383542402,True,,5f74a934c78e6208615393b7,,1330898,58,,evan-feature22,full_rf_a,,0
24,30914,59,,,,2,2,0.0,1.0,0.0,-1.0,,0.0-51.0,,-1.0,353.025,1.0,0.620753801,0.0,0.60513644,0.0,0.385529434,1.0,0.340361743,True,,5f74a934c78e6208615393b7,,1341060,59,,evan-feature22,full_rf_a,,1
25,30915,60,,,,1,1,1.0,1.0,0.0,-1.0,,0.0-52.0,,-1.0,477.86,1.0,0.673564893,1.0,0.672437924,0.0,0.292955382,0.0,0.337633795,True,,5f74a934c78e6208615393b7,,1351366,60,,evan-feature22,full_rf_a,,1
26,30916,61,,,,2,2,1.0,0.0,1.0,0.0,,0.0-53.0,,1.0,599.395,1.0,0.6749427,1.0,0.724197502,1.0,0.32391132100000003,0.0,0.350995264,True,,5f74a934c78e6208615393b7,,1361779,61,,evan-feature22,full_rf_a,,1
27,30917,62,,,,2,2,1.0,0.0,1.0,0.0,,0.0-54.0,,1.0,525.075,1.0,0.6940159379999999,1.0,0.75,1.0,0.31710554399999996,0.0,0.413450341,True,,5f74a934c78e6208615393b7,,1372100,62,,evan-feature22,full_rf_a,,0
28,30918,63,,,,2,2,0.0,0.0,1.0,0.0,,0.0-55.0,,0.0,736.02,0.0,0.6916018270000001,0.0,0.69001187,0.0,0.261817804,0.0,0.40038635,True,,5f74a934c78e6208615393b7,,1382611,63,,evan-feature22,full_rf_a,,0
29,30919,64,,,,2,2,0.0,0.0,1.0,0.0,,0.0-56.0,,0.0,487.49,1.0,0.641061544,0.0,0.71337992,0.0,0.277296461,0.0,0.47372791700000005,True,,5f74a934c78e6208615393b7,,1392894,64,,evan-feature22,full_rf_a,,0
30,30920,65,,,,1,1,0.0,1.0,1.0,0.0,,0.0-57.0,,0.0,302.305,0.0,0.6082438520000001,1.0,0.708471106,1.0,0.28745137,0.0,0.564174476,True,,5f74a934c78e6208615393b7,,1402992,65,,evan-feature22,full_rf_a,,1
31,30921,66,,,,1,1,0.0,1.0,1.0,0.0,,0.0-58.0,,0.0,425.25,0.0,0.6051112120000001,1.0,0.7118147229999999,0.0,0.272390611,1.0,0.5595149939999999,True,,5f74a934c78e6208615393b7,,1413242,66,,evan-feature22,full_rf_a,,0
32,30922,67,,,,2,2,1.0,0.0,1.0,0.0,,0.0-59.0,,1.0,873.46,1.0,0.582420852,1.0,0.635867583,1.0,0.31089574,0.0,0.5227206520000001,True,,5f74a934c78e6208615393b7,,1423892,67,,evan-feature22,full_rf_a,,1
33,30923,68,,,,2,2,0.0,1.0,0.0,-1.0,,0.0-60.0,,-1.0,436.185,1.0,0.623195575,0.0,0.655026044,0.0,0.25,1.0,0.560387538,True,,5f74a934c78e6208615393b7,,1434122,68,,evan-feature22,full_rf_a,,0
34,30924,69,,,,1,1,0.0,0.0,1.0,0.0,,0.0-61.0,,0.0,589.915,0.0,0.601889598,0.0,0.678198724,0.0,0.25,1.0,0.559922936,True,,5f74a934c78e6208615393b7,,1444516,69,,evan-feature22,full_rf_a,,1
35,30925,70,,,,2,2,0.0,1.0,1.0,0.0,,0.0-62.0,,0.0,485.63,1.0,0.601259914,0.0,0.704681482,0.0,0.33908969299999997,1.0,0.505003715,True,,5f74a934c78e6208615393b7,,1454815,70,,evan-feature22,full_rf_a,,1
36,30926,71,,,,1,1,0.0,1.0,1.0,0.0,,0.0-63.0,,0.0,650.63,0.0,0.59645454,1.0,0.710437172,0.0,0.327441879,1.0,0.391749613,True,,5f74a934c78e6208615393b7,,1465249,71,,evan-feature22,full_rf_a,,1
37,30927,72,,,,2,2,0.0,0.0,1.0,0.0,,0.0-64.0,,0.0,454.825,0.0,0.529473,1.0,0.636758527,0.0,0.301338063,0.0,0.365661481,True,,5f74a934c78e6208615393b7,,1475501,72,,evan-feature22,full_rf_a,,1
38,30928,73,,,,1,1,1.0,0.0,0.0,-1.0,,0.0-65.0,,0.0,397.13,1.0,0.541657162,0.0,0.634541962,0.0,0.343535366,0.0,0.371763742,True,,5f74a934c78e6208615393b7,,1485703,73,,evan-feature22,full_rf_a,,1
39,30929,74,,,,1,1,1.0,1.0,1.0,0.0,,0.0-66.0,,1.0,395.21,1.0,0.5707533260000001,1.0,0.589121171,1.0,0.326428396,1.0,0.43961622899999997,True,,5f74a934c78e6208615393b7,,1495900,74,,evan-feature22,full_rf_a,,0
40,30930,75,,,,1,1,1.0,1.0,1.0,0.0,,0.0-67.0,,1.0,451.035,1.0,0.5707533260000001,1.0,0.589121171,0.0,0.326428396,1.0,0.43961622899999997,True,,5f74a934c78e6208615393b7,,1506152,75,,evan-feature22,full_rf_a,,0
41,30931,76,,,,1,1,0.0,1.0,1.0,0.0,,0.0-68.0,,0.0,440.22,0.0,0.506271295,1.0,0.641775594,0.0,0.37149690700000004,0.0,0.404330166,True,,5f74a934c78e6208615393b7,,1516407,76,,evan-feature22,full_rf_a,,0
42,30932,77,,,,2,2,0.0,1.0,0.0,-1.0,,0.0-69.0,,-1.0,430.26,0.0,0.455642565,1.0,0.623605825,0.0,0.358753011,1.0,0.346174041,True,,5f74a934c78e6208615393b7,,1526641,77,,evan-feature22,full_rf_a,,1
43,30933,78,,,,1,1,1.0,0.0,0.0,-1.0,,0.0-70.0,,0.0,356.805,1.0,0.483677308,0.0,0.5904681070000001,1.0,0.402218411,1.0,0.35344697,True,,5f74a934c78e6208615393b7,,1536783,78,,evan-feature22,full_rf_a,,1
44,30934,79,,,,2,2,1.0,1.0,0.0,-1.0,,0.0-71.0,,-1.0,336.25,0.0,0.394210977,1.0,0.558925494,1.0,0.540052017,1.0,0.35182128700000004,True,,5f74a934c78e6208615393b7,,1546892,79,,evan-feature22,full_rf_a,,1
45,30935,80,,,,1,1,1.0,0.0,1.0,0.0,,0.0-72.0,,1.0,473.135,1.0,0.382300414,0.0,0.577670603,1.0,0.607608448,1.0,0.378261578,True,,5f74a934c78e6208615393b7,,1557173,80,,evan-feature22,full_rf_a,,1
46,30936,81,,,,1,1,0.0,1.0,1.0,0.0,,0.0-73.0,,0.0,388.24,0.0,0.357596762,1.0,0.5929076529999999,1.0,0.6579790010000001,0.0,0.401326777,True,,5f74a934c78e6208615393b7,,1567346,81,,evan-feature22,full_rf_a,,0
47,30937,82,,,,1,1,1.0,1.0,1.0,0.0,,0.0-74.0,,1.0,491.57,1.0,0.362033495,1.0,0.582308608,0.0,0.649195052,0.0,0.355158505,True,,5f74a934c78e6208615393b7,,1577645,82,,evan-feature22,full_rf_a,,0
48,30938,83,,,,1,1,0.0,0.0,1.0,0.0,,0.0-75.0,,0.0,371.325,0.0,0.369620635,0.0,0.669100864,1.0,0.706059111,1.0,0.362516241,True,,5f74a934c78e6208615393b7,,1587817,83,,evan-feature22,full_rf_a,,0
49,30939,84,,,,2,2,1.0,1.0,1.0,0.0,,0.0-76.0,,1.0,350.07,1.0,0.41477751399999996,0.0,0.7284416779999999,1.0,0.7182656940000001,1.0,0.36228040899999997,True,,5f74a934c78e6208615393b7,,1597987,84,,evan-feature22,full_rf_a,,1
50,30940,85,,,,2,2,0.0,0.0,0.0,-1.0,,0.0-77.0,,0.0,355.72,1.0,0.37675460299999997,1.0,0.703250285,0.0,0.75,0.0,0.461979164,True,,5f74a934c78e6208615393b7,,1608163,85,,evan-feature22,full_rf_a,,0
51,30941,86,,,,1,1,0.0,0.0,0.0,-1.0,,0.0-78.0,,0.0,436.455,0.0,0.398716075,0.0,0.6723864890000001,1.0,0.674153818,0.0,0.519029516,True,,5f74a934c78e6208615393b7,,1618390,86,,evan-feature22,full_rf_a,,1
52,30942,87,,,,2,2,1.0,1.0,1.0,0.0,,0.0-79.0,,1.0,694.665,0.0,0.34677856700000004,1.0,0.69057175,1.0,0.6822438540000001,1.0,0.477292237,True,,5f74a934c78e6208615393b7,,1628896,87,,evan-feature22,full_rf_a,,1
53,30943,88,,,,2,2,0.0,1.0,0.0,-1.0,,0.0-80.0,,-1.0,469.825,1.0,0.28580469199999997,1.0,0.68408818,0.0,0.684207565,1.0,0.49780448299999996,True,,5f74a934c78e6208615393b7,,1639172,88,,evan-feature22,full_rf_a,,0
54,30945,90,,,,1,1,0.0,1.0,1.0,0.0,,0.0-82.0,,0.0,1785.82,0.0,0.25,1.0,0.7405808970000001,1.0,0.679614108,1.0,0.436436964,True,,5f74a934c78e6208615393b7,,1658386,90,,evan-feature22,full_rf_a,,1
55,30946,91,,,,2,2,1.0,1.0,0.0,-1.0,,0.0-83.0,,-1.0,545.295,0.0,0.29890393,1.0,0.730505706,1.0,0.7328203320000001,1.0,0.439256938,True,,5f74a934c78e6208615393b7,,1668740,91,,evan-feature22,full_rf_a,,1
56,30947,92,,,,1,1,0.0,0.0,1.0,0.0,,0.0-84.0,,0.0,351.805,0.0,0.326762398,0.0,0.7148059609999999,1.0,0.75,1.0,0.44389608799999997,True,,5f74a934c78e6208615393b7,,1678885,92,,evan-feature22,full_rf_a,,1
57,30948,93,,,,1,1,0.0,1.0,1.0,0.0,,0.0-85.0,,0.0,571.57,0.0,0.295168515,1.0,0.739760854,1.0,0.719947008,1.0,0.35277284600000003,True,,5f74a934c78e6208615393b7,,1689249,93,,evan-feature22,full_rf_a,,0
58,30949,94,,,,2,2,1.0,0.0,1.0,0.0,,0.0-86.0,,1.0,638.47,1.0,0.25,1.0,0.70781482,1.0,0.75,0.0,0.286095925,True,,5f74a934c78e6208615393b7,,1699699,94,,evan-feature22,full_rf_a,,1
59,30950,95,,,,2,2,0.0,0.0,0.0,-1.0,,0.0-87.0,,0.0,350.555,1.0,0.25638190899999996,0.0,0.704088163,0.0,0.75,0.0,0.26872601399999996,True,,5f74a934c78e6208615393b7,,1709836,95,,evan-feature22,full_rf_a,,0
60,30951,96,,,,2,2,1.0,0.0,0.0,-1.0,,0.0-88.0,,0.0,352.695,0.0,0.271581126,1.0,0.669760107,1.0,0.733896663,0.0,0.273244572,True,,5f74a934c78e6208615393b7,,1719994,96,,evan-feature22,full_rf_a,,0
61,30952,97,,,,2,2,1.0,1.0,0.0,-1.0,,0.0-89.0,,-1.0,752.2,0.0,0.257144401,0.0,0.600575706,1.0,0.74488122,1.0,0.25,True,,5f74a934c78e6208615393b7,,1730541,97,,evan-feature22,full_rf_a,,0
62,30953,98,,,,1,1,0.0,1.0,1.0,0.0,,0.0-90.0,,0.0,651.69,0.0,0.25,1.0,0.616870026,0.0,0.723610234,1.0,0.25,True,,5f74a934c78e6208615393b7,,1740977,98,,evan-feature22,full_rf_a,,1
63,30954,99,,,,2,2,1.0,0.0,0.0,-1.0,,0.0-91.0,,0.0,580.035,0.0,0.25,1.0,0.583540187,1.0,0.7041042559999999,0.0,0.285961995,True,,5f74a934c78e6208615393b7,,1751386,99,,evan-feature22,full_rf_a,,1
64,30955,100,,,,1,1,0.0,1.0,1.0,0.0,,0.0-92.0,,0.0,516.11,0.0,0.27254536,1.0,0.53875765,1.0,0.693783448,1.0,0.284961652,True,,5f74a934c78e6208615393b7,,1761701,100,,evan-feature22,full_rf_a,,1
65,30956,101,,,,2,2,1.0,0.0,0.0,-1.0,,0.0-93.0,,0.0,402.425,0.0,0.25,0.0,0.548431252,1.0,0.734221895,0.0,0.279445214,True,,5f74a934c78e6208615393b7,,1771892,101,,evan-feature22,full_rf_a,,1
66,30957,102,,,,1,1,0.0,1.0,1.0,0.0,,0.0-94.0,,0.0,630.445,0.0,0.258640684,1.0,0.545878066,0.0,0.725245965,0.0,0.31487537,True,,5f74a934c78e6208615393b7,,1782309,102,,evan-feature22,full_rf_a,,1
67,30958,103,,,,2,2,1.0,1.0,1.0,0.0,,0.0-95.0,,1.0,411.59,1.0,0.251103711,1.0,0.5776290629999999,1.0,0.696320133,1.0,0.317831047,True,,5f74a934c78e6208615393b7,,1792508,103,,evan-feature22,full_rf_a,,1
68,30959,104,,,,2,2,1.0,0.0,1.0,0.0,,0.0-96.0,,1.0,396.54,0.0,0.276630292,1.0,0.617329858,1.0,0.73838088,0.0,0.261471582,True,,5f74a934c78e6208615393b7,,1802694,104,,evan-feature22,full_rf_a,,0
69,30960,105,,,,2,2,1.0,0.0,0.0,-1.0,,0.0-97.0,,0.0,397.65,0.0,0.297716424,1.0,0.618863717,1.0,0.7402358259999999,0.0,0.262600834,True,,5f74a934c78e6208615393b7,,1812900,105,,evan-feature22,full_rf_a,,0
70,30961,106,,,,2,2,1.0,1.0,1.0,0.0,,0.0-98.0,,1.0,422.825,1.0,0.290935512,0.0,0.695370945,1.0,0.706570507,1.0,0.280030553,True,,5f74a934c78e6208615393b7,,1823143,106,,evan-feature22,full_rf_a,,0
71,30962,107,,,,2,2,0.0,0.0,1.0,0.0,,0.0-99.0,,0.0,518.64,0.0,0.25,1.0,0.6465277079999999,0.0,0.67766682,0.0,0.25,True,,5f74a934c78e6208615393b7,,1833460,107,,evan-feature22,full_rf_a,,0
72,30963,108,,,,2,2,1.0,0.0,1.0,0.0,,0.0-100.0,,1.0,428.315,0.0,0.26463816,1.0,0.636100213,1.0,0.646048507,0.0,0.265607101,True,,5f74a934c78e6208615393b7,,1843678,108,,evan-feature22,full_rf_a,,0
73,30964,109,,,,2,2,0.0,1.0,1.0,0.0,,0.0-101.0,,0.0,1571.265,1.0,0.314340707,0.0,0.667795927,0.0,0.613630805,1.0,0.25,True,,5f74a934c78e6208615393b7,,1855047,109,,evan-feature22,full_rf_a,,0
74,30965,110,,,,1,1,1.0,1.0,1.0,0.0,,0.0-102.0,,1.0,339.9,1.0,0.28685784,1.0,0.6622549529999999,1.0,0.652154117,0.0,0.25,True,,5f74a934c78e6208615393b7,,1865197,110,,evan-feature22,full_rf_a,,1
75,30966,111,,,,1,1,0.0,1.0,0.0,-1.0,,0.0-103.0,,-1.0,744.895,0.0,0.304106554,1.0,0.631289538,1.0,0.707041942,1.0,0.29314237,True,,5f74a934c78e6208615393b7,,1875743,111,,evan-feature22,full_rf_a,,0
76,30967,112,,,,2,2,1.0,0.0,0.0,-1.0,,0.0-104.0,,0.0,355.9,0.0,0.304806932,0.0,0.571167718,1.0,0.680472346,0.0,0.25,True,,5f74a934c78e6208615393b7,,1885897,112,,evan-feature22,full_rf_a,,1
77,30968,113,,,,2,2,1.0,0.0,0.0,-1.0,,0.0-105.0,,0.0,645.47,0.0,0.37919861,0.0,0.5724849710000001,1.0,0.705638003,0.0,0.30179300600000003,True,,5f74a934c78e6208615393b7,,1896340,113,,evan-feature22,full_rf_a,,0
78,30969,114,,,,2,2,1.0,0.0,0.0,-1.0,,0.0-106.0,,0.0,447.8,1.0,0.464277969,1.0,0.554034373,1.0,0.7372627340000001,0.0,0.264699741,True,,5f74a934c78e6208615393b7,,1906562,114,,evan-feature22,full_rf_a,,0
79,30970,115,,,,2,2,1.0,1.0,1.0,0.0,,0.0-107.0,,1.0,646.205,0.0,0.465104323,0.0,0.530793115,1.0,0.75,1.0,0.31683071,True,,5f74a934c78e6208615393b7,,1916998,115,,evan-feature22,full_rf_a,,0
80,30971,116,,,,2,2,0.0,1.0,0.0,-1.0,,0.0-108.0,,-1.0,1735.935,0.0,0.465104323,0.0,0.530793115,0.0,0.75,1.0,0.31683071,True,,5f74a934c78e6208615393b7,,1928523,116,,evan-feature22,full_rf_a,,0
81,30972,117,,,,1,1,1.0,1.0,0.0,-1.0,,0.0-109.0,,-1.0,439.17,1.0,0.46833986,1.0,0.570249239,1.0,0.7244472590000001,0.0,0.364114163,True,,5f74a934c78e6208615393b7,,1938765,117,,evan-feature22,full_rf_a,,1
82,30973,118,,,,2,2,0.0,1.0,0.0,-1.0,,0.0-110.0,,-1.0,542.105,1.0,0.445444024,1.0,0.649673355,0.0,0.6845441290000001,1.0,0.300660449,True,,5f74a934c78e6208615393b7,,1949086,118,,evan-feature22,full_rf_a,,1
83,30974,119,,,,1,1,0.0,0.0,0.0,-1.0,,0.0-111.0,,0.0,331.17,0.0,0.39909721299999995,0.0,0.6715179509999999,0.0,0.742310028,1.0,0.35496088299999995,True,,5f74a934c78e6208615393b7,,1959250,119,,evan-feature22,full_rf_a,,1
84,30975,120,,,,1,1,0.0,1.0,0.0,-1.0,,0.0-112.0,,-1.0,283.075,0.0,0.37956104799999996,1.0,0.694725302,1.0,0.7181651309999999,0.0,0.38726906299999997,True,,5f74a934c78e6208615393b7,,1969332,120,,evan-feature22,full_rf_a,,0
85,30976,121,,,,1,1,0.0,1.0,0.0,-1.0,,0.0-113.0,,-1.0,383.515,0.0,0.404995034,1.0,0.724375412,1.0,0.6910946859999999,0.0,0.387187347,True,,5f74a934c78e6208615393b7,,1979511,121,,evan-feature22,full_rf_a,,0
86,30977,122,,,,2,2,0.0,0.0,0.0,-1.0,,0.0-114.0,,0.0,342.625,0.0,0.461740803,1.0,0.75,0.0,0.75,0.0,0.34872038200000005,True,,5f74a934c78e6208615393b7,,1989639,122,,evan-feature22,full_rf_a,,1
87,30978,123,,,,2,2,1.0,0.0,1.0,0.0,,0.0-115.0,,1.0,453.72,0.0,0.43821380600000004,1.0,0.738833273,1.0,0.728286963,0.0,0.399538128,True,,5f74a934c78e6208615393b7,,1999888,123,,evan-feature22,full_rf_a,,0
88,30979,124,,,,2,2,1.0,0.0,0.0,-1.0,,0.0-116.0,,0.0,470.205,1.0,0.41709882,0.0,0.736666736,1.0,0.75,0.0,0.389095584,True,,5f74a934c78e6208615393b7,,2010147,124,,evan-feature22,full_rf_a,,0
89,30980,125,,,,2,2,1.0,0.0,0.0,-1.0,,0.0-117.0,,0.0,639.915,0.0,0.39749009799999996,1.0,0.744320029,1.0,0.75,0.0,0.363848678,True,,5f74a934c78e6208615393b7,,2020591,125,,evan-feature22,full_rf_a,,0
90,30981,126,,,,2,2,0.0,1.0,1.0,0.0,,0.0-118.0,,0.0,337.005,0.0,0.392653706,0.0,0.75,0.0,0.75,1.0,0.384386976,True,,5f74a934c78e6208615393b7,,2030742,126,,evan-feature22,full_rf_a,,0
91,30982,127,,,,1,1,1.0,1.0,1.0,0.0,,0.0-119.0,,1.0,378.805,1.0,0.31190902600000003,1.0,0.75,1.0,0.732413819,1.0,0.413082932,True,,5f74a934c78e6208615393b7,,2040915,127,,evan-feature22,full_rf_a,,1
92,30983,128,,,,1,1,1.0,0.0,0.0,-1.0,,0.0-120.0,,0.0,206.78,1.0,0.366917648,0.0,0.740073855,1.0,0.75,1.0,0.352861979,True,,5f74a934c78e6208615393b7,,2050926,128,,evan-feature22,full_rf_a,,0
93,30984,129,,,,2,2,1.0,0.0,0.0,-1.0,,0.0-121.0,,0.0,491.17,0.0,0.3645172,1.0,0.721770713,1.0,0.75,0.0,0.404074511,True,,5f74a934c78e6208615393b7,,2061227,129,,evan-feature22,full_rf_a,,1
94,30985,130,,,,2,2,1.0,1.0,0.0,-1.0,,0.0-122.0,,-1.0,340.575,1.0,0.35205600299999995,1.0,0.68983859,1.0,0.739735447,1.0,0.366895945,True,,5f74a934c78e6208615393b7,,2071364,130,,evan-feature22,full_rf_a,,0
95,30986,131,,,,1,1,0.0,1.0,0.0,-1.0,,0.0-123.0,,-1.0,402.92,0.0,0.40998722600000004,1.0,0.720859127,0.0,0.673854955,1.0,0.368528541,True,,5f74a934c78e6208615393b7,,2081555,131,,evan-feature22,full_rf_a,,1
96,30987,132,,,,2,2,0.0,1.0,1.0,0.0,,0.0-124.0,,0.0,489.175,0.0,0.353625316,1.0,0.75,0.0,0.695605473,1.0,0.38303674200000004,True,,5f74a934c78e6208615393b7,,2091838,132,,evan-feature22,full_rf_a,,1
97,30988,133,,,,1,1,1.0,1.0,0.0,-1.0,,0.0-125.0,,-1.0,451.025,1.0,0.359216989,1.0,0.75,1.0,0.6987915090000001,1.0,0.35169046200000004,True,,5f74a934c78e6208615393b7,,2102071,133,,evan-feature22,full_rf_a,,1
98,30989,134,,,,2,2,1.0,1.0,1.0,0.0,,0.0-126.0,,1.0,434.86,0.0,0.35834496899999996,1.0,0.75,1.0,0.707067742,1.0,0.416763636,True,,5f74a934c78e6208615393b7,,2112352,134,,evan-feature22,full_rf_a,,1
99,30990,135,,,,2,2,1.0,1.0,1.0,0.0,,0.0-127.0,,1.0,433.26,1.0,0.38741613799999997,1.0,0.7177369570000001,1.0,0.734902455,1.0,0.49438664299999996,True,,5f74a934c78e6208615393b7,,2122616,135,,evan-feature22,full_rf_a,,0
100,30991,136,,,,2,2,1.0,1.0,0.0,-1.0,,0.0-128.0,,-1.0,337.865,1.0,0.405255252,0.0,0.7300466640000001,1.0,0.7027748070000001,1.0,0.504359668,True,,5f74a934c78e6208615393b7,,2132748,136,,evan-feature22,full_rf_a,,0
101,30992,137,,,,2,2,1.0,0.0,0.0,-1.0,,0.0-129.0,,0.0,502.505,0.0,0.40697073,1.0,0.7260142190000001,1.0,0.724461982,0.0,0.522779179,True,,5f74a934c78e6208615393b7,,2143039,137,,evan-feature22,full_rf_a,,0
102,30993,138,,,,2,2,1.0,0.0,0.0,-1.0,,0.0-130.0,,0.0,490.925,0.0,0.43906215299999996,1.0,0.7252802340000001,1.0,0.719079934,0.0,0.5712990579999999,True,,5f74a934c78e6208615393b7,,2153324,138,,evan-feature22,full_rf_a,,0
103,30994,139,,,,2,2,0.0,0.0,0.0,-1.0,,0.0-131.0,,0.0,575.2,0.0,0.4076705,0.0,0.73280499,0.0,0.681313127,0.0,0.523891346,True,,5f74a934c78e6208615393b7,,2163697,139,,evan-feature22,full_rf_a,,0
104,30995,140,,,,1,1,0.0,0.0,0.0,-1.0,,0.0-132.0,,0.0,476.4,0.0,0.399102911,0.0,0.730498344,1.0,0.661080239,0.0,0.46742603,True,,5f74a934c78e6208615393b7,,2173964,140,,evan-feature22,full_rf_a,,1
105,30996,141,,,,2,2,0.0,0.0,1.0,0.0,,0.0-133.0,,0.0,541.275,0.0,0.356477282,1.0,0.712296395,0.0,0.641812684,0.0,0.44868414,True,,5f74a934c78e6208615393b7,,2184313,141,,evan-feature22,full_rf_a,,1
106,30997,142,,,,2,2,1.0,1.0,0.0,-1.0,,0.0-134.0,,-1.0,511.11,0.0,0.462760722,1.0,0.692349322,1.0,0.700947931,1.0,0.394680266,True,,5f74a934c78e6208615393b7,,2194603,142,,evan-feature22,full_rf_a,,0
107,30998,143,,,,2,2,0.0,1.0,0.0,-1.0,,0.0-135.0,,-1.0,475.435,1.0,0.422306413,1.0,0.718375916,0.0,0.706340917,1.0,0.367787185,True,,5f74a934c78e6208615393b7,,2204876,143,,evan-feature22,full_rf_a,,0
108,31000,145,,,,2,2,1.0,0.0,0.0,-1.0,,0.0-137.0,,0.0,674.92,0.0,0.4582233,0.0,0.643834117,1.0,0.75,0.0,0.39615823299999997,True,,5f74a934c78e6208615393b7,,2216929,145,,evan-feature22,full_rf_a,,0
109,31001,146,,,,2,2,0.0,0.0,0.0,-1.0,,0.0-138.0,,0.0,495.595,1.0,0.43813437899999996,0.0,0.651283804,0.0,0.729674191,0.0,0.37711048,True,,5f74a934c78e6208615393b7,,2227226,146,,evan-feature22,full_rf_a,,0
110,31002,147,,,,1,1,0.0,0.0,0.0,-1.0,,0.0-139.0,,0.0,361.06,0.0,0.471199094,0.0,0.6470010979999999,1.0,0.715008097,0.0,0.410656191,True,,5f74a934c78e6208615393b7,,2237388,147,,evan-feature22,full_rf_a,,1
111,31003,148,,,,2,2,1.0,0.0,1.0,0.0,,0.0-140.0,,1.0,317.695,0.0,0.42486406,1.0,0.629771829,1.0,0.6550939960000001,0.0,0.459093873,True,,5f74a934c78e6208615393b7,,2247516,148,,evan-feature22,full_rf_a,,1
112,31004,149,,,,2,2,1.0,1.0,1.0,0.0,,0.0-141.0,,1.0,584.675,0.0,0.4803197,1.0,0.645842715,1.0,0.6421749920000001,1.0,0.443092151,True,,5f74a934c78e6208615393b7,,2257905,149,,evan-feature22,full_rf_a,,0
113,31005,150,,,,2,2,1.0,0.0,1.0,0.0,,0.0-142.0,,1.0,910.775,0.0,0.521848997,1.0,0.735801074,1.0,0.6691348460000001,0.0,0.45259351600000003,True,,5f74a934c78e6208615393b7,,2268636,150,,evan-feature22,full_rf_a,,0
114,31006,151,,,,2,2,1.0,0.0,0.0,-1.0,,0.0-143.0,,0.0,490.915,0.0,0.49565621299999996,1.0,0.742400847,1.0,0.661512553,0.0,0.483110831,True,,5f74a934c78e6208615393b7,,2278894,151,,evan-feature22,full_rf_a,,0
115,31007,152,,,,2,2,0.0,0.0,1.0,0.0,,0.0-144.0,,0.0,387.795,1.0,0.521564361,1.0,0.731078632,0.0,0.6774886809999999,0.0,0.483263956,True,,5f74a934c78e6208615393b7,,2289065,152,,evan-feature22,full_rf_a,,0
116,31008,153,,,,2,2,0.0,1.0,1.0,0.0,,0.0-145.0,,0.0,489.435,0.0,0.558893102,1.0,0.719810023,0.0,0.67461031,1.0,0.499349834,True,,5f74a934c78e6208615393b7,,2299360,153,,evan-feature22,full_rf_a,,0
117,31009,154,,,,1,1,1.0,1.0,0.0,-1.0,,0.0-146.0,,-1.0,451.27,1.0,0.611031046,1.0,0.75,1.0,0.688072995,0.0,0.5321422729999999,True,,5f74a934c78e6208615393b7,,2309619,154,,evan-feature22,full_rf_a,,1
118,31010,155,,,,2,2,1.0,1.0,1.0,0.0,,0.0-147.0,,1.0,399.27,1.0,0.633223941,1.0,0.713567728,1.0,0.75,1.0,0.48185314700000004,True,,5f74a934c78e6208615393b7,,2319819,155,,evan-feature22,full_rf_a,,1
119,31011,156,,,,2,2,1.0,1.0,1.0,0.0,,0.0-148.0,,1.0,513.35,1.0,0.664001694,0.0,0.705509768,1.0,0.75,1.0,0.500211065,True,,5f74a934c78e6208615393b7,,2330147,156,,evan-feature22,full_rf_a,,0
120,31012,157,,,,2,2,0.0,1.0,0.0,-1.0,,0.0-149.0,,-1.0,741.075,1.0,0.664001694,1.0,0.705509768,0.0,0.75,1.0,0.500211065,True,,5f74a934c78e6208615393b7,,2340671,157,,evan-feature22,full_rf_a,,0
121,31013,158,,,,1,1,1.0,1.0,0.0,-1.0,,0.0-150.0,,-1.0,417.32,1.0,0.696508041,1.0,0.71066027,1.0,0.717028709,1.0,0.49792991,True,,5f74a934c78e6208615393b7,,2350908,158,,evan-feature22,full_rf_a,,1
122,31014,159,,,,1,1,0.0,1.0,1.0,0.0,,0.0-151.0,,0.0,386.31,0.0,0.699883272,1.0,0.75,1.0,0.713543895,1.0,0.496962643,True,,5f74a934c78e6208615393b7,,2361074,159,,evan-feature22,full_rf_a,,0
123,31015,160,,,,2,2,1.0,1.0,0.0,-1.0,,0.0-152.0,,-1.0,301.53,1.0,0.741163419,1.0,0.75,1.0,0.64691024,1.0,0.513858197,True,,5f74a934c78e6208615393b7,,2371171,160,,evan-feature22,full_rf_a,,1
124,31016,161,,,,2,2,1.0,0.0,1.0,0.0,,0.0-153.0,,1.0,590.335,0.0,0.75,1.0,0.70816558,1.0,0.594499079,0.0,0.48502124,True,,5f74a934c78e6208615393b7,,2381555,161,,evan-feature22,full_rf_a,,0
125,31017,162,,,,2,2,1.0,1.0,0.0,-1.0,,0.0-154.0,,-1.0,338.46,0.0,0.75,1.0,0.721848901,1.0,0.62197249,1.0,0.48263586399999997,True,,5f74a934c78e6208615393b7,,2391707,162,,evan-feature22,full_rf_a,,0
126,31018,163,,,,2,2,1.0,0.0,1.0,0.0,,0.0-155.0,,1.0,391.19,1.0,0.75,1.0,0.74813071,1.0,0.584357161,0.0,0.411477782,True,,5f74a934c78e6208615393b7,,2401894,163,,evan-feature22,full_rf_a,,0
127,31019,164,,,,2,2,1.0,0.0,0.0,-1.0,,0.0-156.0,,0.0,316.45,0.0,0.75,1.0,0.75,1.0,0.52287236,0.0,0.488290656,True,,5f74a934c78e6208615393b7,,2412016,164,,evan-feature22,full_rf_a,,0
128,31020,165,,,,2,2,0.0,0.0,0.0,-1.0,,0.0-157.0,,0.0,330.355,1.0,0.75,1.0,0.75,0.0,0.544321581,0.0,0.53143059,True,,5f74a934c78e6208615393b7,,2422144,165,,evan-feature22,full_rf_a,,0
129,31021,166,,,,2,2,1.0,1.0,0.0,-1.0,,0.0-158.0,,-1.0,1087.345,1.0,0.726754564,1.0,0.75,1.0,0.5129306370000001,1.0,0.530592445,True,,5f74a934c78e6208615393b7,,2433019,166,,evan-feature22,full_rf_a,,0
130,31022,167,,,,1,1,1.0,0.0,1.0,0.0,,0.0-159.0,,1.0,372.525,1.0,0.75,0.0,0.7392590729999999,1.0,0.479875835,1.0,0.547007051,True,,5f74a934c78e6208615393b7,,2443176,167,,evan-feature22,full_rf_a,,1
131,31023,168,,,,1,1,1.0,1.0,1.0,0.0,,0.0-160.0,,1.0,330.875,1.0,0.75,1.0,0.7393376979999999,1.0,0.546045419,0.0,0.541267353,True,,5f74a934c78e6208615393b7,,2453313,168,,evan-feature22,full_rf_a,,0
132,31024,169,,,,1,1,0.0,1.0,1.0,0.0,,0.0-161.0,,0.0,496.485,0.0,0.75,1.0,0.75,1.0,0.485725895,0.0,0.527625395,True,,5f74a934c78e6208615393b7,,2463615,169,,evan-feature22,full_rf_a,,0
133,31025,170,,,,2,2,0.0,1.0,0.0,-1.0,,0.0-162.0,,-1.0,357.545,1.0,0.75,1.0,0.725087974,0.0,0.488603595,1.0,0.504019206,True,,5f74a934c78e6208615393b7,,2473769,170,,evan-feature22,full_rf_a,,1
134,31026,171,,,,1,1,1.0,0.0,0.0,-1.0,,0.0-163.0,,0.0,454.44,1.0,0.745504295,0.0,0.75,0.0,0.452379914,1.0,0.50131194,True,,5f74a934c78e6208615393b7,,2484032,171,,evan-feature22,full_rf_a,,1
135,31027,172,,,,1,1,1.0,1.0,0.0,-1.0,,0.0-164.0,,-1.0,418.665,1.0,0.728513874,1.0,0.75,0.0,0.44125567200000004,1.0,0.531454591,True,,5f74a934c78e6208615393b7,,2494262,172,,evan-feature22,full_rf_a,,0
136,31028,173,,,,2,2,0.0,1.0,1.0,0.0,,0.0-165.0,,0.0,468.74,1.0,0.73790804,1.0,0.75,0.0,0.413036656,1.0,0.524619035,True,,5f74a934c78e6208615393b7,,2504552,173,,evan-feature22,full_rf_a,,1
137,31029,174,,,,1,1,1.0,1.0,0.0,-1.0,,0.0-166.0,,-1.0,492.36,1.0,0.7080961309999999,1.0,0.708666865,1.0,0.431915581,1.0,0.481819489,True,,5f74a934c78e6208615393b7,,2514825,174,,evan-feature22,full_rf_a,,1
138,31030,175,,,,2,2,0.0,0.0,0.0,-1.0,,0.0-167.0,,0.0,548.52,0.0,0.721378003,0.0,0.71605913,0.0,0.36642387,0.0,0.5036739929999999,True,,5f74a934c78e6208615393b7,,2525154,175,,evan-feature22,full_rf_a,,1
139,31031,176,,,,2,2,0.0,1.0,0.0,-1.0,,0.0-168.0,,-1.0,589.18,1.0,0.7340618959999999,1.0,0.699323252,0.0,0.35298046299999997,1.0,0.511241692,True,,5f74a934c78e6208615393b7,,2535529,176,,evan-feature22,full_rf_a,,0
140,31032,177,,,,1,1,1.0,1.0,1.0,0.0,,0.0-169.0,,1.0,331.32,1.0,0.75,1.0,0.70412698,0.0,0.380734814,0.0,0.529580116,True,,5f74a934c78e6208615393b7,,2545659,177,,evan-feature22,full_rf_a,,1
141,31033,178,,,,1,1,0.0,1.0,0.0,-1.0,,0.0-170.0,,-1.0,513.13,0.0,0.7436654909999999,1.0,0.711182751,0.0,0.41125331,0.0,0.49554405,True,,5f74a934c78e6208615393b7,,2555970,178,,evan-feature22,full_rf_a,,0
142,31034,179,,,,2,2,1.0,0.0,0.0,-1.0,,0.0-171.0,,0.0,426.06,1.0,0.731607915,1.0,0.651774583,1.0,0.35688023,0.0,0.45194491600000003,True,,5f74a934c78e6208615393b7,,2566207,179,,evan-feature22,full_rf_a,,1
143,31035,180,,,,2,2,0.0,0.0,1.0,0.0,,0.0-172.0,,0.0,372.625,0.0,0.75,1.0,0.75,0.0,0.283145374,0.0,0.528608005,True,,5f74a934c78e6208615393b7,,2576372,180,,evan-feature22,full_rf_a,,0
144,31036,181,,,,2,2,0.0,1.0,1.0,0.0,,0.0-173.0,,0.0,3257.66,1.0,0.7491416890000001,1.0,0.7423785959999999,0.0,0.29135870399999997,1.0,0.498888318,True,,5f74a934c78e6208615393b7,,2589409,181,,evan-feature22,full_rf_a,,0
145,31037,182,,,,1,1,0.0,1.0,1.0,0.0,,0.0-174.0,,0.0,353.76,0.0,0.708569387,1.0,0.717682277,1.0,0.294421699,0.0,0.493838163,True,,5f74a934c78e6208615393b7,,2599563,182,,evan-feature22,full_rf_a,,1
146,31038,183,,,,2,2,1.0,0.0,0.0,-1.0,,0.0-175.0,,0.0,320.59,1.0,0.75,0.0,0.7383382159999999,1.0,0.356098707,0.0,0.442533405,True,,5f74a934c78e6208615393b7,,2609678,183,,evan-feature22,full_rf_a,,1
147,31039,184,,,,2,2,0.0,1.0,0.0,-1.0,,0.0-176.0,,-1.0,378.4,1.0,0.744527075,1.0,0.75,0.0,0.334127506,1.0,0.393165805,True,,5f74a934c78e6208615393b7,,2619864,184,,evan-feature22,full_rf_a,,0
148,31040,185,,,,1,1,1.0,0.0,0.0,-1.0,,0.0-177.0,,0.0,282.66,1.0,0.75,0.0,0.75,0.0,0.33571021799999995,1.0,0.350393962,True,,5f74a934c78e6208615393b7,,2629941,185,,evan-feature22,full_rf_a,,1
149,31041,186,,,,1,1,1.0,1.0,0.0,-1.0,,0.0-178.0,,-1.0,402.475,1.0,0.75,1.0,0.75,1.0,0.313628297,0.0,0.36349657399999996,True,,5f74a934c78e6208615393b7,,2640142,186,,evan-feature22,full_rf_a,,0
150,31042,187,,,,2,2,0.0,0.0,1.0,0.0,,0.0-179.0,,0.0,436.905,1.0,0.75,1.0,0.734284182,0.0,0.262667667,0.0,0.380199119,True,,5f74a934c78e6208615393b7,,2650391,187,,evan-feature22,full_rf_a,,1
151,31043,188,,,,1,1,0.0,1.0,0.0,-1.0,,0.0-180.0,,-1.0,469.38,0.0,0.75,1.0,0.75,1.0,0.25,0.0,0.394494013,True,,5f74a934c78e6208615393b7,,2660659,188,,evan-feature22,full_rf_a,,1
152,31044,189,,,,2,2,0.0,1.0,1.0,0.0,,0.0-181.0,,0.0,312.225,1.0,0.722298145,1.0,0.7357822340000001,0.0,0.25,1.0,0.319142121,True,,5f74a934c78e6208615393b7,,2670758,189,,evan-feature22,full_rf_a,,1
153,31045,190,,,,1,1,1.0,1.0,1.0,0.0,,0.0-182.0,,1.0,392.725,1.0,0.73149275,1.0,0.724276446,0.0,0.305856907,1.0,0.281315057,True,,5f74a934c78e6208615393b7,,2680948,190,,evan-feature22,full_rf_a,,1
154,31046,191,,,,1,1,1.0,1.0,0.0,-1.0,,0.0-183.0,,-1.0,376.15,1.0,0.7458732690000001,1.0,0.7336382459999999,1.0,0.272571964,1.0,0.266021999,True,,5f74a934c78e6208615393b7,,2691131,191,,evan-feature22,full_rf_a,,0
155,31047,192,,,,2,2,1.0,0.0,0.0,-1.0,,0.0-184.0,,0.0,490.63,0.0,0.705579037,1.0,0.720778292,1.0,0.320238144,0.0,0.30971744,True,,5f74a934c78e6208615393b7,,2701417,192,,evan-feature22,full_rf_a,,1
156,31048,193,,,,2,2,0.0,0.0,0.0,-1.0,,0.0-185.0,,0.0,340.81,0.0,0.700425648,1.0,0.7198784009999999,0.0,0.272590393,0.0,0.304182931,True,,5f74a934c78e6208615393b7,,2711554,193,,evan-feature22,full_rf_a,,0
157,31049,194,,,,2,2,0.0,0.0,0.0,-1.0,,0.0-186.0,,0.0,422.595,1.0,0.735590785,0.0,0.722714973,0.0,0.25,0.0,0.323421091,True,,5f74a934c78e6208615393b7,,2721763,194,,evan-feature22,full_rf_a,,0
158,31050,195,,,,1,1,1.0,0.0,0.0,-1.0,,0.0-187.0,,0.0,376.035,1.0,0.724807662,0.0,0.63146213,0.0,0.36836492600000004,1.0,0.34592153299999995,True,,5f74a934c78e6208615393b7,,2731944,195,,evan-feature22,full_rf_a,,1
159,31051,196,,,,1,1,0.0,0.0,0.0,-1.0,,0.0-188.0,,0.0,448.1,0.0,0.7352796909999999,0.0,0.555111392,1.0,0.36003922,0.0,0.31433779999999995,True,,5f74a934c78e6208615393b7,,2742196,196,,evan-feature22,full_rf_a,,0
160,31052,197,notice,,,,,,,,,,0.0-189.0,"{""Q0"":""kind of ""}",,12496.0,,,,,,,,,True,,5f74a934c78e6208615393b7,,2754696,197,Q,survey-text,full_rf_a,,1
161,31053,198,track1,,[0],,,,,,,,0.0-190.0,"{""Q0"":""yes""}",,8632.0,,,,,,,,,True,,5f74a934c78e6208615393b7,,2763340,198,Q,evan-quiz,full_rf_a,,1
162,31054,199,track2,,[2],,,,,,,,0.0-191.0,"{""Q0"":""N/A""}",,15384.0,,,,,,,,,True,,5f74a934c78e6208615393b7,,2778731,199,Q,evan-quiz,full_rf_a,,1
163,31055,200,strat,,,,,,,,,,0.0-192.0,"{""Q0"":""tried to see which alien had the most yellow balls/minerals""}",,37715.0,,,,,,,,,True,,5f74a934c78e6208615393b7,,2816455,200,Q,survey-text,full_rf_a,,1
