,index,Unnamed: 0,Q_name,button_pressed,choice_idxs,chosen_pos,chosen_state,chosen_state_f_1_outcome,chosen_state_f_2_outcome,f_1_reward,f_2_reward,incor_questions,internal_node_id,responses,reward_received,rt,s_1_f_1_outcome,s_1_f_1_prob,s_1_f_2_outcome,s_1_f_2_prob,s_2_f_1_outcome,s_2_f_1_prob,s_2_f_2_outcome,s_2_f_2_prob,safe_first,stimulus,subjectID,success,time_elapsed,trial_index,trial_num,trial_type,version,view_history,switching
0,39135,25,,,,2,2,1.0,0.0,0.0,1.0,,0.0-27.0,,0.0,723.63,1.0,0.6,0.0,0.6,1.0,0.4,0.0,0.4,True,,5eb7dbeede9f986ef1cff0de,,414237,25,,evan-feature22,full_rf_b,,0
1,39136,26,,,,2,2,0.0,0.0,0.0,1.0,,0.0-28.0,,0.0,618.125,1.0,0.608053294,1.0,0.63424552,0.0,0.397152172,0.0,0.347069101,True,,5eb7dbeede9f986ef1cff0de,,424615,26,,evan-feature22,full_rf_b,,0
2,39137,27,,,,2,2,0.0,0.0,0.0,1.0,,0.0-29.0,,0.0,310.455,0.0,0.642237155,1.0,0.648566321,0.0,0.389407674,0.0,0.285525717,True,,5eb7dbeede9f986ef1cff0de,,434682,27,,evan-feature22,full_rf_b,,0
3,39138,28,,,,2,2,1.0,0.0,0.0,1.0,,0.0-30.0,,0.0,507.80500010000003,1.0,0.661086576,1.0,0.630492543,1.0,0.399058924,0.0,0.25,True,,5eb7dbeede9f986ef1cff0de,,444949,28,,evan-feature22,full_rf_b,,0
4,39139,29,,,,2,2,0.0,0.0,0.0,1.0,,0.0-31.0,,0.0,2005.95,1.0,0.631324137,1.0,0.6269842929999999,0.0,0.38734784299999997,0.0,0.25,True,,5eb7dbeede9f986ef1cff0de,,456710,29,,evan-feature22,full_rf_b,,0
5,39140,30,,,,2,2,0.0,0.0,0.0,1.0,,0.0-32.0,,0.0,1286.185,1.0,0.6381991370000001,0.0,0.68987999,0.0,0.384107265,0.0,0.271332943,True,,5eb7dbeede9f986ef1cff0de,,467753,30,,evan-feature22,full_rf_b,,0
6,39141,31,,,,2,2,1.0,0.0,0.0,1.0,,0.0-33.0,,0.0,958.485,0.0,0.66034901,1.0,0.742641349,1.0,0.360225629,0.0,0.25,True,,5eb7dbeede9f986ef1cff0de,,478469,31,,evan-feature22,full_rf_b,,0
7,39142,32,,,,1,1,0.0,1.0,-1.0,0.0,,0.0-34.0,,0.0,1942.94,0.0,0.638612418,1.0,0.75,0.0,0.367273939,0.0,0.25,True,,5eb7dbeede9f986ef1cff0de,,490167,32,,evan-feature22,full_rf_b,,1
8,39143,33,,,,1,1,1.0,1.0,0.0,1.0,,0.0-35.0,,1.0,686.175,1.0,0.624340629,1.0,0.75,0.0,0.425829545,0.0,0.25,True,,5eb7dbeede9f986ef1cff0de,,500611,33,,evan-feature22,full_rf_b,,0
9,39144,34,,,,1,1,1.0,0.0,0.0,1.0,,0.0-36.0,,0.0,2729.74,1.0,0.621999804,0.0,0.75,0.0,0.368609357,0.0,0.25,True,,5eb7dbeede9f986ef1cff0de,,513099,34,,evan-feature22,full_rf_b,,0
10,39145,35,,,,1,1,0.0,1.0,-1.0,0.0,,0.0-37.0,,0.0,1426.28,0.0,0.62666403,1.0,0.75,0.0,0.311151498,1.0,0.25,True,,5eb7dbeede9f986ef1cff0de,,524283,35,,evan-feature22,full_rf_b,,0
11,39146,36,,,,1,1,1.0,0.0,-1.0,0.0,,0.0-38.0,,-1.0,2418.15,1.0,0.6819650009999999,0.0,0.75,0.0,0.310763048,0.0,0.25,True,,5eb7dbeede9f986ef1cff0de,,536460,36,,evan-feature22,full_rf_b,,0
12,39147,37,,,,1,1,1.0,0.0,0.0,1.0,,0.0-39.0,,0.0,889.9249999,1.0,0.740626951,0.0,0.75,0.0,0.25,0.0,0.25,True,,5eb7dbeede9f986ef1cff0de,,547107,37,,evan-feature22,full_rf_b,,0
13,39148,38,,,,1,1,1.0,1.0,0.0,1.0,,0.0-40.0,,1.0,953.675,1.0,0.739599242,1.0,0.742034978,0.0,0.25397114600000004,0.0,0.25,True,,5eb7dbeede9f986ef1cff0de,,557816,38,,evan-feature22,full_rf_b,,0
14,39149,39,,,,1,1,0.0,0.0,0.0,1.0,,0.0-41.0,,0.0,1238.77,0.0,0.732341315,0.0,0.72735643,1.0,0.25,0.0,0.25,True,,5eb7dbeede9f986ef1cff0de,,568814,39,,evan-feature22,full_rf_b,,0
15,39150,40,,,,1,1,1.0,0.0,0.0,1.0,,0.0-42.0,,0.0,964.475,1.0,0.7062287770000001,0.0,0.75,1.0,0.29002151,0.0,0.288256649,True,,5eb7dbeede9f986ef1cff0de,,579536,40,,evan-feature22,full_rf_b,,0
16,39151,41,,,,SLOW,SLOW,,,-1.0,0.0,,0.0-43.0,,-3.0,,1.0,0.7086029209999999,1.0,0.75,0.0,0.274129113,0.0,0.262851608,True,,5eb7dbeede9f986ef1cff0de,,585340,41,,evan-feature22,full_rf_b,,1
17,39152,42,,,,1,1,1.0,1.0,0.0,1.0,,0.0-44.0,,1.0,1094.57,1.0,0.669189651,1.0,0.727614338,0.0,0.298444036,0.0,0.296944518,True,,5eb7dbeede9f986ef1cff0de,,596193,42,,evan-feature22,full_rf_b,,1
18,39153,43,,,,2,2,0.0,1.0,-1.0,0.0,,0.0-45.0,,0.0,1742.76,0.0,0.6819912929999999,1.0,0.7179434290000001,0.0,0.265003961,1.0,0.28157921199999997,True,,5eb7dbeede9f986ef1cff0de,,607694,43,,evan-feature22,full_rf_b,,1
19,39154,44,,,,1,1,0.0,1.0,-1.0,0.0,,0.0-46.0,,0.0,1941.49,0.0,0.665275002,1.0,0.723065271,0.0,0.260414971,1.0,0.30973870000000003,True,,5eb7dbeede9f986ef1cff0de,,619392,44,,evan-feature22,full_rf_b,,1
20,39155,45,,,,1,1,0.0,1.0,0.0,1.0,,0.0-47.0,,1.0,1473.805,0.0,0.6660593260000001,1.0,0.728032907,0.0,0.30922817,0.0,0.338778608,True,,5eb7dbeede9f986ef1cff0de,,630624,45,,evan-feature22,full_rf_b,,0
21,39156,46,,,,1,1,0.0,0.0,0.0,1.0,,0.0-48.0,,0.0,135.91,0.0,0.702068785,0.0,0.6528750879999999,0.0,0.287329608,1.0,0.35789613200000003,True,,5eb7dbeede9f986ef1cff0de,,640518,46,,evan-feature22,full_rf_b,,0
22,39157,47,,,,2,2,0.0,0.0,0.0,1.0,,0.0-49.0,,0.0,1870.04,1.0,0.651939787,1.0,0.636725589,0.0,0.284834488,0.0,0.358563756,True,,5eb7dbeede9f986ef1cff0de,,652146,47,,evan-feature22,full_rf_b,,1
23,39158,48,,,,1,1,1.0,1.0,0.0,1.0,,0.0-50.0,,1.0,819.14,1.0,0.67573929,1.0,0.612550049,0.0,0.37130387600000003,1.0,0.383542402,True,,5eb7dbeede9f986ef1cff0de,,662722,48,,evan-feature22,full_rf_b,,1
24,39159,49,,,,1,1,1.0,1.0,0.0,1.0,,0.0-51.0,,1.0,1073.49,1.0,0.620753801,1.0,0.60513644,0.0,0.385529434,0.0,0.340361743,True,,5eb7dbeede9f986ef1cff0de,,673553,49,,evan-feature22,full_rf_b,,0
25,39160,50,,,,1,1,1.0,0.0,-1.0,0.0,,0.0-52.0,,-1.0,2644.375,1.0,0.673564893,0.0,0.672437924,0.0,0.292955382,1.0,0.337633795,True,,5eb7dbeede9f986ef1cff0de,,685954,50,,evan-feature22,full_rf_b,,0
26,39161,51,,,,1,1,0.0,0.0,0.0,1.0,,0.0-53.0,,0.0,1977.215,0.0,0.6749427,0.0,0.724197502,1.0,0.32391132100000003,0.0,0.350995264,True,,5eb7dbeede9f986ef1cff0de,,697689,51,,evan-feature22,full_rf_b,,0
27,39162,52,,,,1,1,1.0,0.0,0.0,1.0,,0.0-54.0,,0.0,1715.585,1.0,0.6940159379999999,0.0,0.75,0.0,0.31710554399999996,1.0,0.413450341,True,,5eb7dbeede9f986ef1cff0de,,709163,52,,evan-feature22,full_rf_b,,0
28,39163,53,,,,2,2,0.0,0.0,0.0,1.0,,0.0-55.0,,0.0,1286.44,1.0,0.6916018270000001,0.0,0.69001187,0.0,0.261817804,0.0,0.40038635,True,,5eb7dbeede9f986ef1cff0de,,720207,53,,evan-feature22,full_rf_b,,1
29,39164,54,,,,2,2,0.0,0.0,0.0,1.0,,0.0-56.0,,0.0,410.185,0.0,0.641061544,1.0,0.71337992,0.0,0.277296461,0.0,0.47372791700000005,True,,5eb7dbeede9f986ef1cff0de,,730375,54,,evan-feature22,full_rf_b,,0
30,39165,55,,,,2,2,0.0,0.0,0.0,1.0,,0.0-57.0,,0.0,996.855,1.0,0.6082438520000001,0.0,0.708471106,0.0,0.28745137,0.0,0.564174476,True,,5eb7dbeede9f986ef1cff0de,,741130,55,,evan-feature22,full_rf_b,,0
31,39166,56,,,,2,2,1.0,1.0,-1.0,0.0,,0.0-58.0,,-1.0,2992.77,0.0,0.6051112120000001,0.0,0.7118147229999999,1.0,0.272390611,1.0,0.5595149939999999,True,,5eb7dbeede9f986ef1cff0de,,753879,56,,evan-feature22,full_rf_b,,0
32,39167,57,,,,SLOW,SLOW,,,-1.0,0.0,,0.0-59.0,,-3.0,,1.0,0.582420852,1.0,0.635867583,0.0,0.31089574,1.0,0.5227206520000001,True,,5eb7dbeede9f986ef1cff0de,,759683,57,,evan-feature22,full_rf_b,,1
33,39168,58,,,,2,2,0.0,1.0,-1.0,0.0,,0.0-60.0,,0.0,1058.86,1.0,0.623195575,0.0,0.655026044,0.0,0.25,1.0,0.560387538,True,,5eb7dbeede9f986ef1cff0de,,770499,58,,evan-feature22,full_rf_b,,1
34,39169,59,,,,2,2,1.0,0.0,0.0,1.0,,0.0-61.0,,0.0,644.86,1.0,0.601889598,0.0,0.678198724,1.0,0.25,0.0,0.559922936,True,,5eb7dbeede9f986ef1cff0de,,780901,59,,evan-feature22,full_rf_b,,0
35,39170,60,,,,2,2,1.0,0.0,-1.0,0.0,,0.0-62.0,,-1.0,1419.32,1.0,0.601259914,1.0,0.704681482,1.0,0.33908969299999997,0.0,0.505003715,True,,5eb7dbeede9f986ef1cff0de,,792077,60,,evan-feature22,full_rf_b,,0
36,39171,61,,,,1,1,0.0,0.0,-1.0,0.0,,0.0-63.0,,0.0,1586.665,0.0,0.59645454,0.0,0.710437172,0.0,0.327441879,1.0,0.391749613,True,,5eb7dbeede9f986ef1cff0de,,803420,61,,evan-feature22,full_rf_b,,1
37,39172,62,,,,2,2,0.0,1.0,0.0,1.0,,0.0-64.0,,1.0,1852.375,0.0,0.529473,1.0,0.636758527,0.0,0.301338063,1.0,0.365661481,True,,5eb7dbeede9f986ef1cff0de,,815029,62,,evan-feature22,full_rf_b,,1
38,39173,63,,,,1,1,0.0,0.0,-1.0,0.0,,0.0-65.0,,0.0,2365.485,0.0,0.541657162,0.0,0.634541962,0.0,0.343535366,0.0,0.371763742,True,,5eb7dbeede9f986ef1cff0de,,827153,63,,evan-feature22,full_rf_b,,1
39,39174,64,,,,2,2,1.0,0.0,-1.0,0.0,,0.0-66.0,,-1.0,1836.02,0.0,0.5707533260000001,1.0,0.589121171,1.0,0.326428396,0.0,0.43961622899999997,True,,5eb7dbeede9f986ef1cff0de,,838747,64,,evan-feature22,full_rf_b,,1
40,39175,65,,,,1,1,0.0,0.0,0.0,1.0,,0.0-67.0,,0.0,2368.095,0.0,0.5707533260000001,0.0,0.589121171,0.0,0.326428396,0.0,0.43961622899999997,True,,5eb7dbeede9f986ef1cff0de,,850871,65,,evan-feature22,full_rf_b,,1
41,39176,66,,,,1,1,1.0,0.0,0.0,1.0,,0.0-68.0,,0.0,2612.385,1.0,0.506271295,0.0,0.641775594,0.0,0.37149690700000004,0.0,0.404330166,True,,5eb7dbeede9f986ef1cff0de,,863240,66,,evan-feature22,full_rf_b,,0
42,39177,67,,,,2,2,0.0,1.0,-1.0,0.0,,0.0-69.0,,0.0,3242.915,1.0,0.455642565,1.0,0.623605825,0.0,0.358753011,1.0,0.346174041,True,,5eb7dbeede9f986ef1cff0de,,876240,67,,evan-feature22,full_rf_b,,1
43,39178,68,,,,2,2,1.0,0.0,0.0,1.0,,0.0-70.0,,0.0,3585.1,0.0,0.483677308,1.0,0.5904681070000001,1.0,0.402218411,0.0,0.35344697,True,,5eb7dbeede9f986ef1cff0de,,889583,68,,evan-feature22,full_rf_b,,0
44,39179,69,,,,2,2,0.0,0.0,-1.0,0.0,,0.0-71.0,,0.0,1692.88,0.0,0.394210977,1.0,0.558925494,0.0,0.540052017,0.0,0.35182128700000004,True,,5eb7dbeede9f986ef1cff0de,,901031,69,,evan-feature22,full_rf_b,,0
45,39180,70,,,,1,1,1.0,1.0,0.0,1.0,,0.0-72.0,,1.0,977.6450001000001,1.0,0.382300414,1.0,0.577670603,1.0,0.607608448,0.0,0.378261578,True,,5eb7dbeede9f986ef1cff0de,,911767,70,,evan-feature22,full_rf_b,,1
46,39181,71,,,,2,2,1.0,0.0,-1.0,0.0,,0.0-73.0,,-1.0,2514.505,0.0,0.357596762,1.0,0.5929076529999999,1.0,0.6579790010000001,0.0,0.401326777,True,,5eb7dbeede9f986ef1cff0de,,924039,71,,evan-feature22,full_rf_b,,1
47,39182,72,,,,1,1,1.0,1.0,0.0,1.0,,0.0-74.0,,1.0,636.145,1.0,0.362033495,1.0,0.582308608,0.0,0.649195052,0.0,0.355158505,True,,5eb7dbeede9f986ef1cff0de,,934431,72,,evan-feature22,full_rf_b,,1
48,39183,73,,,,1,1,0.0,1.0,0.0,1.0,,0.0-75.0,,1.0,1430.22,0.0,0.369620635,1.0,0.669100864,1.0,0.706059111,0.0,0.362516241,True,,5eb7dbeede9f986ef1cff0de,,945620,73,,evan-feature22,full_rf_b,,0
49,39184,74,,,,1,1,1.0,1.0,0.0,1.0,,0.0-76.0,,1.0,411.35500010000004,1.0,0.41477751399999996,1.0,0.7284416779999999,1.0,0.7182656940000001,0.0,0.36228040899999997,True,,5eb7dbeede9f986ef1cff0de,,955789,74,,evan-feature22,full_rf_b,,0
50,39185,75,,,,1,1,0.0,1.0,-1.0,0.0,,0.0-77.0,,0.0,2214.745,0.0,0.37675460299999997,1.0,0.703250285,1.0,0.75,1.0,0.461979164,True,,5eb7dbeede9f986ef1cff0de,,967762,75,,evan-feature22,full_rf_b,,0
51,39186,76,,,,1,1,0.0,0.0,-1.0,0.0,,0.0-78.0,,0.0,1815.445,0.0,0.398716075,0.0,0.6723864890000001,0.0,0.674153818,1.0,0.519029516,True,,5eb7dbeede9f986ef1cff0de,,979334,76,,evan-feature22,full_rf_b,,0
52,39187,77,,,,1,1,0.0,1.0,-1.0,0.0,,0.0-79.0,,0.0,1262.26,0.0,0.34677856700000004,1.0,0.69057175,1.0,0.6822438540000001,1.0,0.477292237,True,,5eb7dbeede9f986ef1cff0de,,990355,77,,evan-feature22,full_rf_b,,0
53,39188,78,,,,1,1,0.0,1.0,0.0,1.0,,0.0-80.0,,1.0,885.9499999,0.0,0.28580469199999997,1.0,0.68408818,1.0,0.684207565,0.0,0.49780448299999996,True,,5eb7dbeede9f986ef1cff0de,,1000996,78,,evan-feature22,full_rf_b,,0
54,39190,80,,,,1,1,1.0,1.0,0.0,1.0,,0.0-82.0,,1.0,1216.935,1.0,0.25,1.0,0.7405808970000001,1.0,0.679614108,0.0,0.436436964,True,,5eb7dbeede9f986ef1cff0de,,1024642,80,,evan-feature22,full_rf_b,,0
55,39191,81,,,,1,1,0.0,0.0,0.0,1.0,,0.0-83.0,,0.0,677.9850001,0.0,0.29890393,0.0,0.730505706,1.0,0.7328203320000001,1.0,0.439256938,True,,5eb7dbeede9f986ef1cff0de,,1035077,81,,evan-feature22,full_rf_b,,0
56,39192,82,,,,1,1,1.0,1.0,-1.0,0.0,,0.0-84.0,,-1.0,1853.705,1.0,0.326762398,1.0,0.7148059609999999,0.0,0.75,1.0,0.44389608799999997,True,,5eb7dbeede9f986ef1cff0de,,1046689,82,,evan-feature22,full_rf_b,,0
57,39193,83,,,,1,1,0.0,1.0,0.0,1.0,,0.0-85.0,,1.0,1416.51,0.0,0.295168515,1.0,0.739760854,1.0,0.719947008,0.0,0.35277284600000003,True,,5eb7dbeede9f986ef1cff0de,,1057862,83,,evan-feature22,full_rf_b,,0
58,39194,84,,,,1,1,1.0,0.0,0.0,1.0,,0.0-86.0,,0.0,709.3600001,1.0,0.25,0.0,0.70781482,0.0,0.75,1.0,0.286095925,True,,5eb7dbeede9f986ef1cff0de,,1068329,84,,evan-feature22,full_rf_b,,0
59,39195,85,,,,1,1,0.0,1.0,0.0,1.0,,0.0-87.0,,1.0,720.54,0.0,0.25638190899999996,1.0,0.704088163,1.0,0.75,1.0,0.26872601399999996,True,,5eb7dbeede9f986ef1cff0de,,1078809,85,,evan-feature22,full_rf_b,,0
60,39196,86,,,,1,1,0.0,0.0,-1.0,0.0,,0.0-88.0,,0.0,2106.21,0.0,0.271581126,0.0,0.669760107,1.0,0.733896663,1.0,0.273244572,True,,5eb7dbeede9f986ef1cff0de,,1090674,86,,evan-feature22,full_rf_b,,0
61,39197,87,,,,2,2,0.0,0.0,0.0,1.0,,0.0-89.0,,0.0,2764.05,0.0,0.257144401,0.0,0.600575706,0.0,0.74488122,0.0,0.25,True,,5eb7dbeede9f986ef1cff0de,,1103197,87,,evan-feature22,full_rf_b,,1
62,39198,88,,,,2,2,1.0,0.0,0.0,1.0,,0.0-90.0,,0.0,1293.97,1.0,0.25,1.0,0.616870026,1.0,0.723610234,0.0,0.25,True,,5eb7dbeede9f986ef1cff0de,,1114251,88,,evan-feature22,full_rf_b,,0
63,39199,89,,,,1,1,1.0,0.0,-1.0,0.0,,0.0-91.0,,-1.0,1578.325,1.0,0.25,0.0,0.583540187,1.0,0.7041042559999999,0.0,0.285961995,True,,5eb7dbeede9f986ef1cff0de,,1125587,89,,evan-feature22,full_rf_b,,1
64,39200,90,,,,2,2,1.0,0.0,-1.0,0.0,,0.0-92.0,,-1.0,1083.275,0.0,0.27254536,0.0,0.53875765,1.0,0.693783448,0.0,0.284961652,True,,5eb7dbeede9f986ef1cff0de,,1136428,90,,evan-feature22,full_rf_b,,1
65,39201,91,,,,1,1,0.0,0.0,-1.0,0.0,,0.0-93.0,,0.0,613.355,0.0,0.25,0.0,0.548431252,0.0,0.734221895,0.0,0.279445214,True,,5eb7dbeede9f986ef1cff0de,,1146798,91,,evan-feature22,full_rf_b,,1
66,39202,92,,,,1,1,1.0,1.0,0.0,1.0,,0.0-94.0,,1.0,2107.815,1.0,0.258640684,1.0,0.545878066,0.0,0.725245965,0.0,0.31487537,True,,5eb7dbeede9f986ef1cff0de,,1158663,92,,evan-feature22,full_rf_b,,0
67,39203,93,,,,1,1,0.0,0.0,0.0,1.0,,0.0-95.0,,0.0,425.77,0.0,0.251103711,0.0,0.5776290629999999,0.0,0.696320133,0.0,0.317831047,True,,5eb7dbeede9f986ef1cff0de,,1168848,93,,evan-feature22,full_rf_b,,0
68,39204,94,,,,1,1,0.0,1.0,0.0,1.0,,0.0-96.0,,1.0,753.775,0.0,0.276630292,1.0,0.617329858,0.0,0.73838088,1.0,0.261471582,True,,5eb7dbeede9f986ef1cff0de,,1179359,94,,evan-feature22,full_rf_b,,0
69,39205,95,,,,1,1,0.0,1.0,0.0,1.0,,0.0-97.0,,1.0,382.525,0.0,0.297716424,1.0,0.618863717,1.0,0.7402358259999999,1.0,0.262600834,True,,5eb7dbeede9f986ef1cff0de,,1189497,95,,evan-feature22,full_rf_b,,0
70,39206,96,,,,1,1,0.0,1.0,-1.0,0.0,,0.0-98.0,,0.0,1952.345,0.0,0.290935512,1.0,0.695370945,1.0,0.706570507,0.0,0.280030553,True,,5eb7dbeede9f986ef1cff0de,,1201207,96,,evan-feature22,full_rf_b,,0
71,39207,97,,,,1,1,0.0,1.0,0.0,1.0,,0.0-99.0,,1.0,890.32,0.0,0.25,1.0,0.6465277079999999,0.0,0.67766682,0.0,0.25,True,,5eb7dbeede9f986ef1cff0de,,1211857,97,,evan-feature22,full_rf_b,,0
72,39208,98,,,,1,1,0.0,0.0,-1.0,0.0,,0.0-100.0,,0.0,1902.065,0.0,0.26463816,0.0,0.636100213,0.0,0.646048507,0.0,0.265607101,True,,5eb7dbeede9f986ef1cff0de,,1223526,98,,evan-feature22,full_rf_b,,0
73,39209,99,,,,1,1,0.0,0.0,-1.0,0.0,,0.0-101.0,,0.0,886.2200001,0.0,0.314340707,0.0,0.667795927,0.0,0.613630805,0.0,0.25,True,,5eb7dbeede9f986ef1cff0de,,1234168,99,,evan-feature22,full_rf_b,,0
74,39210,100,,,,1,1,1.0,1.0,0.0,1.0,,0.0-102.0,,1.0,724.89,1.0,0.28685784,1.0,0.6622549529999999,1.0,0.652154117,0.0,0.25,True,,5eb7dbeede9f986ef1cff0de,,1244650,100,,evan-feature22,full_rf_b,,0
75,39211,101,,,,1,1,0.0,1.0,0.0,1.0,,0.0-103.0,,1.0,670.5,0.0,0.304106554,1.0,0.631289538,1.0,0.707041942,1.0,0.29314237,True,,5eb7dbeede9f986ef1cff0de,,1255078,101,,evan-feature22,full_rf_b,,0
76,39212,102,,,,1,1,0.0,1.0,0.0,1.0,,0.0-104.0,,1.0,494.0000001,0.0,0.304806932,1.0,0.571167718,1.0,0.680472346,0.0,0.25,True,,5eb7dbeede9f986ef1cff0de,,1265328,102,,evan-feature22,full_rf_b,,0
77,39213,103,,,,1,1,0.0,1.0,0.0,1.0,,0.0-105.0,,1.0,379.205,0.0,0.37919861,1.0,0.5724849710000001,1.0,0.705638003,1.0,0.30179300600000003,True,,5eb7dbeede9f986ef1cff0de,,1275466,103,,evan-feature22,full_rf_b,,0
78,39214,104,,,,1,1,1.0,1.0,0.0,1.0,,0.0-106.0,,1.0,882.455,1.0,0.464277969,1.0,0.554034373,0.0,0.7372627340000001,1.0,0.264699741,True,,5eb7dbeede9f986ef1cff0de,,1286106,104,,evan-feature22,full_rf_b,,0
79,39215,105,,,,1,1,1.0,0.0,0.0,1.0,,0.0-107.0,,0.0,647.775,1.0,0.465104323,0.0,0.530793115,1.0,0.75,1.0,0.31683071,True,,5eb7dbeede9f986ef1cff0de,,1296511,105,,evan-feature22,full_rf_b,,0
80,39216,106,,,,1,1,0.0,0.0,-1.0,0.0,,0.0-108.0,,0.0,3082.515,0.0,0.465104323,0.0,0.530793115,0.0,0.75,0.0,0.31683071,True,,5eb7dbeede9f986ef1cff0de,,1309350,106,,evan-feature22,full_rf_b,,0
81,39217,107,,,,1,1,1.0,1.0,-1.0,0.0,,0.0-109.0,,-1.0,636.8250001,1.0,0.46833986,1.0,0.570249239,1.0,0.7244472590000001,0.0,0.364114163,True,,5eb7dbeede9f986ef1cff0de,,1319744,107,,evan-feature22,full_rf_b,,0
82,39218,108,,,,1,1,0.0,1.0,-1.0,0.0,,0.0-110.0,,0.0,1162.43,0.0,0.445444024,1.0,0.649673355,1.0,0.6845441290000001,0.0,0.300660449,True,,5eb7dbeede9f986ef1cff0de,,1330664,108,,evan-feature22,full_rf_b,,0
83,39219,109,,,,1,1,1.0,1.0,-1.0,0.0,,0.0-111.0,,-1.0,1848.25,1.0,0.39909721299999995,1.0,0.6715179509999999,1.0,0.742310028,0.0,0.35496088299999995,True,,5eb7dbeede9f986ef1cff0de,,1342270,109,,evan-feature22,full_rf_b,,0
84,39220,110,,,,1,1,1.0,1.0,0.0,1.0,,0.0-112.0,,1.0,1192.385,1.0,0.37956104799999996,1.0,0.694725302,1.0,0.7181651309999999,0.0,0.38726906299999997,True,,5eb7dbeede9f986ef1cff0de,,1353219,110,,evan-feature22,full_rf_b,,0
85,39221,111,,,,1,1,0.0,0.0,0.0,1.0,,0.0-113.0,,0.0,553.04,0.0,0.404995034,0.0,0.724375412,0.0,0.6910946859999999,0.0,0.387187347,True,,5eb7dbeede9f986ef1cff0de,,1363528,111,,evan-feature22,full_rf_b,,0
86,39222,112,,,,1,1,0.0,1.0,-1.0,0.0,,0.0-114.0,,0.0,865.64,0.0,0.461740803,1.0,0.75,1.0,0.75,0.0,0.34872038200000005,True,,5eb7dbeede9f986ef1cff0de,,1374151,112,,evan-feature22,full_rf_b,,0
87,39223,113,,,,1,1,0.0,0.0,-1.0,0.0,,0.0-115.0,,0.0,1104.385,0.0,0.43821380600000004,0.0,0.738833273,1.0,0.728286963,1.0,0.399538128,True,,5eb7dbeede9f986ef1cff0de,,1385012,113,,evan-feature22,full_rf_b,,0
88,39224,114,,,,1,1,0.0,1.0,0.0,1.0,,0.0-116.0,,1.0,1493.595,0.0,0.41709882,1.0,0.736666736,1.0,0.75,0.0,0.389095584,True,,5eb7dbeede9f986ef1cff0de,,1396262,114,,evan-feature22,full_rf_b,,0
89,39225,115,,,,1,1,1.0,1.0,0.0,1.0,,0.0-117.0,,1.0,843.445,1.0,0.39749009799999996,1.0,0.744320029,1.0,0.75,1.0,0.363848678,True,,5eb7dbeede9f986ef1cff0de,,1406863,115,,evan-feature22,full_rf_b,,0
90,39226,116,,,,1,1,0.0,1.0,-1.0,0.0,,0.0-118.0,,0.0,1542.445,0.0,0.392653706,1.0,0.75,1.0,0.75,0.0,0.384386976,True,,5eb7dbeede9f986ef1cff0de,,1418165,116,,evan-feature22,full_rf_b,,0
91,39227,117,,,,1,1,0.0,1.0,0.0,1.0,,0.0-119.0,,1.0,1616.62,0.0,0.31190902600000003,1.0,0.75,1.0,0.732413819,0.0,0.413082932,True,,5eb7dbeede9f986ef1cff0de,,1429540,117,,evan-feature22,full_rf_b,,0
92,39228,118,,,,1,1,0.0,1.0,-1.0,0.0,,0.0-120.0,,0.0,3331.445,0.0,0.366917648,1.0,0.740073855,1.0,0.75,1.0,0.352861979,True,,5eb7dbeede9f986ef1cff0de,,1442628,118,,evan-feature22,full_rf_b,,0
93,39229,119,,,,1,1,1.0,0.0,-1.0,0.0,,0.0-121.0,,-1.0,976.9049999,1.0,0.3645172,0.0,0.721770713,1.0,0.75,1.0,0.404074511,True,,5eb7dbeede9f986ef1cff0de,,1453364,119,,evan-feature22,full_rf_b,,0
94,39230,120,,,,1,1,0.0,1.0,-1.0,0.0,,0.0-122.0,,0.0,611.3949999,0.0,0.35205600299999995,1.0,0.68983859,1.0,0.739735447,1.0,0.366895945,True,,5eb7dbeede9f986ef1cff0de,,1463732,120,,evan-feature22,full_rf_b,,0
95,39231,121,,,,1,1,1.0,0.0,-1.0,0.0,,0.0-123.0,,-1.0,1603.29,1.0,0.40998722600000004,0.0,0.720859127,0.0,0.673854955,1.0,0.368528541,True,,5eb7dbeede9f986ef1cff0de,,1475093,121,,evan-feature22,full_rf_b,,0
96,39232,122,,,,1,1,0.0,1.0,-1.0,0.0,,0.0-124.0,,0.0,963.38,0.0,0.353625316,1.0,0.75,1.0,0.695605473,1.0,0.38303674200000004,True,,5eb7dbeede9f986ef1cff0de,,1485814,122,,evan-feature22,full_rf_b,,0
97,39233,123,,,,1,1,1.0,1.0,-1.0,0.0,,0.0-125.0,,-1.0,948.12,1.0,0.359216989,1.0,0.75,1.0,0.6987915090000001,0.0,0.35169046200000004,True,,5eb7dbeede9f986ef1cff0de,,1496519,123,,evan-feature22,full_rf_b,,0
98,39234,124,,,,1,1,0.0,0.0,-1.0,0.0,,0.0-126.0,,0.0,679.475,0.0,0.35834496899999996,0.0,0.75,0.0,0.707067742,0.0,0.416763636,True,,5eb7dbeede9f986ef1cff0de,,1506953,124,,evan-feature22,full_rf_b,,0
99,39235,125,,,,1,1,1.0,1.0,0.0,1.0,,0.0-127.0,,1.0,662.385,1.0,0.38741613799999997,1.0,0.7177369570000001,1.0,0.734902455,0.0,0.49438664299999996,True,,5eb7dbeede9f986ef1cff0de,,1517373,125,,evan-feature22,full_rf_b,,0
100,39236,126,,,,1,1,0.0,1.0,-1.0,0.0,,0.0-128.0,,0.0,906.3950001000001,0.0,0.405255252,1.0,0.7300466640000001,0.0,0.7027748070000001,1.0,0.504359668,True,,5eb7dbeede9f986ef1cff0de,,1528037,126,,evan-feature22,full_rf_b,,0
101,39237,127,,,,1,1,1.0,1.0,-1.0,0.0,,0.0-129.0,,-1.0,993.2199999,1.0,0.40697073,1.0,0.7260142190000001,1.0,0.724461982,0.0,0.522779179,True,,5eb7dbeede9f986ef1cff0de,,1538789,127,,evan-feature22,full_rf_b,,0
102,39238,128,,,,1,1,0.0,0.0,-1.0,0.0,,0.0-130.0,,0.0,1516.605,0.0,0.43906215299999996,0.0,0.7252802340000001,0.0,0.719079934,1.0,0.5712990579999999,True,,5eb7dbeede9f986ef1cff0de,,1550063,128,,evan-feature22,full_rf_b,,0
103,39239,129,,,,2,2,1.0,1.0,0.0,1.0,,0.0-131.0,,1.0,1061.33,0.0,0.4076705,1.0,0.73280499,1.0,0.681313127,1.0,0.523891346,True,,5eb7dbeede9f986ef1cff0de,,1560882,129,,evan-feature22,full_rf_b,,1
104,39240,130,,,,1,1,0.0,1.0,0.0,1.0,,0.0-132.0,,1.0,2819.545,0.0,0.399102911,1.0,0.730498344,1.0,0.661080239,0.0,0.46742603,True,,5eb7dbeede9f986ef1cff0de,,1573459,130,,evan-feature22,full_rf_b,,1
105,39241,131,,,,1,1,1.0,1.0,0.0,1.0,,0.0-133.0,,1.0,1423.2,1.0,0.356477282,1.0,0.712296395,1.0,0.641812684,1.0,0.44868414,True,,5eb7dbeede9f986ef1cff0de,,1584639,131,,evan-feature22,full_rf_b,,0
106,39242,132,,,,1,1,0.0,0.0,-1.0,0.0,,0.0-134.0,,0.0,793.34,0.0,0.462760722,0.0,0.692349322,1.0,0.700947931,0.0,0.394680266,True,,5eb7dbeede9f986ef1cff0de,,1595191,132,,evan-feature22,full_rf_b,,0
107,39243,133,,,,1,1,0.0,1.0,-1.0,0.0,,0.0-135.0,,0.0,1120.58,0.0,0.422306413,1.0,0.718375916,0.0,0.706340917,0.0,0.367787185,True,,5eb7dbeede9f986ef1cff0de,,1606070,133,,evan-feature22,full_rf_b,,0
108,39245,135,,,,1,1,1.0,0.0,-1.0,0.0,,0.0-137.0,,-1.0,1741.845,1.0,0.4582233,0.0,0.643834117,1.0,0.75,0.0,0.39615823299999997,True,,5eb7dbeede9f986ef1cff0de,,1717612,135,,evan-feature22,full_rf_b,,0
109,39246,136,,,,1,1,1.0,1.0,-1.0,0.0,,0.0-138.0,,-1.0,2033.98,1.0,0.43813437899999996,1.0,0.651283804,1.0,0.729674191,0.0,0.37711048,True,,5eb7dbeede9f986ef1cff0de,,1729404,136,,evan-feature22,full_rf_b,,0
110,39247,137,,,,1,1,1.0,1.0,-1.0,0.0,,0.0-139.0,,-1.0,793.62,1.0,0.471199094,1.0,0.6470010979999999,0.0,0.715008097,0.0,0.410656191,True,,5eb7dbeede9f986ef1cff0de,,1739954,137,,evan-feature22,full_rf_b,,0
111,39248,138,,,,2,2,1.0,0.0,-1.0,0.0,,0.0-140.0,,-1.0,457.67,1.0,0.42486406,1.0,0.629771829,1.0,0.6550939960000001,0.0,0.459093873,True,,5eb7dbeede9f986ef1cff0de,,1750169,138,,evan-feature22,full_rf_b,,1
112,39249,139,,,,2,2,1.0,0.0,-1.0,0.0,,0.0-141.0,,-1.0,862.285,0.0,0.4803197,1.0,0.645842715,1.0,0.6421749920000001,0.0,0.443092151,True,,5eb7dbeede9f986ef1cff0de,,1760789,139,,evan-feature22,full_rf_b,,0
113,39250,140,,,,1,1,0.0,1.0,0.0,1.0,,0.0-142.0,,1.0,775.575,0.0,0.521848997,1.0,0.735801074,0.0,0.6691348460000001,0.0,0.45259351600000003,True,,5eb7dbeede9f986ef1cff0de,,1771322,140,,evan-feature22,full_rf_b,,1
114,39251,141,,,,2,2,1.0,1.0,-1.0,0.0,,0.0-143.0,,-1.0,1559.755,0.0,0.49565621299999996,0.0,0.742400847,1.0,0.661512553,1.0,0.483110831,True,,5eb7dbeede9f986ef1cff0de,,1782638,141,,evan-feature22,full_rf_b,,1
115,39252,142,,,,1,1,1.0,1.0,-1.0,0.0,,0.0-144.0,,-1.0,462.88499989999997,1.0,0.521564361,1.0,0.731078632,0.0,0.6774886809999999,0.0,0.483263956,True,,5eb7dbeede9f986ef1cff0de,,1792860,142,,evan-feature22,full_rf_b,,1
116,39253,143,,,,1,1,0.0,1.0,-1.0,0.0,,0.0-145.0,,0.0,1805.765,0.0,0.558893102,1.0,0.719810023,1.0,0.67461031,0.0,0.499349834,True,,5eb7dbeede9f986ef1cff0de,,1804424,143,,evan-feature22,full_rf_b,,0
117,39254,144,,,,1,1,1.0,1.0,-1.0,0.0,,0.0-146.0,,-1.0,2344.345,1.0,0.611031046,1.0,0.75,1.0,0.688072995,0.0,0.5321422729999999,True,,5eb7dbeede9f986ef1cff0de,,1816526,144,,evan-feature22,full_rf_b,,0
118,39255,145,,,,2,2,1.0,1.0,0.0,1.0,,0.0-147.0,,1.0,790.915,1.0,0.633223941,1.0,0.713567728,1.0,0.75,1.0,0.48185314700000004,True,,5eb7dbeede9f986ef1cff0de,,1827073,145,,evan-feature22,full_rf_b,,1
119,39256,146,,,,1,1,1.0,0.0,-1.0,0.0,,0.0-148.0,,-1.0,573.1500001,1.0,0.664001694,0.0,0.705509768,1.0,0.75,0.0,0.500211065,True,,5eb7dbeede9f986ef1cff0de,,1837403,146,,evan-feature22,full_rf_b,,1
120,39257,147,,,,1,1,1.0,1.0,-1.0,0.0,,0.0-149.0,,-1.0,853.6950001,1.0,0.664001694,1.0,0.705509768,1.0,0.75,0.0,0.500211065,True,,5eb7dbeede9f986ef1cff0de,,1848014,147,,evan-feature22,full_rf_b,,0
121,39258,148,,,,1,1,0.0,0.0,-1.0,0.0,,0.0-150.0,,0.0,2167.115,0.0,0.696508041,0.0,0.71066027,1.0,0.717028709,1.0,0.49792991,True,,5eb7dbeede9f986ef1cff0de,,1859938,148,,evan-feature22,full_rf_b,,0
122,39259,149,,,,1,1,1.0,1.0,0.0,1.0,,0.0-151.0,,1.0,1093.355,1.0,0.699883272,1.0,0.75,0.0,0.713543895,0.0,0.496962643,True,,5eb7dbeede9f986ef1cff0de,,1870789,149,,evan-feature22,full_rf_b,,0
123,39260,150,,,,1,1,1.0,0.0,0.0,1.0,,0.0-152.0,,0.0,958.385,1.0,0.741163419,0.0,0.75,0.0,0.64691024,1.0,0.513858197,True,,5eb7dbeede9f986ef1cff0de,,1881504,150,,evan-feature22,full_rf_b,,0
124,39261,151,,,,2,2,0.0,0.0,0.0,1.0,,0.0-153.0,,0.0,1644.36,1.0,0.75,1.0,0.70816558,0.0,0.594499079,0.0,0.48502124,True,,5eb7dbeede9f986ef1cff0de,,1892905,151,,evan-feature22,full_rf_b,,1
125,39262,152,,,,2,2,0.0,1.0,-1.0,0.0,,0.0-154.0,,0.0,1539.025,1.0,0.75,1.0,0.721848901,0.0,0.62197249,1.0,0.48263586399999997,True,,5eb7dbeede9f986ef1cff0de,,1904202,152,,evan-feature22,full_rf_b,,0
126,39263,153,,,,2,2,1.0,0.0,-1.0,0.0,,0.0-155.0,,-1.0,963.1800001,1.0,0.75,1.0,0.74813071,1.0,0.584357161,0.0,0.411477782,True,,5eb7dbeede9f986ef1cff0de,,1914922,153,,evan-feature22,full_rf_b,,0
127,39264,154,,,,1,1,1.0,0.0,-1.0,0.0,,0.0-156.0,,-1.0,1336.37,1.0,0.75,0.0,0.75,0.0,0.52287236,1.0,0.488290656,True,,5eb7dbeede9f986ef1cff0de,,1926016,154,,evan-feature22,full_rf_b,,1
128,39265,155,,,,2,2,1.0,1.0,-1.0,0.0,,0.0-157.0,,-1.0,2288.92,0.0,0.75,1.0,0.75,1.0,0.544321581,1.0,0.53143059,True,,5eb7dbeede9f986ef1cff0de,,1938061,155,,evan-feature22,full_rf_b,,1
129,39266,156,,,,1,1,1.0,1.0,-1.0,0.0,,0.0-158.0,,-1.0,1691.18,1.0,0.726754564,1.0,0.75,0.0,0.5129306370000001,1.0,0.530592445,True,,5eb7dbeede9f986ef1cff0de,,1949511,156,,evan-feature22,full_rf_b,,1
130,39267,157,,,,1,1,1.0,1.0,0.0,1.0,,0.0-159.0,,1.0,2998.195,1.0,0.75,1.0,0.7392590729999999,1.0,0.479875835,0.0,0.547007051,True,,5eb7dbeede9f986ef1cff0de,,1962267,157,,evan-feature22,full_rf_b,,0
131,39268,158,,,,1,1,1.0,1.0,0.0,1.0,,0.0-160.0,,1.0,893.005,1.0,0.75,1.0,0.7393376979999999,1.0,0.546045419,1.0,0.541267353,True,,5eb7dbeede9f986ef1cff0de,,1972918,158,,evan-feature22,full_rf_b,,0
132,39269,159,,,,2,2,0.0,1.0,-1.0,0.0,,0.0-161.0,,0.0,2444.92,1.0,0.75,0.0,0.75,0.0,0.485725895,1.0,0.527625395,True,,5eb7dbeede9f986ef1cff0de,,1985121,159,,evan-feature22,full_rf_b,,1
133,39270,160,,,,1,1,1.0,1.0,0.0,1.0,,0.0-162.0,,1.0,1714.355,1.0,0.75,1.0,0.725087974,0.0,0.488603595,0.0,0.504019206,True,,5eb7dbeede9f986ef1cff0de,,1996594,160,,evan-feature22,full_rf_b,,1
134,39271,161,,,,1,1,1.0,1.0,-1.0,0.0,,0.0-163.0,,-1.0,1114.025,1.0,0.745504295,1.0,0.75,0.0,0.452379914,0.0,0.50131194,True,,5eb7dbeede9f986ef1cff0de,,2007465,161,,evan-feature22,full_rf_b,,0
135,39272,162,,,,1,1,1.0,1.0,0.0,1.0,,0.0-164.0,,1.0,1902.82,1.0,0.728513874,1.0,0.75,0.0,0.44125567200000004,1.0,0.531454591,True,,5eb7dbeede9f986ef1cff0de,,2019126,162,,evan-feature22,full_rf_b,,0
136,39273,163,,,,1,1,1.0,1.0,-1.0,0.0,,0.0-165.0,,-1.0,1384.885,1.0,0.73790804,1.0,0.75,0.0,0.413036656,0.0,0.524619035,True,,5eb7dbeede9f986ef1cff0de,,2030268,163,,evan-feature22,full_rf_b,,0
137,39274,164,,,,1,1,1.0,0.0,-1.0,0.0,,0.0-166.0,,-1.0,893.225,1.0,0.7080961309999999,0.0,0.708666865,0.0,0.431915581,1.0,0.481819489,True,,5eb7dbeede9f986ef1cff0de,,2040918,164,,evan-feature22,full_rf_b,,0
138,39275,165,,,,2,2,1.0,0.0,-1.0,0.0,,0.0-167.0,,-1.0,2490.84,1.0,0.721378003,0.0,0.71605913,1.0,0.36642387,0.0,0.5036739929999999,True,,5eb7dbeede9f986ef1cff0de,,2053166,165,,evan-feature22,full_rf_b,,1
139,39276,166,,,,1,1,0.0,0.0,0.0,1.0,,0.0-168.0,,0.0,662.745,0.0,0.7340618959999999,0.0,0.699323252,0.0,0.35298046299999997,0.0,0.511241692,True,,5eb7dbeede9f986ef1cff0de,,2063585,166,,evan-feature22,full_rf_b,,1
140,39277,167,,,,1,1,1.0,0.0,0.0,1.0,,0.0-169.0,,0.0,570.1499999,1.0,0.75,0.0,0.70412698,1.0,0.380734814,1.0,0.529580116,True,,5eb7dbeede9f986ef1cff0de,,2073915,167,,evan-feature22,full_rf_b,,0
141,39278,168,,,,1,1,0.0,0.0,0.0,1.0,,0.0-170.0,,0.0,945.22,0.0,0.7436654909999999,0.0,0.711182751,0.0,0.41125331,0.0,0.49554405,True,,5eb7dbeede9f986ef1cff0de,,2084618,168,,evan-feature22,full_rf_b,,0
142,39279,169,,,,2,2,1.0,0.0,-1.0,0.0,,0.0-171.0,,-1.0,2955.93,1.0,0.731607915,0.0,0.651774583,1.0,0.35688023,0.0,0.45194491600000003,True,,5eb7dbeede9f986ef1cff0de,,2097330,169,,evan-feature22,full_rf_b,,1
143,39280,170,,,,1,1,1.0,1.0,0.0,1.0,,0.0-172.0,,1.0,780.4200001,1.0,0.75,1.0,0.75,0.0,0.283145374,0.0,0.528608005,True,,5eb7dbeede9f986ef1cff0de,,2107868,170,,evan-feature22,full_rf_b,,1
144,39281,171,,,,1,1,0.0,1.0,-1.0,0.0,,0.0-173.0,,0.0,2238.65,0.0,0.7491416890000001,1.0,0.7423785959999999,0.0,0.29135870399999997,0.0,0.498888318,True,,5eb7dbeede9f986ef1cff0de,,2119863,171,,evan-feature22,full_rf_b,,0
145,39282,172,,,,1,1,1.0,1.0,0.0,1.0,,0.0-174.0,,1.0,1163.58,1.0,0.708569387,1.0,0.717682277,0.0,0.294421699,1.0,0.493838163,True,,5eb7dbeede9f986ef1cff0de,,2130785,172,,evan-feature22,full_rf_b,,0
146,39283,173,,,,1,1,1.0,0.0,-1.0,0.0,,0.0-175.0,,-1.0,1162.63,1.0,0.75,0.0,0.7383382159999999,0.0,0.356098707,1.0,0.442533405,True,,5eb7dbeede9f986ef1cff0de,,2141706,173,,evan-feature22,full_rf_b,,0
147,39284,174,,,,2,2,0.0,0.0,-1.0,0.0,,0.0-176.0,,0.0,752.9150001,1.0,0.744527075,1.0,0.75,0.0,0.334127506,0.0,0.393165805,True,,5eb7dbeede9f986ef1cff0de,,2152215,174,,evan-feature22,full_rf_b,,1
148,39285,175,,,,2,2,0.0,1.0,-1.0,0.0,,0.0-177.0,,0.0,983.25,1.0,0.75,1.0,0.75,0.0,0.33571021799999995,1.0,0.350393962,True,,5eb7dbeede9f986ef1cff0de,,2162955,175,,evan-feature22,full_rf_b,,0
149,39286,176,,,,2,2,0.0,1.0,0.0,1.0,,0.0-178.0,,1.0,543.3,1.0,0.75,1.0,0.75,0.0,0.313628297,1.0,0.36349657399999996,True,,5eb7dbeede9f986ef1cff0de,,2173254,176,,evan-feature22,full_rf_b,,0
150,39287,177,,,,1,1,0.0,1.0,-1.0,0.0,,0.0-179.0,,0.0,1481.13,0.0,0.75,1.0,0.734284182,1.0,0.262667667,0.0,0.380199119,True,,5eb7dbeede9f986ef1cff0de,,2184492,177,,evan-feature22,full_rf_b,,1
151,39288,178,,,,2,2,1.0,1.0,-1.0,0.0,,0.0-180.0,,-1.0,1369.495,1.0,0.75,1.0,0.75,1.0,0.25,1.0,0.394494013,True,,5eb7dbeede9f986ef1cff0de,,2195620,178,,evan-feature22,full_rf_b,,1
152,39289,179,,,,2,2,1.0,0.0,-1.0,0.0,,0.0-181.0,,-1.0,2014.66,1.0,0.722298145,1.0,0.7357822340000001,1.0,0.25,0.0,0.319142121,True,,5eb7dbeede9f986ef1cff0de,,2207391,179,,evan-feature22,full_rf_b,,0
153,39290,180,,,,1,1,0.0,1.0,-1.0,0.0,,0.0-182.0,,0.0,832.855,0.0,0.73149275,1.0,0.724276446,1.0,0.305856907,0.0,0.281315057,True,,5eb7dbeede9f986ef1cff0de,,2217982,180,,evan-feature22,full_rf_b,,1
154,39291,181,,,,1,1,1.0,0.0,-1.0,0.0,,0.0-183.0,,-1.0,983.395,1.0,0.7458732690000001,0.0,0.7336382459999999,1.0,0.272571964,0.0,0.266021999,True,,5eb7dbeede9f986ef1cff0de,,2228723,181,,evan-feature22,full_rf_b,,0
155,39292,182,,,,1,1,1.0,1.0,0.0,1.0,,0.0-184.0,,1.0,1061.86,1.0,0.705579037,1.0,0.720778292,0.0,0.320238144,0.0,0.30971744,True,,5eb7dbeede9f986ef1cff0de,,2239544,182,,evan-feature22,full_rf_b,,0
156,39293,183,,,,1,1,1.0,1.0,0.0,1.0,,0.0-185.0,,1.0,664.305,1.0,0.700425648,1.0,0.7198784009999999,1.0,0.272590393,0.0,0.304182931,True,,5eb7dbeede9f986ef1cff0de,,2249967,183,,evan-feature22,full_rf_b,,0
157,39294,184,,,,1,1,1.0,1.0,0.0,1.0,,0.0-186.0,,1.0,746.0,1.0,0.735590785,1.0,0.722714973,0.0,0.25,0.0,0.323421091,True,,5eb7dbeede9f986ef1cff0de,,2260472,184,,evan-feature22,full_rf_b,,0
158,39295,185,,,,1,1,1.0,1.0,0.0,1.0,,0.0-187.0,,1.0,592.6000001,1.0,0.724807662,1.0,0.63146213,0.0,0.36836492600000004,0.0,0.34592153299999995,True,,5eb7dbeede9f986ef1cff0de,,2270822,185,,evan-feature22,full_rf_b,,0
159,39296,186,,,,2,2,1.0,0.0,-1.0,0.0,,0.0-188.0,,-1.0,1564.04,1.0,0.7352796909999999,1.0,0.555111392,1.0,0.36003922,0.0,0.31433779999999995,True,,5eb7dbeede9f986ef1cff0de,,2282145,186,,evan-feature22,full_rf_b,,1
160,39297,187,notice,,,,,,,,,,0.0-189.0,"{""Q0"":""The second half was more similar to the last section""}",,25495.0,,,,,,,,,True,,5eb7dbeede9f986ef1cff0de,,2307640,187,Q,survey-text,full_rf_b,,1
161,39298,188,track1,,[1],,,,,,,,0.0-190.0,"{""Q0"":""no""}",,5118.0,,,,,,,,,True,,5eb7dbeede9f986ef1cff0de,,2312761,188,Q,evan-quiz,full_rf_b,,1
162,39299,189,track2,,[1],,,,,,,,0.0-191.0,"{""Q0"":""no""}",,6006.0,,,,,,,,,True,,5eb7dbeede9f986ef1cff0de,,2318769,189,Q,evan-quiz,full_rf_b,,1
163,39300,190,strat,,,,,,,,,,0.0-192.0,"{""Q0"":""Get a feel for which aliens are more prevalent in which door""}",,20400.0,,,,,,,,,True,,5eb7dbeede9f986ef1cff0de,,2339170,190,Q,survey-text,full_rf_b,,1
