,index,Unnamed: 0,Q_name,button_pressed,choice_idxs,chosen_pos,chosen_state,chosen_state_f_1_outcome,chosen_state_f_2_outcome,f_1_reward,f_2_reward,incor_questions,internal_node_id,responses,reward_received,rt,s_1_f_1_outcome,s_1_f_1_prob,s_1_f_2_outcome,s_1_f_2_prob,s_2_f_1_outcome,s_2_f_1_prob,s_2_f_2_outcome,s_2_f_2_prob,safe_first,stimulus,subjectID,success,time_elapsed,trial_index,trial_num,trial_type,version,view_history,switching
0,47186,25,,,,1,1,0.0,1.0,1.0,0.0,,0.0-27.0,,0.0,1975.58,0.0,0.6,1.0,0.6,1.0,0.4,0.0,0.4,True,,5ea06b415bd57c02b89d4511,,493622,25,,evan-feature22,full_rf_a,,0
1,47187,26,,,,2,2,0.0,0.0,1.0,0.0,,0.0-28.0,,0.0,1317.37,0.0,0.608053294,0.0,0.63424552,0.0,0.397152172,0.0,0.347069101,True,,5ea06b415bd57c02b89d4511,,504726,26,,evan-feature22,full_rf_a,,1
2,47188,27,,,,2,2,0.0,0.0,1.0,0.0,,0.0-29.0,,0.0,674.33,1.0,0.642237155,1.0,0.648566321,0.0,0.389407674,0.0,0.285525717,True,,5ea06b415bd57c02b89d4511,,515229,27,,evan-feature22,full_rf_a,,0
3,47189,28,,,,1,1,1.0,1.0,1.0,0.0,,0.0-30.0,,1.0,539.31,1.0,0.661086576,1.0,0.630492543,0.0,0.399058924,0.0,0.25,True,,5ea06b415bd57c02b89d4511,,525591,28,,evan-feature22,full_rf_a,,1
4,47190,29,,,,1,1,1.0,1.0,0.0,-1.0,,0.0-31.0,,-1.0,530.72,1.0,0.631324137,1.0,0.6269842929999999,0.0,0.38734784299999997,1.0,0.25,True,,5ea06b415bd57c02b89d4511,,535930,29,,evan-feature22,full_rf_a,,0
5,47191,30,,,,1,1,0.0,1.0,0.0,-1.0,,0.0-32.0,,-1.0,797.79,0.0,0.6381991370000001,1.0,0.68987999,1.0,0.384107265,0.0,0.271332943,True,,5ea06b415bd57c02b89d4511,,546546,30,,evan-feature22,full_rf_a,,0
6,47192,31,,,,2,2,0.0,0.0,1.0,0.0,,0.0-33.0,,0.0,335.035,1.0,0.66034901,1.0,0.742641349,0.0,0.360225629,0.0,0.25,True,,5ea06b415bd57c02b89d4511,,556704,31,,evan-feature22,full_rf_a,,1
7,47193,32,,,,2,2,1.0,0.0,1.0,0.0,,0.0-34.0,,1.0,426.28,1.0,0.638612418,1.0,0.75,1.0,0.367273939,0.0,0.25,True,,5ea06b415bd57c02b89d4511,,566952,32,,evan-feature22,full_rf_a,,0
8,47194,33,,,,1,1,0.0,0.0,0.0,-1.0,,0.0-35.0,,0.0,674.45,0.0,0.624340629,0.0,0.75,0.0,0.425829545,0.0,0.25,True,,5ea06b415bd57c02b89d4511,,577423,33,,evan-feature22,full_rf_a,,1
9,47195,34,,,,1,1,0.0,0.0,0.0,-1.0,,0.0-36.0,,0.0,629.44,0.0,0.621999804,0.0,0.75,1.0,0.368609357,1.0,0.25,True,,5ea06b415bd57c02b89d4511,,587854,34,,evan-feature22,full_rf_a,,0
10,47196,35,,,,2,2,1.0,0.0,1.0,0.0,,0.0-37.0,,1.0,417.69,1.0,0.62666403,1.0,0.75,1.0,0.311151498,0.0,0.25,True,,5ea06b415bd57c02b89d4511,,598117,35,,evan-feature22,full_rf_a,,1
11,47197,36,,,,1,1,1.0,0.0,0.0,-1.0,,0.0-38.0,,0.0,774.94,1.0,0.6819650009999999,0.0,0.75,1.0,0.310763048,1.0,0.25,True,,5ea06b415bd57c02b89d4511,,608688,36,,evan-feature22,full_rf_a,,1
12,47198,37,,,,1,1,1.0,1.0,1.0,0.0,,0.0-39.0,,1.0,378.57,1.0,0.740626951,1.0,0.75,0.0,0.25,0.0,0.25,True,,5ea06b415bd57c02b89d4511,,618903,37,,evan-feature22,full_rf_a,,0
13,47199,38,,,,2,2,0.0,0.0,1.0,0.0,,0.0-40.0,,0.0,419.445,1.0,0.739599242,1.0,0.742034978,0.0,0.25397114600000004,0.0,0.25,True,,5ea06b415bd57c02b89d4511,,629136,38,,evan-feature22,full_rf_a,,1
14,47200,39,,,,2,2,0.0,0.0,1.0,0.0,,0.0-41.0,,0.0,638.665,1.0,0.732341315,0.0,0.72735643,0.0,0.25,0.0,0.25,True,,5ea06b415bd57c02b89d4511,,639569,39,,evan-feature22,full_rf_a,,0
15,47201,40,,,,1,1,1.0,1.0,1.0,0.0,,0.0-42.0,,1.0,293.57,1.0,0.7062287770000001,1.0,0.75,1.0,0.29002151,1.0,0.288256649,True,,5ea06b415bd57c02b89d4511,,649684,40,,evan-feature22,full_rf_a,,1
16,47202,41,,,,1,1,1.0,1.0,1.0,0.0,,0.0-43.0,,1.0,393.225,1.0,0.7086029209999999,1.0,0.75,1.0,0.274129113,0.0,0.262851608,True,,5ea06b415bd57c02b89d4511,,659886,41,,evan-feature22,full_rf_a,,0
17,47203,42,,,,2,2,0.0,0.0,1.0,0.0,,0.0-44.0,,0.0,333.26,0.0,0.669189651,1.0,0.727614338,0.0,0.298444036,0.0,0.296944518,True,,5ea06b415bd57c02b89d4511,,670017,42,,evan-feature22,full_rf_a,,1
18,47204,43,,,,1,1,1.0,1.0,1.0,0.0,,0.0-45.0,,1.0,1073.41,1.0,0.6819912929999999,1.0,0.7179434290000001,0.0,0.265003961,0.0,0.28157921199999997,True,,5ea06b415bd57c02b89d4511,,680902,43,,evan-feature22,full_rf_a,,1
19,47205,44,,,,2,2,0.0,0.0,0.0,-1.0,,0.0-46.0,,0.0,615.095,1.0,0.665275002,1.0,0.723065271,0.0,0.260414971,0.0,0.30973870000000003,True,,5ea06b415bd57c02b89d4511,,691318,44,,evan-feature22,full_rf_a,,1
20,47206,45,,,,1,1,1.0,1.0,1.0,0.0,,0.0-47.0,,1.0,371.875,1.0,0.6660593260000001,1.0,0.728032907,0.0,0.30922817,1.0,0.338778608,True,,5ea06b415bd57c02b89d4511,,701519,45,,evan-feature22,full_rf_a,,1
21,47207,46,,,,1,1,0.0,1.0,1.0,0.0,,0.0-48.0,,0.0,389.825,0.0,0.702068785,1.0,0.6528750879999999,1.0,0.287329608,0.0,0.35789613200000003,True,,5ea06b415bd57c02b89d4511,,711719,46,,evan-feature22,full_rf_a,,0
22,47208,47,,,,2,2,0.0,0.0,1.0,0.0,,0.0-49.0,,0.0,327.925,0.0,0.651939787,1.0,0.636725589,0.0,0.284834488,0.0,0.358563756,True,,5ea06b415bd57c02b89d4511,,721872,47,,evan-feature22,full_rf_a,,1
23,47209,48,,,,2,2,0.0,0.0,0.0,-1.0,,0.0-50.0,,0.0,412.94,0.0,0.67573929,0.0,0.612550049,0.0,0.37130387600000003,0.0,0.383542402,True,,5ea06b415bd57c02b89d4511,,732085,48,,evan-feature22,full_rf_a,,0
24,47210,49,,,,1,1,1.0,0.0,0.0,-1.0,,0.0-51.0,,0.0,414.88,1.0,0.620753801,0.0,0.60513644,0.0,0.385529434,1.0,0.340361743,True,,5ea06b415bd57c02b89d4511,,742301,49,,evan-feature22,full_rf_a,,1
25,47211,50,,,,1,1,1.0,0.0,0.0,-1.0,,0.0-52.0,,0.0,368.225,1.0,0.673564893,0.0,0.672437924,0.0,0.292955382,0.0,0.337633795,True,,5ea06b415bd57c02b89d4511,,752498,50,,evan-feature22,full_rf_a,,0
26,47212,51,,,,2,2,0.0,1.0,1.0,0.0,,0.0-53.0,,0.0,660.385,0.0,0.6749427,1.0,0.724197502,0.0,0.32391132100000003,1.0,0.350995264,True,,5ea06b415bd57c02b89d4511,,762965,51,,evan-feature22,full_rf_a,,1
27,47213,52,,,,1,1,1.0,1.0,1.0,0.0,,0.0-54.0,,1.0,838.05,1.0,0.6940159379999999,1.0,0.75,0.0,0.31710554399999996,0.0,0.413450341,True,,5ea06b415bd57c02b89d4511,,773612,52,,evan-feature22,full_rf_a,,1
28,47214,53,,,,1,1,1.0,1.0,1.0,0.0,,0.0-55.0,,1.0,489.55,1.0,0.6916018270000001,1.0,0.69001187,0.0,0.261817804,0.0,0.40038635,True,,5ea06b415bd57c02b89d4511,,783912,53,,evan-feature22,full_rf_a,,0
29,47215,54,,,,1,1,1.0,1.0,1.0,0.0,,0.0-56.0,,1.0,677.84,1.0,0.641061544,1.0,0.71337992,0.0,0.277296461,1.0,0.47372791700000005,True,,5ea06b415bd57c02b89d4511,,794391,54,,evan-feature22,full_rf_a,,0
30,47216,55,,,,1,1,1.0,1.0,1.0,0.0,,0.0-57.0,,1.0,456.335,1.0,0.6082438520000001,1.0,0.708471106,1.0,0.28745137,1.0,0.564174476,True,,5ea06b415bd57c02b89d4511,,804656,55,,evan-feature22,full_rf_a,,0
31,47217,56,,,,1,1,0.0,1.0,1.0,0.0,,0.0-58.0,,0.0,629.195,0.0,0.6051112120000001,1.0,0.7118147229999999,0.0,0.272390611,1.0,0.5595149939999999,True,,5ea06b415bd57c02b89d4511,,815115,56,,evan-feature22,full_rf_a,,0
32,47218,57,,,,2,2,0.0,1.0,1.0,0.0,,0.0-59.0,,0.0,361.525,1.0,0.582420852,0.0,0.635867583,0.0,0.31089574,1.0,0.5227206520000001,True,,5ea06b415bd57c02b89d4511,,825294,57,,evan-feature22,full_rf_a,,1
33,47219,58,,,,1,1,1.0,1.0,0.0,-1.0,,0.0-60.0,,-1.0,340.32,1.0,0.623195575,1.0,0.655026044,0.0,0.25,1.0,0.560387538,True,,5ea06b415bd57c02b89d4511,,835455,58,,evan-feature22,full_rf_a,,1
34,47220,59,,,,1,1,1.0,0.0,1.0,0.0,,0.0-61.0,,1.0,730.73,1.0,0.601889598,0.0,0.678198724,0.0,0.25,0.0,0.559922936,True,,5ea06b415bd57c02b89d4511,,846032,59,,evan-feature22,full_rf_a,,0
35,47221,60,,,,2,2,1.0,1.0,1.0,0.0,,0.0-62.0,,1.0,504.15,0.0,0.601259914,0.0,0.704681482,1.0,0.33908969299999997,1.0,0.505003715,True,,5ea06b415bd57c02b89d4511,,856338,60,,evan-feature22,full_rf_a,,1
36,47222,61,,,,2,2,1.0,0.0,1.0,0.0,,0.0-63.0,,1.0,36.115,1.0,0.59645454,1.0,0.710437172,1.0,0.327441879,0.0,0.391749613,True,,5ea06b415bd57c02b89d4511,,866205,61,,evan-feature22,full_rf_a,,0
37,47223,62,,,,1,1,1.0,1.0,1.0,0.0,,0.0-64.0,,1.0,719.495,1.0,0.529473,1.0,0.636758527,0.0,0.301338063,0.0,0.365661481,True,,5ea06b415bd57c02b89d4511,,876752,62,,evan-feature22,full_rf_a,,1
38,47224,63,,,,1,1,1.0,0.0,0.0,-1.0,,0.0-65.0,,0.0,691.875,1.0,0.541657162,0.0,0.634541962,0.0,0.343535366,1.0,0.371763742,True,,5ea06b415bd57c02b89d4511,,887274,63,,evan-feature22,full_rf_a,,0
39,47225,64,,,,2,2,0.0,0.0,1.0,0.0,,0.0-66.0,,0.0,401.18,0.0,0.5707533260000001,0.0,0.589121171,0.0,0.326428396,0.0,0.43961622899999997,True,,5ea06b415bd57c02b89d4511,,897494,64,,evan-feature22,full_rf_a,,1
40,47226,65,,,,2,2,0.0,0.0,1.0,0.0,,0.0-67.0,,0.0,628.83,1.0,0.5707533260000001,0.0,0.589121171,0.0,0.326428396,0.0,0.43961622899999997,True,,5ea06b415bd57c02b89d4511,,907911,65,,evan-feature22,full_rf_a,,0
41,47227,66,,,,1,1,1.0,1.0,1.0,0.0,,0.0-68.0,,1.0,395.74,1.0,0.506271295,1.0,0.641775594,0.0,0.37149690700000004,0.0,0.404330166,True,,5ea06b415bd57c02b89d4511,,918127,66,,evan-feature22,full_rf_a,,1
42,47228,67,,,,1,1,1.0,1.0,0.0,-1.0,,0.0-69.0,,-1.0,523.585,1.0,0.455642565,1.0,0.623605825,0.0,0.358753011,0.0,0.346174041,True,,5ea06b415bd57c02b89d4511,,928458,67,,evan-feature22,full_rf_a,,0
43,47229,68,,,,1,1,1.0,0.0,0.0,-1.0,,0.0-70.0,,0.0,525.53,1.0,0.483677308,0.0,0.5904681070000001,0.0,0.402218411,0.0,0.35344697,True,,5ea06b415bd57c02b89d4511,,938791,68,,evan-feature22,full_rf_a,,0
44,47230,69,,,,2,2,1.0,0.0,0.0,-1.0,,0.0-71.0,,0.0,539.85,1.0,0.394210977,1.0,0.558925494,1.0,0.540052017,0.0,0.35182128700000004,True,,5ea06b415bd57c02b89d4511,,949156,69,,evan-feature22,full_rf_a,,1
45,47231,70,,,,1,1,0.0,0.0,1.0,0.0,,0.0-72.0,,0.0,603.545,0.0,0.382300414,0.0,0.577670603,1.0,0.607608448,0.0,0.378261578,True,,5ea06b415bd57c02b89d4511,,959580,70,,evan-feature22,full_rf_a,,1
46,47232,71,,,,1,1,0.0,0.0,1.0,0.0,,0.0-73.0,,0.0,264.015,0.0,0.357596762,0.0,0.5929076529999999,1.0,0.6579790010000001,0.0,0.401326777,True,,5ea06b415bd57c02b89d4511,,969667,71,,evan-feature22,full_rf_a,,0
47,47233,72,,,,2,2,1.0,1.0,1.0,0.0,,0.0-74.0,,1.0,401.94,1.0,0.362033495,0.0,0.582308608,1.0,0.649195052,1.0,0.355158505,True,,5ea06b415bd57c02b89d4511,,979918,72,,evan-feature22,full_rf_a,,1
48,47234,73,,,,2,2,1.0,1.0,1.0,0.0,,0.0-75.0,,1.0,388.685,0.0,0.369620635,1.0,0.669100864,1.0,0.706059111,1.0,0.362516241,True,,5ea06b415bd57c02b89d4511,,990157,73,,evan-feature22,full_rf_a,,0
49,47235,74,,,,2,2,1.0,1.0,1.0,0.0,,0.0-76.0,,1.0,500.315,0.0,0.41477751399999996,1.0,0.7284416779999999,1.0,0.7182656940000001,1.0,0.36228040899999997,True,,5ea06b415bd57c02b89d4511,,1000488,74,,evan-feature22,full_rf_a,,0
50,47236,75,,,,2,2,1.0,0.0,0.0,-1.0,,0.0-77.0,,0.0,414.25,1.0,0.37675460299999997,1.0,0.703250285,1.0,0.75,0.0,0.461979164,True,,5ea06b415bd57c02b89d4511,,1010709,75,,evan-feature22,full_rf_a,,0
51,47237,76,,,,1,1,1.0,0.0,0.0,-1.0,,0.0-78.0,,0.0,386.815,1.0,0.398716075,0.0,0.6723864890000001,1.0,0.674153818,0.0,0.519029516,True,,5ea06b415bd57c02b89d4511,,1020927,76,,evan-feature22,full_rf_a,,1
52,47238,77,,,,1,1,1.0,0.0,1.0,0.0,,0.0-79.0,,1.0,380.58,1.0,0.34677856700000004,0.0,0.69057175,1.0,0.6822438540000001,0.0,0.477292237,True,,5ea06b415bd57c02b89d4511,,1031129,77,,evan-feature22,full_rf_a,,0
53,47239,78,,,,1,1,0.0,1.0,0.0,-1.0,,0.0-80.0,,-1.0,926.22,0.0,0.28580469199999997,1.0,0.68408818,1.0,0.684207565,0.0,0.49780448299999996,True,,5ea06b415bd57c02b89d4511,,1041866,78,,evan-feature22,full_rf_a,,0
54,47241,80,,,,2,2,1.0,0.0,1.0,0.0,,0.0-82.0,,1.0,1085.19,0.0,0.25,1.0,0.7405808970000001,1.0,0.679614108,0.0,0.436436964,True,,5ea06b415bd57c02b89d4511,,1055535,80,,evan-feature22,full_rf_a,,1
55,47242,81,,,,2,2,0.0,1.0,0.0,-1.0,,0.0-83.0,,-1.0,337.19,0.0,0.29890393,0.0,0.730505706,0.0,0.7328203320000001,1.0,0.439256938,True,,5ea06b415bd57c02b89d4511,,1065693,81,,evan-feature22,full_rf_a,,0
56,47243,82,,,,1,1,1.0,1.0,1.0,0.0,,0.0-84.0,,1.0,361.97,1.0,0.326762398,1.0,0.7148059609999999,1.0,0.75,1.0,0.44389608799999997,True,,5ea06b415bd57c02b89d4511,,1075868,82,,evan-feature22,full_rf_a,,1
57,47244,83,,,,1,1,0.0,1.0,1.0,0.0,,0.0-85.0,,0.0,877.485,0.0,0.295168515,1.0,0.739760854,0.0,0.719947008,0.0,0.35277284600000003,True,,5ea06b415bd57c02b89d4511,,1086549,83,,evan-feature22,full_rf_a,,0
58,47245,84,,,,1,1,0.0,1.0,1.0,0.0,,0.0-86.0,,0.0,345.47,0.0,0.25,1.0,0.70781482,1.0,0.75,1.0,0.286095925,True,,5ea06b415bd57c02b89d4511,,1096701,84,,evan-feature22,full_rf_a,,0
59,47246,85,,,,2,2,0.0,1.0,0.0,-1.0,,0.0-87.0,,-1.0,413.84,1.0,0.25638190899999996,1.0,0.704088163,0.0,0.75,1.0,0.26872601399999996,True,,5ea06b415bd57c02b89d4511,,1106918,85,,evan-feature22,full_rf_a,,1
60,47247,86,,,,2,2,1.0,1.0,0.0,-1.0,,0.0-88.0,,-1.0,899.245,0.0,0.271581126,1.0,0.669760107,1.0,0.733896663,1.0,0.273244572,True,,5ea06b415bd57c02b89d4511,,1117620,86,,evan-feature22,full_rf_a,,0
61,47248,87,,,,1,1,0.0,1.0,0.0,-1.0,,0.0-89.0,,-1.0,986.855,0.0,0.257144401,1.0,0.600575706,1.0,0.74488122,0.0,0.25,True,,5ea06b415bd57c02b89d4511,,1128440,87,,evan-feature22,full_rf_a,,1
62,47249,88,,,,1,1,0.0,1.0,1.0,0.0,,0.0-90.0,,0.0,372.305,0.0,0.25,1.0,0.616870026,1.0,0.723610234,0.0,0.25,True,,5ea06b415bd57c02b89d4511,,1138652,88,,evan-feature22,full_rf_a,,0
63,47250,89,,,,2,2,1.0,1.0,0.0,-1.0,,0.0-91.0,,-1.0,345.77,0.0,0.25,0.0,0.583540187,1.0,0.7041042559999999,1.0,0.285961995,True,,5ea06b415bd57c02b89d4511,,1148801,89,,evan-feature22,full_rf_a,,1
64,47251,90,,,,2,2,1.0,1.0,1.0,0.0,,0.0-92.0,,1.0,313.84,0.0,0.27254536,1.0,0.53875765,1.0,0.693783448,1.0,0.284961652,True,,5ea06b415bd57c02b89d4511,,1158957,90,,evan-feature22,full_rf_a,,0
65,47252,91,,,,2,2,0.0,0.0,0.0,-1.0,,0.0-93.0,,0.0,2866.025,0.0,0.25,0.0,0.548431252,0.0,0.734221895,0.0,0.279445214,True,,5ea06b415bd57c02b89d4511,,1171626,91,,evan-feature22,full_rf_a,,0
66,47253,92,,,,2,2,0.0,0.0,1.0,0.0,,0.0-94.0,,0.0,316.21,0.0,0.258640684,0.0,0.545878066,0.0,0.725245965,0.0,0.31487537,True,,5ea06b415bd57c02b89d4511,,1181716,92,,evan-feature22,full_rf_a,,0
67,47254,93,,,,1,1,0.0,0.0,1.0,0.0,,0.0-95.0,,0.0,355.71,0.0,0.251103711,0.0,0.5776290629999999,0.0,0.696320133,1.0,0.317831047,True,,5ea06b415bd57c02b89d4511,,1191867,93,,evan-feature22,full_rf_a,,1
68,47255,94,,,,1,1,1.0,0.0,1.0,0.0,,0.0-96.0,,1.0,387.75,1.0,0.276630292,0.0,0.617329858,1.0,0.73838088,0.0,0.261471582,True,,5ea06b415bd57c02b89d4511,,1202069,94,,evan-feature22,full_rf_a,,0
69,47256,95,,,,1,1,0.0,0.0,0.0,-1.0,,0.0-97.0,,0.0,1326.085,0.0,0.297716424,0.0,0.618863717,1.0,0.7402358259999999,0.0,0.262600834,True,,5ea06b415bd57c02b89d4511,,1213218,95,,evan-feature22,full_rf_a,,0
70,47257,96,,,,1,1,0.0,1.0,1.0,0.0,,0.0-98.0,,0.0,1537.365,0.0,0.290935512,1.0,0.695370945,1.0,0.706570507,0.0,0.280030553,True,,5ea06b415bd57c02b89d4511,,1224591,96,,evan-feature22,full_rf_a,,0
71,47258,97,,,,2,2,0.0,0.0,1.0,0.0,,0.0-99.0,,0.0,358.08,0.0,0.25,1.0,0.6465277079999999,0.0,0.67766682,0.0,0.25,True,,5ea06b415bd57c02b89d4511,,1234774,97,,evan-feature22,full_rf_a,,1
72,47259,98,,,,2,2,1.0,0.0,1.0,0.0,,0.0-100.0,,1.0,322.145,1.0,0.26463816,1.0,0.636100213,1.0,0.646048507,0.0,0.265607101,True,,5ea06b415bd57c02b89d4511,,1244937,98,,evan-feature22,full_rf_a,,0
73,47260,99,,,,1,1,1.0,0.0,1.0,0.0,,0.0-101.0,,1.0,538.795,1.0,0.314340707,0.0,0.667795927,1.0,0.613630805,0.0,0.25,True,,5ea06b415bd57c02b89d4511,,1255279,99,,evan-feature22,full_rf_a,,1
74,47261,100,,,,1,1,0.0,1.0,1.0,0.0,,0.0-102.0,,0.0,288.29,0.0,0.28685784,1.0,0.6622549529999999,0.0,0.652154117,0.0,0.25,True,,5ea06b415bd57c02b89d4511,,1265383,100,,evan-feature22,full_rf_a,,0
75,47262,101,,,,2,2,0.0,1.0,0.0,-1.0,,0.0-103.0,,-1.0,2379.9,1.0,0.304106554,0.0,0.631289538,0.0,0.707041942,1.0,0.29314237,True,,5ea06b415bd57c02b89d4511,,1277589,101,,evan-feature22,full_rf_a,,1
76,47263,102,,,,1,1,0.0,1.0,0.0,-1.0,,0.0-104.0,,-1.0,570.495,0.0,0.304806932,1.0,0.571167718,1.0,0.680472346,0.0,0.25,True,,5ea06b415bd57c02b89d4511,,1288003,102,,evan-feature22,full_rf_a,,1
77,47264,103,,,,2,2,1.0,0.0,0.0,-1.0,,0.0-105.0,,0.0,654.365,0.0,0.37919861,1.0,0.5724849710000001,1.0,0.705638003,0.0,0.30179300600000003,True,,5ea06b415bd57c02b89d4511,,1298454,103,,evan-feature22,full_rf_a,,1
78,47265,104,,,,2,2,1.0,1.0,0.0,-1.0,,0.0-106.0,,-1.0,1241.55,0.0,0.464277969,1.0,0.554034373,1.0,0.7372627340000001,1.0,0.264699741,True,,5ea06b415bd57c02b89d4511,,1309516,104,,evan-feature22,full_rf_a,,0
79,47266,105,,,,2,2,0.0,1.0,1.0,0.0,,0.0-107.0,,0.0,329.645,1.0,0.465104323,0.0,0.530793115,0.0,0.75,1.0,0.31683071,True,,5ea06b415bd57c02b89d4511,,1319660,105,,evan-feature22,full_rf_a,,0
80,47267,106,,,,1,1,1.0,1.0,0.0,-1.0,,0.0-108.0,,-1.0,457.845,1.0,0.465104323,1.0,0.530793115,1.0,0.75,0.0,0.31683071,True,,5ea06b415bd57c02b89d4511,,1329944,106,,evan-feature22,full_rf_a,,1
81,47268,107,,,,1,1,0.0,1.0,0.0,-1.0,,0.0-109.0,,-1.0,369.605,0.0,0.46833986,1.0,0.570249239,1.0,0.7244472590000001,0.0,0.364114163,True,,5ea06b415bd57c02b89d4511,,1340139,107,,evan-feature22,full_rf_a,,0
82,47269,108,,,,1,1,1.0,0.0,0.0,-1.0,,0.0-110.0,,0.0,385.785,1.0,0.445444024,0.0,0.649673355,1.0,0.6845441290000001,0.0,0.300660449,True,,5ea06b415bd57c02b89d4511,,1350371,108,,evan-feature22,full_rf_a,,0
83,47270,109,,,,2,2,1.0,1.0,0.0,-1.0,,0.0-111.0,,-1.0,421.485,1.0,0.39909721299999995,1.0,0.6715179509999999,1.0,0.742310028,1.0,0.35496088299999995,True,,5ea06b415bd57c02b89d4511,,1360618,109,,evan-feature22,full_rf_a,,1
84,47271,110,,,,1,1,0.0,1.0,0.0,-1.0,,0.0-112.0,,-1.0,369.895,0.0,0.37956104799999996,1.0,0.694725302,1.0,0.7181651309999999,0.0,0.38726906299999997,True,,5ea06b415bd57c02b89d4511,,1370817,110,,evan-feature22,full_rf_a,,1
85,47272,111,,,,2,2,1.0,0.0,0.0,-1.0,,0.0-113.0,,0.0,2287.43,1.0,0.404995034,0.0,0.724375412,1.0,0.6910946859999999,0.0,0.387187347,True,,5ea06b415bd57c02b89d4511,,1382931,111,,evan-feature22,full_rf_a,,1
86,47273,112,,,,2,2,1.0,0.0,0.0,-1.0,,0.0-114.0,,0.0,548.7,0.0,0.461740803,1.0,0.75,1.0,0.75,0.0,0.34872038200000005,True,,5ea06b415bd57c02b89d4511,,1393308,112,,evan-feature22,full_rf_a,,0
87,47274,113,,,,1,1,0.0,0.0,1.0,0.0,,0.0-115.0,,0.0,1188.34,0.0,0.43821380600000004,0.0,0.738833273,1.0,0.728286963,0.0,0.399538128,True,,5ea06b415bd57c02b89d4511,,1404313,113,,evan-feature22,full_rf_a,,1
88,47275,114,,,,1,1,1.0,0.0,0.0,-1.0,,0.0-116.0,,0.0,502.48,1.0,0.41709882,0.0,0.736666736,1.0,0.75,0.0,0.389095584,True,,5ea06b415bd57c02b89d4511,,1414630,114,,evan-feature22,full_rf_a,,0
89,47276,115,,,,2,2,1.0,0.0,0.0,-1.0,,0.0-117.0,,0.0,304.76,1.0,0.39749009799999996,1.0,0.744320029,1.0,0.75,0.0,0.363848678,True,,5ea06b415bd57c02b89d4511,,1424749,115,,evan-feature22,full_rf_a,,1
90,47277,116,,,,1,1,0.0,1.0,1.0,0.0,,0.0-118.0,,0.0,270.645,0.0,0.392653706,1.0,0.75,1.0,0.75,0.0,0.384386976,True,,5ea06b415bd57c02b89d4511,,1434820,116,,evan-feature22,full_rf_a,,1
91,47278,117,,,,1,1,0.0,1.0,1.0,0.0,,0.0-119.0,,0.0,331.555,0.0,0.31190902600000003,1.0,0.75,1.0,0.732413819,0.0,0.413082932,True,,5ea06b415bd57c02b89d4511,,1444980,117,,evan-feature22,full_rf_a,,0
92,47279,118,,,,2,2,1.0,0.0,0.0,-1.0,,0.0-120.0,,0.0,310.3,1.0,0.366917648,1.0,0.740073855,1.0,0.75,0.0,0.352861979,True,,5ea06b415bd57c02b89d4511,,1455120,118,,evan-feature22,full_rf_a,,1
93,47280,119,,,,1,1,0.0,1.0,0.0,-1.0,,0.0-121.0,,-1.0,564.655,0.0,0.3645172,1.0,0.721770713,1.0,0.75,1.0,0.404074511,True,,5ea06b415bd57c02b89d4511,,1465523,119,,evan-feature22,full_rf_a,,1
94,47281,120,,,,2,2,0.0,0.0,0.0,-1.0,,0.0-122.0,,0.0,553.92,0.0,0.35205600299999995,1.0,0.68983859,0.0,0.739735447,0.0,0.366895945,True,,5ea06b415bd57c02b89d4511,,1475893,120,,evan-feature22,full_rf_a,,1
95,47282,121,,,,2,2,1.0,0.0,0.0,-1.0,,0.0-123.0,,0.0,245.62,0.0,0.40998722600000004,0.0,0.720859127,1.0,0.673854955,0.0,0.368528541,True,,5ea06b415bd57c02b89d4511,,1485939,121,,evan-feature22,full_rf_a,,0
96,47283,122,,,,1,1,0.0,0.0,1.0,0.0,,0.0-124.0,,0.0,355.42,0.0,0.353625316,0.0,0.75,0.0,0.695605473,0.0,0.38303674200000004,True,,5ea06b415bd57c02b89d4511,,1496111,122,,evan-feature22,full_rf_a,,1
97,47284,123,,,,1,1,1.0,1.0,0.0,-1.0,,0.0-125.0,,-1.0,392.15,1.0,0.359216989,1.0,0.75,1.0,0.6987915090000001,1.0,0.35169046200000004,True,,5ea06b415bd57c02b89d4511,,1506307,123,,evan-feature22,full_rf_a,,0
98,47285,124,,,,1,1,0.0,1.0,1.0,0.0,,0.0-126.0,,0.0,417.845,0.0,0.35834496899999996,1.0,0.75,1.0,0.707067742,1.0,0.416763636,True,,5ea06b415bd57c02b89d4511,,1516535,124,,evan-feature22,full_rf_a,,0
99,47286,125,,,,1,1,0.0,0.0,1.0,0.0,,0.0-127.0,,0.0,376.45,0.0,0.38741613799999997,0.0,0.7177369570000001,1.0,0.734902455,0.0,0.49438664299999996,True,,5ea06b415bd57c02b89d4511,,1526724,125,,evan-feature22,full_rf_a,,0
100,47287,126,,,,1,1,1.0,1.0,0.0,-1.0,,0.0-128.0,,-1.0,429.64,1.0,0.405255252,1.0,0.7300466640000001,1.0,0.7027748070000001,1.0,0.504359668,True,,5ea06b415bd57c02b89d4511,,1536961,126,,evan-feature22,full_rf_a,,0
101,47288,127,,,,1,1,0.0,1.0,0.0,-1.0,,0.0-129.0,,-1.0,578.12,0.0,0.40697073,1.0,0.7260142190000001,0.0,0.724461982,1.0,0.522779179,True,,5ea06b415bd57c02b89d4511,,1547356,127,,evan-feature22,full_rf_a,,0
102,47289,128,,,,1,1,1.0,0.0,0.0,-1.0,,0.0-130.0,,0.0,329.545,1.0,0.43906215299999996,0.0,0.7252802340000001,1.0,0.719079934,1.0,0.5712990579999999,True,,5ea06b415bd57c02b89d4511,,1557483,128,,evan-feature22,full_rf_a,,0
103,47290,129,,,,1,1,1.0,1.0,0.0,-1.0,,0.0-131.0,,-1.0,392.865,1.0,0.4076705,1.0,0.73280499,1.0,0.681313127,1.0,0.523891346,True,,5ea06b415bd57c02b89d4511,,1567697,129,,evan-feature22,full_rf_a,,0
104,47291,130,,,,2,2,0.0,0.0,0.0,-1.0,,0.0-132.0,,0.0,1845.565,0.0,0.399102911,1.0,0.730498344,0.0,0.661080239,0.0,0.46742603,True,,5ea06b415bd57c02b89d4511,,1579353,130,,evan-feature22,full_rf_a,,1
105,47292,131,,,,1,1,0.0,1.0,1.0,0.0,,0.0-133.0,,0.0,389.16,0.0,0.356477282,1.0,0.712296395,1.0,0.641812684,1.0,0.44868414,True,,5ea06b415bd57c02b89d4511,,1589554,131,,evan-feature22,full_rf_a,,1
106,47293,132,,,,1,1,1.0,1.0,0.0,-1.0,,0.0-134.0,,-1.0,644.6,1.0,0.462760722,1.0,0.692349322,1.0,0.700947931,0.0,0.394680266,True,,5ea06b415bd57c02b89d4511,,1600038,132,,evan-feature22,full_rf_a,,0
107,47294,133,,,,2,2,1.0,0.0,0.0,-1.0,,0.0-135.0,,0.0,329.71,1.0,0.422306413,1.0,0.718375916,1.0,0.706340917,0.0,0.367787185,True,,5ea06b415bd57c02b89d4511,,1610193,133,,evan-feature22,full_rf_a,,1
108,47296,135,,,,1,1,0.0,1.0,0.0,-1.0,,0.0-137.0,,-1.0,1109.81,0.0,0.4582233,1.0,0.643834117,0.0,0.75,0.0,0.39615823299999997,True,,5ea06b415bd57c02b89d4511,,1624654,135,,evan-feature22,full_rf_a,,1
109,47297,136,,,,2,2,1.0,1.0,0.0,-1.0,,0.0-138.0,,-1.0,658.185,1.0,0.43813437899999996,1.0,0.651283804,1.0,0.729674191,1.0,0.37711048,True,,5ea06b415bd57c02b89d4511,,1635118,136,,evan-feature22,full_rf_a,,1
110,47298,137,,,,1,1,1.0,0.0,0.0,-1.0,,0.0-139.0,,0.0,436.41,1.0,0.471199094,0.0,0.6470010979999999,1.0,0.715008097,0.0,0.410656191,True,,5ea06b415bd57c02b89d4511,,1645398,137,,evan-feature22,full_rf_a,,1
111,47299,138,,,,1,1,1.0,0.0,1.0,0.0,,0.0-140.0,,1.0,891.76,1.0,0.42486406,0.0,0.629771829,0.0,0.6550939960000001,0.0,0.459093873,True,,5ea06b415bd57c02b89d4511,,1656096,138,,evan-feature22,full_rf_a,,0
112,47300,139,,,,1,1,0.0,1.0,1.0,0.0,,0.0-141.0,,0.0,608.275,0.0,0.4803197,1.0,0.645842715,1.0,0.6421749920000001,1.0,0.443092151,True,,5ea06b415bd57c02b89d4511,,1666534,139,,evan-feature22,full_rf_a,,0
113,47301,140,,,,2,2,1.0,0.0,1.0,0.0,,0.0-142.0,,1.0,311.085,1.0,0.521848997,1.0,0.735801074,1.0,0.6691348460000001,0.0,0.45259351600000003,True,,5ea06b415bd57c02b89d4511,,1676664,140,,evan-feature22,full_rf_a,,1
114,47302,141,,,,1,1,0.0,1.0,0.0,-1.0,,0.0-143.0,,-1.0,1877.935,0.0,0.49565621299999996,1.0,0.742400847,1.0,0.661512553,0.0,0.483110831,True,,5ea06b415bd57c02b89d4511,,1688345,141,,evan-feature22,full_rf_a,,1
115,47303,142,,,,2,2,1.0,1.0,1.0,0.0,,0.0-144.0,,1.0,650.275,1.0,0.521564361,0.0,0.731078632,1.0,0.6774886809999999,1.0,0.483263956,True,,5ea06b415bd57c02b89d4511,,1698831,142,,evan-feature22,full_rf_a,,1
116,47304,143,,,,1,1,1.0,1.0,1.0,0.0,,0.0-145.0,,1.0,648.965,1.0,0.558893102,1.0,0.719810023,1.0,0.67461031,1.0,0.499349834,True,,5ea06b415bd57c02b89d4511,,1709305,143,,evan-feature22,full_rf_a,,1
117,47305,144,,,,1,1,0.0,1.0,0.0,-1.0,,0.0-146.0,,-1.0,341.2,0.0,0.611031046,1.0,0.75,1.0,0.688072995,1.0,0.5321422729999999,True,,5ea06b415bd57c02b89d4511,,1719457,144,,evan-feature22,full_rf_a,,0
118,47306,145,,,,2,2,1.0,0.0,1.0,0.0,,0.0-147.0,,1.0,367.735,1.0,0.633223941,0.0,0.713567728,1.0,0.75,0.0,0.48185314700000004,True,,5ea06b415bd57c02b89d4511,,1729640,145,,evan-feature22,full_rf_a,,1
119,47307,146,,,,2,2,1.0,1.0,1.0,0.0,,0.0-148.0,,1.0,369.39,0.0,0.664001694,1.0,0.705509768,1.0,0.75,1.0,0.500211065,True,,5ea06b415bd57c02b89d4511,,1739826,146,,evan-feature22,full_rf_a,,0
120,47308,147,,,,2,2,1.0,1.0,0.0,-1.0,,0.0-149.0,,-1.0,923.47,1.0,0.664001694,1.0,0.705509768,1.0,0.75,1.0,0.500211065,True,,5ea06b415bd57c02b89d4511,,1750564,147,,evan-feature22,full_rf_a,,0
121,47309,148,,,,1,1,1.0,1.0,0.0,-1.0,,0.0-150.0,,-1.0,720.49,1.0,0.696508041,1.0,0.71066027,1.0,0.717028709,0.0,0.49792991,True,,5ea06b415bd57c02b89d4511,,1761119,148,,evan-feature22,full_rf_a,,1
122,47310,149,,,,1,1,1.0,0.0,1.0,0.0,,0.0-151.0,,1.0,1625.39,1.0,0.699883272,0.0,0.75,1.0,0.713543895,0.0,0.496962643,True,,5ea06b415bd57c02b89d4511,,1772553,149,,evan-feature22,full_rf_a,,0
123,47311,150,,,,2,2,1.0,1.0,0.0,-1.0,,0.0-152.0,,-1.0,380.445,1.0,0.741163419,1.0,0.75,1.0,0.64691024,1.0,0.513858197,True,,5ea06b415bd57c02b89d4511,,1782739,150,,evan-feature22,full_rf_a,,1
124,47312,151,,,,2,2,1.0,0.0,1.0,0.0,,0.0-153.0,,1.0,393.47,1.0,0.75,1.0,0.70816558,1.0,0.594499079,0.0,0.48502124,True,,5ea06b415bd57c02b89d4511,,1792939,151,,evan-feature22,full_rf_a,,0
125,47313,152,,,,1,1,0.0,0.0,0.0,-1.0,,0.0-154.0,,0.0,613.375,0.0,0.75,0.0,0.721848901,1.0,0.62197249,0.0,0.48263586399999997,True,,5ea06b415bd57c02b89d4511,,1803381,152,,evan-feature22,full_rf_a,,1
126,47314,153,,,,1,1,1.0,1.0,1.0,0.0,,0.0-155.0,,1.0,354.08,1.0,0.75,1.0,0.74813071,0.0,0.584357161,0.0,0.411477782,True,,5ea06b415bd57c02b89d4511,,1813546,153,,evan-feature22,full_rf_a,,0
127,47315,154,,,,1,1,1.0,0.0,0.0,-1.0,,0.0-156.0,,0.0,620.815,1.0,0.75,0.0,0.75,1.0,0.52287236,0.0,0.488290656,True,,5ea06b415bd57c02b89d4511,,1823964,154,,evan-feature22,full_rf_a,,0
128,47316,155,,,,2,2,1.0,1.0,0.0,-1.0,,0.0-157.0,,-1.0,444.98,1.0,0.75,1.0,0.75,1.0,0.544321581,1.0,0.53143059,True,,5ea06b415bd57c02b89d4511,,1834211,155,,evan-feature22,full_rf_a,,1
129,47317,156,,,,1,1,1.0,1.0,0.0,-1.0,,0.0-158.0,,-1.0,494.485,1.0,0.726754564,1.0,0.75,1.0,0.5129306370000001,1.0,0.530592445,True,,5ea06b415bd57c02b89d4511,,1844526,156,,evan-feature22,full_rf_a,,1
130,47318,157,,,,2,2,0.0,1.0,1.0,0.0,,0.0-159.0,,0.0,308.445,1.0,0.75,1.0,0.7392590729999999,0.0,0.479875835,1.0,0.547007051,True,,5ea06b415bd57c02b89d4511,,1854647,157,,evan-feature22,full_rf_a,,1
131,47319,158,,,,1,1,0.0,0.0,1.0,0.0,,0.0-160.0,,0.0,451.775,0.0,0.75,0.0,0.7393376979999999,1.0,0.546045419,0.0,0.541267353,True,,5ea06b415bd57c02b89d4511,,1864897,158,,evan-feature22,full_rf_a,,1
132,47320,159,,,,2,2,0.0,0.0,1.0,0.0,,0.0-161.0,,0.0,595.09,0.0,0.75,1.0,0.75,0.0,0.485725895,0.0,0.527625395,True,,5ea06b415bd57c02b89d4511,,1875300,159,,evan-feature22,full_rf_a,,1
133,47321,160,,,,2,2,1.0,0.0,0.0,-1.0,,0.0-162.0,,0.0,244.04,1.0,0.75,1.0,0.725087974,1.0,0.488603595,0.0,0.504019206,True,,5ea06b415bd57c02b89d4511,,1885351,160,,evan-feature22,full_rf_a,,0
134,47322,161,,,,1,1,1.0,1.0,0.0,-1.0,,0.0-163.0,,-1.0,921.425,1.0,0.745504295,1.0,0.75,1.0,0.452379914,0.0,0.50131194,True,,5ea06b415bd57c02b89d4511,,1896092,161,,evan-feature22,full_rf_a,,1
135,47323,162,,,,1,1,1.0,1.0,0.0,-1.0,,0.0-164.0,,-1.0,420.175,1.0,0.728513874,1.0,0.75,1.0,0.44125567200000004,1.0,0.531454591,True,,5ea06b415bd57c02b89d4511,,1906326,162,,evan-feature22,full_rf_a,,0
136,47324,163,,,,1,1,1.0,1.0,1.0,0.0,,0.0-165.0,,1.0,367.99,1.0,0.73790804,1.0,0.75,0.0,0.413036656,1.0,0.524619035,True,,5ea06b415bd57c02b89d4511,,1916497,163,,evan-feature22,full_rf_a,,0
137,47325,164,,,,1,1,1.0,1.0,0.0,-1.0,,0.0-166.0,,-1.0,418.705,1.0,0.7080961309999999,1.0,0.708666865,0.0,0.431915581,0.0,0.481819489,True,,5ea06b415bd57c02b89d4511,,1926748,164,,evan-feature22,full_rf_a,,0
138,47326,165,,,,2,2,0.0,1.0,0.0,-1.0,,0.0-167.0,,-1.0,462.34,0.0,0.721378003,1.0,0.71605913,0.0,0.36642387,1.0,0.5036739929999999,True,,5ea06b415bd57c02b89d4511,,1937047,165,,evan-feature22,full_rf_a,,1
139,47327,166,,,,2,2,1.0,0.0,0.0,-1.0,,0.0-168.0,,0.0,362.84,0.0,0.7340618959999999,0.0,0.699323252,1.0,0.35298046299999997,0.0,0.511241692,True,,5ea06b415bd57c02b89d4511,,1947215,166,,evan-feature22,full_rf_a,,0
140,47328,167,,,,2,2,1.0,0.0,1.0,0.0,,0.0-169.0,,1.0,437.255,1.0,0.75,1.0,0.70412698,1.0,0.380734814,0.0,0.529580116,True,,5ea06b415bd57c02b89d4511,,1957497,167,,evan-feature22,full_rf_a,,0
141,47329,168,,,,2,2,0.0,0.0,0.0,-1.0,,0.0-170.0,,0.0,486.355,0.0,0.7436654909999999,1.0,0.711182751,0.0,0.41125331,0.0,0.49554405,True,,5ea06b415bd57c02b89d4511,,1967803,168,,evan-feature22,full_rf_a,,0
142,47330,169,,,,1,1,1.0,1.0,0.0,-1.0,,0.0-171.0,,-1.0,1641.305,1.0,0.731607915,1.0,0.651774583,1.0,0.35688023,1.0,0.45194491600000003,True,,5ea06b415bd57c02b89d4511,,1979260,169,,evan-feature22,full_rf_a,,1
143,47331,170,,,,1,1,1.0,0.0,1.0,0.0,,0.0-172.0,,1.0,432.53,1.0,0.75,0.0,0.75,0.0,0.283145374,1.0,0.528608005,True,,5ea06b415bd57c02b89d4511,,1989517,170,,evan-feature22,full_rf_a,,0
144,47332,171,,,,2,2,1.0,1.0,1.0,0.0,,0.0-173.0,,1.0,292.925,1.0,0.7491416890000001,0.0,0.7423785959999999,1.0,0.29135870399999997,1.0,0.498888318,True,,5ea06b415bd57c02b89d4511,,1999613,171,,evan-feature22,full_rf_a,,1
145,47333,172,,,,2,2,0.0,1.0,1.0,0.0,,0.0-174.0,,0.0,347.89,1.0,0.708569387,1.0,0.717682277,0.0,0.294421699,1.0,0.493838163,True,,5ea06b415bd57c02b89d4511,,2009773,172,,evan-feature22,full_rf_a,,0
146,47334,173,,,,1,1,0.0,1.0,0.0,-1.0,,0.0-175.0,,-1.0,401.96,0.0,0.75,1.0,0.7383382159999999,1.0,0.356098707,0.0,0.442533405,True,,5ea06b415bd57c02b89d4511,,2019985,173,,evan-feature22,full_rf_a,,1
147,47335,174,,,,1,1,1.0,1.0,0.0,-1.0,,0.0-176.0,,-1.0,446.905,1.0,0.744527075,1.0,0.75,0.0,0.334127506,0.0,0.393165805,True,,5ea06b415bd57c02b89d4511,,2030232,174,,evan-feature22,full_rf_a,,0
148,47336,175,,,,1,1,1.0,1.0,0.0,-1.0,,0.0-177.0,,-1.0,335.84,1.0,0.75,1.0,0.75,0.0,0.33571021799999995,1.0,0.350393962,True,,5ea06b415bd57c02b89d4511,,2040378,175,,evan-feature22,full_rf_a,,0
149,47337,176,,,,1,1,1.0,1.0,0.0,-1.0,,0.0-178.0,,-1.0,523.025,1.0,0.75,1.0,0.75,0.0,0.313628297,0.0,0.36349657399999996,True,,5ea06b415bd57c02b89d4511,,2050735,176,,evan-feature22,full_rf_a,,0
150,47338,177,,,,1,1,1.0,1.0,1.0,0.0,,0.0-179.0,,1.0,523.405,1.0,0.75,1.0,0.734284182,0.0,0.262667667,0.0,0.380199119,True,,5ea06b415bd57c02b89d4511,,2061066,177,,evan-feature22,full_rf_a,,0
151,47339,178,,,,2,2,0.0,1.0,0.0,-1.0,,0.0-180.0,,-1.0,2116.075,1.0,0.75,1.0,0.75,0.0,0.25,1.0,0.394494013,True,,5ea06b415bd57c02b89d4511,,2073000,178,,evan-feature22,full_rf_a,,1
152,47340,179,,,,2,2,0.0,0.0,1.0,0.0,,0.0-181.0,,0.0,3063.46,1.0,0.722298145,0.0,0.7357822340000001,0.0,0.25,0.0,0.319142121,True,,5ea06b415bd57c02b89d4511,,2085884,179,,evan-feature22,full_rf_a,,0
153,47341,180,,,,2,2,0.0,0.0,1.0,0.0,,0.0-182.0,,0.0,1093.755,0.0,0.73149275,1.0,0.724276446,0.0,0.305856907,0.0,0.281315057,True,,5ea06b415bd57c02b89d4511,,2096783,180,,evan-feature22,full_rf_a,,0
154,47342,181,,,,1,1,0.0,1.0,0.0,-1.0,,0.0-183.0,,-1.0,726.125,0.0,0.7458732690000001,1.0,0.7336382459999999,0.0,0.272571964,0.0,0.266021999,True,,5ea06b415bd57c02b89d4511,,2107304,181,,evan-feature22,full_rf_a,,1
155,47343,182,,,,2,2,1.0,1.0,0.0,-1.0,,0.0-184.0,,-1.0,513.31,1.0,0.705579037,0.0,0.720778292,1.0,0.320238144,1.0,0.30971744,True,,5ea06b415bd57c02b89d4511,,2117646,182,,evan-feature22,full_rf_a,,1
156,47344,183,,,,2,2,0.0,1.0,0.0,-1.0,,0.0-185.0,,-1.0,1535.315,1.0,0.700425648,1.0,0.7198784009999999,0.0,0.272590393,1.0,0.304182931,True,,5ea06b415bd57c02b89d4511,,2128995,183,,evan-feature22,full_rf_a,,0
157,47345,184,,,,2,2,1.0,0.0,0.0,-1.0,,0.0-186.0,,0.0,1847.92,1.0,0.735590785,0.0,0.722714973,1.0,0.25,0.0,0.323421091,True,,5ea06b415bd57c02b89d4511,,2140644,184,,evan-feature22,full_rf_a,,0
158,47346,185,,,,2,2,0.0,1.0,0.0,-1.0,,0.0-187.0,,-1.0,3593.595,1.0,0.724807662,1.0,0.63146213,0.0,0.36836492600000004,1.0,0.34592153299999995,True,,5ea06b415bd57c02b89d4511,,2154046,185,,evan-feature22,full_rf_a,,0
159,47347,186,,,,1,1,1.0,1.0,0.0,-1.0,,0.0-188.0,,-1.0,292.555,1.0,0.7352796909999999,1.0,0.555111392,0.0,0.36003922,0.0,0.31433779999999995,True,,5ea06b415bd57c02b89d4511,,2164147,186,,evan-feature22,full_rf_a,,1
160,47348,187,notice,,,,,,,,,,0.0-189.0,"{""Q0"":""no""}",,7268.0,,,,,,,,,True,,5ea06b415bd57c02b89d4511,,2171419,187,Q,survey-text,full_rf_a,,1
161,47349,188,track1,,[1],,,,,,,,0.0-190.0,"{""Q0"":""no""}",,4059.0,,,,,,,,,True,,5ea06b415bd57c02b89d4511,,2175491,188,Q,evan-quiz,full_rf_a,,1
162,47350,189,track2,,[0],,,,,,,,0.0-191.0,"{""Q0"":""yes""}",,6144.0,,,,,,,,,True,,5ea06b415bd57c02b89d4511,,2181641,189,Q,evan-quiz,full_rf_a,,1
163,47351,190,strat,,,,,,,,,,0.0-192.0,"{""Q0"":""no""}",,6573.0,,,,,,,,,True,,5ea06b415bd57c02b89d4511,,2188221,190,Q,survey-text,full_rf_a,,1
