,index,Unnamed: 0,Q_name,button_pressed,choice_idxs,chosen_pos,chosen_state,chosen_state_f_1_outcome,chosen_state_f_2_outcome,f_1_reward,f_2_reward,incor_questions,internal_node_id,responses,reward_received,rt,s_1_f_1_outcome,s_1_f_1_prob,s_1_f_2_outcome,s_1_f_2_prob,s_2_f_1_outcome,s_2_f_1_prob,s_2_f_2_outcome,s_2_f_2_prob,safe_first,stimulus,subjectID,success,time_elapsed,trial_index,trial_num,trial_type,version,view_history,switching
0,15949,25,,,,2,2,0.0,1.0,0.0,-1.0,,0.0-27.0,,-1.0,2722.76,1.0,0.6,0.0,0.6,0.0,0.4,1.0,0.4,False,,5b942c77b2352100016db457,,974339,25,,evan-feature22,full_pf_a,,0
1,15950,26,,,,1,1,1.0,1.0,0.0,-1.0,,0.0-28.0,,-1.0,1030.315,1.0,0.608053294,1.0,0.63424552,1.0,0.397152172,1.0,0.347069101,False,,5b942c77b2352100016db457,,985212,26,,evan-feature22,full_pf_a,,1
2,15951,27,,,,1,1,1.0,1.0,0.0,-1.0,,0.0-29.0,,-1.0,780.135,1.0,0.642237155,1.0,0.648566321,1.0,0.389407674,0.0,0.285525717,False,,5b942c77b2352100016db457,,995826,27,,evan-feature22,full_pf_a,,0
3,15952,28,,,,1,1,1.0,1.0,0.0,-1.0,,0.0-30.0,,-1.0,712.845,1.0,0.661086576,1.0,0.630492543,0.0,0.399058924,0.0,0.25,False,,5b942c77b2352100016db457,,1006361,28,,evan-feature22,full_pf_a,,0
4,15953,29,,,,2,2,1.0,0.0,0.0,-1.0,,0.0-31.0,,0.0,3053.9,0.0,0.631324137,1.0,0.6269842929999999,1.0,0.38734784299999997,0.0,0.25,False,,5b942c77b2352100016db457,,1019236,29,,evan-feature22,full_pf_a,,1
5,15954,30,,,,2,2,1.0,0.0,0.0,-1.0,,0.0-32.0,,0.0,1431.79,1.0,0.6381991370000001,0.0,0.68987999,1.0,0.384107265,0.0,0.271332943,False,,5b942c77b2352100016db457,,1030472,30,,evan-feature22,full_pf_a,,0
6,15955,31,,,,2,2,0.0,0.0,0.0,-1.0,,0.0-33.0,,0.0,2494.19,0.0,0.66034901,1.0,0.742641349,0.0,0.360225629,0.0,0.25,False,,5b942c77b2352100016db457,,1042763,31,,evan-feature22,full_pf_a,,0
7,15956,32,,,,1,1,1.0,1.0,1.0,0.0,,0.0-34.0,,1.0,2419.87,1.0,0.638612418,1.0,0.75,0.0,0.367273939,0.0,0.25,False,,5b942c77b2352100016db457,,1054997,32,,evan-feature22,full_pf_a,,1
8,15957,33,,,,1,1,1.0,0.0,0.0,-1.0,,0.0-35.0,,0.0,1006.535,1.0,0.624340629,0.0,0.75,1.0,0.425829545,0.0,0.25,False,,5b942c77b2352100016db457,,1065847,33,,evan-feature22,full_pf_a,,0
9,15958,34,,,,2,2,1.0,0.0,0.0,-1.0,,0.0-36.0,,0.0,748.875,1.0,0.621999804,1.0,0.75,1.0,0.368609357,0.0,0.25,False,,5b942c77b2352100016db457,,1076454,34,,evan-feature22,full_pf_a,,1
10,15959,35,,,,1,1,1.0,1.0,1.0,0.0,,0.0-37.0,,1.0,527.405,1.0,0.62666403,1.0,0.75,0.0,0.311151498,0.0,0.25,False,,5b942c77b2352100016db457,,1086811,35,,evan-feature22,full_pf_a,,1
11,15960,36,,,,1,1,1.0,1.0,1.0,0.0,,0.0-38.0,,1.0,491.905,1.0,0.6819650009999999,1.0,0.75,0.0,0.310763048,0.0,0.25,False,,5b942c77b2352100016db457,,1097140,36,,evan-feature22,full_pf_a,,0
12,15961,37,,,,1,1,1.0,0.0,0.0,-1.0,,0.0-39.0,,0.0,748.275,1.0,0.740626951,0.0,0.75,0.0,0.25,1.0,0.25,False,,5b942c77b2352100016db457,,1107690,37,,evan-feature22,full_pf_a,,0
13,15962,38,,,,1,1,1.0,1.0,0.0,-1.0,,0.0-40.0,,-1.0,1849.915,1.0,0.739599242,1.0,0.742034978,0.0,0.25397114600000004,1.0,0.25,False,,5b942c77b2352100016db457,,1119390,38,,evan-feature22,full_pf_a,,0
14,15963,39,,,,1,1,1.0,0.0,0.0,-1.0,,0.0-41.0,,0.0,1484.845,1.0,0.732341315,0.0,0.72735643,1.0,0.25,0.0,0.25,False,,5b942c77b2352100016db457,,1130710,39,,evan-feature22,full_pf_a,,0
15,15964,40,,,,1,1,1.0,1.0,0.0,-1.0,,0.0-42.0,,-1.0,1569.91,1.0,0.7062287770000001,1.0,0.75,0.0,0.29002151,0.0,0.288256649,False,,5b942c77b2352100016db457,,1142110,40,,evan-feature22,full_pf_a,,0
16,15965,41,,,,1,1,1.0,1.0,1.0,0.0,,0.0-43.0,,1.0,1105.815,1.0,0.7086029209999999,1.0,0.75,0.0,0.274129113,1.0,0.262851608,False,,5b942c77b2352100016db457,,1153033,41,,evan-feature22,full_pf_a,,0
17,15966,42,,,,1,1,1.0,1.0,0.0,-1.0,,0.0-44.0,,-1.0,662.025,1.0,0.669189651,1.0,0.727614338,1.0,0.298444036,0.0,0.296944518,False,,5b942c77b2352100016db457,,1163530,42,,evan-feature22,full_pf_a,,0
18,15967,43,,,,1,1,1.0,0.0,1.0,0.0,,0.0-45.0,,1.0,1208.185,1.0,0.6819912929999999,0.0,0.7179434290000001,1.0,0.265003961,0.0,0.28157921199999997,False,,5b942c77b2352100016db457,,1174582,43,,evan-feature22,full_pf_a,,0
19,15968,44,,,,1,1,1.0,1.0,1.0,0.0,,0.0-46.0,,1.0,1199.645,1.0,0.665275002,1.0,0.723065271,0.0,0.260414971,0.0,0.30973870000000003,False,,5b942c77b2352100016db457,,1185609,44,,evan-feature22,full_pf_a,,0
20,15969,45,,,,2,2,0.0,0.0,0.0,-1.0,,0.0-47.0,,0.0,990.29,1.0,0.6660593260000001,1.0,0.728032907,0.0,0.30922817,0.0,0.338778608,False,,5b942c77b2352100016db457,,1196403,45,,evan-feature22,full_pf_a,,1
21,15970,46,,,,2,2,0.0,1.0,0.0,-1.0,,0.0-48.0,,-1.0,1088.07,1.0,0.702068785,1.0,0.6528750879999999,0.0,0.287329608,1.0,0.35789613200000003,False,,5b942c77b2352100016db457,,1207310,46,,evan-feature22,full_pf_a,,0
22,15971,47,,,,2,2,0.0,1.0,0.0,-1.0,,0.0-49.0,,-1.0,2394.51,0.0,0.651939787,1.0,0.636725589,0.0,0.284834488,1.0,0.358563756,False,,5b942c77b2352100016db457,,1219529,47,,evan-feature22,full_pf_a,,0
23,15972,48,,,,1,1,0.0,1.0,0.0,-1.0,,0.0-50.0,,-1.0,1152.475,0.0,0.67573929,1.0,0.612550049,1.0,0.37130387600000003,0.0,0.383542402,False,,5b942c77b2352100016db457,,1230526,48,,evan-feature22,full_pf_a,,1
24,15973,49,,,,2,2,0.0,1.0,0.0,-1.0,,0.0-51.0,,-1.0,2342.07,1.0,0.620753801,1.0,0.60513644,0.0,0.385529434,1.0,0.340361743,False,,5b942c77b2352100016db457,,1242705,49,,evan-feature22,full_pf_a,,1
25,15974,50,,,,1,1,0.0,0.0,1.0,0.0,,0.0-52.0,,0.0,577.655,0.0,0.673564893,0.0,0.672437924,0.0,0.292955382,0.0,0.337633795,False,,5b942c77b2352100016db457,,1253088,50,,evan-feature22,full_pf_a,,1
26,15975,51,,,,1,1,0.0,1.0,0.0,-1.0,,0.0-53.0,,-1.0,2748.805,0.0,0.6749427,1.0,0.724197502,1.0,0.32391132100000003,0.0,0.350995264,False,,5b942c77b2352100016db457,,1265664,51,,evan-feature22,full_pf_a,,0
27,15976,52,,,,1,1,0.0,1.0,0.0,-1.0,,0.0-54.0,,-1.0,946.21,0.0,0.6940159379999999,1.0,0.75,1.0,0.31710554399999996,1.0,0.413450341,False,,5b942c77b2352100016db457,,1276419,52,,evan-feature22,full_pf_a,,0
28,15977,53,,,,2,2,0.0,0.0,0.0,-1.0,,0.0-55.0,,0.0,1212.28,1.0,0.6916018270000001,1.0,0.69001187,0.0,0.261817804,0.0,0.40038635,False,,5b942c77b2352100016db457,,1287431,53,,evan-feature22,full_pf_a,,1
29,15978,54,,,,2,2,1.0,1.0,0.0,-1.0,,0.0-56.0,,-1.0,1219.585,1.0,0.641061544,0.0,0.71337992,1.0,0.277296461,1.0,0.47372791700000005,False,,5b942c77b2352100016db457,,1298492,54,,evan-feature22,full_pf_a,,0
30,15979,55,,,,2,2,0.0,0.0,0.0,-1.0,,0.0-57.0,,0.0,893.285,1.0,0.6082438520000001,1.0,0.708471106,0.0,0.28745137,0.0,0.564174476,False,,5b942c77b2352100016db457,,1309199,55,,evan-feature22,full_pf_a,,0
31,15980,56,,,,1,1,1.0,1.0,1.0,0.0,,0.0-58.0,,1.0,838.86,1.0,0.6051112120000001,1.0,0.7118147229999999,0.0,0.272390611,0.0,0.5595149939999999,False,,5b942c77b2352100016db457,,1319871,56,,evan-feature22,full_pf_a,,1
32,15981,57,,,,1,1,1.0,1.0,1.0,0.0,,0.0-59.0,,1.0,986.06,1.0,0.582420852,1.0,0.635867583,1.0,0.31089574,0.0,0.5227206520000001,False,,5b942c77b2352100016db457,,1330683,57,,evan-feature22,full_pf_a,,0
33,15982,58,,,,1,1,1.0,1.0,1.0,0.0,,0.0-60.0,,1.0,1069.565,1.0,0.623195575,1.0,0.655026044,1.0,0.25,1.0,0.560387538,False,,5b942c77b2352100016db457,,1341571,58,,evan-feature22,full_pf_a,,0
34,15983,59,,,,2,2,0.0,1.0,0.0,-1.0,,0.0-61.0,,-1.0,1132.195,0.0,0.601889598,1.0,0.678198724,0.0,0.25,1.0,0.559922936,False,,5b942c77b2352100016db457,,1352543,59,,evan-feature22,full_pf_a,,1
35,15984,60,,,,1,1,0.0,1.0,1.0,0.0,,0.0-62.0,,0.0,1395.475,0.0,0.601259914,1.0,0.704681482,1.0,0.33908969299999997,1.0,0.505003715,False,,5b942c77b2352100016db457,,1363777,60,,evan-feature22,full_pf_a,,1
36,15985,61,,,,2,2,0.0,1.0,1.0,0.0,,0.0-63.0,,0.0,1156.875,0.0,0.59645454,0.0,0.710437172,0.0,0.327441879,1.0,0.391749613,False,,5b942c77b2352100016db457,,1374738,61,,evan-feature22,full_pf_a,,1
37,15986,62,,,,2,2,1.0,0.0,0.0,-1.0,,0.0-64.0,,0.0,1429.875,0.0,0.529473,1.0,0.636758527,1.0,0.301338063,0.0,0.365661481,False,,5b942c77b2352100016db457,,1386006,62,,evan-feature22,full_pf_a,,0
38,15987,63,,,,1,1,1.0,1.0,1.0,0.0,,0.0-65.0,,1.0,1435.845,1.0,0.541657162,1.0,0.634541962,0.0,0.343535366,0.0,0.371763742,False,,5b942c77b2352100016db457,,1397271,63,,evan-feature22,full_pf_a,,1
39,15988,64,,,,1,1,1.0,1.0,1.0,0.0,,0.0-66.0,,1.0,964.365,1.0,0.5707533260000001,1.0,0.589121171,0.0,0.326428396,1.0,0.43961622899999997,False,,5b942c77b2352100016db457,,1408067,64,,evan-feature22,full_pf_a,,0
40,15989,65,,,,2,2,0.0,0.0,0.0,-1.0,,0.0-67.0,,0.0,1152.555,1.0,0.5707533260000001,1.0,0.589121171,0.0,0.326428396,0.0,0.43961622899999997,False,,5b942c77b2352100016db457,,1419048,65,,evan-feature22,full_pf_a,,1
41,15990,66,,,,2,2,0.0,1.0,0.0,-1.0,,0.0-68.0,,-1.0,1228.73,0.0,0.506271295,1.0,0.641775594,0.0,0.37149690700000004,1.0,0.404330166,False,,5b942c77b2352100016db457,,1430091,66,,evan-feature22,full_pf_a,,0
42,15991,67,,,,1,1,1.0,1.0,1.0,0.0,,0.0-69.0,,1.0,1080.49,1.0,0.455642565,1.0,0.623605825,1.0,0.358753011,0.0,0.346174041,False,,5b942c77b2352100016db457,,1440957,67,,evan-feature22,full_pf_a,,1
43,15992,68,,,,2,2,1.0,0.0,0.0,-1.0,,0.0-70.0,,0.0,959.56,1.0,0.483677308,0.0,0.5904681070000001,1.0,0.402218411,0.0,0.35344697,False,,5b942c77b2352100016db457,,1451746,68,,evan-feature22,full_pf_a,,1
44,15993,69,,,,1,1,0.0,1.0,1.0,0.0,,0.0-71.0,,0.0,1285.12,0.0,0.394210977,1.0,0.558925494,1.0,0.540052017,1.0,0.35182128700000004,False,,5b942c77b2352100016db457,,1462848,69,,evan-feature22,full_pf_a,,1
45,15994,70,,,,2,2,1.0,0.0,0.0,-1.0,,0.0-72.0,,0.0,1450.98,1.0,0.382300414,0.0,0.577670603,1.0,0.607608448,0.0,0.378261578,False,,5b942c77b2352100016db457,,1474126,70,,evan-feature22,full_pf_a,,1
46,15995,71,,,,1,1,0.0,0.0,1.0,0.0,,0.0-73.0,,0.0,890.22,0.0,0.357596762,0.0,0.5929076529999999,1.0,0.6579790010000001,0.0,0.401326777,False,,5b942c77b2352100016db457,,1484842,71,,evan-feature22,full_pf_a,,1
47,15996,72,,,,2,2,1.0,0.0,0.0,-1.0,,0.0-74.0,,0.0,1287.605,0.0,0.362033495,1.0,0.582308608,1.0,0.649195052,0.0,0.355158505,False,,5b942c77b2352100016db457,,1495977,72,,evan-feature22,full_pf_a,,1
48,15997,73,,,,2,2,1.0,0.0,0.0,-1.0,,0.0-75.0,,0.0,1064.955,1.0,0.369620635,0.0,0.669100864,1.0,0.706059111,0.0,0.362516241,False,,5b942c77b2352100016db457,,1506849,73,,evan-feature22,full_pf_a,,0
49,15998,74,,,,2,2,1.0,1.0,0.0,-1.0,,0.0-76.0,,-1.0,860.895,1.0,0.41477751399999996,0.0,0.7284416779999999,1.0,0.7182656940000001,1.0,0.36228040899999997,False,,5b942c77b2352100016db457,,1517558,74,,evan-feature22,full_pf_a,,0
50,15999,75,,,,1,1,0.0,0.0,1.0,0.0,,0.0-77.0,,0.0,718.825,0.0,0.37675460299999997,0.0,0.703250285,1.0,0.75,1.0,0.461979164,False,,5b942c77b2352100016db457,,1528090,75,,evan-feature22,full_pf_a,,1
51,16000,76,,,,1,1,1.0,1.0,1.0,0.0,,0.0-78.0,,1.0,743.755,1.0,0.398716075,1.0,0.6723864890000001,1.0,0.674153818,0.0,0.519029516,False,,5b942c77b2352100016db457,,1538654,76,,evan-feature22,full_pf_a,,0
52,16001,77,,,,1,1,1.0,0.0,1.0,0.0,,0.0-79.0,,1.0,957.65,1.0,0.34677856700000004,0.0,0.69057175,1.0,0.6822438540000001,0.0,0.477292237,False,,5b942c77b2352100016db457,,1549460,77,,evan-feature22,full_pf_a,,0
53,16002,78,,,,2,2,0.0,1.0,0.0,-1.0,,0.0-80.0,,-1.0,1076.565,0.0,0.28580469199999997,1.0,0.68408818,0.0,0.684207565,1.0,0.49780448299999996,False,,5b942c77b2352100016db457,,1560354,78,,evan-feature22,full_pf_a,,1
54,16004,80,,,,2,2,1.0,1.0,0.0,-1.0,,0.0-82.0,,-1.0,3662.765,0.0,0.25,1.0,0.7405808970000001,1.0,0.679614108,1.0,0.436436964,False,,5b942c77b2352100016db457,,1579937,80,,evan-feature22,full_pf_a,,0
55,16005,81,,,,2,2,1.0,0.0,0.0,-1.0,,0.0-83.0,,0.0,389.71,1.0,0.29890393,1.0,0.730505706,1.0,0.7328203320000001,0.0,0.439256938,False,,5b942c77b2352100016db457,,1590168,81,,evan-feature22,full_pf_a,,0
56,16006,82,,,,2,2,1.0,1.0,1.0,0.0,,0.0-84.0,,1.0,680.67,1.0,0.326762398,1.0,0.7148059609999999,1.0,0.75,1.0,0.44389608799999997,False,,5b942c77b2352100016db457,,1600691,82,,evan-feature22,full_pf_a,,0
57,16007,83,,,,1,1,0.0,1.0,0.0,-1.0,,0.0-85.0,,-1.0,1044.18,0.0,0.295168515,1.0,0.739760854,1.0,0.719947008,0.0,0.35277284600000003,False,,5b942c77b2352100016db457,,1611536,83,,evan-feature22,full_pf_a,,1
58,16008,84,,,,1,1,0.0,0.0,0.0,-1.0,,0.0-86.0,,0.0,2444.035,0.0,0.25,0.0,0.70781482,1.0,0.75,0.0,0.286095925,False,,5b942c77b2352100016db457,,1623812,84,,evan-feature22,full_pf_a,,0
59,16009,85,,,,1,1,0.0,1.0,0.0,-1.0,,0.0-87.0,,-1.0,1500.495,0.0,0.25638190899999996,1.0,0.704088163,1.0,0.75,1.0,0.26872601399999996,False,,5b942c77b2352100016db457,,1635133,85,,evan-feature22,full_pf_a,,0
60,16010,86,,,,1,1,0.0,0.0,1.0,0.0,,0.0-88.0,,0.0,720.125,0.0,0.271581126,0.0,0.669760107,1.0,0.733896663,0.0,0.273244572,False,,5b942c77b2352100016db457,,1645704,86,,evan-feature22,full_pf_a,,0
61,16011,87,,,,1,1,0.0,1.0,0.0,-1.0,,0.0-89.0,,-1.0,1936.79,0.0,0.257144401,1.0,0.600575706,1.0,0.74488122,0.0,0.25,False,,5b942c77b2352100016db457,,1657482,87,,evan-feature22,full_pf_a,,0
62,16012,88,,,,1,1,0.0,1.0,0.0,-1.0,,0.0-90.0,,-1.0,1484.86,0.0,0.25,1.0,0.616870026,0.0,0.723610234,0.0,0.25,False,,5b942c77b2352100016db457,,1668808,88,,evan-feature22,full_pf_a,,0
63,16013,89,,,,SLOW,SLOW,,,1.0,0.0,,0.0-91.0,,-3.0,,0.0,0.25,0.0,0.583540187,1.0,0.7041042559999999,0.0,0.285961995,False,,5b942c77b2352100016db457,,1674648,89,,evan-feature22,full_pf_a,,1
64,16014,90,,,,2,2,1.0,1.0,1.0,0.0,,0.0-92.0,,1.0,845.945,0.0,0.27254536,1.0,0.53875765,1.0,0.693783448,1.0,0.284961652,False,,5b942c77b2352100016db457,,1685333,90,,evan-feature22,full_pf_a,,1
65,16015,91,,,,2,2,1.0,0.0,1.0,0.0,,0.0-93.0,,1.0,641.26,0.0,0.25,1.0,0.548431252,1.0,0.734221895,0.0,0.279445214,False,,5b942c77b2352100016db457,,1695813,91,,evan-feature22,full_pf_a,,0
66,16016,92,,,,2,2,1.0,0.0,0.0,-1.0,,0.0-94.0,,0.0,1064.105,0.0,0.258640684,1.0,0.545878066,1.0,0.725245965,0.0,0.31487537,False,,5b942c77b2352100016db457,,1706701,92,,evan-feature22,full_pf_a,,0
67,16017,93,,,,2,2,0.0,0.0,0.0,-1.0,,0.0-95.0,,0.0,1224.1,1.0,0.251103711,0.0,0.5776290629999999,0.0,0.696320133,0.0,0.317831047,False,,5b942c77b2352100016db457,,1717772,93,,evan-feature22,full_pf_a,,0
68,16018,94,,,,2,2,0.0,0.0,0.0,-1.0,,0.0-96.0,,0.0,629.315,0.0,0.276630292,0.0,0.617329858,0.0,0.73838088,0.0,0.261471582,False,,5b942c77b2352100016db457,,1728252,94,,evan-feature22,full_pf_a,,0
69,16019,95,,,,2,2,1.0,0.0,0.0,-1.0,,0.0-97.0,,0.0,724.6,0.0,0.297716424,1.0,0.618863717,1.0,0.7402358259999999,0.0,0.262600834,False,,5b942c77b2352100016db457,,1738808,95,,evan-feature22,full_pf_a,,0
70,16020,96,,,,2,2,0.0,1.0,1.0,0.0,,0.0-98.0,,0.0,553.795,0.0,0.290935512,1.0,0.695370945,0.0,0.706570507,1.0,0.280030553,False,,5b942c77b2352100016db457,,1749209,96,,evan-feature22,full_pf_a,,0
71,16021,97,,,,2,2,0.0,0.0,0.0,-1.0,,0.0-99.0,,0.0,661.725,0.0,0.25,0.0,0.6465277079999999,0.0,0.67766682,0.0,0.25,False,,5b942c77b2352100016db457,,1759668,97,,evan-feature22,full_pf_a,,0
72,16022,98,,,,2,2,1.0,0.0,1.0,0.0,,0.0-100.0,,1.0,872.365,0.0,0.26463816,1.0,0.636100213,1.0,0.646048507,0.0,0.265607101,False,,5b942c77b2352100016db457,,1770367,98,,evan-feature22,full_pf_a,,0
73,16023,99,,,,2,2,0.0,0.0,1.0,0.0,,0.0-101.0,,0.0,1075.42,0.0,0.314340707,0.0,0.667795927,0.0,0.613630805,0.0,0.25,False,,5b942c77b2352100016db457,,1781283,99,,evan-feature22,full_pf_a,,0
74,16024,100,,,,2,2,1.0,1.0,0.0,-1.0,,0.0-102.0,,-1.0,749.78,0.0,0.28685784,1.0,0.6622549529999999,1.0,0.652154117,1.0,0.25,False,,5b942c77b2352100016db457,,1791870,100,,evan-feature22,full_pf_a,,0
75,16025,101,,,,2,2,1.0,1.0,0.0,-1.0,,0.0-103.0,,-1.0,609.225,0.0,0.304106554,0.0,0.631289538,1.0,0.707041942,1.0,0.29314237,False,,5b942c77b2352100016db457,,1802331,101,,evan-feature22,full_pf_a,,0
76,16026,102,,,,2,2,1.0,0.0,0.0,-1.0,,0.0-104.0,,0.0,634.35,0.0,0.304806932,0.0,0.571167718,1.0,0.680472346,0.0,0.25,False,,5b942c77b2352100016db457,,1812788,102,,evan-feature22,full_pf_a,,0
77,16027,103,,,,2,2,1.0,0.0,0.0,-1.0,,0.0-105.0,,0.0,866.17,1.0,0.37919861,1.0,0.5724849710000001,1.0,0.705638003,0.0,0.30179300600000003,False,,5b942c77b2352100016db457,,1823483,103,,evan-feature22,full_pf_a,,0
78,16028,104,,,,2,2,1.0,0.0,0.0,-1.0,,0.0-106.0,,0.0,851.545,0.0,0.464277969,0.0,0.554034373,1.0,0.7372627340000001,0.0,0.264699741,False,,5b942c77b2352100016db457,,1834141,104,,evan-feature22,full_pf_a,,0
79,16029,105,,,,2,2,1.0,0.0,0.0,-1.0,,0.0-107.0,,0.0,603.795,0.0,0.465104323,1.0,0.530793115,1.0,0.75,0.0,0.31683071,False,,5b942c77b2352100016db457,,1844589,105,,evan-feature22,full_pf_a,,0
80,16030,106,,,,2,2,1.0,1.0,1.0,0.0,,0.0-108.0,,1.0,937.495,1.0,0.465104323,1.0,0.530793115,1.0,0.75,1.0,0.31683071,False,,5b942c77b2352100016db457,,1855352,106,,evan-feature22,full_pf_a,,0
81,16031,107,,,,2,2,0.0,0.0,1.0,0.0,,0.0-109.0,,0.0,751.905,0.0,0.46833986,1.0,0.570249239,0.0,0.7244472590000001,0.0,0.364114163,False,,5b942c77b2352100016db457,,1865938,107,,evan-feature22,full_pf_a,,0
82,16032,108,,,,2,2,1.0,0.0,1.0,0.0,,0.0-110.0,,1.0,603.955,0.0,0.445444024,0.0,0.649673355,1.0,0.6845441290000001,0.0,0.300660449,False,,5b942c77b2352100016db457,,1876381,108,,evan-feature22,full_pf_a,,0
83,16033,109,,,,2,2,1.0,0.0,1.0,0.0,,0.0-111.0,,1.0,502.47,0.0,0.39909721299999995,0.0,0.6715179509999999,1.0,0.742310028,0.0,0.35496088299999995,False,,5b942c77b2352100016db457,,1886704,109,,evan-feature22,full_pf_a,,0
84,16034,110,,,,2,2,1.0,0.0,0.0,-1.0,,0.0-112.0,,0.0,843.51,1.0,0.37956104799999996,1.0,0.694725302,1.0,0.7181651309999999,0.0,0.38726906299999997,False,,5b942c77b2352100016db457,,1897341,110,,evan-feature22,full_pf_a,,0
85,16035,111,,,,2,2,0.0,1.0,0.0,-1.0,,0.0-113.0,,-1.0,680.205,0.0,0.404995034,0.0,0.724375412,0.0,0.6910946859999999,1.0,0.387187347,False,,5b942c77b2352100016db457,,1907857,111,,evan-feature22,full_pf_a,,0
86,16036,112,,,,2,2,1.0,1.0,1.0,0.0,,0.0-114.0,,1.0,738.405,0.0,0.461740803,1.0,0.75,1.0,0.75,1.0,0.34872038200000005,False,,5b942c77b2352100016db457,,1918430,112,,evan-feature22,full_pf_a,,0
87,16037,113,,,,2,2,1.0,0.0,1.0,0.0,,0.0-115.0,,1.0,615.66,1.0,0.43821380600000004,1.0,0.738833273,1.0,0.728286963,0.0,0.399538128,False,,5b942c77b2352100016db457,,1928858,113,,evan-feature22,full_pf_a,,0
88,16038,114,,,,2,2,1.0,1.0,0.0,-1.0,,0.0-116.0,,-1.0,708.255,0.0,0.41709882,1.0,0.736666736,1.0,0.75,1.0,0.389095584,False,,5b942c77b2352100016db457,,1939389,114,,evan-feature22,full_pf_a,,0
89,16039,115,,,,2,2,0.0,1.0,0.0,-1.0,,0.0-117.0,,-1.0,736.28,0.0,0.39749009799999996,0.0,0.744320029,0.0,0.75,1.0,0.363848678,False,,5b942c77b2352100016db457,,1949953,115,,evan-feature22,full_pf_a,,0
90,16040,116,,,,2,2,0.0,0.0,1.0,0.0,,0.0-118.0,,0.0,766.165,0.0,0.392653706,1.0,0.75,0.0,0.75,0.0,0.384386976,False,,5b942c77b2352100016db457,,1960561,116,,evan-feature22,full_pf_a,,0
91,16041,117,,,,2,2,0.0,1.0,0.0,-1.0,,0.0-119.0,,-1.0,749.335,0.0,0.31190902600000003,1.0,0.75,0.0,0.732413819,1.0,0.413082932,False,,5b942c77b2352100016db457,,1971139,117,,evan-feature22,full_pf_a,,0
92,16042,118,,,,2,2,1.0,0.0,1.0,0.0,,0.0-120.0,,1.0,693.55,0.0,0.366917648,1.0,0.740073855,1.0,0.75,0.0,0.352861979,False,,5b942c77b2352100016db457,,1981651,118,,evan-feature22,full_pf_a,,0
93,16043,119,,,,2,2,0.0,1.0,1.0,0.0,,0.0-121.0,,0.0,676.17,0.0,0.3645172,0.0,0.721770713,0.0,0.75,1.0,0.404074511,False,,5b942c77b2352100016db457,,1992153,119,,evan-feature22,full_pf_a,,0
94,16044,120,,,,2,2,0.0,0.0,1.0,0.0,,0.0-122.0,,0.0,573.725,0.0,0.35205600299999995,0.0,0.68983859,0.0,0.739735447,0.0,0.366895945,False,,5b942c77b2352100016db457,,2002550,120,,evan-feature22,full_pf_a,,0
95,16045,121,,,,2,2,1.0,0.0,1.0,0.0,,0.0-123.0,,1.0,656.475,0.0,0.40998722600000004,1.0,0.720859127,1.0,0.673854955,0.0,0.368528541,False,,5b942c77b2352100016db457,,2013032,121,,evan-feature22,full_pf_a,,0
96,16046,122,,,,2,2,1.0,1.0,1.0,0.0,,0.0-124.0,,1.0,655.825,1.0,0.353625316,1.0,0.75,1.0,0.695605473,1.0,0.38303674200000004,False,,5b942c77b2352100016db457,,2023544,122,,evan-feature22,full_pf_a,,0
97,16047,123,,,,2,2,1.0,0.0,1.0,0.0,,0.0-125.0,,1.0,613.76,1.0,0.359216989,0.0,0.75,1.0,0.6987915090000001,0.0,0.35169046200000004,False,,5b942c77b2352100016db457,,2033971,123,,evan-feature22,full_pf_a,,0
98,16048,124,,,,2,2,1.0,1.0,1.0,0.0,,0.0-126.0,,1.0,758.635,1.0,0.35834496899999996,0.0,0.75,1.0,0.707067742,1.0,0.416763636,False,,5b942c77b2352100016db457,,2044551,124,,evan-feature22,full_pf_a,,0
99,16049,125,,,,2,2,1.0,0.0,0.0,-1.0,,0.0-127.0,,0.0,1271.57,0.0,0.38741613799999997,1.0,0.7177369570000001,1.0,0.734902455,0.0,0.49438664299999996,False,,5b942c77b2352100016db457,,2055655,125,,evan-feature22,full_pf_a,,0
100,16050,126,,,,1,1,0.0,1.0,1.0,0.0,,0.0-128.0,,0.0,573.47,0.0,0.405255252,1.0,0.7300466640000001,1.0,0.7027748070000001,1.0,0.504359668,False,,5b942c77b2352100016db457,,2066068,126,,evan-feature22,full_pf_a,,1
101,16051,127,,,,2,2,1.0,1.0,1.0,0.0,,0.0-129.0,,1.0,818.395,0.0,0.40697073,1.0,0.7260142190000001,1.0,0.724461982,1.0,0.522779179,False,,5b942c77b2352100016db457,,2076728,127,,evan-feature22,full_pf_a,,1
102,16052,128,,,,2,2,0.0,0.0,1.0,0.0,,0.0-130.0,,0.0,805.93,1.0,0.43906215299999996,1.0,0.7252802340000001,0.0,0.719079934,0.0,0.5712990579999999,False,,5b942c77b2352100016db457,,2087339,128,,evan-feature22,full_pf_a,,0
103,16053,129,,,,2,2,1.0,1.0,0.0,-1.0,,0.0-131.0,,-1.0,1200.395,0.0,0.4076705,0.0,0.73280499,1.0,0.681313127,1.0,0.523891346,False,,5b942c77b2352100016db457,,2098354,129,,evan-feature22,full_pf_a,,0
104,16054,130,,,,1,1,0.0,1.0,0.0,-1.0,,0.0-132.0,,-1.0,1100.165,0.0,0.399102911,1.0,0.730498344,1.0,0.661080239,1.0,0.46742603,False,,5b942c77b2352100016db457,,2109297,130,,evan-feature22,full_pf_a,,1
105,16055,131,,,,2,2,1.0,0.0,0.0,-1.0,,0.0-133.0,,0.0,890.1,0.0,0.356477282,1.0,0.712296395,1.0,0.641812684,0.0,0.44868414,False,,5b942c77b2352100016db457,,2120015,131,,evan-feature22,full_pf_a,,1
106,16056,132,,,,2,2,1.0,1.0,1.0,0.0,,0.0-134.0,,1.0,568.965,0.0,0.462760722,1.0,0.692349322,1.0,0.700947931,1.0,0.394680266,False,,5b942c77b2352100016db457,,2130421,132,,evan-feature22,full_pf_a,,0
107,16057,133,,,,2,2,1.0,0.0,1.0,0.0,,0.0-135.0,,1.0,737.85,1.0,0.422306413,1.0,0.718375916,1.0,0.706340917,0.0,0.367787185,False,,5b942c77b2352100016db457,,2140983,133,,evan-feature22,full_pf_a,,0
108,16059,135,,,,2,2,1.0,1.0,1.0,0.0,,0.0-137.0,,1.0,1228.39,0.0,0.4582233,0.0,0.643834117,1.0,0.75,1.0,0.39615823299999997,False,,5b942c77b2352100016db457,,2155715,135,,evan-feature22,full_pf_a,,0
109,16060,136,,,,2,2,1.0,0.0,1.0,0.0,,0.0-138.0,,1.0,728.585,0.0,0.43813437899999996,1.0,0.651283804,1.0,0.729674191,0.0,0.37711048,False,,5b942c77b2352100016db457,,2166259,136,,evan-feature22,full_pf_a,,0
110,16061,137,,,,2,2,1.0,1.0,1.0,0.0,,0.0-139.0,,1.0,634.315,0.0,0.471199094,0.0,0.6470010979999999,1.0,0.715008097,1.0,0.410656191,False,,5b942c77b2352100016db457,,2176735,137,,evan-feature22,full_pf_a,,0
111,16062,138,,,,2,2,1.0,0.0,1.0,0.0,,0.0-140.0,,1.0,542.44,0.0,0.42486406,1.0,0.629771829,1.0,0.6550939960000001,0.0,0.459093873,False,,5b942c77b2352100016db457,,2187091,138,,evan-feature22,full_pf_a,,0
112,16063,139,,,,2,2,1.0,0.0,1.0,0.0,,0.0-141.0,,1.0,587.28,0.0,0.4803197,1.0,0.645842715,1.0,0.6421749920000001,0.0,0.443092151,False,,5b942c77b2352100016db457,,2197475,139,,evan-feature22,full_pf_a,,0
113,16064,140,,,,2,2,0.0,0.0,0.0,-1.0,,0.0-142.0,,0.0,1460.69,1.0,0.521848997,0.0,0.735801074,0.0,0.6691348460000001,0.0,0.45259351600000003,False,,5b942c77b2352100016db457,,2208759,140,,evan-feature22,full_pf_a,,0
114,16065,141,,,,2,2,0.0,1.0,1.0,0.0,,0.0-143.0,,0.0,1273.57,1.0,0.49565621299999996,1.0,0.742400847,0.0,0.661512553,1.0,0.483110831,False,,5b942c77b2352100016db457,,2219872,141,,evan-feature22,full_pf_a,,0
115,16066,142,,,,2,2,1.0,1.0,1.0,0.0,,0.0-144.0,,1.0,765.465,0.0,0.521564361,1.0,0.731078632,1.0,0.6774886809999999,1.0,0.483263956,False,,5b942c77b2352100016db457,,2230452,142,,evan-feature22,full_pf_a,,0
116,16067,143,,,,2,2,1.0,1.0,1.0,0.0,,0.0-145.0,,1.0,706.255,0.0,0.558893102,1.0,0.719810023,1.0,0.67461031,1.0,0.499349834,False,,5b942c77b2352100016db457,,2240977,143,,evan-feature22,full_pf_a,,0
117,16068,144,,,,2,2,1.0,0.0,1.0,0.0,,0.0-146.0,,1.0,395.525,1.0,0.611031046,0.0,0.75,1.0,0.688072995,0.0,0.5321422729999999,False,,5b942c77b2352100016db457,,2251216,144,,evan-feature22,full_pf_a,,0
118,16069,145,,,,2,2,0.0,0.0,0.0,-1.0,,0.0-147.0,,0.0,790.725,0.0,0.633223941,1.0,0.713567728,0.0,0.75,0.0,0.48185314700000004,False,,5b942c77b2352100016db457,,2261803,145,,evan-feature22,full_pf_a,,0
119,16070,146,,,,2,2,0.0,1.0,1.0,0.0,,0.0-148.0,,0.0,777.815,1.0,0.664001694,0.0,0.705509768,0.0,0.75,1.0,0.500211065,False,,5b942c77b2352100016db457,,2272394,146,,evan-feature22,full_pf_a,,0
120,16071,147,,,,2,2,1.0,1.0,1.0,0.0,,0.0-149.0,,1.0,628.94,1.0,0.664001694,0.0,0.705509768,1.0,0.75,1.0,0.500211065,False,,5b942c77b2352100016db457,,2282871,147,,evan-feature22,full_pf_a,,0
121,16072,148,,,,2,2,1.0,0.0,1.0,0.0,,0.0-150.0,,1.0,701.53,1.0,0.696508041,1.0,0.71066027,1.0,0.717028709,0.0,0.49792991,False,,5b942c77b2352100016db457,,2293375,148,,evan-feature22,full_pf_a,,0
122,16073,149,,,,2,2,0.0,0.0,0.0,-1.0,,0.0-151.0,,0.0,1316.77,0.0,0.699883272,0.0,0.75,0.0,0.713543895,0.0,0.496962643,False,,5b942c77b2352100016db457,,2304527,149,,evan-feature22,full_pf_a,,0
123,16074,150,,,,2,2,1.0,0.0,0.0,-1.0,,0.0-152.0,,0.0,1035.03,1.0,0.741163419,0.0,0.75,1.0,0.64691024,0.0,0.513858197,False,,5b942c77b2352100016db457,,2315375,150,,evan-feature22,full_pf_a,,0
124,16075,151,,,,1,1,1.0,1.0,0.0,-1.0,,0.0-153.0,,-1.0,617.11,1.0,0.75,1.0,0.70816558,0.0,0.594499079,0.0,0.48502124,False,,5b942c77b2352100016db457,,2325827,151,,evan-feature22,full_pf_a,,1
125,16076,152,,,,2,2,1.0,0.0,1.0,0.0,,0.0-154.0,,1.0,1060.13,1.0,0.75,1.0,0.721848901,1.0,0.62197249,0.0,0.48263586399999997,False,,5b942c77b2352100016db457,,2336701,152,,evan-feature22,full_pf_a,,1
126,16077,153,,,,2,2,0.0,0.0,1.0,0.0,,0.0-155.0,,0.0,673.095,1.0,0.75,1.0,0.74813071,0.0,0.584357161,0.0,0.411477782,False,,5b942c77b2352100016db457,,2347167,153,,evan-feature22,full_pf_a,,0
127,16078,154,,,,2,2,1.0,1.0,1.0,0.0,,0.0-156.0,,1.0,711.355,0.0,0.75,1.0,0.75,1.0,0.52287236,1.0,0.488290656,False,,5b942c77b2352100016db457,,2357672,154,,evan-feature22,full_pf_a,,0
128,16079,155,,,,2,2,0.0,0.0,1.0,0.0,,0.0-157.0,,0.0,754.46,1.0,0.75,1.0,0.75,0.0,0.544321581,0.0,0.53143059,False,,5b942c77b2352100016db457,,2368228,155,,evan-feature22,full_pf_a,,0
129,16080,156,,,,1,1,1.0,1.0,1.0,0.0,,0.0-158.0,,1.0,914.105,1.0,0.726754564,1.0,0.75,0.0,0.5129306370000001,1.0,0.530592445,False,,5b942c77b2352100016db457,,2378980,156,,evan-feature22,full_pf_a,,1
130,16081,157,,,,1,1,1.0,1.0,0.0,-1.0,,0.0-159.0,,-1.0,1755.295,1.0,0.75,1.0,0.7392590729999999,0.0,0.479875835,1.0,0.547007051,False,,5b942c77b2352100016db457,,2390550,157,,evan-feature22,full_pf_a,,0
131,16082,158,,,,1,1,1.0,1.0,0.0,-1.0,,0.0-160.0,,-1.0,802.61,1.0,0.75,1.0,0.7393376979999999,0.0,0.546045419,0.0,0.541267353,False,,5b942c77b2352100016db457,,2401195,158,,evan-feature22,full_pf_a,,0
132,16083,159,,,,1,1,1.0,1.0,1.0,0.0,,0.0-161.0,,1.0,1453.905,1.0,0.75,1.0,0.75,0.0,0.485725895,0.0,0.527625395,False,,5b942c77b2352100016db457,,2412471,159,,evan-feature22,full_pf_a,,0
133,16084,160,,,,2,2,0.0,1.0,0.0,-1.0,,0.0-162.0,,-1.0,2005.985,1.0,0.75,1.0,0.725087974,0.0,0.488603595,1.0,0.504019206,False,,5b942c77b2352100016db457,,2424295,160,,evan-feature22,full_pf_a,,1
134,16085,161,,,,1,1,1.0,0.0,1.0,0.0,,0.0-163.0,,1.0,1326.64,1.0,0.745504295,0.0,0.75,1.0,0.452379914,0.0,0.50131194,False,,5b942c77b2352100016db457,,2435469,161,,evan-feature22,full_pf_a,,1
135,16086,162,,,,1,1,1.0,0.0,0.0,-1.0,,0.0-164.0,,0.0,1040.52,1.0,0.728513874,0.0,0.75,0.0,0.44125567200000004,1.0,0.531454591,False,,5b942c77b2352100016db457,,2446331,162,,evan-feature22,full_pf_a,,0
136,16087,163,,,,1,1,0.0,0.0,1.0,0.0,,0.0-165.0,,0.0,1096.015,0.0,0.73790804,0.0,0.75,0.0,0.413036656,0.0,0.524619035,False,,5b942c77b2352100016db457,,2457260,163,,evan-feature22,full_pf_a,,0
137,16088,164,,,,1,1,1.0,0.0,1.0,0.0,,0.0-166.0,,1.0,817.685,1.0,0.7080961309999999,0.0,0.708666865,0.0,0.431915581,1.0,0.481819489,False,,5b942c77b2352100016db457,,2467905,164,,evan-feature22,full_pf_a,,0
138,16089,165,,,,1,1,1.0,0.0,1.0,0.0,,0.0-167.0,,1.0,695.23,1.0,0.721378003,0.0,0.71605913,0.0,0.36642387,0.0,0.5036739929999999,False,,5b942c77b2352100016db457,,2478410,165,,evan-feature22,full_pf_a,,0
139,16090,166,,,,1,1,1.0,0.0,0.0,-1.0,,0.0-168.0,,0.0,1960.83,1.0,0.7340618959999999,0.0,0.699323252,0.0,0.35298046299999997,1.0,0.511241692,False,,5b942c77b2352100016db457,,2490189,166,,evan-feature22,full_pf_a,,0
140,16091,167,,,,1,1,1.0,0.0,0.0,-1.0,,0.0-169.0,,0.0,909.745,1.0,0.75,0.0,0.70412698,1.0,0.380734814,1.0,0.529580116,False,,5b942c77b2352100016db457,,2500950,167,,evan-feature22,full_pf_a,,0
141,16092,168,,,,1,1,0.0,1.0,0.0,-1.0,,0.0-170.0,,-1.0,862.125,0.0,0.7436654909999999,1.0,0.711182751,0.0,0.41125331,0.0,0.49554405,False,,5b942c77b2352100016db457,,2511638,168,,evan-feature22,full_pf_a,,0
142,16093,169,,,,1,1,1.0,1.0,1.0,0.0,,0.0-171.0,,1.0,1614.37,1.0,0.731607915,1.0,0.651774583,1.0,0.35688023,1.0,0.45194491600000003,False,,5b942c77b2352100016db457,,2523087,169,,evan-feature22,full_pf_a,,0
143,16094,170,,,,1,1,1.0,1.0,0.0,-1.0,,0.0-172.0,,-1.0,1277.335,1.0,0.75,1.0,0.75,0.0,0.283145374,1.0,0.528608005,False,,5b942c77b2352100016db457,,2534191,170,,evan-feature22,full_pf_a,,0
144,16095,171,,,,1,1,1.0,1.0,1.0,0.0,,0.0-173.0,,1.0,907.605,1.0,0.7491416890000001,1.0,0.7423785959999999,0.0,0.29135870399999997,0.0,0.498888318,False,,5b942c77b2352100016db457,,2544950,171,,evan-feature22,full_pf_a,,0
145,16096,172,,,,1,1,0.0,0.0,0.0,-1.0,,0.0-174.0,,0.0,770.03,0.0,0.708569387,0.0,0.717682277,1.0,0.294421699,1.0,0.493838163,False,,5b942c77b2352100016db457,,2555516,172,,evan-feature22,full_pf_a,,0
146,16097,173,,,,1,1,1.0,1.0,1.0,0.0,,0.0-175.0,,1.0,782.23,1.0,0.75,1.0,0.7383382159999999,1.0,0.356098707,0.0,0.442533405,False,,5b942c77b2352100016db457,,2566139,173,,evan-feature22,full_pf_a,,0
147,16098,174,,,,1,1,1.0,1.0,1.0,0.0,,0.0-176.0,,1.0,802.85,1.0,0.744527075,1.0,0.75,1.0,0.334127506,0.0,0.393165805,False,,5b942c77b2352100016db457,,2576785,174,,evan-feature22,full_pf_a,,0
148,16099,175,,,,1,1,1.0,0.0,1.0,0.0,,0.0-177.0,,1.0,830.075,1.0,0.75,0.0,0.75,0.0,0.33571021799999995,1.0,0.350393962,False,,5b942c77b2352100016db457,,2587457,175,,evan-feature22,full_pf_a,,0
149,16100,176,,,,1,1,1.0,0.0,0.0,-1.0,,0.0-178.0,,0.0,1058.305,1.0,0.75,0.0,0.75,1.0,0.313628297,0.0,0.36349657399999996,False,,5b942c77b2352100016db457,,2598333,176,,evan-feature22,full_pf_a,,0
150,16101,177,,,,1,1,1.0,1.0,1.0,0.0,,0.0-179.0,,1.0,978.255,1.0,0.75,1.0,0.734284182,1.0,0.262667667,1.0,0.380199119,False,,5b942c77b2352100016db457,,2609117,177,,evan-feature22,full_pf_a,,0
151,16102,178,,,,1,1,1.0,0.0,1.0,0.0,,0.0-180.0,,1.0,712.735,1.0,0.75,0.0,0.75,1.0,0.25,0.0,0.394494013,False,,5b942c77b2352100016db457,,2619637,178,,evan-feature22,full_pf_a,,0
152,16103,179,,,,1,1,1.0,1.0,1.0,0.0,,0.0-181.0,,1.0,728.115,1.0,0.722298145,1.0,0.7357822340000001,1.0,0.25,1.0,0.319142121,False,,5b942c77b2352100016db457,,2630171,179,,evan-feature22,full_pf_a,,0
153,16104,180,,,,1,1,1.0,1.0,1.0,0.0,,0.0-182.0,,1.0,986.505,1.0,0.73149275,1.0,0.724276446,0.0,0.305856907,0.0,0.281315057,False,,5b942c77b2352100016db457,,2640985,180,,evan-feature22,full_pf_a,,0
154,16105,181,,,,1,1,0.0,1.0,1.0,0.0,,0.0-183.0,,0.0,905.825,0.0,0.7458732690000001,1.0,0.7336382459999999,0.0,0.272571964,1.0,0.266021999,False,,5b942c77b2352100016db457,,2651720,181,,evan-feature22,full_pf_a,,0
155,16106,182,,,,1,1,1.0,1.0,0.0,-1.0,,0.0-184.0,,-1.0,1171.76,1.0,0.705579037,1.0,0.720778292,0.0,0.320238144,0.0,0.30971744,False,,5b942c77b2352100016db457,,2662721,182,,evan-feature22,full_pf_a,,0
156,16107,183,,,,1,1,1.0,1.0,0.0,-1.0,,0.0-185.0,,-1.0,918.22,1.0,0.700425648,1.0,0.7198784009999999,0.0,0.272590393,1.0,0.304182931,False,,5b942c77b2352100016db457,,2673454,183,,evan-feature22,full_pf_a,,0
157,16108,184,,,,1,1,0.0,1.0,0.0,-1.0,,0.0-186.0,,-1.0,1288.76,0.0,0.735590785,1.0,0.722714973,0.0,0.25,0.0,0.323421091,False,,5b942c77b2352100016db457,,2684579,184,,evan-feature22,full_pf_a,,0
158,16109,185,,,,1,1,1.0,1.0,0.0,-1.0,,0.0-187.0,,-1.0,1228.39,1.0,0.724807662,1.0,0.63146213,0.0,0.36836492600000004,1.0,0.34592153299999995,False,,5b942c77b2352100016db457,,2695620,185,,evan-feature22,full_pf_a,,0
159,16110,186,,,,1,1,1.0,1.0,1.0,0.0,,0.0-188.0,,1.0,1249.405,1.0,0.7352796909999999,1.0,0.555111392,0.0,0.36003922,0.0,0.31433779999999995,False,,5b942c77b2352100016db457,,2706716,186,,evan-feature22,full_pf_a,,0
160,16111,187,notice,,,,,,,,,,0.0-189.0,"{""Q0"":""Gold more likely to appear at a different door.""}",,61286.0,,,,,,,,,False,,5b942c77b2352100016db457,,2768003,187,Q,survey-text,full_pf_a,,1
161,16112,188,track1,,[1],,,,,,,,0.0-190.0,"{""Q0"":""no""}",,8222.0,,,,,,,,,False,,5b942c77b2352100016db457,,2776227,188,Q,evan-quiz,full_pf_a,,1
162,16113,189,track2,,[0],,,,,,,,0.0-191.0,"{""Q0"":""yes""}",,8397.0,,,,,,,,,False,,5b942c77b2352100016db457,,2784629,189,Q,evan-quiz,full_pf_a,,1
163,16114,190,strat,,,,,,,,,,0.0-192.0,"{""Q0"":""Work out which door the gold alien was more likely to appear in.""}",,36286.0,,,,,,,,,False,,5b942c77b2352100016db457,,2820920,190,Q,survey-text,full_pf_a,,1
