,index,Unnamed: 0,Q_name,button_pressed,choice_idxs,chosen_pos,chosen_state,chosen_state_f_1_outcome,chosen_state_f_2_outcome,f_1_reward,f_2_reward,incor_questions,internal_node_id,responses,reward_received,rt,s_1_f_1_outcome,s_1_f_1_prob,s_1_f_2_outcome,s_1_f_2_prob,s_2_f_1_outcome,s_2_f_1_prob,s_2_f_2_outcome,s_2_f_2_prob,safe_first,stimulus,subjectID,success,time_elapsed,trial_index,trial_num,trial_type,version,view_history,switching
0,36808,30,,,,1,1,1.0,1.0,0.0,-1.0,,0.0-27.0,,-1.0,1478.715,1.0,0.6,1.0,0.6,1.0,0.4,0.0,0.4,False,,59e8f20262637600014a7e75,,947366,30,,evan-feature22,full_pf_a,,0
1,36809,31,,,,2,2,1.0,1.0,0.0,-1.0,,0.0-28.0,,-1.0,3779.67,0.0,0.608053294,1.0,0.63424552,1.0,0.397152172,1.0,0.347069101,False,,59e8f20262637600014a7e75,,961082,31,,evan-feature22,full_pf_a,,1
2,36810,32,,,,2,2,0.0,0.0,0.0,-1.0,,0.0-29.0,,0.0,479.305,0.0,0.642237155,1.0,0.648566321,0.0,0.389407674,0.0,0.285525717,False,,59e8f20262637600014a7e75,,971407,32,,evan-feature22,full_pf_a,,0
3,36811,33,,,,1,1,1.0,1.0,0.0,-1.0,,0.0-30.0,,-1.0,1162.165,1.0,0.661086576,1.0,0.630492543,0.0,0.399058924,0.0,0.25,False,,59e8f20262637600014a7e75,,982423,33,,evan-feature22,full_pf_a,,1
4,36812,34,,,,1,1,1.0,0.0,0.0,-1.0,,0.0-31.0,,0.0,1992.38,1.0,0.631324137,0.0,0.6269842929999999,0.0,0.38734784299999997,0.0,0.25,False,,59e8f20262637600014a7e75,,994275,34,,evan-feature22,full_pf_a,,0
5,36813,35,,,,1,1,1.0,1.0,0.0,-1.0,,0.0-32.0,,-1.0,514.4399999,1.0,0.6381991370000001,1.0,0.68987999,0.0,0.384107265,1.0,0.271332943,False,,59e8f20262637600014a7e75,,1004653,35,,evan-feature22,full_pf_a,,0
6,36814,36,,,,2,2,0.0,0.0,0.0,-1.0,,0.0-33.0,,0.0,1285.38,1.0,0.66034901,1.0,0.742641349,0.0,0.360225629,0.0,0.25,False,,59e8f20262637600014a7e75,,1015779,36,,evan-feature22,full_pf_a,,1
7,36815,37,,,,2,2,0.0,0.0,1.0,0.0,,0.0-34.0,,0.0,19.04499996,0.0,0.638612418,1.0,0.75,0.0,0.367273939,0.0,0.25,False,,59e8f20262637600014a7e75,,1025634,37,,evan-feature22,full_pf_a,,0
8,36816,38,,,,2,2,1.0,1.0,0.0,-1.0,,0.0-35.0,,-1.0,396.6549999,0.0,0.624340629,1.0,0.75,1.0,0.425829545,1.0,0.25,False,,59e8f20262637600014a7e75,,1035875,38,,evan-feature22,full_pf_a,,0
9,36817,39,,,,SLOW,SLOW,,,0.0,-1.0,,0.0-36.0,,-3.0,,1.0,0.621999804,1.0,0.75,1.0,0.368609357,0.0,0.25,False,,59e8f20262637600014a7e75,,1041702,39,,evan-feature22,full_pf_a,,1
10,36818,40,,,,2,2,0.0,0.0,1.0,0.0,,0.0-37.0,,0.0,569.155,1.0,0.62666403,1.0,0.75,0.0,0.311151498,0.0,0.25,False,,59e8f20262637600014a7e75,,1052133,40,,evan-feature22,full_pf_a,,1
11,36819,41,,,,1,1,0.0,0.0,1.0,0.0,,0.0-38.0,,0.0,1524.62,0.0,0.6819650009999999,0.0,0.75,1.0,0.310763048,0.0,0.25,False,,59e8f20262637600014a7e75,,1063492,41,,evan-feature22,full_pf_a,,1
12,36820,42,,,,SLOW,SLOW,,,0.0,-1.0,,0.0-39.0,,-3.0,,1.0,0.740626951,1.0,0.75,0.0,0.25,0.0,0.25,False,,59e8f20262637600014a7e75,,1069340,42,,evan-feature22,full_pf_a,,1
13,36821,43,,,,2,2,0.0,0.0,0.0,-1.0,,0.0-40.0,,0.0,1719.79,0.0,0.739599242,1.0,0.742034978,0.0,0.25397114600000004,0.0,0.25,False,,59e8f20262637600014a7e75,,1080878,43,,evan-feature22,full_pf_a,,1
14,36822,44,,,,1,1,0.0,1.0,0.0,-1.0,,0.0-41.0,,-1.0,582.5049999,0.0,0.732341315,1.0,0.72735643,0.0,0.25,0.0,0.25,False,,59e8f20262637600014a7e75,,1091311,44,,evan-feature22,full_pf_a,,1
15,36823,45,,,,1,1,1.0,1.0,0.0,-1.0,,0.0-42.0,,-1.0,552.8699999,1.0,0.7062287770000001,1.0,0.75,0.0,0.29002151,0.0,0.288256649,False,,59e8f20262637600014a7e75,,1101699,45,,evan-feature22,full_pf_a,,0
16,36824,46,,,,1,1,0.0,1.0,1.0,0.0,,0.0-43.0,,0.0,647.185,0.0,0.7086029209999999,1.0,0.75,0.0,0.274129113,1.0,0.262851608,False,,59e8f20262637600014a7e75,,1112266,46,,evan-feature22,full_pf_a,,0
17,36825,47,,,,2,2,0.0,0.0,0.0,-1.0,,0.0-44.0,,0.0,491.5850001,1.0,0.669189651,1.0,0.727614338,0.0,0.298444036,0.0,0.296944518,False,,59e8f20262637600014a7e75,,1122569,47,,evan-feature22,full_pf_a,,1
18,36826,48,,,,1,1,0.0,1.0,1.0,0.0,,0.0-45.0,,0.0,3175.575,0.0,0.6819912929999999,1.0,0.7179434290000001,1.0,0.265003961,0.0,0.28157921199999997,False,,59e8f20262637600014a7e75,,1135608,48,,evan-feature22,full_pf_a,,1
19,36827,49,,,,2,2,0.0,1.0,1.0,0.0,,0.0-46.0,,0.0,371.395,0.0,0.665275002,1.0,0.723065271,0.0,0.260414971,1.0,0.30973870000000003,False,,59e8f20262637600014a7e75,,1145844,49,,evan-feature22,full_pf_a,,1
20,36828,50,,,,1,1,1.0,1.0,0.0,-1.0,,0.0-47.0,,-1.0,1167.1,1.0,0.6660593260000001,1.0,0.728032907,0.0,0.30922817,1.0,0.338778608,False,,59e8f20262637600014a7e75,,1156880,50,,evan-feature22,full_pf_a,,1
21,36829,51,,,,2,2,0.0,0.0,0.0,-1.0,,0.0-48.0,,0.0,682.0299999,1.0,0.702068785,1.0,0.6528750879999999,0.0,0.287329608,0.0,0.35789613200000003,False,,59e8f20262637600014a7e75,,1167379,51,,evan-feature22,full_pf_a,,1
22,36830,52,,,,1,1,1.0,1.0,0.0,-1.0,,0.0-49.0,,-1.0,477.92000010000004,1.0,0.651939787,1.0,0.636725589,0.0,0.284834488,1.0,0.358563756,False,,59e8f20262637600014a7e75,,1177805,52,,evan-feature22,full_pf_a,,1
23,36831,53,,,,2,2,0.0,0.0,0.0,-1.0,,0.0-50.0,,0.0,626.0299999,1.0,0.67573929,0.0,0.612550049,0.0,0.37130387600000003,0.0,0.383542402,False,,59e8f20262637600014a7e75,,1188363,53,,evan-feature22,full_pf_a,,1
24,36832,54,,,,1,1,0.0,0.0,0.0,-1.0,,0.0-51.0,,0.0,436.64,0.0,0.620753801,0.0,0.60513644,0.0,0.385529434,1.0,0.340361743,False,,59e8f20262637600014a7e75,,1199048,54,,evan-feature22,full_pf_a,,1
25,36833,55,,,,1,1,1.0,1.0,1.0,0.0,,0.0-52.0,,1.0,72.37499999,1.0,0.673564893,1.0,0.672437924,0.0,0.292955382,0.0,0.337633795,False,,59e8f20262637600014a7e75,,1209041,55,,evan-feature22,full_pf_a,,0
26,36834,56,,,,1,1,0.0,1.0,0.0,-1.0,,0.0-53.0,,-1.0,458.4550001,0.0,0.6749427,1.0,0.724197502,1.0,0.32391132100000003,1.0,0.350995264,False,,59e8f20262637600014a7e75,,1219428,56,,evan-feature22,full_pf_a,,0
27,36835,57,,,,1,1,0.0,0.0,0.0,-1.0,,0.0-54.0,,0.0,475.905,0.0,0.6940159379999999,0.0,0.75,1.0,0.31710554399999996,1.0,0.413450341,False,,59e8f20262637600014a7e75,,1229730,57,,evan-feature22,full_pf_a,,0
28,36836,58,,,,2,2,0.0,1.0,0.0,-1.0,,0.0-55.0,,-1.0,357.0999999,0.0,0.6916018270000001,1.0,0.69001187,0.0,0.261817804,1.0,0.40038635,False,,59e8f20262637600014a7e75,,1239950,58,,evan-feature22,full_pf_a,,1
29,36837,59,,,,1,1,0.0,0.0,0.0,-1.0,,0.0-56.0,,0.0,609.71,0.0,0.641061544,0.0,0.71337992,0.0,0.277296461,1.0,0.47372791700000005,False,,59e8f20262637600014a7e75,,1250374,59,,evan-feature22,full_pf_a,,1
30,36838,60,,,,2,2,0.0,0.0,0.0,-1.0,,0.0-57.0,,0.0,737.23,0.0,0.6082438520000001,0.0,0.708471106,0.0,0.28745137,0.0,0.564174476,False,,59e8f20262637600014a7e75,,1260933,60,,evan-feature22,full_pf_a,,1
31,36839,61,,,,1,1,0.0,0.0,1.0,0.0,,0.0-58.0,,0.0,561.1599999,0.0,0.6051112120000001,0.0,0.7118147229999999,0.0,0.272390611,1.0,0.5595149939999999,False,,59e8f20262637600014a7e75,,1271356,61,,evan-feature22,full_pf_a,,1
32,36840,62,,,,1,1,0.0,1.0,1.0,0.0,,0.0-59.0,,0.0,788.82,0.0,0.582420852,1.0,0.635867583,0.0,0.31089574,0.0,0.5227206520000001,False,,59e8f20262637600014a7e75,,1282029,62,,evan-feature22,full_pf_a,,0
33,36841,63,,,,1,1,0.0,0.0,1.0,0.0,,0.0-60.0,,0.0,431.995,0.0,0.623195575,0.0,0.655026044,0.0,0.25,0.0,0.560387538,False,,59e8f20262637600014a7e75,,1292319,63,,evan-feature22,full_pf_a,,0
34,36842,64,,,,2,2,0.0,1.0,0.0,-1.0,,0.0-61.0,,-1.0,876.08,1.0,0.601889598,1.0,0.678198724,0.0,0.25,1.0,0.559922936,False,,59e8f20262637600014a7e75,,1303024,64,,evan-feature22,full_pf_a,,1
35,36843,65,,,,1,1,0.0,1.0,1.0,0.0,,0.0-62.0,,0.0,355.6599999,0.0,0.601259914,1.0,0.704681482,0.0,0.33908969299999997,1.0,0.505003715,False,,59e8f20262637600014a7e75,,1313212,65,,evan-feature22,full_pf_a,,1
36,36844,66,,,,1,1,0.0,1.0,1.0,0.0,,0.0-63.0,,0.0,967.68,0.0,0.59645454,1.0,0.710437172,0.0,0.327441879,0.0,0.391749613,False,,59e8f20262637600014a7e75,,1324022,66,,evan-feature22,full_pf_a,,0
37,36845,67,,,,2,2,1.0,0.0,0.0,-1.0,,0.0-64.0,,0.0,223.85000010000002,0.0,0.529473,1.0,0.636758527,1.0,0.301338063,0.0,0.365661481,False,,59e8f20262637600014a7e75,,1334159,67,,evan-feature22,full_pf_a,,1
38,36846,68,,,,2,2,1.0,1.0,1.0,0.0,,0.0-65.0,,1.0,1451.27,1.0,0.541657162,1.0,0.634541962,1.0,0.343535366,1.0,0.371763742,False,,59e8f20262637600014a7e75,,1345492,68,,evan-feature22,full_pf_a,,0
39,36847,69,,,,2,2,1.0,1.0,1.0,0.0,,0.0-66.0,,1.0,905.7850001,1.0,0.5707533260000001,1.0,0.589121171,1.0,0.326428396,1.0,0.43961622899999997,False,,59e8f20262637600014a7e75,,1356263,69,,evan-feature22,full_pf_a,,0
40,36848,70,,,,2,2,1.0,0.0,0.0,-1.0,,0.0-67.0,,0.0,568.755,1.0,0.5707533260000001,1.0,0.589121171,1.0,0.326428396,0.0,0.43961622899999997,False,,59e8f20262637600014a7e75,,1366727,70,,evan-feature22,full_pf_a,,0
41,36849,71,,,,1,1,0.0,1.0,0.0,-1.0,,0.0-68.0,,-1.0,1457.27,0.0,0.506271295,1.0,0.641775594,1.0,0.37149690700000004,1.0,0.404330166,False,,59e8f20262637600014a7e75,,1378054,71,,evan-feature22,full_pf_a,,1
42,36850,72,,,,2,2,1.0,1.0,1.0,0.0,,0.0-69.0,,1.0,1236.64,0.0,0.455642565,1.0,0.623605825,1.0,0.358753011,1.0,0.346174041,False,,59e8f20262637600014a7e75,,1389124,72,,evan-feature22,full_pf_a,,1
43,36851,73,,,,2,2,0.0,1.0,0.0,-1.0,,0.0-70.0,,-1.0,1813.685,1.0,0.483677308,0.0,0.5904681070000001,0.0,0.402218411,1.0,0.35344697,False,,59e8f20262637600014a7e75,,1400813,73,,evan-feature22,full_pf_a,,0
44,36852,74,,,,1,1,0.0,1.0,1.0,0.0,,0.0-71.0,,0.0,778.1849999,0.0,0.394210977,1.0,0.558925494,0.0,0.540052017,0.0,0.35182128700000004,False,,59e8f20262637600014a7e75,,1411434,74,,evan-feature22,full_pf_a,,1
45,36853,75,,,,2,2,1.0,1.0,0.0,-1.0,,0.0-72.0,,-1.0,719.225,0.0,0.382300414,1.0,0.577670603,1.0,0.607608448,1.0,0.378261578,False,,59e8f20262637600014a7e75,,1422024,75,,evan-feature22,full_pf_a,,1
46,36854,76,,,,1,1,0.0,0.0,1.0,0.0,,0.0-73.0,,0.0,755.795,0.0,0.357596762,0.0,0.5929076529999999,1.0,0.6579790010000001,0.0,0.401326777,False,,59e8f20262637600014a7e75,,1432689,76,,evan-feature22,full_pf_a,,1
47,36855,77,,,,2,2,0.0,0.0,0.0,-1.0,,0.0-74.0,,0.0,512.75,0.0,0.362033495,1.0,0.582308608,0.0,0.649195052,0.0,0.355158505,False,,59e8f20262637600014a7e75,,1443030,77,,evan-feature22,full_pf_a,,1
48,36856,78,,,,1,1,0.0,0.0,0.0,-1.0,,0.0-75.0,,0.0,294.765,0.0,0.369620635,0.0,0.669100864,1.0,0.706059111,0.0,0.362516241,False,,59e8f20262637600014a7e75,,1453164,78,,evan-feature22,full_pf_a,,1
49,36857,79,,,,1,1,0.0,1.0,0.0,-1.0,,0.0-76.0,,-1.0,599.3250001,0.0,0.41477751399999996,1.0,0.7284416779999999,1.0,0.7182656940000001,0.0,0.36228040899999997,False,,59e8f20262637600014a7e75,,1463641,79,,evan-feature22,full_pf_a,,0
50,36858,80,,,,2,2,0.0,1.0,1.0,0.0,,0.0-77.0,,0.0,274.98,1.0,0.37675460299999997,0.0,0.703250285,0.0,0.75,1.0,0.461979164,False,,59e8f20262637600014a7e75,,1473811,80,,evan-feature22,full_pf_a,,1
51,36859,81,,,,2,2,1.0,0.0,1.0,0.0,,0.0-78.0,,1.0,1464.645,0.0,0.398716075,1.0,0.6723864890000001,1.0,0.674153818,0.0,0.519029516,False,,59e8f20262637600014a7e75,,1485140,81,,evan-feature22,full_pf_a,,0
52,36860,82,,,,2,2,1.0,0.0,1.0,0.0,,0.0-79.0,,1.0,326.53,0.0,0.34677856700000004,0.0,0.69057175,1.0,0.6822438540000001,0.0,0.477292237,False,,59e8f20262637600014a7e75,,1495304,82,,evan-feature22,full_pf_a,,0
53,36861,83,,,,2,2,1.0,1.0,0.0,-1.0,,0.0-80.0,,-1.0,3085.685,0.0,0.28580469199999997,1.0,0.68408818,1.0,0.684207565,1.0,0.49780448299999996,False,,59e8f20262637600014a7e75,,1508220,83,,evan-feature22,full_pf_a,,0
54,36863,85,,,,1,1,0.0,1.0,0.0,-1.0,,0.0-82.0,,-1.0,425.13,0.0,0.25,1.0,0.7405808970000001,0.0,0.679614108,1.0,0.436436964,False,,59e8f20262637600014a7e75,,1521316,85,,evan-feature22,full_pf_a,,1
55,36864,86,,,,2,2,0.0,0.0,0.0,-1.0,,0.0-83.0,,0.0,449.09,0.0,0.29890393,1.0,0.730505706,0.0,0.7328203320000001,0.0,0.439256938,False,,59e8f20262637600014a7e75,,1531583,86,,evan-feature22,full_pf_a,,1
56,36865,87,,,,2,2,1.0,0.0,1.0,0.0,,0.0-84.0,,1.0,443.265,1.0,0.326762398,1.0,0.7148059609999999,1.0,0.75,0.0,0.44389608799999997,False,,59e8f20262637600014a7e75,,1541901,87,,evan-feature22,full_pf_a,,0
57,36866,88,,,,2,2,1.0,1.0,0.0,-1.0,,0.0-85.0,,-1.0,693.1650001,0.0,0.295168515,1.0,0.739760854,1.0,0.719947008,1.0,0.35277284600000003,False,,59e8f20262637600014a7e75,,1552451,88,,evan-feature22,full_pf_a,,0
58,36867,89,,,,1,1,0.0,0.0,0.0,-1.0,,0.0-86.0,,0.0,568.115,0.0,0.25,0.0,0.70781482,1.0,0.75,0.0,0.286095925,False,,59e8f20262637600014a7e75,,1562893,89,,evan-feature22,full_pf_a,,1
59,36868,90,,,,2,2,1.0,1.0,0.0,-1.0,,0.0-87.0,,-1.0,560.9350001,1.0,0.25638190899999996,1.0,0.704088163,1.0,0.75,1.0,0.26872601399999996,False,,59e8f20262637600014a7e75,,1573299,90,,evan-feature22,full_pf_a,,1
60,36869,91,,,,1,1,1.0,0.0,1.0,0.0,,0.0-88.0,,1.0,553.11,1.0,0.271581126,0.0,0.669760107,0.0,0.733896663,1.0,0.273244572,False,,59e8f20262637600014a7e75,,1583703,91,,evan-feature22,full_pf_a,,1
61,36870,92,,,,2,2,0.0,0.0,0.0,-1.0,,0.0-89.0,,0.0,1700.745,1.0,0.257144401,1.0,0.600575706,0.0,0.74488122,0.0,0.25,False,,59e8f20262637600014a7e75,,1595248,92,,evan-feature22,full_pf_a,,1
62,36871,93,,,,1,1,1.0,1.0,0.0,-1.0,,0.0-90.0,,-1.0,499.01,1.0,0.25,1.0,0.616870026,0.0,0.723610234,0.0,0.25,False,,59e8f20262637600014a7e75,,1605605,93,,evan-feature22,full_pf_a,,1
63,36872,94,,,,2,2,1.0,1.0,1.0,0.0,,0.0-91.0,,1.0,3568.53,0.0,0.25,0.0,0.583540187,1.0,0.7041042559999999,1.0,0.285961995,False,,59e8f20262637600014a7e75,,1619001,94,,evan-feature22,full_pf_a,,1
64,36873,95,,,,2,2,1.0,0.0,1.0,0.0,,0.0-92.0,,1.0,458.355,0.0,0.27254536,1.0,0.53875765,1.0,0.693783448,0.0,0.284961652,False,,59e8f20262637600014a7e75,,1629340,95,,evan-feature22,full_pf_a,,0
65,36874,96,,,,1,1,0.0,0.0,1.0,0.0,,0.0-93.0,,0.0,254.7050001,0.0,0.25,0.0,0.548431252,1.0,0.734221895,1.0,0.279445214,False,,59e8f20262637600014a7e75,,1639407,96,,evan-feature22,full_pf_a,,1
66,36875,97,,,,1,1,0.0,1.0,0.0,-1.0,,0.0-94.0,,-1.0,377.91,0.0,0.258640684,1.0,0.545878066,0.0,0.725245965,1.0,0.31487537,False,,59e8f20262637600014a7e75,,1649648,97,,evan-feature22,full_pf_a,,0
67,36876,98,,,,2,2,1.0,0.0,0.0,-1.0,,0.0-95.0,,0.0,953.675,1.0,0.251103711,0.0,0.5776290629999999,1.0,0.696320133,0.0,0.317831047,False,,59e8f20262637600014a7e75,,1660458,98,,evan-feature22,full_pf_a,,1
68,36877,99,,,,2,2,1.0,0.0,0.0,-1.0,,0.0-96.0,,0.0,544.17,0.0,0.276630292,0.0,0.617329858,1.0,0.73838088,0.0,0.261471582,False,,59e8f20262637600014a7e75,,1670859,99,,evan-feature22,full_pf_a,,0
69,36878,100,,,,1,1,0.0,0.0,0.0,-1.0,,0.0-97.0,,0.0,705.095,0.0,0.297716424,0.0,0.618863717,0.0,0.7402358259999999,0.0,0.262600834,False,,59e8f20262637600014a7e75,,1681412,100,,evan-feature22,full_pf_a,,1
70,36879,101,,,,2,2,1.0,0.0,1.0,0.0,,0.0-98.0,,1.0,257.25,1.0,0.290935512,1.0,0.695370945,1.0,0.706570507,0.0,0.280030553,False,,59e8f20262637600014a7e75,,1691529,101,,evan-feature22,full_pf_a,,1
71,36880,102,,,,2,2,1.0,1.0,0.0,-1.0,,0.0-99.0,,-1.0,700.0350001,0.0,0.25,1.0,0.6465277079999999,1.0,0.67766682,1.0,0.25,False,,59e8f20262637600014a7e75,,1702075,102,,evan-feature22,full_pf_a,,0
72,36881,103,,,,1,1,1.0,1.0,1.0,0.0,,0.0-100.0,,1.0,678.6250001,1.0,0.26463816,1.0,0.636100213,1.0,0.646048507,1.0,0.265607101,False,,59e8f20262637600014a7e75,,1712593,103,,evan-feature22,full_pf_a,,1
73,36882,104,,,,1,1,0.0,0.0,1.0,0.0,,0.0-101.0,,0.0,727.935,0.0,0.314340707,0.0,0.667795927,1.0,0.613630805,1.0,0.25,False,,59e8f20262637600014a7e75,,1723155,104,,evan-feature22,full_pf_a,,0
74,36883,105,,,,2,2,0.0,0.0,0.0,-1.0,,0.0-102.0,,0.0,721.99,1.0,0.28685784,0.0,0.6622549529999999,0.0,0.652154117,0.0,0.25,False,,59e8f20262637600014a7e75,,1733712,105,,evan-feature22,full_pf_a,,1
75,36884,106,,,,1,1,0.0,1.0,0.0,-1.0,,0.0-103.0,,-1.0,804.825,0.0,0.304106554,1.0,0.631289538,0.0,0.707041942,0.0,0.29314237,False,,59e8f20262637600014a7e75,,1744366,106,,evan-feature22,full_pf_a,,1
76,36885,107,,,,2,2,1.0,0.0,0.0,-1.0,,0.0-104.0,,0.0,488.5999999,0.0,0.304806932,0.0,0.571167718,1.0,0.680472346,0.0,0.25,False,,59e8f20262637600014a7e75,,1754705,107,,evan-feature22,full_pf_a,,1
77,36886,108,,,,1,1,1.0,1.0,0.0,-1.0,,0.0-105.0,,-1.0,308.63999989999996,1.0,0.37919861,1.0,0.5724849710000001,0.0,0.705638003,0.0,0.30179300600000003,False,,59e8f20262637600014a7e75,,1764862,108,,evan-feature22,full_pf_a,,1
78,36887,109,,,,2,2,1.0,0.0,0.0,-1.0,,0.0-106.0,,0.0,482.185,0.0,0.464277969,1.0,0.554034373,1.0,0.7372627340000001,0.0,0.264699741,False,,59e8f20262637600014a7e75,,1775183,109,,evan-feature22,full_pf_a,,1
79,36888,110,,,,2,2,1.0,0.0,0.0,-1.0,,0.0-107.0,,0.0,332.41500010000004,0.0,0.465104323,1.0,0.530793115,1.0,0.75,0.0,0.31683071,False,,59e8f20262637600014a7e75,,1785383,110,,evan-feature22,full_pf_a,,0
80,36889,111,,,,2,2,1.0,0.0,1.0,0.0,,0.0-108.0,,1.0,1079.435,0.0,0.465104323,1.0,0.530793115,1.0,0.75,0.0,0.31683071,False,,59e8f20262637600014a7e75,,1796330,111,,evan-feature22,full_pf_a,,0
81,36890,112,,,,2,2,1.0,0.0,1.0,0.0,,0.0-109.0,,1.0,422.50999989999997,0.0,0.46833986,1.0,0.570249239,1.0,0.7244472590000001,0.0,0.364114163,False,,59e8f20262637600014a7e75,,1806603,112,,evan-feature22,full_pf_a,,0
82,36891,113,,,,2,2,1.0,1.0,1.0,0.0,,0.0-110.0,,1.0,598.905,1.0,0.445444024,1.0,0.649673355,1.0,0.6845441290000001,1.0,0.300660449,False,,59e8f20262637600014a7e75,,1817064,113,,evan-feature22,full_pf_a,,0
83,36892,114,,,,2,2,1.0,1.0,1.0,0.0,,0.0-111.0,,1.0,505.5000001,0.0,0.39909721299999995,1.0,0.6715179509999999,1.0,0.742310028,1.0,0.35496088299999995,False,,59e8f20262637600014a7e75,,1827424,114,,evan-feature22,full_pf_a,,0
84,36893,115,,,,2,2,0.0,0.0,0.0,-1.0,,0.0-112.0,,0.0,372.585,0.0,0.37956104799999996,0.0,0.694725302,0.0,0.7181651309999999,0.0,0.38726906299999997,False,,59e8f20262637600014a7e75,,1837630,115,,evan-feature22,full_pf_a,,0
85,36894,116,,,,2,2,1.0,1.0,0.0,-1.0,,0.0-113.0,,-1.0,2041.005,0.0,0.404995034,1.0,0.724375412,1.0,0.6910946859999999,1.0,0.387187347,False,,59e8f20262637600014a7e75,,1849532,116,,evan-feature22,full_pf_a,,0
86,36895,117,,,,1,1,0.0,1.0,1.0,0.0,,0.0-114.0,,0.0,1254.66,0.0,0.461740803,1.0,0.75,1.0,0.75,0.0,0.34872038200000005,False,,59e8f20262637600014a7e75,,1860606,117,,evan-feature22,full_pf_a,,1
87,36896,118,,,,2,2,0.0,0.0,1.0,0.0,,0.0-115.0,,0.0,1334.695,0.0,0.43821380600000004,0.0,0.738833273,0.0,0.728286963,0.0,0.399538128,False,,59e8f20262637600014a7e75,,1871782,118,,evan-feature22,full_pf_a,,1
88,36897,119,,,,2,2,1.0,1.0,0.0,-1.0,,0.0-116.0,,-1.0,1251.53,0.0,0.41709882,1.0,0.736666736,1.0,0.75,1.0,0.389095584,False,,59e8f20262637600014a7e75,,1882869,119,,evan-feature22,full_pf_a,,0
89,36898,120,,,,1,1,0.0,1.0,0.0,-1.0,,0.0-117.0,,-1.0,346.7849999,0.0,0.39749009799999996,1.0,0.744320029,1.0,0.75,0.0,0.363848678,False,,59e8f20262637600014a7e75,,1893082,120,,evan-feature22,full_pf_a,,1
90,36899,121,,,,2,2,1.0,0.0,1.0,0.0,,0.0-118.0,,1.0,362.98,0.0,0.392653706,1.0,0.75,1.0,0.75,0.0,0.384386976,False,,59e8f20262637600014a7e75,,1903317,121,,evan-feature22,full_pf_a,,1
91,36900,122,,,,2,2,1.0,0.0,0.0,-1.0,,0.0-119.0,,0.0,846.225,0.0,0.31190902600000003,1.0,0.75,1.0,0.732413819,0.0,0.413082932,False,,59e8f20262637600014a7e75,,1913997,122,,evan-feature22,full_pf_a,,0
92,36901,123,,,,2,2,1.0,0.0,1.0,0.0,,0.0-120.0,,1.0,783.6699999,0.0,0.366917648,1.0,0.740073855,1.0,0.75,0.0,0.352861979,False,,59e8f20262637600014a7e75,,1924630,123,,evan-feature22,full_pf_a,,0
93,36902,124,,,,2,2,1.0,0.0,1.0,0.0,,0.0-121.0,,1.0,804.005,0.0,0.3645172,1.0,0.721770713,1.0,0.75,0.0,0.404074511,False,,59e8f20262637600014a7e75,,1935268,124,,evan-feature22,full_pf_a,,0
94,36903,125,,,,2,2,1.0,1.0,1.0,0.0,,0.0-122.0,,1.0,209.01,1.0,0.35205600299999995,1.0,0.68983859,1.0,0.739735447,1.0,0.366895945,False,,59e8f20262637600014a7e75,,1945313,125,,evan-feature22,full_pf_a,,0
95,36904,126,,,,2,2,1.0,1.0,1.0,0.0,,0.0-123.0,,1.0,864.09,1.0,0.40998722600000004,1.0,0.720859127,1.0,0.673854955,1.0,0.368528541,False,,59e8f20262637600014a7e75,,1956049,126,,evan-feature22,full_pf_a,,0
96,36905,127,,,,2,2,1.0,0.0,1.0,0.0,,0.0-124.0,,1.0,575.46,0.0,0.353625316,1.0,0.75,1.0,0.695605473,0.0,0.38303674200000004,False,,59e8f20262637600014a7e75,,1966444,127,,evan-feature22,full_pf_a,,0
97,36906,128,,,,2,2,1.0,1.0,1.0,0.0,,0.0-125.0,,1.0,646.925,1.0,0.359216989,1.0,0.75,1.0,0.6987915090000001,1.0,0.35169046200000004,False,,59e8f20262637600014a7e75,,1976915,128,,evan-feature22,full_pf_a,,0
98,36907,129,,,,2,2,0.0,1.0,1.0,0.0,,0.0-126.0,,0.0,694.1099998999999,0.0,0.35834496899999996,1.0,0.75,0.0,0.707067742,1.0,0.416763636,False,,59e8f20262637600014a7e75,,1987444,129,,evan-feature22,full_pf_a,,0
99,36908,130,,,,2,2,1.0,0.0,0.0,-1.0,,0.0-127.0,,0.0,671.125,0.0,0.38741613799999997,1.0,0.7177369570000001,1.0,0.734902455,0.0,0.49438664299999996,False,,59e8f20262637600014a7e75,,1997944,130,,evan-feature22,full_pf_a,,0
100,36909,131,,,,2,2,1.0,0.0,1.0,0.0,,0.0-128.0,,1.0,733.0049999,1.0,0.405255252,1.0,0.7300466640000001,1.0,0.7027748070000001,0.0,0.504359668,False,,59e8f20262637600014a7e75,,2008534,131,,evan-feature22,full_pf_a,,0
101,36910,132,,,,2,2,0.0,1.0,1.0,0.0,,0.0-129.0,,0.0,468.73,1.0,0.40697073,1.0,0.7260142190000001,0.0,0.724461982,1.0,0.522779179,False,,59e8f20262637600014a7e75,,2018917,132,,evan-feature22,full_pf_a,,0
102,36911,133,,,,2,2,1.0,1.0,1.0,0.0,,0.0-130.0,,1.0,373.935,0.0,0.43906215299999996,1.0,0.7252802340000001,1.0,0.719079934,1.0,0.5712990579999999,False,,59e8f20262637600014a7e75,,2029145,133,,evan-feature22,full_pf_a,,0
103,36912,134,,,,2,2,0.0,1.0,0.0,-1.0,,0.0-131.0,,-1.0,529.02,1.0,0.4076705,1.0,0.73280499,0.0,0.681313127,1.0,0.523891346,False,,59e8f20262637600014a7e75,,2039543,134,,evan-feature22,full_pf_a,,0
104,36913,135,,,,1,1,0.0,0.0,0.0,-1.0,,0.0-132.0,,0.0,457.785,0.0,0.399102911,0.0,0.730498344,1.0,0.661080239,1.0,0.46742603,False,,59e8f20262637600014a7e75,,2049846,135,,evan-feature22,full_pf_a,,1
105,36914,136,,,,2,2,1.0,1.0,0.0,-1.0,,0.0-133.0,,-1.0,518.755,0.0,0.356477282,1.0,0.712296395,1.0,0.641812684,1.0,0.44868414,False,,59e8f20262637600014a7e75,,2060227,136,,evan-feature22,full_pf_a,,1
106,36915,137,,,,1,1,1.0,1.0,1.0,0.0,,0.0-134.0,,1.0,735.925,1.0,0.462760722,1.0,0.692349322,1.0,0.700947931,1.0,0.394680266,False,,59e8f20262637600014a7e75,,2070785,137,,evan-feature22,full_pf_a,,1
107,36916,138,,,,1,1,1.0,0.0,1.0,0.0,,0.0-135.0,,1.0,358.9249999,1.0,0.422306413,0.0,0.718375916,1.0,0.706340917,0.0,0.367787185,False,,59e8f20262637600014a7e75,,2080995,138,,evan-feature22,full_pf_a,,0
108,36918,140,,,,1,1,1.0,1.0,1.0,0.0,,0.0-137.0,,1.0,597.39,1.0,0.4582233,1.0,0.643834117,1.0,0.75,1.0,0.39615823299999997,False,,59e8f20262637600014a7e75,,2171782,140,,evan-feature22,full_pf_a,,0
109,36919,141,,,,1,1,1.0,1.0,1.0,0.0,,0.0-138.0,,1.0,504.95999989999996,1.0,0.43813437899999996,1.0,0.651283804,1.0,0.729674191,1.0,0.37711048,False,,59e8f20262637600014a7e75,,2182128,141,,evan-feature22,full_pf_a,,0
110,36920,142,,,,1,1,1.0,1.0,1.0,0.0,,0.0-139.0,,1.0,2886.05,1.0,0.471199094,1.0,0.6470010979999999,1.0,0.715008097,1.0,0.410656191,False,,59e8f20262637600014a7e75,,2194865,142,,evan-feature22,full_pf_a,,0
111,36921,143,,,,1,1,0.0,0.0,1.0,0.0,,0.0-140.0,,0.0,445.005,0.0,0.42486406,0.0,0.629771829,0.0,0.6550939960000001,0.0,0.459093873,False,,59e8f20262637600014a7e75,,2205156,143,,evan-feature22,full_pf_a,,0
112,36922,144,,,,2,2,1.0,1.0,1.0,0.0,,0.0-141.0,,1.0,626.37,0.0,0.4803197,1.0,0.645842715,1.0,0.6421749920000001,1.0,0.443092151,False,,59e8f20262637600014a7e75,,2215639,144,,evan-feature22,full_pf_a,,1
113,36923,145,,,,2,2,1.0,1.0,0.0,-1.0,,0.0-142.0,,-1.0,2219.3,1.0,0.521848997,0.0,0.735801074,1.0,0.6691348460000001,1.0,0.45259351600000003,False,,59e8f20262637600014a7e75,,2227721,145,,evan-feature22,full_pf_a,,0
114,36924,146,,,,2,2,1.0,0.0,1.0,0.0,,0.0-143.0,,1.0,351.6200001,0.0,0.49565621299999996,1.0,0.742400847,1.0,0.661512553,0.0,0.483110831,False,,59e8f20262637600014a7e75,,2237931,146,,evan-feature22,full_pf_a,,0
115,36925,147,,,,2,2,0.0,1.0,1.0,0.0,,0.0-144.0,,0.0,1274.625,0.0,0.521564361,1.0,0.731078632,0.0,0.6774886809999999,1.0,0.483263956,False,,59e8f20262637600014a7e75,,2249077,147,,evan-feature22,full_pf_a,,0
116,36926,148,,,,2,2,1.0,1.0,1.0,0.0,,0.0-145.0,,1.0,1311.715,1.0,0.558893102,1.0,0.719810023,1.0,0.67461031,1.0,0.499349834,False,,59e8f20262637600014a7e75,,2260258,148,,evan-feature22,full_pf_a,,0
117,36927,149,,,,2,2,1.0,1.0,1.0,0.0,,0.0-146.0,,1.0,576.155,1.0,0.611031046,0.0,0.75,1.0,0.688072995,1.0,0.5321422729999999,False,,59e8f20262637600014a7e75,,2270674,149,,evan-feature22,full_pf_a,,0
118,36928,150,,,,2,2,1.0,0.0,0.0,-1.0,,0.0-147.0,,0.0,610.09,1.0,0.633223941,1.0,0.713567728,1.0,0.75,0.0,0.48185314700000004,False,,59e8f20262637600014a7e75,,2281145,150,,evan-feature22,full_pf_a,,0
119,36929,151,,,,2,2,0.0,1.0,1.0,0.0,,0.0-148.0,,0.0,579.8300001,1.0,0.664001694,1.0,0.705509768,0.0,0.75,1.0,0.500211065,False,,59e8f20262637600014a7e75,,2291595,151,,evan-feature22,full_pf_a,,0
120,36930,152,,,,2,2,1.0,1.0,1.0,0.0,,0.0-149.0,,1.0,504.895,1.0,0.664001694,0.0,0.705509768,1.0,0.75,1.0,0.500211065,False,,59e8f20262637600014a7e75,,2301958,152,,evan-feature22,full_pf_a,,0
121,36931,153,,,,2,2,1.0,1.0,1.0,0.0,,0.0-150.0,,1.0,836.215,1.0,0.696508041,1.0,0.71066027,1.0,0.717028709,1.0,0.49792991,False,,59e8f20262637600014a7e75,,2312650,153,,evan-feature22,full_pf_a,,0
122,36932,154,,,,2,2,1.0,0.0,0.0,-1.0,,0.0-151.0,,0.0,661.61,1.0,0.699883272,0.0,0.75,1.0,0.713543895,0.0,0.496962643,False,,59e8f20262637600014a7e75,,2323171,154,,evan-feature22,full_pf_a,,0
123,36933,155,,,,2,2,1.0,1.0,0.0,-1.0,,0.0-152.0,,-1.0,413.01,1.0,0.741163419,1.0,0.75,1.0,0.64691024,1.0,0.513858197,False,,59e8f20262637600014a7e75,,2333431,155,,evan-feature22,full_pf_a,,0
124,36934,156,,,,1,1,1.0,0.0,0.0,-1.0,,0.0-153.0,,0.0,622.505,1.0,0.75,0.0,0.70816558,0.0,0.594499079,1.0,0.48502124,False,,59e8f20262637600014a7e75,,2343892,156,,evan-feature22,full_pf_a,,1
125,36935,157,,,,2,2,0.0,1.0,1.0,0.0,,0.0-154.0,,0.0,492.8850001,1.0,0.75,1.0,0.721848901,0.0,0.62197249,1.0,0.48263586399999997,False,,59e8f20262637600014a7e75,,2354201,157,,evan-feature22,full_pf_a,,1
126,36936,158,,,,2,2,1.0,0.0,1.0,0.0,,0.0-155.0,,1.0,416.6550001,0.0,0.75,1.0,0.74813071,1.0,0.584357161,0.0,0.411477782,False,,59e8f20262637600014a7e75,,2364462,158,,evan-feature22,full_pf_a,,0
127,36937,159,,,,2,2,1.0,1.0,1.0,0.0,,0.0-156.0,,1.0,1311.69,1.0,0.75,1.0,0.75,1.0,0.52287236,1.0,0.488290656,False,,59e8f20262637600014a7e75,,2375624,159,,evan-feature22,full_pf_a,,0
128,36938,160,,,,2,2,0.0,1.0,1.0,0.0,,0.0-157.0,,0.0,470.31,1.0,0.75,1.0,0.75,0.0,0.544321581,1.0,0.53143059,False,,59e8f20262637600014a7e75,,2385945,160,,evan-feature22,full_pf_a,,0
129,36939,161,,,,2,2,0.0,0.0,1.0,0.0,,0.0-158.0,,0.0,606.76,1.0,0.726754564,1.0,0.75,0.0,0.5129306370000001,0.0,0.530592445,False,,59e8f20262637600014a7e75,,2396413,161,,evan-feature22,full_pf_a,,0
130,36940,162,,,,2,2,1.0,0.0,0.0,-1.0,,0.0-159.0,,0.0,531.125,1.0,0.75,1.0,0.7392590729999999,1.0,0.479875835,0.0,0.547007051,False,,59e8f20262637600014a7e75,,2406796,162,,evan-feature22,full_pf_a,,0
131,36941,163,,,,2,2,1.0,0.0,0.0,-1.0,,0.0-160.0,,0.0,515.8099999,0.0,0.75,0.0,0.7393376979999999,1.0,0.546045419,0.0,0.541267353,False,,59e8f20262637600014a7e75,,2417160,163,,evan-feature22,full_pf_a,,0
132,36942,164,,,,2,2,1.0,0.0,1.0,0.0,,0.0-161.0,,1.0,451.445,1.0,0.75,0.0,0.75,1.0,0.485725895,0.0,0.527625395,False,,59e8f20262637600014a7e75,,2427491,164,,evan-feature22,full_pf_a,,0
133,36943,165,,,,2,2,1.0,1.0,0.0,-1.0,,0.0-162.0,,-1.0,339.045,1.0,0.75,0.0,0.725087974,1.0,0.488603595,1.0,0.504019206,False,,59e8f20262637600014a7e75,,2437691,165,,evan-feature22,full_pf_a,,0
134,36944,166,,,,1,1,1.0,1.0,1.0,0.0,,0.0-163.0,,1.0,593.645,1.0,0.745504295,1.0,0.75,0.0,0.452379914,1.0,0.50131194,False,,59e8f20262637600014a7e75,,2448135,166,,evan-feature22,full_pf_a,,1
135,36945,167,,,,2,2,0.0,1.0,0.0,-1.0,,0.0-164.0,,-1.0,3461.635,1.0,0.728513874,1.0,0.75,0.0,0.44125567200000004,1.0,0.531454591,False,,59e8f20262637600014a7e75,,2461436,167,,evan-feature22,full_pf_a,,1
136,36946,168,,,,1,1,1.0,1.0,1.0,0.0,,0.0-165.0,,1.0,1376.175,1.0,0.73790804,1.0,0.75,0.0,0.413036656,1.0,0.524619035,False,,59e8f20262637600014a7e75,,2472620,168,,evan-feature22,full_pf_a,,1
137,36947,169,,,,2,2,0.0,0.0,1.0,0.0,,0.0-166.0,,0.0,601.1300001,1.0,0.7080961309999999,1.0,0.708666865,0.0,0.431915581,0.0,0.481819489,False,,59e8f20262637600014a7e75,,2483049,169,,evan-feature22,full_pf_a,,1
138,36948,170,,,,1,1,1.0,0.0,1.0,0.0,,0.0-167.0,,1.0,410.925,1.0,0.721378003,0.0,0.71605913,0.0,0.36642387,0.0,0.5036739929999999,False,,59e8f20262637600014a7e75,,2493305,170,,evan-feature22,full_pf_a,,1
139,36949,171,,,,1,1,1.0,1.0,0.0,-1.0,,0.0-168.0,,-1.0,546.59,1.0,0.7340618959999999,1.0,0.699323252,0.0,0.35298046299999997,1.0,0.511241692,False,,59e8f20262637600014a7e75,,2503756,171,,evan-feature22,full_pf_a,,0
140,36950,172,,,,2,2,0.0,1.0,0.0,-1.0,,0.0-169.0,,-1.0,486.6600001,1.0,0.75,1.0,0.70412698,0.0,0.380734814,1.0,0.529580116,False,,59e8f20262637600014a7e75,,2514072,172,,evan-feature22,full_pf_a,,1
141,36951,173,,,,2,2,0.0,1.0,0.0,-1.0,,0.0-170.0,,-1.0,521.5650001,1.0,0.7436654909999999,1.0,0.711182751,0.0,0.41125331,1.0,0.49554405,False,,59e8f20262637600014a7e75,,2524439,173,,evan-feature22,full_pf_a,,0
142,36952,174,,,,2,2,0.0,1.0,1.0,0.0,,0.0-171.0,,0.0,706.2250001,1.0,0.731607915,1.0,0.651774583,0.0,0.35688023,1.0,0.45194491600000003,False,,59e8f20262637600014a7e75,,2534960,174,,evan-feature22,full_pf_a,,0
143,36953,175,,,,2,2,1.0,1.0,0.0,-1.0,,0.0-172.0,,-1.0,602.5100001000001,1.0,0.75,0.0,0.75,1.0,0.283145374,1.0,0.528608005,False,,59e8f20262637600014a7e75,,2545396,175,,evan-feature22,full_pf_a,,0
144,36954,176,,,,1,1,1.0,1.0,1.0,0.0,,0.0-173.0,,1.0,695.8250001,1.0,0.7491416890000001,1.0,0.7423785959999999,1.0,0.29135870399999997,0.0,0.498888318,False,,59e8f20262637600014a7e75,,2555924,176,,evan-feature22,full_pf_a,,1
145,36955,177,,,,1,1,0.0,1.0,0.0,-1.0,,0.0-174.0,,-1.0,768.375,0.0,0.708569387,1.0,0.717682277,0.0,0.294421699,0.0,0.493838163,False,,59e8f20262637600014a7e75,,2566577,177,,evan-feature22,full_pf_a,,0
146,36956,178,,,,2,2,0.0,0.0,1.0,0.0,,0.0-175.0,,0.0,479.87,1.0,0.75,1.0,0.7383382159999999,0.0,0.356098707,0.0,0.442533405,False,,59e8f20262637600014a7e75,,2576913,178,,evan-feature22,full_pf_a,,1
147,36957,179,,,,2,2,1.0,0.0,1.0,0.0,,0.0-176.0,,1.0,976.9,1.0,0.744527075,0.0,0.75,1.0,0.334127506,0.0,0.393165805,False,,59e8f20262637600014a7e75,,2587756,179,,evan-feature22,full_pf_a,,0
148,36958,180,,,,2,2,1.0,0.0,1.0,0.0,,0.0-177.0,,1.0,497.66,0.0,0.75,0.0,0.75,1.0,0.33571021799999995,0.0,0.350393962,False,,59e8f20262637600014a7e75,,2598093,180,,evan-feature22,full_pf_a,,0
149,36959,181,,,,2,2,1.0,0.0,0.0,-1.0,,0.0-178.0,,0.0,1124.64,1.0,0.75,1.0,0.75,1.0,0.313628297,0.0,0.36349657399999996,False,,59e8f20262637600014a7e75,,2609089,181,,evan-feature22,full_pf_a,,0
150,36960,182,,,,2,2,1.0,0.0,1.0,0.0,,0.0-179.0,,1.0,1293.785,1.0,0.75,1.0,0.734284182,1.0,0.262667667,0.0,0.380199119,False,,59e8f20262637600014a7e75,,2620271,182,,evan-feature22,full_pf_a,,0
151,36961,183,,,,2,2,0.0,0.0,1.0,0.0,,0.0-180.0,,0.0,1465.525,1.0,0.75,1.0,0.75,0.0,0.25,0.0,0.394494013,False,,59e8f20262637600014a7e75,,2631587,183,,evan-feature22,full_pf_a,,0
152,36962,184,,,,2,2,0.0,0.0,1.0,0.0,,0.0-181.0,,0.0,1398.305,0.0,0.722298145,1.0,0.7357822340000001,0.0,0.25,0.0,0.319142121,False,,59e8f20262637600014a7e75,,2642845,184,,evan-feature22,full_pf_a,,0
153,36963,185,,,,2,2,1.0,0.0,1.0,0.0,,0.0-182.0,,1.0,546.7599999,0.0,0.73149275,0.0,0.724276446,1.0,0.305856907,0.0,0.281315057,False,,59e8f20262637600014a7e75,,2653242,185,,evan-feature22,full_pf_a,,0
154,36964,186,,,,2,2,0.0,0.0,1.0,0.0,,0.0-183.0,,0.0,626.365,1.0,0.7458732690000001,0.0,0.7336382459999999,0.0,0.272571964,0.0,0.266021999,False,,59e8f20262637600014a7e75,,2663755,186,,evan-feature22,full_pf_a,,0
155,36965,187,,,,2,2,1.0,0.0,0.0,-1.0,,0.0-184.0,,0.0,706.6149998999999,0.0,0.705579037,1.0,0.720778292,1.0,0.320238144,0.0,0.30971744,False,,59e8f20262637600014a7e75,,2674304,187,,evan-feature22,full_pf_a,,0
156,36966,188,,,,2,2,0.0,0.0,0.0,-1.0,,0.0-185.0,,0.0,639.85,1.0,0.700425648,0.0,0.7198784009999999,0.0,0.272590393,0.0,0.304182931,False,,59e8f20262637600014a7e75,,2684791,188,,evan-feature22,full_pf_a,,0
157,36967,189,,,,2,2,1.0,1.0,0.0,-1.0,,0.0-186.0,,-1.0,460.3,0.0,0.735590785,1.0,0.722714973,1.0,0.25,1.0,0.323421091,False,,59e8f20262637600014a7e75,,2695121,189,,evan-feature22,full_pf_a,,0
158,36968,190,,,,1,1,0.0,1.0,0.0,-1.0,,0.0-187.0,,-1.0,807.685,0.0,0.724807662,1.0,0.63146213,1.0,0.36836492600000004,1.0,0.34592153299999995,False,,59e8f20262637600014a7e75,,2705821,190,,evan-feature22,full_pf_a,,1
159,36969,191,,,,2,2,1.0,1.0,1.0,0.0,,0.0-188.0,,1.0,2320.865,0.0,0.7352796909999999,1.0,0.555111392,1.0,0.36003922,1.0,0.31433779999999995,False,,59e8f20262637600014a7e75,,2718005,191,,evan-feature22,full_pf_a,,1
160,36970,192,notice,,,,,,,,,,0.0-189.0,"{""Q0"":""some was repeated in the same place ""}",,19746.0,,,,,,,,,False,,59e8f20262637600014a7e75,,2737758,192,Q,survey-text,full_pf_a,,1
161,36971,193,track1,,[0],,,,,,,,0.0-190.0,"{""Q0"":""yes""}",,7895.0,,,,,,,,,False,,59e8f20262637600014a7e75,,2745668,193,Q,evan-quiz,full_pf_a,,1
162,36972,194,track2,,[0],,,,,,,,0.0-191.0,"{""Q0"":""yes""}",,7621.0,,,,,,,,,False,,59e8f20262637600014a7e75,,2753298,194,Q,evan-quiz,full_pf_a,,1
163,36973,195,strat,,,,,,,,,,0.0-192.0,"{""Q0"":""just hope for the best. i  found the left hand alien to be a positive result ""}",,35831.0,,,,,,,,,False,,59e8f20262637600014a7e75,,2789140,195,Q,survey-text,full_pf_a,,1
