,index,Unnamed: 0,Q_name,button_pressed,choice_idxs,chosen_pos,chosen_state,chosen_state_f_1_outcome,chosen_state_f_2_outcome,f_1_reward,f_2_reward,incor_questions,internal_node_id,responses,reward_received,rt,s_1_f_1_outcome,s_1_f_1_prob,s_1_f_2_outcome,s_1_f_2_prob,s_2_f_1_outcome,s_2_f_1_prob,s_2_f_2_outcome,s_2_f_2_prob,safe_first,stimulus,subjectID,success,time_elapsed,trial_index,trial_num,trial_type,version,view_history,switching
0,36034,25,,,,1,1,0.0,1.0,0.0,1.0,,0.0-27.0,,1.0,1010.755,0.0,0.6,1.0,0.6,0.0,0.4,1.0,0.4,True,,59d49132078dbe00019511c1,,604209,25,,evan-feature22,full_rf_b,,0
1,36035,26,,,,1,1,0.0,1.0,0.0,1.0,,0.0-28.0,,1.0,799.46,0.0,0.608053294,1.0,0.63424552,1.0,0.397152172,1.0,0.347069101,True,,59d49132078dbe00019511c1,,614784,26,,evan-feature22,full_rf_b,,0
2,36036,27,,,,1,1,1.0,0.0,0.0,1.0,,0.0-29.0,,0.0,1032.755,1.0,0.642237155,0.0,0.648566321,0.0,0.389407674,0.0,0.285525717,True,,59d49132078dbe00019511c1,,625590,27,,evan-feature22,full_rf_b,,0
3,36037,28,,,,2,2,0.0,0.0,0.0,1.0,,0.0-30.0,,0.0,701.67,0.0,0.661086576,1.0,0.630492543,0.0,0.399058924,0.0,0.25,True,,59d49132078dbe00019511c1,,636067,28,,evan-feature22,full_rf_b,,1
4,36038,29,,,,1,1,1.0,1.0,0.0,1.0,,0.0-31.0,,1.0,896.35,1.0,0.631324137,1.0,0.6269842929999999,0.0,0.38734784299999997,0.0,0.25,True,,59d49132078dbe00019511c1,,646746,29,,evan-feature22,full_rf_b,,1
5,36039,30,,,,2,2,0.0,1.0,0.0,1.0,,0.0-32.0,,1.0,850.295,1.0,0.6381991370000001,1.0,0.68987999,0.0,0.384107265,1.0,0.271332943,True,,59d49132078dbe00019511c1,,657368,30,,evan-feature22,full_rf_b,,1
6,36040,31,,,,2,2,0.0,1.0,0.0,1.0,,0.0-33.0,,1.0,562.505,0.0,0.66034901,1.0,0.742641349,0.0,0.360225629,1.0,0.25,True,,59d49132078dbe00019511c1,,667704,31,,evan-feature22,full_rf_b,,0
7,36041,32,,,,1,1,0.0,1.0,-1.0,0.0,,0.0-34.0,,0.0,1278.3,0.0,0.638612418,1.0,0.75,1.0,0.367273939,0.0,0.25,True,,59d49132078dbe00019511c1,,678754,32,,evan-feature22,full_rf_b,,1
8,36042,33,,,,2,2,1.0,0.0,0.0,1.0,,0.0-35.0,,0.0,1160.11,1.0,0.624340629,0.0,0.75,1.0,0.425829545,0.0,0.25,True,,59d49132078dbe00019511c1,,689683,33,,evan-feature22,full_rf_b,,1
9,36043,34,,,,2,2,1.0,0.0,0.0,1.0,,0.0-36.0,,0.0,1628.435,1.0,0.621999804,1.0,0.75,1.0,0.368609357,0.0,0.25,True,,59d49132078dbe00019511c1,,701085,34,,evan-feature22,full_rf_b,,0
10,36044,35,,,,1,1,1.0,1.0,-1.0,0.0,,0.0-37.0,,-1.0,450.345,1.0,0.62666403,1.0,0.75,0.0,0.311151498,0.0,0.25,True,,59d49132078dbe00019511c1,,711313,35,,evan-feature22,full_rf_b,,1
11,36045,36,,,,1,1,1.0,0.0,-1.0,0.0,,0.0-38.0,,-1.0,1018.515,1.0,0.6819650009999999,0.0,0.75,1.0,0.310763048,0.0,0.25,True,,59d49132078dbe00019511c1,,722106,36,,evan-feature22,full_rf_b,,0
12,36046,37,,,,1,1,1.0,1.0,0.0,1.0,,0.0-39.0,,1.0,1779.0,1.0,0.740626951,1.0,0.75,0.0,0.25,0.0,0.25,True,,59d49132078dbe00019511c1,,733664,37,,evan-feature22,full_rf_b,,0
13,36047,38,,,,2,2,0.0,0.0,0.0,1.0,,0.0-40.0,,0.0,1627.155,1.0,0.739599242,0.0,0.742034978,0.0,0.25397114600000004,0.0,0.25,True,,59d49132078dbe00019511c1,,745062,38,,evan-feature22,full_rf_b,,1
14,36048,39,,,,1,1,1.0,1.0,0.0,1.0,,0.0-41.0,,1.0,1644.005,1.0,0.732341315,1.0,0.72735643,0.0,0.25,1.0,0.25,True,,59d49132078dbe00019511c1,,756485,39,,evan-feature22,full_rf_b,,1
15,36049,40,,,,1,1,0.0,0.0,0.0,1.0,,0.0-42.0,,0.0,934.34,0.0,0.7062287770000001,0.0,0.75,0.0,0.29002151,0.0,0.288256649,True,,59d49132078dbe00019511c1,,767189,40,,evan-feature22,full_rf_b,,0
16,36050,41,,,,2,2,0.0,0.0,-1.0,0.0,,0.0-43.0,,0.0,813.01,0.0,0.7086029209999999,1.0,0.75,0.0,0.274129113,0.0,0.262851608,True,,59d49132078dbe00019511c1,,777774,41,,evan-feature22,full_rf_b,,1
17,36051,42,,,,2,2,1.0,0.0,0.0,1.0,,0.0-44.0,,0.0,1676.9,0.0,0.669189651,1.0,0.727614338,1.0,0.298444036,0.0,0.296944518,True,,59d49132078dbe00019511c1,,789235,42,,evan-feature22,full_rf_b,,0
18,36052,43,,,,1,1,1.0,1.0,-1.0,0.0,,0.0-45.0,,-1.0,1119.8,1.0,0.6819912929999999,1.0,0.7179434290000001,0.0,0.265003961,0.0,0.28157921199999997,True,,59d49132078dbe00019511c1,,800141,43,,evan-feature22,full_rf_b,,1
19,36053,44,,,,1,1,1.0,1.0,-1.0,0.0,,0.0-46.0,,-1.0,720.895,1.0,0.665275002,1.0,0.723065271,0.0,0.260414971,0.0,0.30973870000000003,True,,59d49132078dbe00019511c1,,810638,44,,evan-feature22,full_rf_b,,0
20,36054,45,,,,1,1,1.0,1.0,0.0,1.0,,0.0-47.0,,1.0,1280.44,1.0,0.6660593260000001,1.0,0.728032907,0.0,0.30922817,0.0,0.338778608,True,,59d49132078dbe00019511c1,,821692,45,,evan-feature22,full_rf_b,,0
21,36055,46,,,,1,1,1.0,1.0,0.0,1.0,,0.0-48.0,,1.0,1048.725,1.0,0.702068785,1.0,0.6528750879999999,0.0,0.287329608,0.0,0.35789613200000003,True,,59d49132078dbe00019511c1,,832525,46,,evan-feature22,full_rf_b,,0
22,36056,47,,,,2,2,0.0,0.0,0.0,1.0,,0.0-49.0,,0.0,1368.875,0.0,0.651939787,0.0,0.636725589,0.0,0.284834488,0.0,0.358563756,True,,59d49132078dbe00019511c1,,843664,47,,evan-feature22,full_rf_b,,1
23,36057,48,,,,1,1,1.0,0.0,0.0,1.0,,0.0-50.0,,0.0,1800.295,1.0,0.67573929,0.0,0.612550049,1.0,0.37130387600000003,1.0,0.383542402,True,,59d49132078dbe00019511c1,,855241,48,,evan-feature22,full_rf_b,,1
24,36058,49,,,,1,1,0.0,1.0,0.0,1.0,,0.0-51.0,,1.0,1709.095,0.0,0.620753801,1.0,0.60513644,1.0,0.385529434,0.0,0.340361743,True,,59d49132078dbe00019511c1,,866732,49,,evan-feature22,full_rf_b,,0
25,36059,50,,,,2,2,0.0,1.0,-1.0,0.0,,0.0-52.0,,0.0,1247.275,1.0,0.673564893,1.0,0.672437924,0.0,0.292955382,1.0,0.337633795,True,,59d49132078dbe00019511c1,,877756,50,,evan-feature22,full_rf_b,,1
26,36060,51,,,,2,2,1.0,0.0,0.0,1.0,,0.0-53.0,,0.0,2147.44,1.0,0.6749427,1.0,0.724197502,1.0,0.32391132100000003,0.0,0.350995264,True,,59d49132078dbe00019511c1,,889689,51,,evan-feature22,full_rf_b,,0
27,36061,52,,,,1,1,1.0,0.0,0.0,1.0,,0.0-54.0,,0.0,895.985,1.0,0.6940159379999999,0.0,0.75,0.0,0.31710554399999996,0.0,0.413450341,True,,59d49132078dbe00019511c1,,900359,52,,evan-feature22,full_rf_b,,1
28,36062,53,,,,1,1,1.0,1.0,0.0,1.0,,0.0-55.0,,1.0,885.655,1.0,0.6916018270000001,1.0,0.69001187,1.0,0.261817804,0.0,0.40038635,True,,59d49132078dbe00019511c1,,911020,53,,evan-feature22,full_rf_b,,0
29,36063,54,,,,1,1,1.0,1.0,0.0,1.0,,0.0-56.0,,1.0,1740.575,1.0,0.641061544,1.0,0.71337992,0.0,0.277296461,1.0,0.47372791700000005,True,,59d49132078dbe00019511c1,,922534,54,,evan-feature22,full_rf_b,,0
30,36064,55,,,,1,1,0.0,0.0,0.0,1.0,,0.0-57.0,,0.0,2288.485,0.0,0.6082438520000001,0.0,0.708471106,1.0,0.28745137,1.0,0.564174476,True,,59d49132078dbe00019511c1,,934597,55,,evan-feature22,full_rf_b,,0
31,36065,56,,,,1,1,1.0,1.0,-1.0,0.0,,0.0-58.0,,-1.0,977.27,1.0,0.6051112120000001,1.0,0.7118147229999999,1.0,0.272390611,0.0,0.5595149939999999,True,,59d49132078dbe00019511c1,,945354,56,,evan-feature22,full_rf_b,,0
32,36066,57,,,,2,2,0.0,1.0,-1.0,0.0,,0.0-59.0,,0.0,872.625,0.0,0.582420852,0.0,0.635867583,0.0,0.31089574,1.0,0.5227206520000001,True,,59d49132078dbe00019511c1,,956006,57,,evan-feature22,full_rf_b,,1
33,36067,58,,,,2,2,0.0,1.0,-1.0,0.0,,0.0-60.0,,0.0,1097.265,1.0,0.623195575,1.0,0.655026044,0.0,0.25,1.0,0.560387538,True,,59d49132078dbe00019511c1,,966880,58,,evan-feature22,full_rf_b,,0
34,36068,59,,,,1,1,1.0,0.0,0.0,1.0,,0.0-61.0,,0.0,989.7,1.0,0.601889598,0.0,0.678198724,1.0,0.25,0.0,0.559922936,True,,59d49132078dbe00019511c1,,977646,59,,evan-feature22,full_rf_b,,1
35,36069,60,,,,1,1,1.0,1.0,-1.0,0.0,,0.0-62.0,,-1.0,1109.08,1.0,0.601259914,1.0,0.704681482,0.0,0.33908969299999997,1.0,0.505003715,True,,59d49132078dbe00019511c1,,988530,60,,evan-feature22,full_rf_b,,0
36,36070,61,,,,1,1,1.0,1.0,-1.0,0.0,,0.0-63.0,,-1.0,1123.18,1.0,0.59645454,1.0,0.710437172,0.0,0.327441879,1.0,0.391749613,True,,59d49132078dbe00019511c1,,999432,61,,evan-feature22,full_rf_b,,0
37,36071,62,,,,2,2,0.0,0.0,0.0,1.0,,0.0-64.0,,0.0,878.645,1.0,0.529473,1.0,0.636758527,0.0,0.301338063,0.0,0.365661481,True,,59d49132078dbe00019511c1,,1010083,62,,evan-feature22,full_rf_b,,1
38,36072,63,,,,1,1,1.0,1.0,-1.0,0.0,,0.0-65.0,,-1.0,1008.775,1.0,0.541657162,1.0,0.634541962,0.0,0.343535366,0.0,0.371763742,True,,59d49132078dbe00019511c1,,1020866,63,,evan-feature22,full_rf_b,,1
39,36073,64,,,,1,1,1.0,0.0,-1.0,0.0,,0.0-66.0,,-1.0,1244.635,1.0,0.5707533260000001,0.0,0.589121171,0.0,0.326428396,0.0,0.43961622899999997,True,,59d49132078dbe00019511c1,,1031882,64,,evan-feature22,full_rf_b,,0
40,36074,65,,,,2,2,1.0,0.0,0.0,1.0,,0.0-67.0,,0.0,1067.695,0.0,0.5707533260000001,0.0,0.589121171,1.0,0.326428396,0.0,0.43961622899999997,True,,59d49132078dbe00019511c1,,1042735,65,,evan-feature22,full_rf_b,,1
41,36075,66,,,,1,1,1.0,1.0,0.0,1.0,,0.0-68.0,,1.0,1531.825,1.0,0.506271295,1.0,0.641775594,0.0,0.37149690700000004,1.0,0.404330166,True,,59d49132078dbe00019511c1,,1054052,66,,evan-feature22,full_rf_b,,1
42,36076,67,,,,2,2,1.0,0.0,-1.0,0.0,,0.0-69.0,,-1.0,629.9,0.0,0.455642565,1.0,0.623605825,1.0,0.358753011,0.0,0.346174041,True,,59d49132078dbe00019511c1,,1064457,67,,evan-feature22,full_rf_b,,1
43,36077,68,,,,1,1,0.0,1.0,0.0,1.0,,0.0-70.0,,1.0,1972.75,0.0,0.483677308,1.0,0.5904681070000001,1.0,0.402218411,1.0,0.35344697,True,,59d49132078dbe00019511c1,,1076201,68,,evan-feature22,full_rf_b,,1
44,36078,69,,,,2,2,1.0,0.0,-1.0,0.0,,0.0-71.0,,-1.0,1427.905,1.0,0.394210977,1.0,0.558925494,1.0,0.540052017,0.0,0.35182128700000004,True,,59d49132078dbe00019511c1,,1087411,69,,evan-feature22,full_rf_b,,1
45,36079,70,,,,2,2,0.0,1.0,0.0,1.0,,0.0-72.0,,1.0,1279.895,0.0,0.382300414,1.0,0.577670603,0.0,0.607608448,1.0,0.378261578,True,,59d49132078dbe00019511c1,,1098466,70,,evan-feature22,full_rf_b,,0
46,36080,71,,,,1,1,0.0,1.0,-1.0,0.0,,0.0-73.0,,0.0,717.915,0.0,0.357596762,1.0,0.5929076529999999,1.0,0.6579790010000001,1.0,0.401326777,True,,59d49132078dbe00019511c1,,1108961,71,,evan-feature22,full_rf_b,,1
47,36081,72,,,,1,1,1.0,1.0,0.0,1.0,,0.0-74.0,,1.0,1137.64,1.0,0.362033495,1.0,0.582308608,1.0,0.649195052,1.0,0.355158505,True,,59d49132078dbe00019511c1,,1119892,72,,evan-feature22,full_rf_b,,0
48,36082,73,,,,1,1,1.0,1.0,0.0,1.0,,0.0-75.0,,1.0,1363.36,1.0,0.369620635,1.0,0.669100864,0.0,0.706059111,0.0,0.362516241,True,,59d49132078dbe00019511c1,,1131032,73,,evan-feature22,full_rf_b,,0
49,36083,74,,,,1,1,0.0,1.0,0.0,1.0,,0.0-76.0,,1.0,1023.395,0.0,0.41477751399999996,1.0,0.7284416779999999,1.0,0.7182656940000001,1.0,0.36228040899999997,True,,59d49132078dbe00019511c1,,1141830,74,,evan-feature22,full_rf_b,,0
50,36084,75,,,,2,2,1.0,0.0,-1.0,0.0,,0.0-77.0,,-1.0,668.305,0.0,0.37675460299999997,1.0,0.703250285,1.0,0.75,0.0,0.461979164,True,,59d49132078dbe00019511c1,,1152272,75,,evan-feature22,full_rf_b,,1
51,36085,76,,,,2,2,0.0,0.0,-1.0,0.0,,0.0-78.0,,0.0,1038.88,1.0,0.398716075,1.0,0.6723864890000001,0.0,0.674153818,0.0,0.519029516,True,,59d49132078dbe00019511c1,,1163083,76,,evan-feature22,full_rf_b,,0
52,36086,77,,,,1,1,0.0,1.0,-1.0,0.0,,0.0-79.0,,0.0,1205.56,0.0,0.34677856700000004,1.0,0.69057175,0.0,0.6822438540000001,0.0,0.477292237,True,,59d49132078dbe00019511c1,,1174061,77,,evan-feature22,full_rf_b,,1
53,36087,78,,,,1,1,0.0,1.0,0.0,1.0,,0.0-80.0,,1.0,1635.27,0.0,0.28580469199999997,1.0,0.68408818,1.0,0.684207565,0.0,0.49780448299999996,True,,59d49132078dbe00019511c1,,1185498,78,,evan-feature22,full_rf_b,,0
54,36089,80,,,,1,1,0.0,1.0,0.0,1.0,,0.0-82.0,,1.0,2311.79,0.0,0.25,1.0,0.7405808970000001,0.0,0.679614108,1.0,0.436436964,True,,59d49132078dbe00019511c1,,1202007,80,,evan-feature22,full_rf_b,,0
55,36090,81,,,,2,2,1.0,0.0,0.0,1.0,,0.0-83.0,,0.0,1976.01,0.0,0.29890393,0.0,0.730505706,1.0,0.7328203320000001,0.0,0.439256938,True,,59d49132078dbe00019511c1,,1213757,81,,evan-feature22,full_rf_b,,1
56,36091,82,,,,1,1,0.0,0.0,-1.0,0.0,,0.0-84.0,,0.0,1485.885,0.0,0.326762398,0.0,0.7148059609999999,1.0,0.75,0.0,0.44389608799999997,True,,59d49132078dbe00019511c1,,1225014,82,,evan-feature22,full_rf_b,,1
57,36092,83,,,,1,1,0.0,1.0,0.0,1.0,,0.0-85.0,,1.0,1570.44,0.0,0.295168515,1.0,0.739760854,1.0,0.719947008,0.0,0.35277284600000003,True,,59d49132078dbe00019511c1,,1236368,83,,evan-feature22,full_rf_b,,0
58,36093,84,,,,1,1,1.0,1.0,0.0,1.0,,0.0-86.0,,1.0,1644.33,1.0,0.25,1.0,0.70781482,1.0,0.75,0.0,0.286095925,True,,59d49132078dbe00019511c1,,1247792,84,,evan-feature22,full_rf_b,,0
59,36094,85,,,,2,2,1.0,1.0,0.0,1.0,,0.0-87.0,,1.0,1627.425,0.0,0.25638190899999996,0.0,0.704088163,1.0,0.75,1.0,0.26872601399999996,True,,59d49132078dbe00019511c1,,1259194,85,,evan-feature22,full_rf_b,,1
60,36095,86,,,,2,2,1.0,0.0,-1.0,0.0,,0.0-88.0,,-1.0,723.045,0.0,0.271581126,1.0,0.669760107,1.0,0.733896663,0.0,0.273244572,True,,59d49132078dbe00019511c1,,1269691,86,,evan-feature22,full_rf_b,,0
61,36096,87,,,,1,1,0.0,0.0,0.0,1.0,,0.0-89.0,,0.0,1405.8,0.0,0.257144401,0.0,0.600575706,1.0,0.74488122,0.0,0.25,True,,59d49132078dbe00019511c1,,1280873,87,,evan-feature22,full_rf_b,,1
62,36097,88,,,,1,1,0.0,1.0,0.0,1.0,,0.0-90.0,,1.0,2374.605,0.0,0.25,1.0,0.616870026,0.0,0.723610234,1.0,0.25,True,,59d49132078dbe00019511c1,,1293025,88,,evan-feature22,full_rf_b,,0
63,36098,89,,,,2,2,0.0,0.0,-1.0,0.0,,0.0-91.0,,0.0,1432.41,0.0,0.25,1.0,0.583540187,0.0,0.7041042559999999,0.0,0.285961995,True,,59d49132078dbe00019511c1,,1304228,89,,evan-feature22,full_rf_b,,1
64,36099,90,,,,2,2,1.0,1.0,-1.0,0.0,,0.0-92.0,,-1.0,1396.08,0.0,0.27254536,1.0,0.53875765,1.0,0.693783448,1.0,0.284961652,True,,59d49132078dbe00019511c1,,1315401,90,,evan-feature22,full_rf_b,,0
65,36100,91,,,,1,1,0.0,0.0,-1.0,0.0,,0.0-93.0,,0.0,1060.725,0.0,0.25,0.0,0.548431252,1.0,0.734221895,0.0,0.279445214,True,,59d49132078dbe00019511c1,,1326233,91,,evan-feature22,full_rf_b,,1
66,36101,92,,,,1,1,1.0,0.0,0.0,1.0,,0.0-94.0,,0.0,1363.545,1.0,0.258640684,0.0,0.545878066,1.0,0.725245965,0.0,0.31487537,True,,59d49132078dbe00019511c1,,1337372,92,,evan-feature22,full_rf_b,,0
67,36102,93,,,,1,1,0.0,0.0,0.0,1.0,,0.0-95.0,,0.0,834.16,0.0,0.251103711,0.0,0.5776290629999999,1.0,0.696320133,0.0,0.317831047,True,,59d49132078dbe00019511c1,,1347978,93,,evan-feature22,full_rf_b,,0
68,36103,94,,,,1,1,0.0,1.0,0.0,1.0,,0.0-96.0,,1.0,1181.545,0.0,0.276630292,1.0,0.617329858,1.0,0.73838088,0.0,0.261471582,True,,59d49132078dbe00019511c1,,1358936,94,,evan-feature22,full_rf_b,,0
69,36104,95,,,,2,2,1.0,1.0,0.0,1.0,,0.0-97.0,,1.0,1130.13,1.0,0.297716424,1.0,0.618863717,1.0,0.7402358259999999,1.0,0.262600834,True,,59d49132078dbe00019511c1,,1369842,95,,evan-feature22,full_rf_b,,1
70,36105,96,,,,1,1,0.0,1.0,-1.0,0.0,,0.0-98.0,,0.0,2220.31,0.0,0.290935512,1.0,0.695370945,1.0,0.706570507,1.0,0.280030553,True,,59d49132078dbe00019511c1,,1381839,96,,evan-feature22,full_rf_b,,1
71,36106,97,,,,1,1,0.0,1.0,0.0,1.0,,0.0-99.0,,1.0,1210.25,0.0,0.25,1.0,0.6465277079999999,0.0,0.67766682,1.0,0.25,True,,59d49132078dbe00019511c1,,1392828,97,,evan-feature22,full_rf_b,,0
72,36107,98,,,,1,1,0.0,0.0,-1.0,0.0,,0.0-100.0,,0.0,1293.01,0.0,0.26463816,0.0,0.636100213,0.0,0.646048507,0.0,0.265607101,True,,59d49132078dbe00019511c1,,1403899,98,,evan-feature22,full_rf_b,,0
73,36108,99,,,,2,2,1.0,0.0,-1.0,0.0,,0.0-101.0,,-1.0,972.67,0.0,0.314340707,1.0,0.667795927,1.0,0.613630805,0.0,0.25,True,,59d49132078dbe00019511c1,,1414647,99,,evan-feature22,full_rf_b,,1
74,36109,100,,,,2,2,1.0,0.0,0.0,1.0,,0.0-102.0,,0.0,1971.95,1.0,0.28685784,1.0,0.6622549529999999,1.0,0.652154117,0.0,0.25,True,,59d49132078dbe00019511c1,,1426394,100,,evan-feature22,full_rf_b,,0
75,36110,101,,,,1,1,0.0,1.0,0.0,1.0,,0.0-103.0,,1.0,1306.65,0.0,0.304106554,1.0,0.631289538,1.0,0.707041942,1.0,0.29314237,True,,59d49132078dbe00019511c1,,1437479,101,,evan-feature22,full_rf_b,,1
76,36111,102,,,,1,1,0.0,1.0,0.0,1.0,,0.0-104.0,,1.0,1270.78,0.0,0.304806932,1.0,0.571167718,1.0,0.680472346,0.0,0.25,True,,59d49132078dbe00019511c1,,1448524,102,,evan-feature22,full_rf_b,,0
77,36112,103,,,,1,1,0.0,1.0,0.0,1.0,,0.0-105.0,,1.0,1181.305,0.0,0.37919861,1.0,0.5724849710000001,0.0,0.705638003,0.0,0.30179300600000003,True,,59d49132078dbe00019511c1,,1459489,103,,evan-feature22,full_rf_b,,0
78,36113,104,,,,1,1,0.0,1.0,0.0,1.0,,0.0-106.0,,1.0,1120.225,0.0,0.464277969,1.0,0.554034373,1.0,0.7372627340000001,0.0,0.264699741,True,,59d49132078dbe00019511c1,,1470383,104,,evan-feature22,full_rf_b,,0
79,36114,105,,,,1,1,0.0,0.0,0.0,1.0,,0.0-107.0,,0.0,979.795,0.0,0.465104323,0.0,0.530793115,1.0,0.75,1.0,0.31683071,True,,59d49132078dbe00019511c1,,1481132,105,,evan-feature22,full_rf_b,,0
80,36115,106,,,,2,2,1.0,0.0,-1.0,0.0,,0.0-108.0,,-1.0,936.695,0.0,0.465104323,1.0,0.530793115,1.0,0.75,0.0,0.31683071,True,,59d49132078dbe00019511c1,,1491846,106,,evan-feature22,full_rf_b,,1
81,36116,107,,,,1,1,1.0,0.0,-1.0,0.0,,0.0-109.0,,-1.0,1049.21,1.0,0.46833986,0.0,0.570249239,1.0,0.7244472590000001,0.0,0.364114163,True,,59d49132078dbe00019511c1,,1502676,107,,evan-feature22,full_rf_b,,1
82,36117,108,,,,1,1,1.0,1.0,-1.0,0.0,,0.0-110.0,,-1.0,1558.98,1.0,0.445444024,1.0,0.649673355,1.0,0.6845441290000001,0.0,0.300660449,True,,59d49132078dbe00019511c1,,1514010,108,,evan-feature22,full_rf_b,,0
83,36118,109,,,,1,1,0.0,1.0,-1.0,0.0,,0.0-111.0,,0.0,1171.935,0.0,0.39909721299999995,1.0,0.6715179509999999,1.0,0.742310028,0.0,0.35496088299999995,True,,59d49132078dbe00019511c1,,1524958,109,,evan-feature22,full_rf_b,,0
84,36119,110,,,,1,1,0.0,1.0,0.0,1.0,,0.0-112.0,,1.0,1916.015,0.0,0.37956104799999996,1.0,0.694725302,1.0,0.7181651309999999,0.0,0.38726906299999997,True,,59d49132078dbe00019511c1,,1536651,110,,evan-feature22,full_rf_b,,0
85,36120,111,,,,2,2,0.0,1.0,0.0,1.0,,0.0-113.0,,1.0,1063.435,1.0,0.404995034,1.0,0.724375412,0.0,0.6910946859999999,1.0,0.387187347,True,,59d49132078dbe00019511c1,,1547494,111,,evan-feature22,full_rf_b,,1
86,36121,112,,,,1,1,1.0,1.0,-1.0,0.0,,0.0-114.0,,-1.0,1143.455,1.0,0.461740803,1.0,0.75,1.0,0.75,0.0,0.34872038200000005,True,,59d49132078dbe00019511c1,,1558413,112,,evan-feature22,full_rf_b,,1
87,36122,113,,,,1,1,1.0,1.0,-1.0,0.0,,0.0-115.0,,-1.0,1290.47,1.0,0.43821380600000004,1.0,0.738833273,1.0,0.728286963,0.0,0.399538128,True,,59d49132078dbe00019511c1,,1569479,113,,evan-feature22,full_rf_b,,0
88,36123,114,,,,1,1,0.0,0.0,0.0,1.0,,0.0-116.0,,0.0,1124.35,0.0,0.41709882,0.0,0.736666736,1.0,0.75,0.0,0.389095584,True,,59d49132078dbe00019511c1,,1580384,114,,evan-feature22,full_rf_b,,0
89,36124,115,,,,1,1,1.0,1.0,0.0,1.0,,0.0-117.0,,1.0,1137.5,1.0,0.39749009799999996,1.0,0.744320029,0.0,0.75,0.0,0.363848678,True,,59d49132078dbe00019511c1,,1591294,115,,evan-feature22,full_rf_b,,0
90,36125,116,,,,1,1,1.0,0.0,-1.0,0.0,,0.0-118.0,,-1.0,1203.02,1.0,0.392653706,0.0,0.75,0.0,0.75,0.0,0.384386976,True,,59d49132078dbe00019511c1,,1602271,116,,evan-feature22,full_rf_b,,0
91,36126,117,,,,1,1,0.0,1.0,0.0,1.0,,0.0-119.0,,1.0,648.485,0.0,0.31190902600000003,1.0,0.75,0.0,0.732413819,1.0,0.413082932,True,,59d49132078dbe00019511c1,,1612698,117,,evan-feature22,full_rf_b,,0
92,36127,118,,,,2,2,1.0,0.0,-1.0,0.0,,0.0-120.0,,-1.0,598.485,1.0,0.366917648,1.0,0.740073855,1.0,0.75,0.0,0.352861979,True,,59d49132078dbe00019511c1,,1623071,118,,evan-feature22,full_rf_b,,1
93,36128,119,,,,SLOW,SLOW,,,-1.0,0.0,,0.0-121.0,,-3.0,,0.0,0.3645172,1.0,0.721770713,1.0,0.75,0.0,0.404074511,True,,59d49132078dbe00019511c1,,1628883,119,,evan-feature22,full_rf_b,,1
94,36129,120,,,,1,1,0.0,1.0,-1.0,0.0,,0.0-122.0,,0.0,757.93,0.0,0.35205600299999995,1.0,0.68983859,1.0,0.739735447,1.0,0.366895945,True,,59d49132078dbe00019511c1,,1639415,120,,evan-feature22,full_rf_b,,1
95,36130,121,,,,1,1,0.0,1.0,-1.0,0.0,,0.0-123.0,,0.0,803.01,0.0,0.40998722600000004,1.0,0.720859127,1.0,0.673854955,0.0,0.368528541,True,,59d49132078dbe00019511c1,,1649992,121,,evan-feature22,full_rf_b,,0
96,36131,122,,,,1,1,1.0,0.0,-1.0,0.0,,0.0-124.0,,-1.0,1192.915,1.0,0.353625316,0.0,0.75,1.0,0.695605473,0.0,0.38303674200000004,True,,59d49132078dbe00019511c1,,1660960,122,,evan-feature22,full_rf_b,,0
97,36132,123,,,,2,2,0.0,0.0,-1.0,0.0,,0.0-125.0,,0.0,957.1,1.0,0.359216989,0.0,0.75,0.0,0.6987915090000001,0.0,0.35169046200000004,True,,59d49132078dbe00019511c1,,1671687,123,,evan-feature22,full_rf_b,,1
98,36133,124,,,,2,2,0.0,1.0,-1.0,0.0,,0.0-126.0,,0.0,817.18,1.0,0.35834496899999996,0.0,0.75,0.0,0.707067742,1.0,0.416763636,True,,59d49132078dbe00019511c1,,1682288,124,,evan-feature22,full_rf_b,,0
99,36134,125,,,,1,1,0.0,1.0,0.0,1.0,,0.0-127.0,,1.0,934.57,0.0,0.38741613799999997,1.0,0.7177369570000001,1.0,0.734902455,0.0,0.49438664299999996,True,,59d49132078dbe00019511c1,,1693001,125,,evan-feature22,full_rf_b,,1
100,36135,126,,,,2,2,1.0,0.0,-1.0,0.0,,0.0-128.0,,-1.0,1452.615,1.0,0.405255252,1.0,0.7300466640000001,1.0,0.7027748070000001,0.0,0.504359668,True,,59d49132078dbe00019511c1,,1704230,126,,evan-feature22,full_rf_b,,1
101,36136,127,,,,1,1,0.0,0.0,-1.0,0.0,,0.0-129.0,,0.0,1539.88,0.0,0.40697073,0.0,0.7260142190000001,1.0,0.724461982,0.0,0.522779179,True,,59d49132078dbe00019511c1,,1715542,127,,evan-feature22,full_rf_b,,1
102,36137,128,,,,1,1,0.0,1.0,-1.0,0.0,,0.0-130.0,,0.0,904.685,0.0,0.43906215299999996,1.0,0.7252802340000001,1.0,0.719079934,0.0,0.5712990579999999,True,,59d49132078dbe00019511c1,,1726221,128,,evan-feature22,full_rf_b,,0
103,36138,129,,,,1,1,1.0,1.0,0.0,1.0,,0.0-131.0,,1.0,1148.35,1.0,0.4076705,1.0,0.73280499,1.0,0.681313127,1.0,0.523891346,True,,59d49132078dbe00019511c1,,1737158,129,,evan-feature22,full_rf_b,,0
104,36139,130,,,,1,1,0.0,0.0,0.0,1.0,,0.0-132.0,,0.0,1113.955,0.0,0.399102911,0.0,0.730498344,1.0,0.661080239,0.0,0.46742603,True,,59d49132078dbe00019511c1,,1748042,130,,evan-feature22,full_rf_b,,0
105,36140,131,,,,1,1,1.0,0.0,0.0,1.0,,0.0-133.0,,0.0,946.035,1.0,0.356477282,0.0,0.712296395,1.0,0.641812684,1.0,0.44868414,True,,59d49132078dbe00019511c1,,1758760,131,,evan-feature22,full_rf_b,,0
106,36141,132,,,,1,1,0.0,1.0,-1.0,0.0,,0.0-134.0,,0.0,1639.03,0.0,0.462760722,1.0,0.692349322,0.0,0.700947931,1.0,0.394680266,True,,59d49132078dbe00019511c1,,1770174,132,,evan-feature22,full_rf_b,,0
107,36142,133,,,,2,2,1.0,0.0,-1.0,0.0,,0.0-135.0,,-1.0,969.535,0.0,0.422306413,0.0,0.718375916,1.0,0.706340917,0.0,0.367787185,True,,59d49132078dbe00019511c1,,1780917,133,,evan-feature22,full_rf_b,,1
108,36144,135,,,,1,1,1.0,1.0,-1.0,0.0,,0.0-137.0,,-1.0,1379.375,1.0,0.4582233,1.0,0.643834117,1.0,0.75,0.0,0.39615823299999997,True,,59d49132078dbe00019511c1,,1796417,135,,evan-feature22,full_rf_b,,1
109,36145,136,,,,1,1,0.0,1.0,-1.0,0.0,,0.0-138.0,,0.0,1503.09,0.0,0.43813437899999996,1.0,0.651283804,1.0,0.729674191,0.0,0.37711048,True,,59d49132078dbe00019511c1,,1807689,136,,evan-feature22,full_rf_b,,0
110,36146,137,,,,2,2,1.0,1.0,-1.0,0.0,,0.0-139.0,,-1.0,1123.81,1.0,0.471199094,0.0,0.6470010979999999,1.0,0.715008097,1.0,0.410656191,True,,59d49132078dbe00019511c1,,1818590,137,,evan-feature22,full_rf_b,,1
111,36147,138,,,,1,1,0.0,1.0,-1.0,0.0,,0.0-140.0,,0.0,1703.53,0.0,0.42486406,1.0,0.629771829,0.0,0.6550939960000001,1.0,0.459093873,True,,59d49132078dbe00019511c1,,1830071,138,,evan-feature22,full_rf_b,,1
112,36148,139,,,,1,1,1.0,1.0,-1.0,0.0,,0.0-141.0,,-1.0,845.46,1.0,0.4803197,1.0,0.645842715,1.0,0.6421749920000001,1.0,0.443092151,True,,59d49132078dbe00019511c1,,1840692,139,,evan-feature22,full_rf_b,,0
113,36149,140,,,,1,1,0.0,0.0,0.0,1.0,,0.0-142.0,,0.0,1155.53,0.0,0.521848997,0.0,0.735801074,1.0,0.6691348460000001,1.0,0.45259351600000003,True,,59d49132078dbe00019511c1,,1851615,140,,evan-feature22,full_rf_b,,0
114,36150,141,,,,2,2,1.0,1.0,-1.0,0.0,,0.0-143.0,,-1.0,1990.175,0.0,0.49565621299999996,1.0,0.742400847,1.0,0.661512553,1.0,0.483110831,True,,59d49132078dbe00019511c1,,1863377,141,,evan-feature22,full_rf_b,,1
115,36151,142,,,,2,2,0.0,1.0,-1.0,0.0,,0.0-144.0,,0.0,943.405,0.0,0.521564361,1.0,0.731078632,0.0,0.6774886809999999,1.0,0.483263956,True,,59d49132078dbe00019511c1,,1874093,142,,evan-feature22,full_rf_b,,0
116,36152,143,,,,1,1,0.0,1.0,-1.0,0.0,,0.0-145.0,,0.0,1259.08,0.0,0.558893102,1.0,0.719810023,1.0,0.67461031,1.0,0.499349834,True,,59d49132078dbe00019511c1,,1885126,143,,evan-feature22,full_rf_b,,1
117,36153,144,,,,1,1,1.0,0.0,-1.0,0.0,,0.0-146.0,,-1.0,892.195,1.0,0.611031046,0.0,0.75,1.0,0.688072995,0.0,0.5321422729999999,True,,59d49132078dbe00019511c1,,1895790,144,,evan-feature22,full_rf_b,,0
118,36154,145,,,,1,1,1.0,1.0,0.0,1.0,,0.0-147.0,,1.0,719.36,1.0,0.633223941,1.0,0.713567728,0.0,0.75,0.0,0.48185314700000004,True,,59d49132078dbe00019511c1,,1906289,145,,evan-feature22,full_rf_b,,0
119,36155,146,,,,2,2,1.0,0.0,-1.0,0.0,,0.0-148.0,,-1.0,1512.255,0.0,0.664001694,1.0,0.705509768,1.0,0.75,0.0,0.500211065,True,,59d49132078dbe00019511c1,,1917574,146,,evan-feature22,full_rf_b,,1
120,36156,147,,,,2,2,0.0,0.0,-1.0,0.0,,0.0-149.0,,0.0,796.06,1.0,0.664001694,1.0,0.705509768,0.0,0.75,0.0,0.500211065,True,,59d49132078dbe00019511c1,,1928141,147,,evan-feature22,full_rf_b,,0
121,36157,148,,,,1,1,0.0,1.0,-1.0,0.0,,0.0-150.0,,0.0,986.62,0.0,0.696508041,1.0,0.71066027,1.0,0.717028709,0.0,0.49792991,True,,59d49132078dbe00019511c1,,1938907,148,,evan-feature22,full_rf_b,,1
122,36158,149,,,,1,1,0.0,1.0,0.0,1.0,,0.0-151.0,,1.0,1566.745,0.0,0.699883272,1.0,0.75,0.0,0.713543895,0.0,0.496962643,True,,59d49132078dbe00019511c1,,1950245,149,,evan-feature22,full_rf_b,,0
123,36159,150,,,,1,1,1.0,1.0,0.0,1.0,,0.0-152.0,,1.0,949.57,1.0,0.741163419,1.0,0.75,1.0,0.64691024,1.0,0.513858197,True,,59d49132078dbe00019511c1,,1960966,150,,evan-feature22,full_rf_b,,0
124,36160,151,,,,2,2,0.0,1.0,0.0,1.0,,0.0-153.0,,1.0,590.475,0.0,0.75,1.0,0.70816558,0.0,0.594499079,1.0,0.48502124,True,,59d49132078dbe00019511c1,,1971330,151,,evan-feature22,full_rf_b,,1
125,36161,152,,,,2,2,0.0,0.0,-1.0,0.0,,0.0-154.0,,0.0,894.83,1.0,0.75,1.0,0.721848901,0.0,0.62197249,0.0,0.48263586399999997,True,,59d49132078dbe00019511c1,,1981999,152,,evan-feature22,full_rf_b,,0
126,36162,153,,,,2,2,1.0,0.0,-1.0,0.0,,0.0-155.0,,-1.0,856.235,0.0,0.75,0.0,0.74813071,1.0,0.584357161,0.0,0.411477782,True,,59d49132078dbe00019511c1,,1992628,153,,evan-feature22,full_rf_b,,0
127,36163,154,,,,1,1,1.0,0.0,-1.0,0.0,,0.0-156.0,,-1.0,1026.41,1.0,0.75,0.0,0.75,1.0,0.52287236,1.0,0.488290656,True,,59d49132078dbe00019511c1,,2003428,154,,evan-feature22,full_rf_b,,1
128,36164,155,,,,1,1,0.0,1.0,-1.0,0.0,,0.0-157.0,,0.0,868.165,0.0,0.75,1.0,0.75,1.0,0.544321581,1.0,0.53143059,True,,59d49132078dbe00019511c1,,2014072,155,,evan-feature22,full_rf_b,,0
129,36165,156,,,,1,1,1.0,1.0,-1.0,0.0,,0.0-158.0,,-1.0,1393.77,1.0,0.726754564,1.0,0.75,1.0,0.5129306370000001,1.0,0.530592445,True,,59d49132078dbe00019511c1,,2025243,156,,evan-feature22,full_rf_b,,0
130,36166,157,,,,1,1,1.0,1.0,0.0,1.0,,0.0-159.0,,1.0,1077.525,1.0,0.75,1.0,0.7392590729999999,1.0,0.479875835,0.0,0.547007051,True,,59d49132078dbe00019511c1,,2036098,157,,evan-feature22,full_rf_b,,0
131,36167,158,,,,2,2,0.0,1.0,0.0,1.0,,0.0-160.0,,1.0,900.24,1.0,0.75,1.0,0.7393376979999999,0.0,0.546045419,1.0,0.541267353,True,,59d49132078dbe00019511c1,,2046779,158,,evan-feature22,full_rf_b,,1
132,36168,159,,,,1,1,1.0,1.0,-1.0,0.0,,0.0-161.0,,-1.0,1581.095,1.0,0.75,1.0,0.75,0.0,0.485725895,1.0,0.527625395,True,,59d49132078dbe00019511c1,,2058139,159,,evan-feature22,full_rf_b,,1
133,36169,160,,,,1,1,0.0,1.0,0.0,1.0,,0.0-162.0,,1.0,1021.335,0.0,0.75,1.0,0.725087974,1.0,0.488603595,0.0,0.504019206,True,,59d49132078dbe00019511c1,,2068939,160,,evan-feature22,full_rf_b,,0
134,36170,161,,,,1,1,1.0,1.0,-1.0,0.0,,0.0-163.0,,-1.0,1214.905,1.0,0.745504295,1.0,0.75,0.0,0.452379914,1.0,0.50131194,True,,59d49132078dbe00019511c1,,2079929,161,,evan-feature22,full_rf_b,,0
135,36171,162,,,,1,1,1.0,1.0,0.0,1.0,,0.0-164.0,,1.0,1261.525,1.0,0.728513874,1.0,0.75,1.0,0.44125567200000004,1.0,0.531454591,True,,59d49132078dbe00019511c1,,2090977,162,,evan-feature22,full_rf_b,,0
136,36172,163,,,,2,2,0.0,1.0,-1.0,0.0,,0.0-165.0,,0.0,827.43,1.0,0.73790804,0.0,0.75,0.0,0.413036656,1.0,0.524619035,True,,59d49132078dbe00019511c1,,2101590,163,,evan-feature22,full_rf_b,,1
137,36173,164,,,,2,2,1.0,0.0,-1.0,0.0,,0.0-166.0,,-1.0,1090.335,1.0,0.7080961309999999,1.0,0.708666865,1.0,0.431915581,0.0,0.481819489,True,,59d49132078dbe00019511c1,,2112456,164,,evan-feature22,full_rf_b,,0
138,36174,165,,,,1,1,1.0,1.0,-1.0,0.0,,0.0-167.0,,-1.0,1240.45,1.0,0.721378003,1.0,0.71605913,1.0,0.36642387,1.0,0.5036739929999999,True,,59d49132078dbe00019511c1,,2123473,165,,evan-feature22,full_rf_b,,1
139,36175,166,,,,1,1,1.0,1.0,0.0,1.0,,0.0-168.0,,1.0,775.905,1.0,0.7340618959999999,1.0,0.699323252,0.0,0.35298046299999997,1.0,0.511241692,True,,59d49132078dbe00019511c1,,2134023,166,,evan-feature22,full_rf_b,,0
140,36176,167,,,,1,1,1.0,1.0,0.0,1.0,,0.0-169.0,,1.0,973.26,1.0,0.75,1.0,0.70412698,1.0,0.380734814,1.0,0.529580116,True,,59d49132078dbe00019511c1,,2144776,167,,evan-feature22,full_rf_b,,0
141,36177,168,,,,2,2,1.0,1.0,0.0,1.0,,0.0-170.0,,1.0,1294.235,1.0,0.7436654909999999,1.0,0.711182751,1.0,0.41125331,1.0,0.49554405,True,,59d49132078dbe00019511c1,,2155852,168,,evan-feature22,full_rf_b,,1
142,36178,169,,,,2,2,0.0,0.0,-1.0,0.0,,0.0-171.0,,0.0,1310.565,1.0,0.731607915,0.0,0.651774583,0.0,0.35688023,0.0,0.45194491600000003,True,,59d49132078dbe00019511c1,,2166932,169,,evan-feature22,full_rf_b,,0
143,36179,170,,,,2,2,1.0,0.0,0.0,1.0,,0.0-172.0,,0.0,1979.73,0.0,0.75,1.0,0.75,1.0,0.283145374,0.0,0.528608005,True,,59d49132078dbe00019511c1,,2178687,170,,evan-feature22,full_rf_b,,0
144,36180,171,,,,2,2,1.0,1.0,-1.0,0.0,,0.0-173.0,,-1.0,819.275,1.0,0.7491416890000001,1.0,0.7423785959999999,1.0,0.29135870399999997,1.0,0.498888318,True,,59d49132078dbe00019511c1,,2189283,171,,evan-feature22,full_rf_b,,0
145,36181,172,,,,1,1,1.0,1.0,0.0,1.0,,0.0-174.0,,1.0,882.815,1.0,0.708569387,1.0,0.717682277,0.0,0.294421699,0.0,0.493838163,True,,59d49132078dbe00019511c1,,2199941,172,,evan-feature22,full_rf_b,,1
146,36182,173,,,,1,1,0.0,1.0,-1.0,0.0,,0.0-175.0,,0.0,1227.225,0.0,0.75,1.0,0.7383382159999999,1.0,0.356098707,1.0,0.442533405,True,,59d49132078dbe00019511c1,,2210938,173,,evan-feature22,full_rf_b,,0
147,36183,174,,,,1,1,0.0,1.0,-1.0,0.0,,0.0-176.0,,0.0,1580.44,0.0,0.744527075,1.0,0.75,0.0,0.334127506,0.0,0.393165805,True,,59d49132078dbe00019511c1,,2222292,174,,evan-feature22,full_rf_b,,0
148,36184,175,,,,1,1,0.0,0.0,-1.0,0.0,,0.0-177.0,,0.0,1176.78,0.0,0.75,0.0,0.75,0.0,0.33571021799999995,0.0,0.350393962,True,,59d49132078dbe00019511c1,,2233236,175,,evan-feature22,full_rf_b,,0
149,36185,176,,,,2,2,1.0,0.0,0.0,1.0,,0.0-178.0,,0.0,1166.16,1.0,0.75,1.0,0.75,1.0,0.313628297,0.0,0.36349657399999996,True,,59d49132078dbe00019511c1,,2244186,176,,evan-feature22,full_rf_b,,1
150,36186,177,,,,2,2,0.0,1.0,-1.0,0.0,,0.0-179.0,,0.0,1561.955,1.0,0.75,1.0,0.734284182,0.0,0.262667667,1.0,0.380199119,True,,59d49132078dbe00019511c1,,2255525,177,,evan-feature22,full_rf_b,,0
151,36187,178,,,,1,1,1.0,1.0,-1.0,0.0,,0.0-180.0,,-1.0,1214.28,1.0,0.75,1.0,0.75,0.0,0.25,1.0,0.394494013,True,,59d49132078dbe00019511c1,,2266526,178,,evan-feature22,full_rf_b,,1
152,36188,179,,,,1,1,0.0,1.0,-1.0,0.0,,0.0-181.0,,0.0,805.9,0.0,0.722298145,1.0,0.7357822340000001,0.0,0.25,1.0,0.319142121,True,,59d49132078dbe00019511c1,,2277112,179,,evan-feature22,full_rf_b,,0
153,36189,180,,,,1,1,1.0,1.0,-1.0,0.0,,0.0-182.0,,-1.0,1440.605,1.0,0.73149275,1.0,0.724276446,0.0,0.305856907,0.0,0.281315057,True,,59d49132078dbe00019511c1,,2288326,180,,evan-feature22,full_rf_b,,0
154,36190,181,,,,SLOW,SLOW,,,-1.0,0.0,,0.0-183.0,,-3.0,,1.0,0.7458732690000001,0.0,0.7336382459999999,1.0,0.272571964,0.0,0.266021999,True,,59d49132078dbe00019511c1,,2294136,181,,evan-feature22,full_rf_b,,1
155,36191,182,,,,1,1,1.0,1.0,0.0,1.0,,0.0-184.0,,1.0,1198.405,1.0,0.705579037,1.0,0.720778292,1.0,0.320238144,1.0,0.30971744,True,,59d49132078dbe00019511c1,,2305108,182,,evan-feature22,full_rf_b,,1
156,36192,183,,,,1,1,0.0,0.0,0.0,1.0,,0.0-185.0,,0.0,1542.57,0.0,0.700425648,0.0,0.7198784009999999,0.0,0.272590393,0.0,0.304182931,True,,59d49132078dbe00019511c1,,2316418,183,,evan-feature22,full_rf_b,,0
157,36193,184,,,,1,1,1.0,1.0,0.0,1.0,,0.0-186.0,,1.0,1082.805,1.0,0.735590785,1.0,0.722714973,0.0,0.25,0.0,0.323421091,True,,59d49132078dbe00019511c1,,2327278,184,,evan-feature22,full_rf_b,,0
158,36194,185,,,,2,2,0.0,1.0,0.0,1.0,,0.0-187.0,,1.0,899.21,1.0,0.724807662,1.0,0.63146213,0.0,0.36836492600000004,1.0,0.34592153299999995,True,,59d49132078dbe00019511c1,,2337949,185,,evan-feature22,full_rf_b,,1
159,36195,186,,,,2,2,1.0,0.0,-1.0,0.0,,0.0-188.0,,-1.0,856.3400001,1.0,0.7352796909999999,1.0,0.555111392,1.0,0.36003922,0.0,0.31433779999999995,True,,59d49132078dbe00019511c1,,2348576,186,,evan-feature22,full_rf_b,,0
160,36196,187,notice,,,,,,,,,,0.0-189.0,"{""Q0"":""no""}",,12461.0,,,,,,,,,True,,59d49132078dbe00019511c1,,2361041,187,Q,survey-text,full_rf_b,,1
161,36197,188,track1,,[1],,,,,,,,0.0-190.0,"{""Q0"":""no""}",,5375.0,,,,,,,,,True,,59d49132078dbe00019511c1,,2366427,188,Q,evan-quiz,full_rf_b,,1
162,36198,189,track2,,[0],,,,,,,,0.0-191.0,"{""Q0"":""yes""}",,6567.0,,,,,,,,,True,,59d49132078dbe00019511c1,,2373000,189,Q,evan-quiz,full_rf_b,,1
163,36199,190,strat,,,,,,,,,,0.0-192.0,"{""Q0"":""averages""}",,14861.0,,,,,,,,,True,,59d49132078dbe00019511c1,,2387865,190,Q,survey-text,full_rf_b,,1
