,index,Unnamed: 0,Q_name,button_pressed,choice_idxs,chosen_pos,chosen_state,chosen_state_f_1_outcome,chosen_state_f_2_outcome,f_1_reward,f_2_reward,incor_questions,internal_node_id,responses,reward_received,rt,s_1_f_1_outcome,s_1_f_1_prob,s_1_f_2_outcome,s_1_f_2_prob,s_2_f_1_outcome,s_2_f_1_prob,s_2_f_2_outcome,s_2_f_2_prob,safe_first,stimulus,subjectID,success,time_elapsed,trial_index,trial_num,trial_type,version,view_history,switching
0,35843,30,,,,1,1,1.0,1.0,0.0,-1.0,,0.0-27.0,,-1.0,1757.89,1.0,0.6,1.0,0.6,0.0,0.4,1.0,0.4,False,,5f633d376c60233e5dfe5e47,,570842,30,,evan-feature22,full_pf_a,,0
1,35844,31,,,,2,2,1.0,0.0,0.0,-1.0,,0.0-28.0,,0.0,568.7750001,1.0,0.608053294,1.0,0.63424552,1.0,0.397152172,0.0,0.347069101,False,,5f633d376c60233e5dfe5e47,,581213,31,,evan-feature22,full_pf_a,,1
2,35845,32,,,,2,2,0.0,1.0,0.0,-1.0,,0.0-29.0,,-1.0,383.84,1.0,0.642237155,1.0,0.648566321,0.0,0.389407674,1.0,0.285525717,False,,5f633d376c60233e5dfe5e47,,591394,32,,evan-feature22,full_pf_a,,0
3,35846,33,,,,2,2,0.0,0.0,0.0,-1.0,,0.0-30.0,,0.0,460.54000010000004,1.0,0.661086576,1.0,0.630492543,0.0,0.399058924,0.0,0.25,False,,5f633d376c60233e5dfe5e47,,601680,33,,evan-feature22,full_pf_a,,0
4,35847,34,,,,2,2,0.0,1.0,0.0,-1.0,,0.0-31.0,,-1.0,757.275,1.0,0.631324137,1.0,0.6269842929999999,0.0,0.38734784299999997,1.0,0.25,False,,5f633d376c60233e5dfe5e47,,612251,34,,evan-feature22,full_pf_a,,0
5,35848,35,,,,2,2,0.0,0.0,0.0,-1.0,,0.0-32.0,,0.0,427.5200001,1.0,0.6381991370000001,0.0,0.68987999,0.0,0.384107265,0.0,0.271332943,False,,5f633d376c60233e5dfe5e47,,622522,35,,evan-feature22,full_pf_a,,0
6,35849,36,,,,1,1,0.0,1.0,0.0,-1.0,,0.0-33.0,,-1.0,407.9850002,0.0,0.66034901,1.0,0.742641349,0.0,0.360225629,1.0,0.25,False,,5f633d376c60233e5dfe5e47,,632743,36,,evan-feature22,full_pf_a,,1
7,35850,37,,,,2,2,1.0,0.0,1.0,0.0,,0.0-34.0,,1.0,379.16,1.0,0.638612418,1.0,0.75,1.0,0.367273939,0.0,0.25,False,,5f633d376c60233e5dfe5e47,,642932,37,,evan-feature22,full_pf_a,,1
8,35851,38,,,,2,2,0.0,1.0,0.0,-1.0,,0.0-35.0,,-1.0,336.51499989999996,1.0,0.624340629,1.0,0.75,0.0,0.425829545,1.0,0.25,False,,5f633d376c60233e5dfe5e47,,653066,38,,evan-feature22,full_pf_a,,0
9,35852,39,,,,1,1,1.0,1.0,0.0,-1.0,,0.0-36.0,,-1.0,345.5349999,1.0,0.621999804,1.0,0.75,0.0,0.368609357,0.0,0.25,False,,5f633d376c60233e5dfe5e47,,663235,39,,evan-feature22,full_pf_a,,1
10,35853,40,,,,1,1,1.0,1.0,1.0,0.0,,0.0-37.0,,1.0,952.6,1.0,0.62666403,1.0,0.75,0.0,0.311151498,1.0,0.25,False,,5f633d376c60233e5dfe5e47,,674008,40,,evan-feature22,full_pf_a,,0
11,35854,41,,,,1,1,1.0,1.0,1.0,0.0,,0.0-38.0,,1.0,1014.395,1.0,0.6819650009999999,1.0,0.75,1.0,0.310763048,0.0,0.25,False,,5f633d376c60233e5dfe5e47,,684842,41,,evan-feature22,full_pf_a,,0
12,35855,42,,,,2,2,1.0,1.0,0.0,-1.0,,0.0-39.0,,-1.0,721.65,1.0,0.740626951,1.0,0.75,1.0,0.25,1.0,0.25,False,,5f633d376c60233e5dfe5e47,,695385,42,,evan-feature22,full_pf_a,,1
13,35856,43,,,,2,2,0.0,0.0,0.0,-1.0,,0.0-40.0,,0.0,416.98,1.0,0.739599242,1.0,0.742034978,0.0,0.25397114600000004,0.0,0.25,False,,5f633d376c60233e5dfe5e47,,705621,43,,evan-feature22,full_pf_a,,0
14,35857,44,,,,2,2,0.0,0.0,0.0,-1.0,,0.0-41.0,,0.0,358.25999989999997,1.0,0.732341315,0.0,0.72735643,0.0,0.25,0.0,0.25,False,,5f633d376c60233e5dfe5e47,,715792,44,,evan-feature22,full_pf_a,,0
15,35858,45,,,,2,2,1.0,1.0,0.0,-1.0,,0.0-42.0,,-1.0,340.5800001,0.0,0.7062287770000001,1.0,0.75,1.0,0.29002151,1.0,0.288256649,False,,5f633d376c60233e5dfe5e47,,725962,45,,evan-feature22,full_pf_a,,0
16,35859,46,,,,1,1,1.0,1.0,1.0,0.0,,0.0-43.0,,1.0,333.0900001,1.0,0.7086029209999999,1.0,0.75,1.0,0.274129113,1.0,0.262851608,False,,5f633d376c60233e5dfe5e47,,736096,46,,evan-feature22,full_pf_a,,1
17,35860,47,,,,1,1,1.0,1.0,0.0,-1.0,,0.0-44.0,,-1.0,621.8750002,1.0,0.669189651,1.0,0.727614338,0.0,0.298444036,0.0,0.296944518,False,,5f633d376c60233e5dfe5e47,,746543,47,,evan-feature22,full_pf_a,,0
18,35861,48,,,,2,2,0.0,1.0,1.0,0.0,,0.0-45.0,,0.0,506.5549999,1.0,0.6819912929999999,0.0,0.7179434290000001,0.0,0.265003961,1.0,0.28157921199999997,False,,5f633d376c60233e5dfe5e47,,756878,48,,evan-feature22,full_pf_a,,1
19,35862,49,,,,2,2,0.0,0.0,1.0,0.0,,0.0-46.0,,0.0,507.6550001,1.0,0.665275002,1.0,0.723065271,0.0,0.260414971,0.0,0.30973870000000003,False,,5f633d376c60233e5dfe5e47,,767214,49,,evan-feature22,full_pf_a,,0
20,35863,50,,,,2,2,0.0,1.0,0.0,-1.0,,0.0-47.0,,-1.0,402.025,0.0,0.6660593260000001,0.0,0.728032907,0.0,0.30922817,1.0,0.338778608,False,,5f633d376c60233e5dfe5e47,,777447,50,,evan-feature22,full_pf_a,,0
21,35864,51,,,,1,1,1.0,0.0,0.0,-1.0,,0.0-48.0,,0.0,456.86,1.0,0.702068785,0.0,0.6528750879999999,0.0,0.287329608,1.0,0.35789613200000003,False,,5f633d376c60233e5dfe5e47,,787705,51,,evan-feature22,full_pf_a,,1
22,35865,52,,,,1,1,0.0,0.0,0.0,-1.0,,0.0-49.0,,0.0,330.32,0.0,0.651939787,0.0,0.636725589,0.0,0.284834488,1.0,0.358563756,False,,5f633d376c60233e5dfe5e47,,797863,52,,evan-feature22,full_pf_a,,0
23,35866,53,,,,1,1,1.0,0.0,0.0,-1.0,,0.0-50.0,,0.0,536.935,1.0,0.67573929,0.0,0.612550049,0.0,0.37130387600000003,1.0,0.383542402,False,,5f633d376c60233e5dfe5e47,,808208,53,,evan-feature22,full_pf_a,,0
24,35867,54,,,,1,1,1.0,1.0,0.0,-1.0,,0.0-51.0,,-1.0,542.11,1.0,0.620753801,1.0,0.60513644,0.0,0.385529434,0.0,0.340361743,False,,5f633d376c60233e5dfe5e47,,818558,54,,evan-feature22,full_pf_a,,0
25,35868,55,,,,2,2,0.0,0.0,1.0,0.0,,0.0-52.0,,0.0,465.24,0.0,0.673564893,1.0,0.672437924,0.0,0.292955382,0.0,0.337633795,False,,5f633d376c60233e5dfe5e47,,828837,55,,evan-feature22,full_pf_a,,1
26,35869,56,,,,2,2,0.0,0.0,0.0,-1.0,,0.0-53.0,,0.0,522.225,1.0,0.6749427,1.0,0.724197502,0.0,0.32391132100000003,0.0,0.350995264,False,,5f633d376c60233e5dfe5e47,,839168,56,,evan-feature22,full_pf_a,,0
27,35870,57,,,,2,2,0.0,0.0,0.0,-1.0,,0.0-54.0,,0.0,465.475,1.0,0.6940159379999999,0.0,0.75,0.0,0.31710554399999996,0.0,0.413450341,False,,5f633d376c60233e5dfe5e47,,849457,57,,evan-feature22,full_pf_a,,0
28,35871,58,,,,1,1,1.0,1.0,0.0,-1.0,,0.0-55.0,,-1.0,483.8400001,1.0,0.6916018270000001,1.0,0.69001187,0.0,0.261817804,0.0,0.40038635,False,,5f633d376c60233e5dfe5e47,,859768,58,,evan-feature22,full_pf_a,,1
29,35872,59,,,,2,2,0.0,1.0,0.0,-1.0,,0.0-56.0,,-1.0,563.9799998999999,1.0,0.641061544,1.0,0.71337992,0.0,0.277296461,1.0,0.47372791700000005,False,,5f633d376c60233e5dfe5e47,,870129,59,,evan-feature22,full_pf_a,,1
30,35873,60,,,,1,1,0.0,1.0,0.0,-1.0,,0.0-57.0,,-1.0,592.375,0.0,0.6082438520000001,1.0,0.708471106,0.0,0.28745137,0.0,0.564174476,False,,5f633d376c60233e5dfe5e47,,880544,60,,evan-feature22,full_pf_a,,1
31,35874,61,,,,1,1,1.0,1.0,1.0,0.0,,0.0-58.0,,1.0,463.86,1.0,0.6051112120000001,1.0,0.7118147229999999,0.0,0.272390611,0.0,0.5595149939999999,False,,5f633d376c60233e5dfe5e47,,890835,61,,evan-feature22,full_pf_a,,0
32,35875,62,,,,1,1,1.0,0.0,1.0,0.0,,0.0-59.0,,1.0,381.0950001,1.0,0.582420852,0.0,0.635867583,1.0,0.31089574,1.0,0.5227206520000001,False,,5f633d376c60233e5dfe5e47,,901046,62,,evan-feature22,full_pf_a,,0
33,35876,63,,,,1,1,0.0,1.0,1.0,0.0,,0.0-60.0,,0.0,416.89,0.0,0.623195575,1.0,0.655026044,0.0,0.25,1.0,0.560387538,False,,5f633d376c60233e5dfe5e47,,911301,63,,evan-feature22,full_pf_a,,0
34,35877,64,,,,2,2,0.0,1.0,0.0,-1.0,,0.0-61.0,,-1.0,486.4650001,1.0,0.601889598,1.0,0.678198724,0.0,0.25,1.0,0.559922936,False,,5f633d376c60233e5dfe5e47,,921603,64,,evan-feature22,full_pf_a,,1
35,35878,65,,,,2,2,0.0,1.0,1.0,0.0,,0.0-62.0,,0.0,475.635,0.0,0.601259914,0.0,0.704681482,0.0,0.33908969299999997,1.0,0.505003715,False,,5f633d376c60233e5dfe5e47,,931891,65,,evan-feature22,full_pf_a,,0
36,35879,66,,,,2,2,0.0,0.0,1.0,0.0,,0.0-63.0,,0.0,465.695,0.0,0.59645454,1.0,0.710437172,0.0,0.327441879,0.0,0.391749613,False,,5f633d376c60233e5dfe5e47,,942166,66,,evan-feature22,full_pf_a,,0
37,35880,67,,,,2,2,1.0,0.0,0.0,-1.0,,0.0-64.0,,0.0,566.9450001,0.0,0.529473,1.0,0.636758527,1.0,0.301338063,0.0,0.365661481,False,,5f633d376c60233e5dfe5e47,,952559,67,,evan-feature22,full_pf_a,,0
38,35881,68,,,,2,2,0.0,0.0,1.0,0.0,,0.0-65.0,,0.0,1038.77,1.0,0.541657162,1.0,0.634541962,0.0,0.343535366,0.0,0.371763742,False,,5f633d376c60233e5dfe5e47,,963391,68,,evan-feature22,full_pf_a,,0
39,35882,69,,,,2,2,0.0,0.0,1.0,0.0,,0.0-66.0,,0.0,542.715,1.0,0.5707533260000001,0.0,0.589121171,0.0,0.326428396,0.0,0.43961622899999997,False,,5f633d376c60233e5dfe5e47,,973761,69,,evan-feature22,full_pf_a,,0
40,35883,70,,,,2,2,1.0,0.0,0.0,-1.0,,0.0-67.0,,0.0,626.6399999,0.0,0.5707533260000001,0.0,0.589121171,1.0,0.326428396,0.0,0.43961622899999997,False,,5f633d376c60233e5dfe5e47,,984189,70,,evan-feature22,full_pf_a,,0
41,35884,71,,,,1,1,1.0,0.0,0.0,-1.0,,0.0-68.0,,0.0,1293.285,1.0,0.506271295,0.0,0.641775594,0.0,0.37149690700000004,0.0,0.404330166,False,,5f633d376c60233e5dfe5e47,,995317,71,,evan-feature22,full_pf_a,,1
42,35885,72,,,,1,1,0.0,1.0,1.0,0.0,,0.0-69.0,,0.0,551.2850001,0.0,0.455642565,1.0,0.623605825,0.0,0.358753011,0.0,0.346174041,False,,5f633d376c60233e5dfe5e47,,1005705,72,,evan-feature22,full_pf_a,,0
43,35886,73,,,,1,1,0.0,1.0,0.0,-1.0,,0.0-70.0,,-1.0,573.5449997999999,0.0,0.483677308,1.0,0.5904681070000001,1.0,0.402218411,0.0,0.35344697,False,,5f633d376c60233e5dfe5e47,,1016105,73,,evan-feature22,full_pf_a,,0
44,35887,74,,,,2,2,1.0,0.0,1.0,0.0,,0.0-71.0,,1.0,501.45999989999996,0.0,0.394210977,1.0,0.558925494,1.0,0.540052017,0.0,0.35182128700000004,False,,5f633d376c60233e5dfe5e47,,1026439,74,,evan-feature22,full_pf_a,,1
45,35888,75,,,,2,2,0.0,0.0,0.0,-1.0,,0.0-72.0,,0.0,535.535,1.0,0.382300414,0.0,0.577670603,0.0,0.607608448,0.0,0.378261578,False,,5f633d376c60233e5dfe5e47,,1036783,75,,evan-feature22,full_pf_a,,0
46,35889,76,,,,2,2,1.0,0.0,1.0,0.0,,0.0-73.0,,1.0,1153.24,1.0,0.357596762,0.0,0.5929076529999999,1.0,0.6579790010000001,0.0,0.401326777,False,,5f633d376c60233e5dfe5e47,,1047749,76,,evan-feature22,full_pf_a,,0
47,35890,77,,,,2,2,1.0,0.0,0.0,-1.0,,0.0-74.0,,0.0,462.29500020000006,1.0,0.362033495,1.0,0.582308608,1.0,0.649195052,0.0,0.355158505,False,,5f633d376c60233e5dfe5e47,,1058031,77,,evan-feature22,full_pf_a,,0
48,35891,78,,,,2,2,1.0,1.0,0.0,-1.0,,0.0-75.0,,-1.0,433.305,0.0,0.369620635,1.0,0.669100864,1.0,0.706059111,1.0,0.362516241,False,,5f633d376c60233e5dfe5e47,,1068293,78,,evan-feature22,full_pf_a,,0
49,35892,79,,,,1,1,1.0,1.0,0.0,-1.0,,0.0-76.0,,-1.0,621.9949999,1.0,0.41477751399999996,1.0,0.7284416779999999,0.0,0.7182656940000001,0.0,0.36228040899999997,False,,5f633d376c60233e5dfe5e47,,1078738,79,,evan-feature22,full_pf_a,,1
50,35893,80,,,,2,2,1.0,0.0,1.0,0.0,,0.0-77.0,,1.0,1249.28,0.0,0.37675460299999997,1.0,0.703250285,1.0,0.75,0.0,0.461979164,False,,5f633d376c60233e5dfe5e47,,1089785,80,,evan-feature22,full_pf_a,,1
51,35894,81,,,,2,2,1.0,1.0,1.0,0.0,,0.0-78.0,,1.0,2596.28,0.0,0.398716075,1.0,0.6723864890000001,1.0,0.674153818,1.0,0.519029516,False,,5f633d376c60233e5dfe5e47,,1102204,81,,evan-feature22,full_pf_a,,0
52,35895,82,,,,2,2,1.0,0.0,1.0,0.0,,0.0-79.0,,1.0,404.26,0.0,0.34677856700000004,1.0,0.69057175,1.0,0.6822438540000001,0.0,0.477292237,False,,5f633d376c60233e5dfe5e47,,1112436,82,,evan-feature22,full_pf_a,,0
53,35896,83,,,,1,1,0.0,1.0,0.0,-1.0,,0.0-80.0,,-1.0,486.7100001,0.0,0.28580469199999997,1.0,0.68408818,1.0,0.684207565,0.0,0.49780448299999996,False,,5f633d376c60233e5dfe5e47,,1122770,83,,evan-feature22,full_pf_a,,1
54,35898,85,,,,2,2,1.0,0.0,0.0,-1.0,,0.0-82.0,,0.0,1139.165,0.0,0.25,1.0,0.7405808970000001,1.0,0.679614108,0.0,0.436436964,False,,5f633d376c60233e5dfe5e47,,1150233,85,,evan-feature22,full_pf_a,,1
55,35899,86,,,,2,2,1.0,1.0,0.0,-1.0,,0.0-83.0,,-1.0,448.7399999,0.0,0.29890393,0.0,0.730505706,1.0,0.7328203320000001,1.0,0.439256938,False,,5f633d376c60233e5dfe5e47,,1160490,86,,evan-feature22,full_pf_a,,0
56,35900,87,,,,1,1,0.0,1.0,1.0,0.0,,0.0-84.0,,0.0,527.585,0.0,0.326762398,1.0,0.7148059609999999,1.0,0.75,0.0,0.44389608799999997,False,,5f633d376c60233e5dfe5e47,,1170819,87,,evan-feature22,full_pf_a,,1
57,35901,88,,,,1,1,1.0,1.0,0.0,-1.0,,0.0-85.0,,-1.0,1377.28,1.0,0.295168515,1.0,0.739760854,1.0,0.719947008,0.0,0.35277284600000003,False,,5f633d376c60233e5dfe5e47,,1182012,88,,evan-feature22,full_pf_a,,0
58,35902,89,,,,2,2,0.0,0.0,0.0,-1.0,,0.0-86.0,,0.0,668.1499997999999,1.0,0.25,1.0,0.70781482,0.0,0.75,0.0,0.286095925,False,,5f633d376c60233e5dfe5e47,,1192505,89,,evan-feature22,full_pf_a,,1
59,35903,90,,,,2,2,1.0,1.0,0.0,-1.0,,0.0-87.0,,-1.0,609.195,0.0,0.25638190899999996,1.0,0.704088163,1.0,0.75,1.0,0.26872601399999996,False,,5f633d376c60233e5dfe5e47,,1202902,90,,evan-feature22,full_pf_a,,0
60,35904,91,,,,2,2,1.0,0.0,1.0,0.0,,0.0-88.0,,1.0,442.45,0.0,0.271581126,1.0,0.669760107,1.0,0.733896663,0.0,0.273244572,False,,5f633d376c60233e5dfe5e47,,1213143,91,,evan-feature22,full_pf_a,,0
61,35905,92,,,,2,2,1.0,1.0,0.0,-1.0,,0.0-89.0,,-1.0,690.7550001,1.0,0.257144401,1.0,0.600575706,1.0,0.74488122,1.0,0.25,False,,5f633d376c60233e5dfe5e47,,1223687,92,,evan-feature22,full_pf_a,,0
62,35906,93,,,,1,1,0.0,0.0,0.0,-1.0,,0.0-90.0,,0.0,507.345,0.0,0.25,0.0,0.616870026,1.0,0.723610234,0.0,0.25,False,,5f633d376c60233e5dfe5e47,,1233994,93,,evan-feature22,full_pf_a,,1
63,35907,94,,,,1,1,0.0,1.0,1.0,0.0,,0.0-91.0,,0.0,762.045,0.0,0.25,1.0,0.583540187,0.0,0.7041042559999999,0.0,0.285961995,False,,5f633d376c60233e5dfe5e47,,1244570,94,,evan-feature22,full_pf_a,,0
64,35908,95,,,,1,1,0.0,1.0,1.0,0.0,,0.0-92.0,,0.0,984.34,0.0,0.27254536,1.0,0.53875765,0.0,0.693783448,0.0,0.284961652,False,,5f633d376c60233e5dfe5e47,,1255367,95,,evan-feature22,full_pf_a,,0
65,35909,96,,,,1,1,1.0,1.0,1.0,0.0,,0.0-93.0,,1.0,601.4100001,1.0,0.25,1.0,0.548431252,0.0,0.734221895,1.0,0.279445214,False,,5f633d376c60233e5dfe5e47,,1265762,96,,evan-feature22,full_pf_a,,0
66,35910,97,,,,1,1,0.0,0.0,0.0,-1.0,,0.0-94.0,,0.0,703.9050001,0.0,0.258640684,0.0,0.545878066,0.0,0.725245965,1.0,0.31487537,False,,5f633d376c60233e5dfe5e47,,1276277,97,,evan-feature22,full_pf_a,,0
67,35911,98,,,,1,1,1.0,0.0,0.0,-1.0,,0.0-95.0,,0.0,485.48,1.0,0.251103711,0.0,0.5776290629999999,0.0,0.696320133,1.0,0.317831047,False,,5f633d376c60233e5dfe5e47,,1286573,98,,evan-feature22,full_pf_a,,0
68,35912,99,,,,2,2,1.0,0.0,0.0,-1.0,,0.0-96.0,,0.0,506.085,1.0,0.276630292,0.0,0.617329858,1.0,0.73838088,0.0,0.261471582,False,,5f633d376c60233e5dfe5e47,,1296891,99,,evan-feature22,full_pf_a,,1
69,35913,100,,,,2,2,0.0,0.0,0.0,-1.0,,0.0-97.0,,0.0,541.2299998999999,0.0,0.297716424,1.0,0.618863717,0.0,0.7402358259999999,0.0,0.262600834,False,,5f633d376c60233e5dfe5e47,,1307225,100,,evan-feature22,full_pf_a,,0
70,35914,101,,,,2,2,1.0,1.0,1.0,0.0,,0.0-98.0,,1.0,518.435,0.0,0.290935512,0.0,0.695370945,1.0,0.706570507,1.0,0.280030553,False,,5f633d376c60233e5dfe5e47,,1317542,101,,evan-feature22,full_pf_a,,0
71,35915,102,,,,2,2,1.0,0.0,0.0,-1.0,,0.0-99.0,,0.0,465.8300001,1.0,0.25,0.0,0.6465277079999999,1.0,0.67766682,0.0,0.25,False,,5f633d376c60233e5dfe5e47,,1327831,102,,evan-feature22,full_pf_a,,0
72,35916,103,,,,2,2,1.0,0.0,1.0,0.0,,0.0-100.0,,1.0,579.3700002,0.0,0.26463816,1.0,0.636100213,1.0,0.646048507,0.0,0.265607101,False,,5f633d376c60233e5dfe5e47,,1338222,103,,evan-feature22,full_pf_a,,0
73,35917,104,,,,1,1,0.0,1.0,1.0,0.0,,0.0-101.0,,0.0,3374.245,0.0,0.314340707,1.0,0.667795927,1.0,0.613630805,0.0,0.25,False,,5f633d376c60233e5dfe5e47,,1351432,104,,evan-feature22,full_pf_a,,1
74,35918,105,,,,2,2,1.0,0.0,0.0,-1.0,,0.0-102.0,,0.0,607.3699999,0.0,0.28685784,0.0,0.6622549529999999,1.0,0.652154117,0.0,0.25,False,,5f633d376c60233e5dfe5e47,,1361861,105,,evan-feature22,full_pf_a,,1
75,35919,106,,,,2,2,0.0,1.0,0.0,-1.0,,0.0-103.0,,-1.0,749.57,0.0,0.304106554,1.0,0.631289538,0.0,0.707041942,1.0,0.29314237,False,,5f633d376c60233e5dfe5e47,,1372451,106,,evan-feature22,full_pf_a,,0
76,35920,107,,,,1,1,0.0,0.0,0.0,-1.0,,0.0-104.0,,0.0,2096.93,0.0,0.304806932,0.0,0.571167718,0.0,0.680472346,0.0,0.25,False,,5f633d376c60233e5dfe5e47,,1384375,107,,evan-feature22,full_pf_a,,1
77,35921,108,,,,1,1,0.0,1.0,0.0,-1.0,,0.0-105.0,,-1.0,491.065,0.0,0.37919861,1.0,0.5724849710000001,1.0,0.705638003,1.0,0.30179300600000003,False,,5f633d376c60233e5dfe5e47,,1394696,108,,evan-feature22,full_pf_a,,0
78,35922,109,,,,2,2,1.0,0.0,0.0,-1.0,,0.0-106.0,,0.0,539.7350001,0.0,0.464277969,1.0,0.554034373,1.0,0.7372627340000001,0.0,0.264699741,False,,5f633d376c60233e5dfe5e47,,1405071,109,,evan-feature22,full_pf_a,,1
79,35923,110,,,,2,2,1.0,0.0,0.0,-1.0,,0.0-107.0,,0.0,501.2349999,0.0,0.465104323,1.0,0.530793115,1.0,0.75,0.0,0.31683071,False,,5f633d376c60233e5dfe5e47,,1415415,110,,evan-feature22,full_pf_a,,0
80,35924,111,,,,2,2,1.0,0.0,1.0,0.0,,0.0-108.0,,1.0,565.3949999,1.0,0.465104323,0.0,0.530793115,1.0,0.75,0.0,0.31683071,False,,5f633d376c60233e5dfe5e47,,1425798,111,,evan-feature22,full_pf_a,,0
81,35925,112,,,,2,2,0.0,1.0,1.0,0.0,,0.0-109.0,,0.0,787.9850001,0.0,0.46833986,1.0,0.570249239,0.0,0.7244472590000001,1.0,0.364114163,False,,5f633d376c60233e5dfe5e47,,1436407,112,,evan-feature22,full_pf_a,,0
82,35926,113,,,,2,2,1.0,0.0,1.0,0.0,,0.0-110.0,,1.0,571.8999999,1.0,0.445444024,1.0,0.649673355,1.0,0.6845441290000001,0.0,0.300660449,False,,5f633d376c60233e5dfe5e47,,1446796,113,,evan-feature22,full_pf_a,,0
83,35927,114,,,,2,2,1.0,0.0,1.0,0.0,,0.0-111.0,,1.0,392.6049999,1.0,0.39909721299999995,1.0,0.6715179509999999,1.0,0.742310028,0.0,0.35496088299999995,False,,5f633d376c60233e5dfe5e47,,1457017,114,,evan-feature22,full_pf_a,,0
84,35928,115,,,,2,2,1.0,1.0,0.0,-1.0,,0.0-112.0,,-1.0,600.26,0.0,0.37956104799999996,1.0,0.694725302,1.0,0.7181651309999999,1.0,0.38726906299999997,False,,5f633d376c60233e5dfe5e47,,1467411,115,,evan-feature22,full_pf_a,,0
85,35929,116,,,,1,1,0.0,1.0,0.0,-1.0,,0.0-113.0,,-1.0,696.3199999,0.0,0.404995034,1.0,0.724375412,1.0,0.6910946859999999,0.0,0.387187347,False,,5f633d376c60233e5dfe5e47,,1477915,116,,evan-feature22,full_pf_a,,1
86,35930,117,,,,1,1,0.0,1.0,1.0,0.0,,0.0-114.0,,0.0,342.5650001,0.0,0.461740803,1.0,0.75,0.0,0.75,0.0,0.34872038200000005,False,,5f633d376c60233e5dfe5e47,,1488068,117,,evan-feature22,full_pf_a,,0
87,35931,118,,,,1,1,0.0,1.0,1.0,0.0,,0.0-115.0,,0.0,426.0499999,0.0,0.43821380600000004,1.0,0.738833273,1.0,0.728286963,0.0,0.399538128,False,,5f633d376c60233e5dfe5e47,,1498306,118,,evan-feature22,full_pf_a,,0
88,35932,119,,,,1,1,1.0,1.0,0.0,-1.0,,0.0-116.0,,-1.0,478.685,1.0,0.41709882,1.0,0.736666736,1.0,0.75,1.0,0.389095584,False,,5f633d376c60233e5dfe5e47,,1508585,119,,evan-feature22,full_pf_a,,0
89,35933,120,,,,1,1,1.0,1.0,0.0,-1.0,,0.0-117.0,,-1.0,463.6900001,1.0,0.39749009799999996,1.0,0.744320029,1.0,0.75,1.0,0.363848678,False,,5f633d376c60233e5dfe5e47,,1518871,120,,evan-feature22,full_pf_a,,0
90,35934,121,,,,2,2,1.0,1.0,1.0,0.0,,0.0-118.0,,1.0,579.1450001000001,1.0,0.392653706,0.0,0.75,1.0,0.75,1.0,0.384386976,False,,5f633d376c60233e5dfe5e47,,1529282,121,,evan-feature22,full_pf_a,,1
91,35935,122,,,,2,2,1.0,1.0,0.0,-1.0,,0.0-119.0,,-1.0,540.4449999,0.0,0.31190902600000003,0.0,0.75,1.0,0.732413819,1.0,0.413082932,False,,5f633d376c60233e5dfe5e47,,1539626,122,,evan-feature22,full_pf_a,,0
92,35936,123,,,,2,2,0.0,0.0,1.0,0.0,,0.0-120.0,,0.0,2350.72,0.0,0.366917648,1.0,0.740073855,0.0,0.75,0.0,0.352861979,False,,5f633d376c60233e5dfe5e47,,1551783,123,,evan-feature22,full_pf_a,,0
93,35937,124,,,,2,2,1.0,1.0,1.0,0.0,,0.0-121.0,,1.0,1075.505,0.0,0.3645172,1.0,0.721770713,1.0,0.75,1.0,0.404074511,False,,5f633d376c60233e5dfe5e47,,1562692,124,,evan-feature22,full_pf_a,,0
94,35938,125,,,,2,2,0.0,0.0,1.0,0.0,,0.0-122.0,,0.0,362.9000001,0.0,0.35205600299999995,1.0,0.68983859,0.0,0.739735447,0.0,0.366895945,False,,5f633d376c60233e5dfe5e47,,1572863,125,,evan-feature22,full_pf_a,,0
95,35939,126,,,,1,1,0.0,1.0,1.0,0.0,,0.0-123.0,,0.0,439.44499989999997,0.0,0.40998722600000004,1.0,0.720859127,1.0,0.673854955,1.0,0.368528541,False,,5f633d376c60233e5dfe5e47,,1583105,126,,evan-feature22,full_pf_a,,1
96,35940,127,,,,1,1,1.0,1.0,1.0,0.0,,0.0-124.0,,1.0,668.1350002,1.0,0.353625316,1.0,0.75,0.0,0.695605473,0.0,0.38303674200000004,False,,5f633d376c60233e5dfe5e47,,1593575,127,,evan-feature22,full_pf_a,,0
97,35941,128,,,,1,1,1.0,1.0,1.0,0.0,,0.0-125.0,,1.0,474.8150001,1.0,0.359216989,1.0,0.75,1.0,0.6987915090000001,0.0,0.35169046200000004,False,,5f633d376c60233e5dfe5e47,,1603855,128,,evan-feature22,full_pf_a,,0
98,35942,129,,,,1,1,0.0,1.0,1.0,0.0,,0.0-126.0,,0.0,498.1499999,0.0,0.35834496899999996,1.0,0.75,1.0,0.707067742,0.0,0.416763636,False,,5f633d376c60233e5dfe5e47,,1614183,129,,evan-feature22,full_pf_a,,0
99,35943,130,,,,2,2,1.0,0.0,0.0,-1.0,,0.0-127.0,,0.0,573.84,1.0,0.38741613799999997,1.0,0.7177369570000001,1.0,0.734902455,0.0,0.49438664299999996,False,,5f633d376c60233e5dfe5e47,,1624555,130,,evan-feature22,full_pf_a,,1
100,35944,131,,,,2,2,1.0,0.0,1.0,0.0,,0.0-128.0,,1.0,503.25999989999997,1.0,0.405255252,1.0,0.7300466640000001,1.0,0.7027748070000001,0.0,0.504359668,False,,5f633d376c60233e5dfe5e47,,1634874,131,,evan-feature22,full_pf_a,,0
101,35945,132,,,,2,2,1.0,0.0,1.0,0.0,,0.0-129.0,,1.0,624.6400001000001,0.0,0.40697073,0.0,0.7260142190000001,1.0,0.724461982,0.0,0.522779179,False,,5f633d376c60233e5dfe5e47,,1645324,132,,evan-feature22,full_pf_a,,0
102,35946,133,,,,2,2,1.0,1.0,1.0,0.0,,0.0-130.0,,1.0,555.2600001000001,0.0,0.43906215299999996,1.0,0.7252802340000001,1.0,0.719079934,1.0,0.5712990579999999,False,,5f633d376c60233e5dfe5e47,,1655693,133,,evan-feature22,full_pf_a,,0
103,35947,134,,,,2,2,1.0,0.0,0.0,-1.0,,0.0-131.0,,0.0,334.89499989999996,0.0,0.4076705,1.0,0.73280499,1.0,0.681313127,0.0,0.523891346,False,,5f633d376c60233e5dfe5e47,,1665843,134,,evan-feature22,full_pf_a,,0
104,35948,135,,,,2,2,1.0,0.0,0.0,-1.0,,0.0-132.0,,0.0,536.115,1.0,0.399102911,1.0,0.730498344,1.0,0.661080239,0.0,0.46742603,False,,5f633d376c60233e5dfe5e47,,1676194,135,,evan-feature22,full_pf_a,,0
105,35949,136,,,,1,1,0.0,1.0,0.0,-1.0,,0.0-133.0,,-1.0,450.8549999,0.0,0.356477282,1.0,0.712296395,1.0,0.641812684,1.0,0.44868414,False,,5f633d376c60233e5dfe5e47,,1686473,136,,evan-feature22,full_pf_a,,1
106,35950,137,,,,1,1,1.0,0.0,1.0,0.0,,0.0-134.0,,1.0,477.04499979999997,1.0,0.462760722,0.0,0.692349322,0.0,0.700947931,0.0,0.394680266,False,,5f633d376c60233e5dfe5e47,,1696784,137,,evan-feature22,full_pf_a,,0
107,35951,138,,,,1,1,1.0,1.0,1.0,0.0,,0.0-135.0,,1.0,421.26,1.0,0.422306413,1.0,0.718375916,0.0,0.706340917,0.0,0.367787185,False,,5f633d376c60233e5dfe5e47,,1707029,138,,evan-feature22,full_pf_a,,0
108,35953,140,,,,1,1,0.0,1.0,1.0,0.0,,0.0-137.0,,0.0,507.2299999,0.0,0.4582233,1.0,0.643834117,0.0,0.75,0.0,0.39615823299999997,False,,5f633d376c60233e5dfe5e47,,1720124,140,,evan-feature22,full_pf_a,,0
109,35954,141,,,,1,1,1.0,1.0,1.0,0.0,,0.0-138.0,,1.0,408.145,1.0,0.43813437899999996,1.0,0.651283804,1.0,0.729674191,0.0,0.37711048,False,,5f633d376c60233e5dfe5e47,,1730336,141,,evan-feature22,full_pf_a,,0
110,35955,142,,,,1,1,1.0,0.0,1.0,0.0,,0.0-139.0,,1.0,459.4149999,1.0,0.471199094,0.0,0.6470010979999999,0.0,0.715008097,0.0,0.410656191,False,,5f633d376c60233e5dfe5e47,,1740606,142,,evan-feature22,full_pf_a,,0
111,35956,143,,,,1,1,0.0,1.0,1.0,0.0,,0.0-140.0,,0.0,529.7349998999999,0.0,0.42486406,1.0,0.629771829,1.0,0.6550939960000001,0.0,0.459093873,False,,5f633d376c60233e5dfe5e47,,1750935,143,,evan-feature22,full_pf_a,,0
112,35957,144,,,,1,1,1.0,0.0,1.0,0.0,,0.0-141.0,,1.0,366.6149999,1.0,0.4803197,0.0,0.645842715,1.0,0.6421749920000001,1.0,0.443092151,False,,5f633d376c60233e5dfe5e47,,1761113,144,,evan-feature22,full_pf_a,,0
113,35958,145,,,,1,1,1.0,1.0,0.0,-1.0,,0.0-142.0,,-1.0,379.55,1.0,0.521848997,1.0,0.735801074,1.0,0.6691348460000001,0.0,0.45259351600000003,False,,5f633d376c60233e5dfe5e47,,1771291,145,,evan-feature22,full_pf_a,,0
114,35959,146,,,,2,2,1.0,0.0,1.0,0.0,,0.0-143.0,,1.0,493.93500020000005,0.0,0.49565621299999996,1.0,0.742400847,1.0,0.661512553,0.0,0.483110831,False,,5f633d376c60233e5dfe5e47,,1781584,146,,evan-feature22,full_pf_a,,1
115,35960,147,,,,2,2,1.0,1.0,1.0,0.0,,0.0-144.0,,1.0,514.7200001,0.0,0.521564361,1.0,0.731078632,1.0,0.6774886809999999,1.0,0.483263956,False,,5f633d376c60233e5dfe5e47,,1791941,147,,evan-feature22,full_pf_a,,0
116,35961,148,,,,2,2,0.0,1.0,1.0,0.0,,0.0-145.0,,0.0,493.8100001,1.0,0.558893102,1.0,0.719810023,0.0,0.67461031,1.0,0.499349834,False,,5f633d376c60233e5dfe5e47,,1802242,148,,evan-feature22,full_pf_a,,0
117,35962,149,,,,2,2,1.0,0.0,1.0,0.0,,0.0-146.0,,1.0,417.1,1.0,0.611031046,0.0,0.75,1.0,0.688072995,0.0,0.5321422729999999,False,,5f633d376c60233e5dfe5e47,,1812478,149,,evan-feature22,full_pf_a,,0
118,35963,150,,,,2,2,0.0,0.0,0.0,-1.0,,0.0-147.0,,0.0,585.4499999,1.0,0.633223941,0.0,0.713567728,0.0,0.75,0.0,0.48185314700000004,False,,5f633d376c60233e5dfe5e47,,1822852,150,,evan-feature22,full_pf_a,,0
119,35964,151,,,,1,1,0.0,1.0,1.0,0.0,,0.0-148.0,,0.0,475.5549999,0.0,0.664001694,1.0,0.705509768,1.0,0.75,1.0,0.500211065,False,,5f633d376c60233e5dfe5e47,,1833127,151,,evan-feature22,full_pf_a,,1
120,35965,152,,,,1,1,0.0,1.0,1.0,0.0,,0.0-149.0,,0.0,431.685,0.0,0.664001694,1.0,0.705509768,1.0,0.75,0.0,0.500211065,False,,5f633d376c60233e5dfe5e47,,1843367,152,,evan-feature22,full_pf_a,,0
121,35966,153,,,,1,1,1.0,0.0,1.0,0.0,,0.0-150.0,,1.0,587.5899999,1.0,0.696508041,0.0,0.71066027,1.0,0.717028709,1.0,0.49792991,False,,5f633d376c60233e5dfe5e47,,1853747,153,,evan-feature22,full_pf_a,,0
122,35967,154,,,,1,1,1.0,1.0,0.0,-1.0,,0.0-151.0,,-1.0,471.225,1.0,0.699883272,1.0,0.75,1.0,0.713543895,0.0,0.496962643,False,,5f633d376c60233e5dfe5e47,,1864016,154,,evan-feature22,full_pf_a,,0
123,35968,155,,,,1,1,0.0,1.0,0.0,-1.0,,0.0-152.0,,-1.0,438.3099999,0.0,0.741163419,1.0,0.75,0.0,0.64691024,1.0,0.513858197,False,,5f633d376c60233e5dfe5e47,,1874271,155,,evan-feature22,full_pf_a,,0
124,35969,156,,,,2,2,0.0,1.0,0.0,-1.0,,0.0-153.0,,-1.0,438.74500020000005,0.0,0.75,1.0,0.70816558,0.0,0.594499079,1.0,0.48502124,False,,5f633d376c60233e5dfe5e47,,1884521,156,,evan-feature22,full_pf_a,,1
125,35970,157,,,,1,1,1.0,1.0,1.0,0.0,,0.0-154.0,,1.0,602.4549999,1.0,0.75,1.0,0.721848901,1.0,0.62197249,0.0,0.48263586399999997,False,,5f633d376c60233e5dfe5e47,,1894937,157,,evan-feature22,full_pf_a,,1
126,35971,158,,,,1,1,1.0,0.0,1.0,0.0,,0.0-155.0,,1.0,580.355,1.0,0.75,0.0,0.74813071,1.0,0.584357161,0.0,0.411477782,False,,5f633d376c60233e5dfe5e47,,1905340,158,,evan-feature22,full_pf_a,,0
127,35972,159,,,,1,1,1.0,1.0,1.0,0.0,,0.0-156.0,,1.0,551.2650001000001,1.0,0.75,1.0,0.75,0.0,0.52287236,1.0,0.488290656,False,,5f633d376c60233e5dfe5e47,,1915696,159,,evan-feature22,full_pf_a,,0
128,35973,160,,,,1,1,0.0,1.0,1.0,0.0,,0.0-157.0,,0.0,1215.245,0.0,0.75,1.0,0.75,1.0,0.544321581,1.0,0.53143059,False,,5f633d376c60233e5dfe5e47,,1926738,160,,evan-feature22,full_pf_a,,0
129,35974,161,,,,1,1,0.0,1.0,1.0,0.0,,0.0-158.0,,0.0,870.0049999,0.0,0.726754564,1.0,0.75,0.0,0.5129306370000001,1.0,0.530592445,False,,5f633d376c60233e5dfe5e47,,1937416,161,,evan-feature22,full_pf_a,,0
130,35975,162,,,,1,1,1.0,1.0,0.0,-1.0,,0.0-159.0,,-1.0,1662.495,1.0,0.75,1.0,0.7392590729999999,0.0,0.479875835,0.0,0.547007051,False,,5f633d376c60233e5dfe5e47,,1948893,162,,evan-feature22,full_pf_a,,0
131,35976,163,,,,1,1,1.0,1.0,0.0,-1.0,,0.0-160.0,,-1.0,568.9600001,1.0,0.75,1.0,0.7393376979999999,1.0,0.546045419,1.0,0.541267353,False,,5f633d376c60233e5dfe5e47,,1959263,163,,evan-feature22,full_pf_a,,0
132,35977,164,,,,2,2,0.0,0.0,1.0,0.0,,0.0-161.0,,0.0,524.6300001,0.0,0.75,1.0,0.75,0.0,0.485725895,0.0,0.527625395,False,,5f633d376c60233e5dfe5e47,,1969602,164,,evan-feature22,full_pf_a,,1
133,35978,165,,,,2,2,0.0,1.0,0.0,-1.0,,0.0-162.0,,-1.0,562.5149999,1.0,0.75,0.0,0.725087974,0.0,0.488603595,1.0,0.504019206,False,,5f633d376c60233e5dfe5e47,,1979973,165,,evan-feature22,full_pf_a,,0
134,35979,166,,,,1,1,1.0,1.0,1.0,0.0,,0.0-163.0,,1.0,468.60500010000004,1.0,0.745504295,1.0,0.75,0.0,0.452379914,0.0,0.50131194,False,,5f633d376c60233e5dfe5e47,,1990280,166,,evan-feature22,full_pf_a,,1
135,35980,167,,,,1,1,1.0,0.0,0.0,-1.0,,0.0-164.0,,0.0,449.37,1.0,0.728513874,0.0,0.75,0.0,0.44125567200000004,0.0,0.531454591,False,,5f633d376c60233e5dfe5e47,,2000560,167,,evan-feature22,full_pf_a,,0
136,35981,168,,,,1,1,0.0,1.0,1.0,0.0,,0.0-165.0,,0.0,1352.46,0.0,0.73790804,1.0,0.75,1.0,0.413036656,0.0,0.524619035,False,,5f633d376c60233e5dfe5e47,,2011724,168,,evan-feature22,full_pf_a,,0
137,35982,169,,,,2,2,0.0,1.0,1.0,0.0,,0.0-166.0,,0.0,436.11000010000004,1.0,0.7080961309999999,1.0,0.708666865,0.0,0.431915581,1.0,0.481819489,False,,5f633d376c60233e5dfe5e47,,2021979,169,,evan-feature22,full_pf_a,,1
138,35983,170,,,,1,1,1.0,1.0,1.0,0.0,,0.0-167.0,,1.0,542.11,1.0,0.721378003,1.0,0.71605913,1.0,0.36642387,1.0,0.5036739929999999,False,,5f633d376c60233e5dfe5e47,,2032328,170,,evan-feature22,full_pf_a,,1
139,35984,171,,,,1,1,1.0,0.0,0.0,-1.0,,0.0-168.0,,0.0,464.285,1.0,0.7340618959999999,0.0,0.699323252,0.0,0.35298046299999997,1.0,0.511241692,False,,5f633d376c60233e5dfe5e47,,2042620,171,,evan-feature22,full_pf_a,,0
140,35985,172,,,,1,1,1.0,0.0,0.0,-1.0,,0.0-169.0,,0.0,484.5,1.0,0.75,0.0,0.70412698,1.0,0.380734814,0.0,0.529580116,False,,5f633d376c60233e5dfe5e47,,2052927,172,,evan-feature22,full_pf_a,,0
141,35986,173,,,,1,1,1.0,1.0,0.0,-1.0,,0.0-170.0,,-1.0,1436.655,1.0,0.7436654909999999,1.0,0.711182751,1.0,0.41125331,0.0,0.49554405,False,,5f633d376c60233e5dfe5e47,,2064175,173,,evan-feature22,full_pf_a,,0
142,35987,174,,,,1,1,1.0,1.0,1.0,0.0,,0.0-171.0,,1.0,749.2500001,1.0,0.731607915,1.0,0.651774583,0.0,0.35688023,1.0,0.45194491600000003,False,,5f633d376c60233e5dfe5e47,,2074736,174,,evan-feature22,full_pf_a,,0
143,35988,175,,,,1,1,1.0,1.0,0.0,-1.0,,0.0-172.0,,-1.0,460.6550001,1.0,0.75,1.0,0.75,0.0,0.283145374,0.0,0.528608005,False,,5f633d376c60233e5dfe5e47,,2085000,175,,evan-feature22,full_pf_a,,0
144,35989,176,,,,2,2,0.0,1.0,1.0,0.0,,0.0-173.0,,0.0,473.15,0.0,0.7491416890000001,1.0,0.7423785959999999,0.0,0.29135870399999997,1.0,0.498888318,False,,5f633d376c60233e5dfe5e47,,2095308,176,,evan-feature22,full_pf_a,,1
145,35990,177,,,,1,1,1.0,1.0,0.0,-1.0,,0.0-174.0,,-1.0,1436.85,1.0,0.708569387,1.0,0.717682277,0.0,0.294421699,1.0,0.493838163,False,,5f633d376c60233e5dfe5e47,,2106563,177,,evan-feature22,full_pf_a,,1
146,35991,178,,,,2,2,1.0,0.0,1.0,0.0,,0.0-175.0,,1.0,650.0599999,1.0,0.75,1.0,0.7383382159999999,1.0,0.356098707,0.0,0.442533405,False,,5f633d376c60233e5dfe5e47,,2117019,178,,evan-feature22,full_pf_a,,1
147,35992,179,,,,2,2,1.0,0.0,1.0,0.0,,0.0-176.0,,1.0,1832.48,0.0,0.744527075,1.0,0.75,1.0,0.334127506,0.0,0.393165805,False,,5f633d376c60233e5dfe5e47,,2128656,179,,evan-feature22,full_pf_a,,0
148,35993,180,,,,2,2,0.0,0.0,1.0,0.0,,0.0-177.0,,0.0,2006.875,1.0,0.75,1.0,0.75,0.0,0.33571021799999995,0.0,0.350393962,False,,5f633d376c60233e5dfe5e47,,2140474,180,,evan-feature22,full_pf_a,,0
149,35994,181,,,,1,1,1.0,1.0,0.0,-1.0,,0.0-178.0,,-1.0,479.485,1.0,0.75,1.0,0.75,1.0,0.313628297,0.0,0.36349657399999996,False,,5f633d376c60233e5dfe5e47,,2150775,181,,evan-feature22,full_pf_a,,1
150,35995,182,,,,1,1,1.0,1.0,1.0,0.0,,0.0-179.0,,1.0,410.7349999,1.0,0.75,1.0,0.734284182,0.0,0.262667667,1.0,0.380199119,False,,5f633d376c60233e5dfe5e47,,2161014,182,,evan-feature22,full_pf_a,,0
151,35996,183,,,,1,1,0.0,1.0,1.0,0.0,,0.0-180.0,,0.0,437.5499999,0.0,0.75,1.0,0.75,1.0,0.25,1.0,0.394494013,False,,5f633d376c60233e5dfe5e47,,2171279,183,,evan-feature22,full_pf_a,,0
152,35997,184,,,,1,1,1.0,0.0,1.0,0.0,,0.0-181.0,,1.0,1006.535,1.0,0.722298145,0.0,0.7357822340000001,0.0,0.25,0.0,0.319142121,False,,5f633d376c60233e5dfe5e47,,2182088,184,,evan-feature22,full_pf_a,,0
153,35998,185,,,,1,1,1.0,1.0,1.0,0.0,,0.0-182.0,,1.0,433.0,1.0,0.73149275,1.0,0.724276446,0.0,0.305856907,1.0,0.281315057,False,,5f633d376c60233e5dfe5e47,,2192343,185,,evan-feature22,full_pf_a,,0
154,35999,186,,,,1,1,0.0,1.0,1.0,0.0,,0.0-183.0,,0.0,846.935,0.0,0.7458732690000001,1.0,0.7336382459999999,0.0,0.272571964,1.0,0.266021999,False,,5f633d376c60233e5dfe5e47,,2202982,186,,evan-feature22,full_pf_a,,0
155,36000,187,,,,1,1,0.0,0.0,0.0,-1.0,,0.0-184.0,,0.0,499.85,0.0,0.705579037,0.0,0.720778292,0.0,0.320238144,0.0,0.30971744,False,,5f633d376c60233e5dfe5e47,,2213290,187,,evan-feature22,full_pf_a,,0
156,36001,188,,,,2,2,0.0,0.0,0.0,-1.0,,0.0-185.0,,0.0,461.32,1.0,0.700425648,1.0,0.7198784009999999,0.0,0.272590393,0.0,0.304182931,False,,5f633d376c60233e5dfe5e47,,2223534,188,,evan-feature22,full_pf_a,,1
157,36002,189,,,,2,2,0.0,0.0,0.0,-1.0,,0.0-186.0,,0.0,907.0249997999999,1.0,0.735590785,1.0,0.722714973,0.0,0.25,0.0,0.323421091,False,,5f633d376c60233e5dfe5e47,,2234255,189,,evan-feature22,full_pf_a,,0
158,36003,190,,,,2,2,0.0,1.0,0.0,-1.0,,0.0-187.0,,-1.0,373.475,0.0,0.724807662,1.0,0.63146213,0.0,0.36836492600000004,1.0,0.34592153299999995,False,,5f633d376c60233e5dfe5e47,,2244459,190,,evan-feature22,full_pf_a,,0
159,36004,191,,,,1,1,1.0,1.0,1.0,0.0,,0.0-188.0,,1.0,2409.415,1.0,0.7352796909999999,1.0,0.555111392,0.0,0.36003922,1.0,0.31433779999999995,False,,5f633d376c60233e5dfe5e47,,2256697,191,,evan-feature22,full_pf_a,,1
160,36005,192,notice,,,,,,,,,,0.0-189.0,"{""Q0"":""it got easier""}",,13348.0,,,,,,,,,False,,5f633d376c60233e5dfe5e47,,2270047,192,Q,survey-text,full_pf_a,,1
161,36006,193,track1,,[1],,,,,,,,0.0-190.0,"{""Q0"":""no""}",,8139.0,,,,,,,,,False,,5f633d376c60233e5dfe5e47,,2278192,193,Q,evan-quiz,full_pf_a,,1
162,36007,194,track2,,[0],,,,,,,,0.0-191.0,"{""Q0"":""yes""}",,4084.0,,,,,,,,,False,,5f633d376c60233e5dfe5e47,,2282280,194,Q,evan-quiz,full_pf_a,,1
163,36008,195,strat,,,,,,,,,,0.0-192.0,"{""Q0"":""patterns""}",,7365.0,,,,,,,,,False,,5f633d376c60233e5dfe5e47,,2289647,195,Q,survey-text,full_pf_a,,1
