,index,Unnamed: 0,Q_name,button_pressed,choice_idxs,chosen_pos,chosen_state,chosen_state_f_1_outcome,chosen_state_f_2_outcome,f_1_reward,f_2_reward,incor_questions,internal_node_id,responses,reward_received,rt,s_1_f_1_outcome,s_1_f_1_prob,s_1_f_2_outcome,s_1_f_2_prob,s_2_f_1_outcome,s_2_f_1_prob,s_2_f_2_outcome,s_2_f_2_prob,safe_first,stimulus,subjectID,success,time_elapsed,trial_index,trial_num,trial_type,version,view_history,switching
0,9170,25,,,,1,1,0.0,1.0,1.0,0.0,,0.0-27.0,,0.0,1387.92,0.0,0.6,1.0,0.6,0.0,0.4,0.0,0.4,True,,5f316e50b2f8590176cb8800,,863195,25,,evan-feature22,full_rf_a,,0
1,9171,26,,,,2,2,0.0,0.0,1.0,0.0,,0.0-28.0,,0.0,2151.88,1.0,0.608053294,1.0,0.63424552,0.0,0.397152172,0.0,0.347069101,True,,5f316e50b2f8590176cb8800,,875178,26,,evan-feature22,full_rf_a,,1
2,9172,27,,,,1,1,0.0,1.0,1.0,0.0,,0.0-29.0,,0.0,1125.29,0.0,0.642237155,1.0,0.648566321,0.0,0.389407674,1.0,0.285525717,True,,5f316e50b2f8590176cb8800,,886141,27,,evan-feature22,full_rf_a,,1
3,9173,28,,,,1,1,0.0,1.0,1.0,0.0,,0.0-30.0,,0.0,1561.685,0.0,0.661086576,1.0,0.630492543,0.0,0.399058924,0.0,0.25,True,,5f316e50b2f8590176cb8800,,897527,28,,evan-feature22,full_rf_a,,0
4,9174,29,,,,2,2,0.0,0.0,0.0,-1.0,,0.0-31.0,,0.0,2425.77,0.0,0.631324137,1.0,0.6269842929999999,0.0,0.38734784299999997,0.0,0.25,True,,5f316e50b2f8590176cb8800,,909796,29,,evan-feature22,full_rf_a,,1
5,9175,30,,,,2,2,0.0,0.0,0.0,-1.0,,0.0-32.0,,0.0,2314.725,0.0,0.6381991370000001,1.0,0.68987999,0.0,0.384107265,0.0,0.271332943,True,,5f316e50b2f8590176cb8800,,921928,30,,evan-feature22,full_rf_a,,0
6,9176,31,,,,1,1,0.0,0.0,1.0,0.0,,0.0-33.0,,0.0,858.4650001,0.0,0.66034901,0.0,0.742641349,1.0,0.360225629,0.0,0.25,True,,5f316e50b2f8590176cb8800,,932600,31,,evan-feature22,full_rf_a,,1
7,9177,32,,,,2,2,1.0,0.0,1.0,0.0,,0.0-34.0,,1.0,1227.82,1.0,0.638612418,0.0,0.75,1.0,0.367273939,0.0,0.25,True,,5f316e50b2f8590176cb8800,,943658,32,,evan-feature22,full_rf_a,,1
8,9178,33,,,,1,1,1.0,0.0,0.0,-1.0,,0.0-35.0,,0.0,1378.045,1.0,0.624340629,0.0,0.75,0.0,0.425829545,1.0,0.25,True,,5f316e50b2f8590176cb8800,,954851,33,,evan-feature22,full_rf_a,,1
9,9179,34,,,,2,2,0.0,0.0,0.0,-1.0,,0.0-36.0,,0.0,1529.085,0.0,0.621999804,0.0,0.75,0.0,0.368609357,0.0,0.25,True,,5f316e50b2f8590176cb8800,,966197,34,,evan-feature22,full_rf_a,,1
10,9180,35,,,,1,1,0.0,0.0,1.0,0.0,,0.0-37.0,,0.0,1345.655,0.0,0.62666403,0.0,0.75,0.0,0.311151498,0.0,0.25,True,,5f316e50b2f8590176cb8800,,977363,35,,evan-feature22,full_rf_a,,1
11,9181,36,,,,2,2,0.0,0.0,0.0,-1.0,,0.0-38.0,,0.0,1967.25,0.0,0.6819650009999999,1.0,0.75,0.0,0.310763048,0.0,0.25,True,,5f316e50b2f8590176cb8800,,989141,36,,evan-feature22,full_rf_a,,1
12,9182,37,,,,2,2,0.0,1.0,1.0,0.0,,0.0-39.0,,0.0,1352.82,1.0,0.740626951,1.0,0.75,0.0,0.25,1.0,0.25,True,,5f316e50b2f8590176cb8800,,1000340,37,,evan-feature22,full_rf_a,,0
13,9183,38,,,,1,1,0.0,1.0,1.0,0.0,,0.0-40.0,,0.0,1355.78,0.0,0.739599242,1.0,0.742034978,0.0,0.25397114600000004,0.0,0.25,True,,5f316e50b2f8590176cb8800,,1011505,38,,evan-feature22,full_rf_a,,1
14,9184,39,,,,1,1,1.0,1.0,1.0,0.0,,0.0-41.0,,1.0,1323.59,1.0,0.732341315,1.0,0.72735643,0.0,0.25,1.0,0.25,True,,5f316e50b2f8590176cb8800,,1022683,39,,evan-feature22,full_rf_a,,0
15,9185,40,,,,1,1,1.0,1.0,1.0,0.0,,0.0-42.0,,1.0,1530.37,1.0,0.7062287770000001,1.0,0.75,0.0,0.29002151,1.0,0.288256649,True,,5f316e50b2f8590176cb8800,,1034038,40,,evan-feature22,full_rf_a,,0
16,9186,41,,,,1,1,1.0,0.0,1.0,0.0,,0.0-43.0,,1.0,1277.18,1.0,0.7086029209999999,0.0,0.75,1.0,0.274129113,0.0,0.262851608,True,,5f316e50b2f8590176cb8800,,1045146,41,,evan-feature22,full_rf_a,,0
17,9187,42,,,,1,1,1.0,1.0,1.0,0.0,,0.0-44.0,,1.0,1072.75,1.0,0.669189651,1.0,0.727614338,1.0,0.298444036,0.0,0.296944518,True,,5f316e50b2f8590176cb8800,,1056059,42,,evan-feature22,full_rf_a,,0
18,9188,43,,,,2,2,1.0,1.0,1.0,0.0,,0.0-45.0,,1.0,1301.635,0.0,0.6819912929999999,1.0,0.7179434290000001,1.0,0.265003961,1.0,0.28157921199999997,True,,5f316e50b2f8590176cb8800,,1067205,43,,evan-feature22,full_rf_a,,1
19,9189,44,,,,2,2,0.0,1.0,0.0,-1.0,,0.0-46.0,,-1.0,1363.545,1.0,0.665275002,0.0,0.723065271,0.0,0.260414971,1.0,0.30973870000000003,True,,5f316e50b2f8590176cb8800,,1078397,44,,evan-feature22,full_rf_a,,0
20,9190,45,,,,1,1,0.0,0.0,1.0,0.0,,0.0-47.0,,0.0,1343.745,0.0,0.6660593260000001,0.0,0.728032907,0.0,0.30922817,1.0,0.338778608,True,,5f316e50b2f8590176cb8800,,1089550,45,,evan-feature22,full_rf_a,,1
21,9191,46,,,,1,1,0.0,0.0,1.0,0.0,,0.0-48.0,,0.0,1414.175,0.0,0.702068785,0.0,0.6528750879999999,0.0,0.287329608,0.0,0.35789613200000003,True,,5f316e50b2f8590176cb8800,,1100785,46,,evan-feature22,full_rf_a,,0
22,9192,47,,,,1,1,1.0,0.0,1.0,0.0,,0.0-49.0,,1.0,1012.19,1.0,0.651939787,0.0,0.636725589,0.0,0.284834488,0.0,0.358563756,True,,5f316e50b2f8590176cb8800,,1111627,47,,evan-feature22,full_rf_a,,0
23,9193,48,,,,1,1,0.0,1.0,0.0,-1.0,,0.0-50.0,,-1.0,2608.94,0.0,0.67573929,1.0,0.612550049,0.0,0.37130387600000003,0.0,0.383542402,True,,5f316e50b2f8590176cb8800,,1124063,48,,evan-feature22,full_rf_a,,0
24,9194,49,,,,2,2,1.0,0.0,0.0,-1.0,,0.0-51.0,,0.0,2286.415,1.0,0.620753801,1.0,0.60513644,1.0,0.385529434,0.0,0.340361743,True,,5f316e50b2f8590176cb8800,,1136184,49,,evan-feature22,full_rf_a,,1
25,9195,50,,,,1,1,1.0,1.0,0.0,-1.0,,0.0-52.0,,-1.0,1524.005,1.0,0.673564893,1.0,0.672437924,0.0,0.292955382,1.0,0.337633795,True,,5f316e50b2f8590176cb8800,,1147538,50,,evan-feature22,full_rf_a,,1
26,9196,51,,,,1,1,1.0,1.0,1.0,0.0,,0.0-53.0,,1.0,1591.52,1.0,0.6749427,1.0,0.724197502,0.0,0.32391132100000003,0.0,0.350995264,True,,5f316e50b2f8590176cb8800,,1158981,51,,evan-feature22,full_rf_a,,0
27,9197,52,,,,1,1,0.0,0.0,1.0,0.0,,0.0-54.0,,0.0,923.89,0.0,0.6940159379999999,0.0,0.75,0.0,0.31710554399999996,1.0,0.413450341,True,,5f316e50b2f8590176cb8800,,1169719,52,,evan-feature22,full_rf_a,,0
28,9198,53,,,,1,1,1.0,1.0,1.0,0.0,,0.0-55.0,,1.0,1155.46,1.0,0.6916018270000001,1.0,0.69001187,1.0,0.261817804,0.0,0.40038635,True,,5f316e50b2f8590176cb8800,,1180692,53,,evan-feature22,full_rf_a,,0
29,9199,54,,,,1,1,1.0,1.0,1.0,0.0,,0.0-56.0,,1.0,1272.605,1.0,0.641061544,1.0,0.71337992,0.0,0.277296461,1.0,0.47372791700000005,True,,5f316e50b2f8590176cb8800,,1191796,54,,evan-feature22,full_rf_a,,0
30,9200,55,,,,1,1,0.0,1.0,1.0,0.0,,0.0-57.0,,0.0,1149.645,0.0,0.6082438520000001,1.0,0.708471106,0.0,0.28745137,0.0,0.564174476,True,,5f316e50b2f8590176cb8800,,1202752,55,,evan-feature22,full_rf_a,,0
31,9201,56,,,,1,1,1.0,1.0,1.0,0.0,,0.0-58.0,,1.0,1291.3,1.0,0.6051112120000001,1.0,0.7118147229999999,0.0,0.272390611,0.0,0.5595149939999999,True,,5f316e50b2f8590176cb8800,,1213877,56,,evan-feature22,full_rf_a,,0
32,9202,57,,,,1,1,1.0,0.0,1.0,0.0,,0.0-59.0,,1.0,909.2699999,1.0,0.582420852,0.0,0.635867583,0.0,0.31089574,0.0,0.5227206520000001,True,,5f316e50b2f8590176cb8800,,1224606,57,,evan-feature22,full_rf_a,,0
33,9203,58,,,,1,1,1.0,1.0,0.0,-1.0,,0.0-60.0,,-1.0,3265.915,1.0,0.623195575,1.0,0.655026044,0.0,0.25,1.0,0.560387538,True,,5f316e50b2f8590176cb8800,,1237705,58,,evan-feature22,full_rf_a,,0
34,9204,59,,,,1,1,1.0,1.0,1.0,0.0,,0.0-61.0,,1.0,1452.9,1.0,0.601889598,1.0,0.678198724,0.0,0.25,1.0,0.559922936,True,,5f316e50b2f8590176cb8800,,1248984,59,,evan-feature22,full_rf_a,,0
35,9205,60,,,,1,1,1.0,1.0,1.0,0.0,,0.0-62.0,,1.0,1119.3,1.0,0.601259914,1.0,0.704681482,0.0,0.33908969299999997,0.0,0.505003715,True,,5f316e50b2f8590176cb8800,,1259928,60,,evan-feature22,full_rf_a,,0
36,9206,61,,,,1,1,1.0,1.0,1.0,0.0,,0.0-63.0,,1.0,736.4449999,1.0,0.59645454,1.0,0.710437172,0.0,0.327441879,0.0,0.391749613,True,,5f316e50b2f8590176cb8800,,1270482,61,,evan-feature22,full_rf_a,,0
37,9207,62,,,,1,1,0.0,0.0,1.0,0.0,,0.0-64.0,,0.0,469.04500020000006,0.0,0.529473,0.0,0.636758527,1.0,0.301338063,0.0,0.365661481,True,,5f316e50b2f8590176cb8800,,1280791,62,,evan-feature22,full_rf_a,,0
38,9208,63,,,,2,2,0.0,0.0,0.0,-1.0,,0.0-65.0,,0.0,1145.395,1.0,0.541657162,0.0,0.634541962,0.0,0.343535366,0.0,0.371763742,True,,5f316e50b2f8590176cb8800,,1291761,63,,evan-feature22,full_rf_a,,1
39,9209,64,,,,1,1,1.0,1.0,1.0,0.0,,0.0-66.0,,1.0,1334.42,1.0,0.5707533260000001,1.0,0.589121171,1.0,0.326428396,1.0,0.43961622899999997,True,,5f316e50b2f8590176cb8800,,1302915,64,,evan-feature22,full_rf_a,,1
40,9210,65,,,,1,1,1.0,1.0,1.0,0.0,,0.0-67.0,,1.0,1301.325,1.0,0.5707533260000001,1.0,0.589121171,0.0,0.326428396,0.0,0.43961622899999997,True,,5f316e50b2f8590176cb8800,,1314045,65,,evan-feature22,full_rf_a,,0
41,9211,66,,,,1,1,0.0,1.0,1.0,0.0,,0.0-68.0,,0.0,651.8699999,0.0,0.506271295,1.0,0.641775594,1.0,0.37149690700000004,0.0,0.404330166,True,,5f316e50b2f8590176cb8800,,1324513,66,,evan-feature22,full_rf_a,,0
42,9212,67,,,,2,2,1.0,1.0,0.0,-1.0,,0.0-69.0,,-1.0,1257.155,0.0,0.455642565,1.0,0.623605825,1.0,0.358753011,1.0,0.346174041,True,,5f316e50b2f8590176cb8800,,1335599,67,,evan-feature22,full_rf_a,,1
43,9213,68,,,,1,1,0.0,1.0,0.0,-1.0,,0.0-70.0,,-1.0,1962.89,0.0,0.483677308,1.0,0.5904681070000001,0.0,0.402218411,0.0,0.35344697,True,,5f316e50b2f8590176cb8800,,1347379,68,,evan-feature22,full_rf_a,,1
44,9214,69,,,,2,2,1.0,1.0,0.0,-1.0,,0.0-71.0,,-1.0,1039.745,1.0,0.394210977,1.0,0.558925494,1.0,0.540052017,1.0,0.35182128700000004,True,,5f316e50b2f8590176cb8800,,1358239,69,,evan-feature22,full_rf_a,,1
45,9215,70,,,,1,1,0.0,1.0,1.0,0.0,,0.0-72.0,,0.0,670.585,0.0,0.382300414,1.0,0.577670603,1.0,0.607608448,0.0,0.378261578,True,,5f316e50b2f8590176cb8800,,1368740,70,,evan-feature22,full_rf_a,,1
46,9216,71,,,,2,2,0.0,0.0,1.0,0.0,,0.0-73.0,,0.0,611.155,1.0,0.357596762,0.0,0.5929076529999999,0.0,0.6579790010000001,0.0,0.401326777,True,,5f316e50b2f8590176cb8800,,1379182,71,,evan-feature22,full_rf_a,,1
47,9217,72,,,,1,1,1.0,1.0,1.0,0.0,,0.0-74.0,,1.0,720.2600001000001,1.0,0.362033495,1.0,0.582308608,1.0,0.649195052,0.0,0.355158505,True,,5f316e50b2f8590176cb8800,,1389731,72,,evan-feature22,full_rf_a,,1
48,9218,73,,,,1,1,1.0,1.0,1.0,0.0,,0.0-75.0,,1.0,1168.565,1.0,0.369620635,1.0,0.669100864,1.0,0.706059111,1.0,0.362516241,True,,5f316e50b2f8590176cb8800,,1400718,73,,evan-feature22,full_rf_a,,0
49,9219,74,,,,1,1,0.0,1.0,1.0,0.0,,0.0-76.0,,0.0,1174.815,0.0,0.41477751399999996,1.0,0.7284416779999999,1.0,0.7182656940000001,0.0,0.36228040899999997,True,,5f316e50b2f8590176cb8800,,1411736,74,,evan-feature22,full_rf_a,,0
50,9220,75,,,,1,1,1.0,1.0,0.0,-1.0,,0.0-77.0,,-1.0,1899.29,1.0,0.37675460299999997,1.0,0.703250285,1.0,0.75,1.0,0.461979164,True,,5f316e50b2f8590176cb8800,,1423478,75,,evan-feature22,full_rf_a,,0
51,9221,76,,,,2,2,1.0,1.0,0.0,-1.0,,0.0-78.0,,-1.0,1475.91,1.0,0.398716075,1.0,0.6723864890000001,1.0,0.674153818,1.0,0.519029516,True,,5f316e50b2f8590176cb8800,,1434752,76,,evan-feature22,full_rf_a,,1
52,9222,77,,,,1,1,1.0,1.0,1.0,0.0,,0.0-79.0,,1.0,805.035,1.0,0.34677856700000004,1.0,0.69057175,1.0,0.6822438540000001,1.0,0.477292237,True,,5f316e50b2f8590176cb8800,,1445379,77,,evan-feature22,full_rf_a,,1
53,9223,78,,,,2,2,1.0,1.0,0.0,-1.0,,0.0-80.0,,-1.0,1580.585,0.0,0.28580469199999997,0.0,0.68408818,1.0,0.684207565,1.0,0.49780448299999996,True,,5f316e50b2f8590176cb8800,,1456791,78,,evan-feature22,full_rf_a,,1
54,9225,80,,,,1,1,0.0,1.0,1.0,0.0,,0.0-82.0,,0.0,1753.155,0.0,0.25,1.0,0.7405808970000001,0.0,0.679614108,0.0,0.436436964,True,,5f316e50b2f8590176cb8800,,1470411,80,,evan-feature22,full_rf_a,,1
55,9226,81,,,,2,2,1.0,1.0,0.0,-1.0,,0.0-83.0,,-1.0,1136.135,0.0,0.29890393,0.0,0.730505706,1.0,0.7328203320000001,1.0,0.439256938,True,,5f316e50b2f8590176cb8800,,1481352,81,,evan-feature22,full_rf_a,,1
56,9227,82,,,,1,1,1.0,0.0,1.0,0.0,,0.0-84.0,,1.0,576.9500001,1.0,0.326762398,0.0,0.7148059609999999,0.0,0.75,0.0,0.44389608799999997,True,,5f316e50b2f8590176cb8800,,1491755,82,,evan-feature22,full_rf_a,,1
57,9228,83,,,,1,1,0.0,1.0,1.0,0.0,,0.0-85.0,,0.0,607.6,0.0,0.295168515,1.0,0.739760854,1.0,0.719947008,0.0,0.35277284600000003,True,,5f316e50b2f8590176cb8800,,1502179,83,,evan-feature22,full_rf_a,,0
58,9229,84,,,,2,2,1.0,1.0,1.0,0.0,,0.0-86.0,,1.0,864.355,0.0,0.25,1.0,0.70781482,1.0,0.75,1.0,0.286095925,True,,5f316e50b2f8590176cb8800,,1512885,84,,evan-feature22,full_rf_a,,1
59,9230,85,,,,2,2,0.0,0.0,0.0,-1.0,,0.0-87.0,,0.0,1301.655,0.0,0.25638190899999996,0.0,0.704088163,0.0,0.75,0.0,0.26872601399999996,True,,5f316e50b2f8590176cb8800,,1524017,85,,evan-feature22,full_rf_a,,0
60,9231,86,,,,1,1,0.0,1.0,0.0,-1.0,,0.0-88.0,,-1.0,1086.6,0.0,0.271581126,1.0,0.669760107,1.0,0.733896663,0.0,0.273244572,True,,5f316e50b2f8590176cb8800,,1534944,86,,evan-feature22,full_rf_a,,1
61,9232,87,,,,2,2,1.0,0.0,0.0,-1.0,,0.0-89.0,,0.0,1408.2,0.0,0.257144401,0.0,0.600575706,1.0,0.74488122,0.0,0.25,True,,5f316e50b2f8590176cb8800,,1546175,87,,evan-feature22,full_rf_a,,1
62,9233,88,,,,1,1,0.0,0.0,1.0,0.0,,0.0-90.0,,0.0,899.8,0.0,0.25,0.0,0.616870026,1.0,0.723610234,1.0,0.25,True,,5f316e50b2f8590176cb8800,,1556912,88,,evan-feature22,full_rf_a,,1
63,9234,89,,,,1,1,0.0,0.0,0.0,-1.0,,0.0-91.0,,0.0,1375.225,0.0,0.25,0.0,0.583540187,0.0,0.7041042559999999,0.0,0.285961995,True,,5f316e50b2f8590176cb8800,,1568112,89,,evan-feature22,full_rf_a,,0
64,9235,90,,,,2,2,1.0,1.0,1.0,0.0,,0.0-92.0,,1.0,628.235,0.0,0.27254536,0.0,0.53875765,1.0,0.693783448,1.0,0.284961652,True,,5f316e50b2f8590176cb8800,,1578562,90,,evan-feature22,full_rf_a,,1
65,9236,91,,,,1,1,1.0,1.0,0.0,-1.0,,0.0-93.0,,-1.0,932.6450001000001,1.0,0.25,1.0,0.548431252,1.0,0.734221895,1.0,0.279445214,True,,5f316e50b2f8590176cb8800,,1589304,91,,evan-feature22,full_rf_a,,1
66,9237,92,,,,2,2,1.0,1.0,1.0,0.0,,0.0-94.0,,1.0,1367.895,0.0,0.258640684,1.0,0.545878066,1.0,0.725245965,1.0,0.31487537,True,,5f316e50b2f8590176cb8800,,1600500,92,,evan-feature22,full_rf_a,,1
67,9238,93,,,,2,2,0.0,0.0,1.0,0.0,,0.0-95.0,,0.0,593.775,1.0,0.251103711,0.0,0.5776290629999999,0.0,0.696320133,0.0,0.317831047,True,,5f316e50b2f8590176cb8800,,1610934,93,,evan-feature22,full_rf_a,,0
68,9239,94,,,,1,1,0.0,1.0,1.0,0.0,,0.0-96.0,,0.0,522.75,0.0,0.276630292,1.0,0.617329858,1.0,0.73838088,0.0,0.261471582,True,,5f316e50b2f8590176cb8800,,1621253,94,,evan-feature22,full_rf_a,,1
69,9240,95,,,,1,1,1.0,0.0,0.0,-1.0,,0.0-97.0,,0.0,1500.35,1.0,0.297716424,0.0,0.618863717,1.0,0.7402358259999999,0.0,0.262600834,True,,5f316e50b2f8590176cb8800,,1632568,95,,evan-feature22,full_rf_a,,0
70,9241,96,,,,2,2,1.0,0.0,1.0,0.0,,0.0-98.0,,1.0,1013.585,0.0,0.290935512,0.0,0.695370945,1.0,0.706570507,0.0,0.280030553,True,,5f316e50b2f8590176cb8800,,1643404,96,,evan-feature22,full_rf_a,,1
71,9242,97,,,,2,2,1.0,0.0,1.0,0.0,,0.0-99.0,,1.0,1033.325,0.0,0.25,1.0,0.6465277079999999,1.0,0.67766682,0.0,0.25,True,,5f316e50b2f8590176cb8800,,1654261,97,,evan-feature22,full_rf_a,,0
72,9243,98,,,,2,2,0.0,0.0,1.0,0.0,,0.0-100.0,,0.0,769.2450001,0.0,0.26463816,0.0,0.636100213,0.0,0.646048507,0.0,0.265607101,True,,5f316e50b2f8590176cb8800,,1664848,98,,evan-feature22,full_rf_a,,0
73,9244,99,,,,2,2,1.0,0.0,1.0,0.0,,0.0-101.0,,1.0,890.0049999,0.0,0.314340707,1.0,0.667795927,1.0,0.613630805,0.0,0.25,True,,5f316e50b2f8590176cb8800,,1675561,99,,evan-feature22,full_rf_a,,0
74,9245,100,,,,2,2,1.0,0.0,1.0,0.0,,0.0-102.0,,1.0,763.48,0.0,0.28685784,0.0,0.6622549529999999,1.0,0.652154117,0.0,0.25,True,,5f316e50b2f8590176cb8800,,1686144,100,,evan-feature22,full_rf_a,,0
75,9246,101,,,,1,1,0.0,1.0,0.0,-1.0,,0.0-103.0,,-1.0,1661.695,0.0,0.304106554,1.0,0.631289538,1.0,0.707041942,0.0,0.29314237,True,,5f316e50b2f8590176cb8800,,1697638,101,,evan-feature22,full_rf_a,,1
76,9247,102,,,,2,2,1.0,1.0,0.0,-1.0,,0.0-104.0,,-1.0,1103.495,0.0,0.304806932,0.0,0.571167718,1.0,0.680472346,1.0,0.25,True,,5f316e50b2f8590176cb8800,,1708579,102,,evan-feature22,full_rf_a,,1
77,9248,103,,,,1,1,1.0,0.0,0.0,-1.0,,0.0-105.0,,0.0,1036.29,1.0,0.37919861,0.0,0.5724849710000001,0.0,0.705638003,0.0,0.30179300600000003,True,,5f316e50b2f8590176cb8800,,1719450,103,,evan-feature22,full_rf_a,,1
78,9249,104,,,,1,1,0.0,1.0,0.0,-1.0,,0.0-106.0,,-1.0,1406.575,0.0,0.464277969,1.0,0.554034373,1.0,0.7372627340000001,0.0,0.264699741,True,,5f316e50b2f8590176cb8800,,1730692,104,,evan-feature22,full_rf_a,,0
79,9250,105,,,,2,2,1.0,0.0,1.0,0.0,,0.0-107.0,,1.0,1325.595,1.0,0.465104323,0.0,0.530793115,1.0,0.75,0.0,0.31683071,True,,5f316e50b2f8590176cb8800,,1741831,105,,evan-feature22,full_rf_a,,1
80,9251,106,,,,2,2,1.0,0.0,0.0,-1.0,,0.0-108.0,,0.0,1334.42,0.0,0.465104323,0.0,0.530793115,1.0,0.75,0.0,0.31683071,True,,5f316e50b2f8590176cb8800,,1752966,106,,evan-feature22,full_rf_a,,0
81,9252,107,,,,2,2,0.0,1.0,0.0,-1.0,,0.0-109.0,,-1.0,1448.73,1.0,0.46833986,0.0,0.570249239,0.0,0.7244472590000001,1.0,0.364114163,True,,5f316e50b2f8590176cb8800,,1764263,107,,evan-feature22,full_rf_a,,0
82,9253,108,,,,2,2,0.0,0.0,0.0,-1.0,,0.0-110.0,,0.0,1661.725,1.0,0.445444024,1.0,0.649673355,0.0,0.6845441290000001,0.0,0.300660449,True,,5f316e50b2f8590176cb8800,,1775756,108,,evan-feature22,full_rf_a,,0
83,9254,109,,,,2,2,0.0,0.0,0.0,-1.0,,0.0-111.0,,0.0,2024.84,1.0,0.39909721299999995,0.0,0.6715179509999999,0.0,0.742310028,0.0,0.35496088299999995,True,,5f316e50b2f8590176cb8800,,1787596,109,,evan-feature22,full_rf_a,,0
84,9255,110,,,,2,2,1.0,0.0,0.0,-1.0,,0.0-112.0,,0.0,1735.855,0.0,0.37956104799999996,1.0,0.694725302,1.0,0.7181651309999999,0.0,0.38726906299999997,True,,5f316e50b2f8590176cb8800,,1799144,110,,evan-feature22,full_rf_a,,0
85,9256,111,,,,1,1,0.0,1.0,0.0,-1.0,,0.0-113.0,,-1.0,1075.755,0.0,0.404995034,1.0,0.724375412,1.0,0.6910946859999999,0.0,0.387187347,True,,5f316e50b2f8590176cb8800,,1810028,111,,evan-feature22,full_rf_a,,1
86,9257,112,,,,2,2,1.0,1.0,0.0,-1.0,,0.0-114.0,,-1.0,1299.185,0.0,0.461740803,1.0,0.75,1.0,0.75,1.0,0.34872038200000005,True,,5f316e50b2f8590176cb8800,,1821134,112,,evan-feature22,full_rf_a,,1
87,9258,113,,,,1,1,1.0,1.0,1.0,0.0,,0.0-115.0,,1.0,1288.095,1.0,0.43821380600000004,1.0,0.738833273,1.0,0.728286963,0.0,0.399538128,True,,5f316e50b2f8590176cb8800,,1832254,113,,evan-feature22,full_rf_a,,1
88,9259,114,,,,2,2,1.0,0.0,0.0,-1.0,,0.0-116.0,,0.0,1651.97,1.0,0.41709882,1.0,0.736666736,1.0,0.75,0.0,0.389095584,True,,5f316e50b2f8590176cb8800,,1843767,114,,evan-feature22,full_rf_a,,1
89,9260,115,,,,1,1,0.0,0.0,0.0,-1.0,,0.0-117.0,,0.0,2387.235,0.0,0.39749009799999996,0.0,0.744320029,1.0,0.75,0.0,0.363848678,True,,5f316e50b2f8590176cb8800,,1855959,115,,evan-feature22,full_rf_a,,1
90,9261,116,,,,2,2,0.0,1.0,1.0,0.0,,0.0-118.0,,0.0,1053.665,0.0,0.392653706,1.0,0.75,0.0,0.75,1.0,0.384386976,True,,5f316e50b2f8590176cb8800,,1866827,116,,evan-feature22,full_rf_a,,1
91,9262,117,,,,1,1,0.0,1.0,1.0,0.0,,0.0-119.0,,0.0,839.7899999,0.0,0.31190902600000003,1.0,0.75,1.0,0.732413819,0.0,0.413082932,True,,5f316e50b2f8590176cb8800,,1877514,117,,evan-feature22,full_rf_a,,1
92,9263,118,,,,1,1,1.0,0.0,0.0,-1.0,,0.0-120.0,,0.0,1027.855,1.0,0.366917648,0.0,0.740073855,0.0,0.75,1.0,0.352861979,True,,5f316e50b2f8590176cb8800,,1888373,118,,evan-feature22,full_rf_a,,0
93,9264,119,,,,1,1,0.0,0.0,0.0,-1.0,,0.0-121.0,,0.0,1681.715,0.0,0.3645172,0.0,0.721770713,0.0,0.75,0.0,0.404074511,True,,5f316e50b2f8590176cb8800,,1899869,119,,evan-feature22,full_rf_a,,0
94,9265,120,,,,2,2,1.0,0.0,0.0,-1.0,,0.0-122.0,,0.0,1333.87,0.0,0.35205600299999995,1.0,0.68983859,1.0,0.739735447,0.0,0.366895945,True,,5f316e50b2f8590176cb8800,,1911023,120,,evan-feature22,full_rf_a,,1
95,9266,121,,,,2,2,1.0,1.0,0.0,-1.0,,0.0-123.0,,-1.0,1569.815,1.0,0.40998722600000004,1.0,0.720859127,1.0,0.673854955,1.0,0.368528541,True,,5f316e50b2f8590176cb8800,,1922438,121,,evan-feature22,full_rf_a,,0
96,9267,122,,,,2,2,1.0,0.0,1.0,0.0,,0.0-124.0,,1.0,1473.335,0.0,0.353625316,1.0,0.75,1.0,0.695605473,0.0,0.38303674200000004,True,,5f316e50b2f8590176cb8800,,1933736,122,,evan-feature22,full_rf_a,,0
97,9268,123,,,,1,1,0.0,1.0,0.0,-1.0,,0.0-125.0,,-1.0,874.6450001000001,0.0,0.359216989,1.0,0.75,1.0,0.6987915090000001,1.0,0.35169046200000004,True,,5f316e50b2f8590176cb8800,,1944440,123,,evan-feature22,full_rf_a,,1
98,9269,124,,,,2,2,1.0,1.0,1.0,0.0,,0.0-126.0,,1.0,1023.925,0.0,0.35834496899999996,1.0,0.75,1.0,0.707067742,1.0,0.416763636,True,,5f316e50b2f8590176cb8800,,1955302,124,,evan-feature22,full_rf_a,,1
99,9270,125,,,,2,2,1.0,0.0,1.0,0.0,,0.0-127.0,,1.0,879.22,1.0,0.38741613799999997,1.0,0.7177369570000001,1.0,0.734902455,0.0,0.49438664299999996,True,,5f316e50b2f8590176cb8800,,1966002,125,,evan-feature22,full_rf_a,,0
100,9271,126,,,,1,1,0.0,1.0,0.0,-1.0,,0.0-128.0,,-1.0,645.9750002000001,0.0,0.405255252,1.0,0.7300466640000001,1.0,0.7027748070000001,0.0,0.504359668,True,,5f316e50b2f8590176cb8800,,1976498,126,,evan-feature22,full_rf_a,,1
101,9272,127,,,,2,2,1.0,0.0,0.0,-1.0,,0.0-129.0,,0.0,879.1099998999999,0.0,0.40697073,1.0,0.7260142190000001,1.0,0.724461982,0.0,0.522779179,True,,5f316e50b2f8590176cb8800,,1987214,127,,evan-feature22,full_rf_a,,1
102,9273,128,,,,2,2,1.0,0.0,0.0,-1.0,,0.0-130.0,,0.0,857.455,0.0,0.43906215299999996,0.0,0.7252802340000001,1.0,0.719079934,0.0,0.5712990579999999,True,,5f316e50b2f8590176cb8800,,1997882,128,,evan-feature22,full_rf_a,,0
103,9274,129,,,,2,2,0.0,0.0,0.0,-1.0,,0.0-131.0,,0.0,830.6099998,0.0,0.4076705,0.0,0.73280499,0.0,0.681313127,0.0,0.523891346,True,,5f316e50b2f8590176cb8800,,2008552,129,,evan-feature22,full_rf_a,,0
104,9275,130,,,,2,2,1.0,1.0,0.0,-1.0,,0.0-132.0,,-1.0,3075.295,0.0,0.399102911,0.0,0.730498344,1.0,0.661080239,1.0,0.46742603,True,,5f316e50b2f8590176cb8800,,2021451,130,,evan-feature22,full_rf_a,,0
105,9276,131,,,,2,2,0.0,0.0,1.0,0.0,,0.0-133.0,,0.0,676.4799998999999,0.0,0.356477282,1.0,0.712296395,0.0,0.641812684,0.0,0.44868414,True,,5f316e50b2f8590176cb8800,,2031955,131,,evan-feature22,full_rf_a,,0
106,9277,132,,,,2,2,1.0,0.0,0.0,-1.0,,0.0-134.0,,0.0,1457.97,1.0,0.462760722,1.0,0.692349322,1.0,0.700947931,0.0,0.394680266,True,,5f316e50b2f8590176cb8800,,2043262,132,,evan-feature22,full_rf_a,,0
107,9278,133,,,,SLOW,SLOW,,,0.0,-1.0,,0.0-135.0,,-3.0,,0.0,0.422306413,0.0,0.718375916,1.0,0.706340917,1.0,0.367787185,True,,5f316e50b2f8590176cb8800,,2049085,133,,evan-feature22,full_rf_a,,1
108,9280,135,,,,2,2,1.0,0.0,0.0,-1.0,,0.0-137.0,,0.0,846.955,0.0,0.4582233,0.0,0.643834117,1.0,0.75,0.0,0.39615823299999997,True,,5f316e50b2f8590176cb8800,,2062333,135,,evan-feature22,full_rf_a,,1
109,9281,136,,,,2,2,1.0,1.0,0.0,-1.0,,0.0-138.0,,-1.0,630.07,0.0,0.43813437899999996,1.0,0.651283804,1.0,0.729674191,1.0,0.37711048,True,,5f316e50b2f8590176cb8800,,2072790,136,,evan-feature22,full_rf_a,,0
110,9282,137,,,,2,2,1.0,1.0,0.0,-1.0,,0.0-139.0,,-1.0,193.35999990000002,1.0,0.471199094,1.0,0.6470010979999999,1.0,0.715008097,1.0,0.410656191,True,,5f316e50b2f8590176cb8800,,2082803,137,,evan-feature22,full_rf_a,,0
111,9283,138,,,,2,2,1.0,0.0,1.0,0.0,,0.0-140.0,,1.0,1089.065,0.0,0.42486406,1.0,0.629771829,1.0,0.6550939960000001,0.0,0.459093873,True,,5f316e50b2f8590176cb8800,,2093711,138,,evan-feature22,full_rf_a,,0
112,9284,139,,,,2,2,1.0,1.0,1.0,0.0,,0.0-141.0,,1.0,960.2000001,1.0,0.4803197,1.0,0.645842715,1.0,0.6421749920000001,1.0,0.443092151,True,,5f316e50b2f8590176cb8800,,2104478,139,,evan-feature22,full_rf_a,,0
113,9285,140,,,,2,2,0.0,0.0,1.0,0.0,,0.0-142.0,,0.0,890.72,0.0,0.521848997,1.0,0.735801074,0.0,0.6691348460000001,0.0,0.45259351600000003,True,,5f316e50b2f8590176cb8800,,2115205,140,,evan-feature22,full_rf_a,,0
114,9286,141,,,,1,1,0.0,0.0,0.0,-1.0,,0.0-143.0,,0.0,810.2499999,0.0,0.49565621299999996,0.0,0.742400847,0.0,0.661512553,1.0,0.483110831,True,,5f316e50b2f8590176cb8800,,2125833,141,,evan-feature22,full_rf_a,,1
115,9287,142,,,,2,2,1.0,1.0,1.0,0.0,,0.0-144.0,,1.0,894.2800001,1.0,0.521564361,0.0,0.731078632,1.0,0.6774886809999999,1.0,0.483263956,True,,5f316e50b2f8590176cb8800,,2136556,142,,evan-feature22,full_rf_a,,1
116,9288,143,,,,2,2,0.0,1.0,1.0,0.0,,0.0-145.0,,0.0,636.0599999,1.0,0.558893102,1.0,0.719810023,0.0,0.67461031,1.0,0.499349834,True,,5f316e50b2f8590176cb8800,,2146989,143,,evan-feature22,full_rf_a,,0
117,9289,144,,,,SLOW,SLOW,,,0.0,-1.0,,0.0-146.0,,-3.0,,1.0,0.611031046,0.0,0.75,0.0,0.688072995,1.0,0.5321422729999999,True,,5f316e50b2f8590176cb8800,,2152827,144,,evan-feature22,full_rf_a,,1
118,9290,145,,,,2,2,1.0,1.0,1.0,0.0,,0.0-147.0,,1.0,1031.56,0.0,0.633223941,0.0,0.713567728,1.0,0.75,1.0,0.48185314700000004,True,,5f316e50b2f8590176cb8800,,2163710,145,,evan-feature22,full_rf_a,,1
119,9291,146,,,,2,2,0.0,1.0,1.0,0.0,,0.0-148.0,,0.0,423.54000010000004,1.0,0.664001694,1.0,0.705509768,0.0,0.75,1.0,0.500211065,True,,5f316e50b2f8590176cb8800,,2173964,146,,evan-feature22,full_rf_a,,0
120,9292,147,,,,2,2,1.0,0.0,0.0,-1.0,,0.0-149.0,,0.0,1426.495,0.0,0.664001694,1.0,0.705509768,1.0,0.75,0.0,0.500211065,True,,5f316e50b2f8590176cb8800,,2185224,147,,evan-feature22,full_rf_a,,0
121,9293,148,,,,1,1,1.0,0.0,0.0,-1.0,,0.0-150.0,,0.0,1062.215,1.0,0.696508041,0.0,0.71066027,1.0,0.717028709,1.0,0.49792991,True,,5f316e50b2f8590176cb8800,,2196124,148,,evan-feature22,full_rf_a,,1
122,9294,149,,,,2,2,1.0,0.0,1.0,0.0,,0.0-151.0,,1.0,838.0400001,1.0,0.699883272,1.0,0.75,1.0,0.713543895,0.0,0.496962643,True,,5f316e50b2f8590176cb8800,,2206808,149,,evan-feature22,full_rf_a,,1
123,9295,150,,,,1,1,0.0,1.0,0.0,-1.0,,0.0-152.0,,-1.0,1247.405,0.0,0.741163419,1.0,0.75,1.0,0.64691024,1.0,0.513858197,True,,5f316e50b2f8590176cb8800,,2217881,150,,evan-feature22,full_rf_a,,1
124,9296,151,,,,2,2,1.0,1.0,1.0,0.0,,0.0-153.0,,1.0,840.905,0.0,0.75,1.0,0.70816558,1.0,0.594499079,1.0,0.48502124,True,,5f316e50b2f8590176cb8800,,2228540,151,,evan-feature22,full_rf_a,,1
125,9297,152,,,,2,2,0.0,1.0,0.0,-1.0,,0.0-154.0,,-1.0,2253.365,1.0,0.75,0.0,0.721848901,0.0,0.62197249,1.0,0.48263586399999997,True,,5f316e50b2f8590176cb8800,,2240615,152,,evan-feature22,full_rf_a,,0
126,9298,153,,,,2,2,0.0,0.0,1.0,0.0,,0.0-155.0,,0.0,642.1399999,0.0,0.75,1.0,0.74813071,0.0,0.584357161,0.0,0.411477782,True,,5f316e50b2f8590176cb8800,,2251071,153,,evan-feature22,full_rf_a,,0
127,9299,154,,,,2,2,0.0,0.0,0.0,-1.0,,0.0-156.0,,0.0,689.2550001,1.0,0.75,1.0,0.75,0.0,0.52287236,0.0,0.488290656,True,,5f316e50b2f8590176cb8800,,2261571,154,,evan-feature22,full_rf_a,,0
128,9300,155,,,,1,1,1.0,1.0,0.0,-1.0,,0.0-157.0,,-1.0,839.04,1.0,0.75,1.0,0.75,1.0,0.544321581,1.0,0.53143059,True,,5f316e50b2f8590176cb8800,,2272230,155,,evan-feature22,full_rf_a,,1
129,9301,156,,,,2,2,1.0,0.0,0.0,-1.0,,0.0-158.0,,0.0,543.5449997999999,0.0,0.726754564,1.0,0.75,1.0,0.5129306370000001,0.0,0.530592445,True,,5f316e50b2f8590176cb8800,,2282612,156,,evan-feature22,full_rf_a,,1
130,9302,157,,,,2,2,1.0,0.0,1.0,0.0,,0.0-159.0,,1.0,556.695,1.0,0.75,1.0,0.7392590729999999,1.0,0.479875835,0.0,0.547007051,True,,5f316e50b2f8590176cb8800,,2293005,157,,evan-feature22,full_rf_a,,0
131,9303,158,,,,2,2,1.0,0.0,1.0,0.0,,0.0-160.0,,1.0,969.2250001,1.0,0.75,1.0,0.7393376979999999,1.0,0.546045419,0.0,0.541267353,True,,5f316e50b2f8590176cb8800,,2303787,158,,evan-feature22,full_rf_a,,0
132,9304,159,,,,2,2,0.0,1.0,1.0,0.0,,0.0-161.0,,0.0,515.4549999,0.0,0.75,0.0,0.75,0.0,0.485725895,1.0,0.527625395,True,,5f316e50b2f8590176cb8800,,2314154,159,,evan-feature22,full_rf_a,,0
133,9305,160,,,,1,1,0.0,0.0,0.0,-1.0,,0.0-162.0,,0.0,932.885,0.0,0.75,0.0,0.725087974,1.0,0.488603595,0.0,0.504019206,True,,5f316e50b2f8590176cb8800,,2324920,160,,evan-feature22,full_rf_a,,1
134,9306,161,,,,2,2,0.0,0.0,0.0,-1.0,,0.0-163.0,,0.0,1063.365,0.0,0.745504295,1.0,0.75,0.0,0.452379914,0.0,0.50131194,True,,5f316e50b2f8590176cb8800,,2335803,161,,evan-feature22,full_rf_a,,1
135,9307,162,,,,2,2,1.0,1.0,0.0,-1.0,,0.0-164.0,,-1.0,1091.2,0.0,0.728513874,1.0,0.75,1.0,0.44125567200000004,1.0,0.531454591,True,,5f316e50b2f8590176cb8800,,2346711,162,,evan-feature22,full_rf_a,,0
136,9308,163,,,,2,2,0.0,1.0,1.0,0.0,,0.0-165.0,,0.0,560.235,1.0,0.73790804,1.0,0.75,0.0,0.413036656,1.0,0.524619035,True,,5f316e50b2f8590176cb8800,,2357087,163,,evan-feature22,full_rf_a,,0
137,9309,164,,,,2,2,0.0,1.0,0.0,-1.0,,0.0-166.0,,-1.0,989.9599999,1.0,0.7080961309999999,0.0,0.708666865,0.0,0.431915581,1.0,0.481819489,True,,5f316e50b2f8590176cb8800,,2367901,164,,evan-feature22,full_rf_a,,0
138,9310,165,,,,1,1,1.0,1.0,0.0,-1.0,,0.0-167.0,,-1.0,1107.87,1.0,0.721378003,1.0,0.71605913,1.0,0.36642387,1.0,0.5036739929999999,True,,5f316e50b2f8590176cb8800,,2378829,165,,evan-feature22,full_rf_a,,1
139,9311,166,,,,1,1,0.0,1.0,0.0,-1.0,,0.0-168.0,,-1.0,1266.49,0.0,0.7340618959999999,1.0,0.699323252,1.0,0.35298046299999997,1.0,0.511241692,True,,5f316e50b2f8590176cb8800,,2389916,166,,evan-feature22,full_rf_a,,0
140,9312,167,,,,2,2,1.0,0.0,1.0,0.0,,0.0-169.0,,1.0,1224.095,1.0,0.75,1.0,0.70412698,1.0,0.380734814,0.0,0.529580116,True,,5f316e50b2f8590176cb8800,,2400963,167,,evan-feature22,full_rf_a,,1
141,9313,168,,,,1,1,1.0,0.0,0.0,-1.0,,0.0-170.0,,0.0,869.0150001000001,1.0,0.7436654909999999,0.0,0.711182751,1.0,0.41125331,0.0,0.49554405,True,,5f316e50b2f8590176cb8800,,2411661,168,,evan-feature22,full_rf_a,,1
142,9314,169,,,,1,1,1.0,1.0,0.0,-1.0,,0.0-171.0,,-1.0,838.245,1.0,0.731607915,1.0,0.651774583,1.0,0.35688023,1.0,0.45194491600000003,True,,5f316e50b2f8590176cb8800,,2422340,169,,evan-feature22,full_rf_a,,0
143,9315,170,,,,2,2,0.0,1.0,1.0,0.0,,0.0-172.0,,0.0,785.0600001,1.0,0.75,0.0,0.75,0.0,0.283145374,1.0,0.528608005,True,,5f316e50b2f8590176cb8800,,2432961,170,,evan-feature22,full_rf_a,,1
144,9316,171,,,,2,2,0.0,1.0,1.0,0.0,,0.0-173.0,,0.0,546.7900001,1.0,0.7491416890000001,1.0,0.7423785959999999,0.0,0.29135870399999997,1.0,0.498888318,True,,5f316e50b2f8590176cb8800,,2443314,171,,evan-feature22,full_rf_a,,0
145,9317,172,,,,2,2,1.0,1.0,1.0,0.0,,0.0-174.0,,1.0,953.765,1.0,0.708569387,1.0,0.717682277,1.0,0.294421699,1.0,0.493838163,True,,5f316e50b2f8590176cb8800,,2454092,172,,evan-feature22,full_rf_a,,0
146,9318,173,,,,1,1,1.0,1.0,0.0,-1.0,,0.0-175.0,,-1.0,748.015,1.0,0.75,1.0,0.7383382159999999,1.0,0.356098707,1.0,0.442533405,True,,5f316e50b2f8590176cb8800,,2464660,173,,evan-feature22,full_rf_a,,1
147,9319,174,,,,2,2,0.0,1.0,0.0,-1.0,,0.0-176.0,,-1.0,788.4549999,1.0,0.744527075,1.0,0.75,0.0,0.334127506,1.0,0.393165805,True,,5f316e50b2f8590176cb8800,,2475265,174,,evan-feature22,full_rf_a,,1
148,9320,175,,,,1,1,1.0,1.0,0.0,-1.0,,0.0-177.0,,-1.0,1254.565,1.0,0.75,1.0,0.75,0.0,0.33571021799999995,0.0,0.350393962,True,,5f316e50b2f8590176cb8800,,2486330,175,,evan-feature22,full_rf_a,,1
149,9321,176,,,,2,2,0.0,0.0,0.0,-1.0,,0.0-178.0,,0.0,810.1250001,1.0,0.75,1.0,0.75,0.0,0.313628297,0.0,0.36349657399999996,True,,5f316e50b2f8590176cb8800,,2496957,176,,evan-feature22,full_rf_a,,1
150,9322,177,,,,2,2,0.0,0.0,1.0,0.0,,0.0-179.0,,0.0,1673.035,0.0,0.75,1.0,0.734284182,0.0,0.262667667,0.0,0.380199119,True,,5f316e50b2f8590176cb8800,,2508435,177,,evan-feature22,full_rf_a,,0
151,9323,178,,,,1,1,1.0,1.0,0.0,-1.0,,0.0-180.0,,-1.0,1166.645,1.0,0.75,1.0,0.75,1.0,0.25,0.0,0.394494013,True,,5f316e50b2f8590176cb8800,,2519444,178,,evan-feature22,full_rf_a,,1
152,9324,179,,,,2,2,0.0,0.0,1.0,0.0,,0.0-181.0,,0.0,793.2,1.0,0.722298145,0.0,0.7357822340000001,0.0,0.25,0.0,0.319142121,True,,5f316e50b2f8590176cb8800,,2530061,179,,evan-feature22,full_rf_a,,1
153,9325,180,,,,2,2,0.0,1.0,1.0,0.0,,0.0-182.0,,0.0,1078.86,1.0,0.73149275,0.0,0.724276446,0.0,0.305856907,1.0,0.281315057,True,,5f316e50b2f8590176cb8800,,2540965,180,,evan-feature22,full_rf_a,,0
154,9326,181,,,,1,1,1.0,0.0,0.0,-1.0,,0.0-183.0,,0.0,1280.35,1.0,0.7458732690000001,0.0,0.7336382459999999,0.0,0.272571964,1.0,0.266021999,True,,5f316e50b2f8590176cb8800,,2552060,181,,evan-feature22,full_rf_a,,1
155,9327,182,,,,2,2,1.0,0.0,0.0,-1.0,,0.0-184.0,,0.0,2289.725,1.0,0.705579037,1.0,0.720778292,1.0,0.320238144,0.0,0.30971744,True,,5f316e50b2f8590176cb8800,,2564178,182,,evan-feature22,full_rf_a,,1
156,9328,183,,,,2,2,1.0,1.0,0.0,-1.0,,0.0-185.0,,-1.0,850.5250001,1.0,0.700425648,1.0,0.7198784009999999,1.0,0.272590393,1.0,0.304182931,True,,5f316e50b2f8590176cb8800,,2574848,183,,evan-feature22,full_rf_a,,0
157,9329,184,,,,1,1,1.0,1.0,0.0,-1.0,,0.0-186.0,,-1.0,1018.845,1.0,0.735590785,1.0,0.722714973,0.0,0.25,1.0,0.323421091,True,,5f316e50b2f8590176cb8800,,2585700,184,,evan-feature22,full_rf_a,,1
158,9330,185,,,,2,2,0.0,0.0,0.0,-1.0,,0.0-187.0,,0.0,567.6549999,1.0,0.724807662,0.0,0.63146213,0.0,0.36836492600000004,0.0,0.34592153299999995,True,,5f316e50b2f8590176cb8800,,2596066,185,,evan-feature22,full_rf_a,,1
159,9331,186,,,,2,2,1.0,0.0,0.0,-1.0,,0.0-188.0,,0.0,1347.82,1.0,0.7352796909999999,0.0,0.555111392,1.0,0.36003922,0.0,0.31433779999999995,True,,5f316e50b2f8590176cb8800,,2607244,186,,evan-feature22,full_rf_a,,0
160,9332,187,notice,,,,,,,,,,0.0-189.0,"{""Q0"":""The left door started to lead to more gold aliens""}",,20205.0,,,,,,,,,True,,5f316e50b2f8590176cb8800,,2627454,187,Q,survey-text,full_rf_a,,1
161,9333,188,track1,,[0],,,,,,,,0.0-190.0,"{""Q0"":""yes""}",,8103.0,,,,,,,,,True,,5f316e50b2f8590176cb8800,,2635566,188,Q,evan-quiz,full_rf_a,,1
162,9334,189,track2,,[2],,,,,,,,0.0-191.0,"{""Q0"":""N/A""}",,10054.0,,,,,,,,,True,,5f316e50b2f8590176cb8800,,2645626,189,Q,evan-quiz,full_rf_a,,1
163,9335,190,strat,,,,,,,,,,0.0-192.0,"{""Q0"":""I would base my desicion off of the results from the last couple of turns.""}",,29432.0,,,,,,,,,True,,5f316e50b2f8590176cb8800,,2675064,190,Q,survey-text,full_rf_a,,1
