,index,Unnamed: 0,Q_name,button_pressed,choice_idxs,chosen_pos,chosen_state,chosen_state_f_1_outcome,chosen_state_f_2_outcome,f_1_reward,f_2_reward,incor_questions,internal_node_id,responses,reward_received,rt,s_1_f_1_outcome,s_1_f_1_prob,s_1_f_2_outcome,s_1_f_2_prob,s_2_f_1_outcome,s_2_f_1_prob,s_2_f_2_outcome,s_2_f_2_prob,safe_first,stimulus,subjectID,success,time_elapsed,trial_index,trial_num,trial_type,version,view_history,switching
0,6280,25,,,,1,1,1.0,1.0,-1.0,0.0,,0.0-27.0,,-1.0,1992.04,1.0,0.6,1.0,0.6,0.0,0.4,0.0,0.4,False,,5f5199d96cfa743e8c9d0541,,375681,25,,evan-feature22,full_pf_b,,0
1,6281,26,,,,2,2,0.0,1.0,-1.0,0.0,,0.0-28.0,,0.0,852.5399999,0.0,0.608053294,1.0,0.63424552,0.0,0.397152172,1.0,0.347069101,False,,5f5199d96cfa743e8c9d0541,,386298,26,,evan-feature22,full_pf_b,,1
2,6282,27,,,,2,2,0.0,0.0,-1.0,0.0,,0.0-29.0,,0.0,1323.83,1.0,0.642237155,1.0,0.648566321,0.0,0.389407674,0.0,0.285525717,False,,5f5199d96cfa743e8c9d0541,,397384,27,,evan-feature22,full_pf_b,,0
3,6283,28,,,,1,1,1.0,0.0,-1.0,0.0,,0.0-30.0,,-1.0,429.1400001,1.0,0.661086576,0.0,0.630492543,0.0,0.399058924,0.0,0.25,False,,5f5199d96cfa743e8c9d0541,,407578,28,,evan-feature22,full_pf_b,,1
4,6284,29,,,,2,2,0.0,0.0,0.0,1.0,,0.0-31.0,,0.0,708.2850002,1.0,0.631324137,1.0,0.6269842929999999,0.0,0.38734784299999997,0.0,0.25,False,,5f5199d96cfa743e8c9d0541,,418048,29,,evan-feature22,full_pf_b,,1
5,6285,30,,,,1,1,0.0,1.0,0.0,1.0,,0.0-32.0,,1.0,485.3449999,0.0,0.6381991370000001,1.0,0.68987999,1.0,0.384107265,0.0,0.271332943,False,,5f5199d96cfa743e8c9d0541,,428296,30,,evan-feature22,full_pf_b,,1
6,6286,31,,,,1,1,1.0,1.0,-1.0,0.0,,0.0-33.0,,-1.0,701.9150001,1.0,0.66034901,1.0,0.742641349,1.0,0.360225629,0.0,0.25,False,,5f5199d96cfa743e8c9d0541,,438761,31,,evan-feature22,full_pf_b,,0
7,6287,32,,,,2,2,1.0,1.0,-1.0,0.0,,0.0-34.0,,-1.0,466.6849999,1.0,0.638612418,1.0,0.75,1.0,0.367273939,1.0,0.25,False,,5f5199d96cfa743e8c9d0541,,448993,32,,evan-feature22,full_pf_b,,1
8,6288,33,,,,2,2,1.0,0.0,0.0,1.0,,0.0-35.0,,0.0,604.8099999,1.0,0.624340629,1.0,0.75,1.0,0.425829545,0.0,0.25,False,,5f5199d96cfa743e8c9d0541,,459361,33,,evan-feature22,full_pf_b,,0
9,6289,34,,,,2,2,1.0,1.0,0.0,1.0,,0.0-36.0,,1.0,1341.185,0.0,0.621999804,1.0,0.75,1.0,0.368609357,1.0,0.25,False,,5f5199d96cfa743e8c9d0541,,470467,34,,evan-feature22,full_pf_b,,0
10,6290,35,,,,2,2,0.0,0.0,-1.0,0.0,,0.0-37.0,,0.0,626.0650002,0.0,0.62666403,1.0,0.75,0.0,0.311151498,0.0,0.25,False,,5f5199d96cfa743e8c9d0541,,480857,35,,evan-feature22,full_pf_b,,0
11,6291,36,,,,2,2,0.0,0.0,0.0,1.0,,0.0-38.0,,0.0,483.4700001,1.0,0.6819650009999999,1.0,0.75,0.0,0.310763048,0.0,0.25,False,,5f5199d96cfa743e8c9d0541,,491104,36,,evan-feature22,full_pf_b,,0
12,6292,37,,,,1,1,1.0,1.0,-1.0,0.0,,0.0-39.0,,-1.0,365.3750001,1.0,0.740626951,1.0,0.75,0.0,0.25,0.0,0.25,False,,5f5199d96cfa743e8c9d0541,,501233,37,,evan-feature22,full_pf_b,,1
13,6293,38,,,,2,2,0.0,0.0,-1.0,0.0,,0.0-40.0,,0.0,812.3900001000001,0.0,0.739599242,1.0,0.742034978,0.0,0.25397114600000004,0.0,0.25,False,,5f5199d96cfa743e8c9d0541,,511808,38,,evan-feature22,full_pf_b,,1
14,6294,39,,,,1,1,0.0,1.0,-1.0,0.0,,0.0-41.0,,0.0,356.13,0.0,0.732341315,1.0,0.72735643,0.0,0.25,0.0,0.25,False,,5f5199d96cfa743e8c9d0541,,521930,39,,evan-feature22,full_pf_b,,1
15,6295,40,,,,1,1,1.0,0.0,-1.0,0.0,,0.0-42.0,,-1.0,2091.115,1.0,0.7062287770000001,0.0,0.75,1.0,0.29002151,0.0,0.288256649,False,,5f5199d96cfa743e8c9d0541,,533785,40,,evan-feature22,full_pf_b,,0
16,6296,41,,,,2,2,1.0,0.0,-1.0,0.0,,0.0-43.0,,-1.0,531.7849999,1.0,0.7086029209999999,1.0,0.75,1.0,0.274129113,0.0,0.262851608,False,,5f5199d96cfa743e8c9d0541,,544080,41,,evan-feature22,full_pf_b,,1
17,6297,42,,,,1,1,1.0,0.0,-1.0,0.0,,0.0-44.0,,-1.0,669.0750001,1.0,0.669189651,0.0,0.727614338,0.0,0.298444036,0.0,0.296944518,False,,5f5199d96cfa743e8c9d0541,,554514,42,,evan-feature22,full_pf_b,,1
18,6298,43,,,,2,2,0.0,0.0,-1.0,0.0,,0.0-45.0,,0.0,362.2000001,0.0,0.6819912929999999,1.0,0.7179434290000001,0.0,0.265003961,0.0,0.28157921199999997,False,,5f5199d96cfa743e8c9d0541,,564639,43,,evan-feature22,full_pf_b,,1
19,6299,44,,,,1,1,1.0,0.0,0.0,1.0,,0.0-46.0,,0.0,382.005,1.0,0.665275002,0.0,0.723065271,0.0,0.260414971,0.0,0.30973870000000003,False,,5f5199d96cfa743e8c9d0541,,574785,44,,evan-feature22,full_pf_b,,1
20,6300,45,,,,1,1,1.0,1.0,-1.0,0.0,,0.0-47.0,,-1.0,749.36,1.0,0.6660593260000001,1.0,0.728032907,0.0,0.30922817,0.0,0.338778608,False,,5f5199d96cfa743e8c9d0541,,585299,45,,evan-feature22,full_pf_b,,0
21,6301,46,,,,2,2,1.0,1.0,-1.0,0.0,,0.0-48.0,,-1.0,465.7700001,0.0,0.702068785,1.0,0.6528750879999999,1.0,0.287329608,1.0,0.35789613200000003,False,,5f5199d96cfa743e8c9d0541,,595530,46,,evan-feature22,full_pf_b,,1
22,6302,47,,,,1,1,0.0,1.0,-1.0,0.0,,0.0-49.0,,0.0,387.4849998,0.0,0.651939787,1.0,0.636725589,0.0,0.284834488,1.0,0.358563756,False,,5f5199d96cfa743e8c9d0541,,605683,47,,evan-feature22,full_pf_b,,1
23,6303,48,,,,1,1,1.0,0.0,0.0,1.0,,0.0-50.0,,0.0,1425.705,1.0,0.67573929,0.0,0.612550049,0.0,0.37130387600000003,1.0,0.383542402,False,,5f5199d96cfa743e8c9d0541,,616875,48,,evan-feature22,full_pf_b,,0
24,6304,49,,,,1,1,0.0,1.0,0.0,1.0,,0.0-51.0,,1.0,410.375,0.0,0.620753801,1.0,0.60513644,0.0,0.385529434,0.0,0.340361743,False,,5f5199d96cfa743e8c9d0541,,627050,49,,evan-feature22,full_pf_b,,0
25,6305,50,,,,1,1,1.0,0.0,0.0,1.0,,0.0-52.0,,0.0,763.5649999,1.0,0.673564893,0.0,0.672437924,0.0,0.292955382,0.0,0.337633795,False,,5f5199d96cfa743e8c9d0541,,637581,50,,evan-feature22,full_pf_b,,0
26,6306,51,,,,1,1,0.0,0.0,-1.0,0.0,,0.0-53.0,,0.0,880.4749998,0.0,0.6749427,0.0,0.724197502,0.0,0.32391132100000003,1.0,0.350995264,False,,5f5199d96cfa743e8c9d0541,,648226,51,,evan-feature22,full_pf_b,,0
27,6307,52,,,,2,2,0.0,0.0,-1.0,0.0,,0.0-54.0,,0.0,442.13499989999997,0.0,0.6940159379999999,0.0,0.75,0.0,0.31710554399999996,0.0,0.413450341,False,,5f5199d96cfa743e8c9d0541,,658431,52,,evan-feature22,full_pf_b,,1
28,6308,53,,,,2,2,0.0,0.0,-1.0,0.0,,0.0-55.0,,0.0,558.5350001,1.0,0.6916018270000001,0.0,0.69001187,0.0,0.261817804,0.0,0.40038635,False,,5f5199d96cfa743e8c9d0541,,668751,53,,evan-feature22,full_pf_b,,0
29,6309,54,,,,1,1,1.0,1.0,-1.0,0.0,,0.0-56.0,,-1.0,453.2399999,1.0,0.641061544,1.0,0.71337992,0.0,0.277296461,0.0,0.47372791700000005,False,,5f5199d96cfa743e8c9d0541,,678969,54,,evan-feature22,full_pf_b,,1
30,6310,55,,,,2,2,1.0,0.0,-1.0,0.0,,0.0-57.0,,-1.0,1244.19,1.0,0.6082438520000001,0.0,0.708471106,1.0,0.28745137,0.0,0.564174476,False,,5f5199d96cfa743e8c9d0541,,689977,55,,evan-feature22,full_pf_b,,1
31,6311,56,,,,1,1,0.0,0.0,-1.0,0.0,,0.0-58.0,,0.0,484.165,0.0,0.6051112120000001,0.0,0.7118147229999999,0.0,0.272390611,0.0,0.5595149939999999,False,,5f5199d96cfa743e8c9d0541,,700223,56,,evan-feature22,full_pf_b,,1
32,6312,57,,,,1,1,1.0,0.0,-1.0,0.0,,0.0-59.0,,-1.0,605.6850001,1.0,0.582420852,0.0,0.635867583,0.0,0.31089574,1.0,0.5227206520000001,False,,5f5199d96cfa743e8c9d0541,,710592,57,,evan-feature22,full_pf_b,,0
33,6313,58,,,,2,2,0.0,1.0,0.0,1.0,,0.0-60.0,,1.0,820.94,1.0,0.623195575,0.0,0.655026044,0.0,0.25,1.0,0.560387538,False,,5f5199d96cfa743e8c9d0541,,721179,58,,evan-feature22,full_pf_b,,1
34,6314,59,,,,2,2,0.0,1.0,-1.0,0.0,,0.0-61.0,,0.0,529.7049999,1.0,0.601889598,1.0,0.678198724,0.0,0.25,1.0,0.559922936,False,,5f5199d96cfa743e8c9d0541,,731473,59,,evan-feature22,full_pf_b,,0
35,6315,60,,,,2,2,1.0,0.0,-1.0,0.0,,0.0-62.0,,-1.0,940.25,1.0,0.601259914,1.0,0.704681482,1.0,0.33908969299999997,0.0,0.505003715,False,,5f5199d96cfa743e8c9d0541,,742177,60,,evan-feature22,full_pf_b,,0
36,6316,61,,,,1,1,1.0,1.0,-1.0,0.0,,0.0-63.0,,-1.0,444.20499979999994,1.0,0.59645454,1.0,0.710437172,1.0,0.327441879,0.0,0.391749613,False,,5f5199d96cfa743e8c9d0541,,752384,61,,evan-feature22,full_pf_b,,1
37,6317,62,,,,2,2,1.0,1.0,-1.0,0.0,,0.0-64.0,,-1.0,1341.18,1.0,0.529473,1.0,0.636758527,1.0,0.301338063,1.0,0.365661481,False,,5f5199d96cfa743e8c9d0541,,763488,62,,evan-feature22,full_pf_b,,1
38,6318,63,,,,1,1,0.0,0.0,0.0,1.0,,0.0-65.0,,0.0,628.9050002,0.0,0.541657162,0.0,0.634541962,0.0,0.343535366,1.0,0.371763742,False,,5f5199d96cfa743e8c9d0541,,773878,63,,evan-feature22,full_pf_b,,1
39,6319,64,,,,2,2,0.0,1.0,-1.0,0.0,,0.0-66.0,,0.0,1367.085,0.0,0.5707533260000001,1.0,0.589121171,0.0,0.326428396,1.0,0.43961622899999997,False,,5f5199d96cfa743e8c9d0541,,785005,64,,evan-feature22,full_pf_b,,1
40,6320,65,,,,2,2,0.0,0.0,-1.0,0.0,,0.0-67.0,,0.0,384.015,1.0,0.5707533260000001,0.0,0.589121171,0.0,0.326428396,0.0,0.43961622899999997,False,,5f5199d96cfa743e8c9d0541,,795149,65,,evan-feature22,full_pf_b,,0
41,6321,66,,,,2,2,0.0,1.0,-1.0,0.0,,0.0-68.0,,0.0,408.1249998,0.0,0.506271295,1.0,0.641775594,0.0,0.37149690700000004,1.0,0.404330166,False,,5f5199d96cfa743e8c9d0541,,805316,66,,evan-feature22,full_pf_b,,0
42,6322,67,,,,1,1,0.0,0.0,0.0,1.0,,0.0-69.0,,0.0,3312.94,0.0,0.455642565,0.0,0.623605825,1.0,0.358753011,0.0,0.346174041,False,,5f5199d96cfa743e8c9d0541,,818388,67,,evan-feature22,full_pf_b,,1
43,6323,68,,,,SLOW,SLOW,,,0.0,1.0,,0.0-70.0,,-3.0,,0.0,0.483677308,0.0,0.5904681070000001,1.0,0.402218411,0.0,0.35344697,False,,5f5199d96cfa743e8c9d0541,,824194,68,,evan-feature22,full_pf_b,,1
44,6324,69,,,,2,2,1.0,0.0,0.0,1.0,,0.0-71.0,,0.0,1027.68,1.0,0.394210977,0.0,0.558925494,1.0,0.540052017,0.0,0.35182128700000004,False,,5f5199d96cfa743e8c9d0541,,834981,69,,evan-feature22,full_pf_b,,1
45,6325,70,,,,1,1,0.0,1.0,-1.0,0.0,,0.0-72.0,,0.0,2224.965,0.0,0.382300414,1.0,0.577670603,0.0,0.607608448,1.0,0.378261578,False,,5f5199d96cfa743e8c9d0541,,846967,70,,evan-feature22,full_pf_b,,1
46,6326,71,,,,2,2,1.0,1.0,-1.0,0.0,,0.0-73.0,,-1.0,534.0100001000001,1.0,0.357596762,1.0,0.5929076529999999,1.0,0.6579790010000001,1.0,0.401326777,False,,5f5199d96cfa743e8c9d0541,,857265,71,,evan-feature22,full_pf_b,,1
47,6327,72,,,,1,1,0.0,0.0,-1.0,0.0,,0.0-74.0,,0.0,452.1899999,0.0,0.362033495,0.0,0.582308608,0.0,0.649195052,0.0,0.355158505,False,,5f5199d96cfa743e8c9d0541,,867475,72,,evan-feature22,full_pf_b,,1
48,6328,73,,,,2,2,1.0,0.0,-1.0,0.0,,0.0-75.0,,-1.0,593.2799999,1.0,0.369620635,0.0,0.669100864,1.0,0.706059111,0.0,0.362516241,False,,5f5199d96cfa743e8c9d0541,,877829,73,,evan-feature22,full_pf_b,,1
49,6329,74,,,,1,1,1.0,0.0,-1.0,0.0,,0.0-76.0,,-1.0,374.8849998,1.0,0.41477751399999996,0.0,0.7284416779999999,1.0,0.7182656940000001,1.0,0.36228040899999997,False,,5f5199d96cfa743e8c9d0541,,887966,74,,evan-feature22,full_pf_b,,1
50,6330,75,,,,2,2,1.0,1.0,0.0,1.0,,0.0-77.0,,1.0,424.49000010000003,1.0,0.37675460299999997,1.0,0.703250285,1.0,0.75,1.0,0.461979164,False,,5f5199d96cfa743e8c9d0541,,898151,75,,evan-feature22,full_pf_b,,1
51,6331,76,,,,2,2,0.0,1.0,0.0,1.0,,0.0-78.0,,1.0,413.4550001,1.0,0.398716075,1.0,0.6723864890000001,0.0,0.674153818,1.0,0.519029516,False,,5f5199d96cfa743e8c9d0541,,908325,76,,evan-feature22,full_pf_b,,0
52,6332,77,,,,2,2,0.0,1.0,-1.0,0.0,,0.0-79.0,,0.0,1095.365,1.0,0.34677856700000004,0.0,0.69057175,0.0,0.6822438540000001,1.0,0.477292237,False,,5f5199d96cfa743e8c9d0541,,919183,77,,evan-feature22,full_pf_b,,0
53,6333,78,,,,2,2,0.0,1.0,0.0,1.0,,0.0-80.0,,1.0,774.885,0.0,0.28580469199999997,0.0,0.68408818,0.0,0.684207565,1.0,0.49780448299999996,False,,5f5199d96cfa743e8c9d0541,,929715,78,,evan-feature22,full_pf_b,,0
54,6335,80,,,,2,2,1.0,0.0,-1.0,0.0,,0.0-82.0,,-1.0,1919.635,1.0,0.25,1.0,0.7405808970000001,1.0,0.679614108,0.0,0.436436964,False,,5f5199d96cfa743e8c9d0541,,945770,80,,evan-feature22,full_pf_b,,0
55,6336,81,,,,1,1,0.0,1.0,0.0,1.0,,0.0-83.0,,1.0,586.53,0.0,0.29890393,1.0,0.730505706,1.0,0.7328203320000001,0.0,0.439256938,False,,5f5199d96cfa743e8c9d0541,,956117,81,,evan-feature22,full_pf_b,,1
56,6337,82,,,,1,1,0.0,1.0,-1.0,0.0,,0.0-84.0,,0.0,479.2150001,0.0,0.326762398,1.0,0.7148059609999999,1.0,0.75,0.0,0.44389608799999997,False,,5f5199d96cfa743e8c9d0541,,966359,82,,evan-feature22,full_pf_b,,0
57,6338,83,,,,1,1,0.0,1.0,-1.0,0.0,,0.0-85.0,,0.0,389.63499989999997,0.0,0.295168515,1.0,0.739760854,0.0,0.719947008,1.0,0.35277284600000003,False,,5f5199d96cfa743e8c9d0541,,976509,83,,evan-feature22,full_pf_b,,0
58,6339,84,,,,1,1,0.0,0.0,-1.0,0.0,,0.0-86.0,,0.0,400.5249999,0.0,0.25,0.0,0.70781482,1.0,0.75,0.0,0.286095925,False,,5f5199d96cfa743e8c9d0541,,986669,84,,evan-feature22,full_pf_b,,0
59,6340,85,,,,2,2,0.0,1.0,0.0,1.0,,0.0-87.0,,1.0,461.9849999,0.0,0.25638190899999996,1.0,0.704088163,0.0,0.75,1.0,0.26872601399999996,False,,5f5199d96cfa743e8c9d0541,,996892,85,,evan-feature22,full_pf_b,,1
60,6341,86,,,,2,2,1.0,1.0,0.0,1.0,,0.0-88.0,,1.0,407.7999999,0.0,0.271581126,0.0,0.669760107,1.0,0.733896663,1.0,0.273244572,False,,5f5199d96cfa743e8c9d0541,,1007063,86,,evan-feature22,full_pf_b,,0
61,6342,87,,,,2,2,1.0,0.0,0.0,1.0,,0.0-89.0,,0.0,598.215,0.0,0.257144401,1.0,0.600575706,1.0,0.74488122,0.0,0.25,False,,5f5199d96cfa743e8c9d0541,,1017421,87,,evan-feature22,full_pf_b,,0
62,6343,88,,,,2,2,0.0,1.0,-1.0,0.0,,0.0-90.0,,0.0,431.99,0.0,0.25,1.0,0.616870026,0.0,0.723610234,1.0,0.25,False,,5f5199d96cfa743e8c9d0541,,1027614,88,,evan-feature22,full_pf_b,,0
63,6344,89,,,,2,2,1.0,0.0,0.0,1.0,,0.0-91.0,,0.0,421.7000001,0.0,0.25,0.0,0.583540187,1.0,0.7041042559999999,0.0,0.285961995,False,,5f5199d96cfa743e8c9d0541,,1037800,89,,evan-feature22,full_pf_b,,0
64,6345,90,,,,2,2,1.0,0.0,-1.0,0.0,,0.0-92.0,,-1.0,1564.645,1.0,0.27254536,0.0,0.53875765,1.0,0.693783448,0.0,0.284961652,False,,5f5199d96cfa743e8c9d0541,,1049127,90,,evan-feature22,full_pf_b,,0
65,6346,91,,,,1,1,0.0,1.0,0.0,1.0,,0.0-93.0,,1.0,382.3749998,0.0,0.25,1.0,0.548431252,1.0,0.734221895,0.0,0.279445214,False,,5f5199d96cfa743e8c9d0541,,1059272,91,,evan-feature22,full_pf_b,,1
66,6347,92,,,,1,1,0.0,0.0,-1.0,0.0,,0.0-94.0,,0.0,380.0299999,0.0,0.258640684,0.0,0.545878066,1.0,0.725245965,1.0,0.31487537,False,,5f5199d96cfa743e8c9d0541,,1069412,92,,evan-feature22,full_pf_b,,0
67,6348,93,,,,2,2,1.0,0.0,-1.0,0.0,,0.0-95.0,,-1.0,462.815,1.0,0.251103711,1.0,0.5776290629999999,1.0,0.696320133,0.0,0.317831047,False,,5f5199d96cfa743e8c9d0541,,1079636,93,,evan-feature22,full_pf_b,,1
68,6349,94,,,,1,1,0.0,0.0,-1.0,0.0,,0.0-96.0,,0.0,1623.415,0.0,0.276630292,0.0,0.617329858,1.0,0.73838088,0.0,0.261471582,False,,5f5199d96cfa743e8c9d0541,,1091019,94,,evan-feature22,full_pf_b,,1
69,6350,95,,,,2,2,1.0,1.0,0.0,1.0,,0.0-97.0,,1.0,2168.59,0.0,0.297716424,0.0,0.618863717,1.0,0.7402358259999999,1.0,0.262600834,False,,5f5199d96cfa743e8c9d0541,,1102951,95,,evan-feature22,full_pf_b,,1
70,6351,96,,,,2,2,0.0,0.0,-1.0,0.0,,0.0-98.0,,0.0,518.2650001000001,0.0,0.290935512,1.0,0.695370945,0.0,0.706570507,0.0,0.280030553,False,,5f5199d96cfa743e8c9d0541,,1113229,96,,evan-feature22,full_pf_b,,0
71,6352,97,,,,2,2,0.0,1.0,-1.0,0.0,,0.0-99.0,,0.0,485.045,1.0,0.25,1.0,0.6465277079999999,0.0,0.67766682,1.0,0.25,False,,5f5199d96cfa743e8c9d0541,,1123476,97,,evan-feature22,full_pf_b,,0
72,6353,98,,,,2,2,1.0,0.0,-1.0,0.0,,0.0-100.0,,-1.0,688.9800001,0.0,0.26463816,0.0,0.636100213,1.0,0.646048507,0.0,0.265607101,False,,5f5199d96cfa743e8c9d0541,,1133924,98,,evan-feature22,full_pf_b,,0
73,6354,99,,,,1,1,0.0,1.0,-1.0,0.0,,0.0-101.0,,0.0,327.6200001,0.0,0.314340707,1.0,0.667795927,0.0,0.613630805,1.0,0.25,False,,5f5199d96cfa743e8c9d0541,,1144009,99,,evan-feature22,full_pf_b,,1
74,6355,100,,,,1,1,0.0,0.0,-1.0,0.0,,0.0-102.0,,0.0,418.15,0.0,0.28685784,0.0,0.6622549529999999,1.0,0.652154117,0.0,0.25,False,,5f5199d96cfa743e8c9d0541,,1154189,100,,evan-feature22,full_pf_b,,0
75,6356,101,,,,1,1,1.0,1.0,0.0,1.0,,0.0-103.0,,1.0,583.5450001,1.0,0.304106554,1.0,0.631289538,1.0,0.707041942,1.0,0.29314237,False,,5f5199d96cfa743e8c9d0541,,1164536,101,,evan-feature22,full_pf_b,,0
76,6357,102,,,,1,1,1.0,0.0,0.0,1.0,,0.0-104.0,,0.0,349.345,1.0,0.304806932,0.0,0.571167718,1.0,0.680472346,1.0,0.25,False,,5f5199d96cfa743e8c9d0541,,1174645,102,,evan-feature22,full_pf_b,,0
77,6358,103,,,,1,1,0.0,0.0,0.0,1.0,,0.0-105.0,,0.0,429.6500001,0.0,0.37919861,0.0,0.5724849710000001,0.0,0.705638003,0.0,0.30179300600000003,False,,5f5199d96cfa743e8c9d0541,,1184835,103,,evan-feature22,full_pf_b,,0
78,6359,104,,,,1,1,1.0,1.0,0.0,1.0,,0.0-106.0,,1.0,489.515,1.0,0.464277969,1.0,0.554034373,1.0,0.7372627340000001,0.0,0.264699741,False,,5f5199d96cfa743e8c9d0541,,1195085,104,,evan-feature22,full_pf_b,,0
79,6360,105,,,,1,1,0.0,0.0,-1.0,0.0,,0.0-107.0,,0.0,374.5649999,0.0,0.465104323,0.0,0.530793115,0.0,0.75,0.0,0.31683071,False,,5f5199d96cfa743e8c9d0541,,1205219,105,,evan-feature22,full_pf_b,,0
80,6361,106,,,,2,2,1.0,0.0,0.0,1.0,,0.0-108.0,,0.0,400.8650002,1.0,0.465104323,0.0,0.530793115,1.0,0.75,0.0,0.31683071,False,,5f5199d96cfa743e8c9d0541,,1215383,106,,evan-feature22,full_pf_b,,1
81,6362,107,,,,2,2,1.0,1.0,0.0,1.0,,0.0-109.0,,1.0,428.995,1.0,0.46833986,1.0,0.570249239,1.0,0.7244472590000001,1.0,0.364114163,False,,5f5199d96cfa743e8c9d0541,,1225574,107,,evan-feature22,full_pf_b,,0
82,6363,108,,,,2,2,1.0,0.0,0.0,1.0,,0.0-110.0,,0.0,430.2399999,1.0,0.445444024,1.0,0.649673355,1.0,0.6845441290000001,0.0,0.300660449,False,,5f5199d96cfa743e8c9d0541,,1235765,108,,evan-feature22,full_pf_b,,0
83,6364,109,,,,2,2,0.0,1.0,0.0,1.0,,0.0-111.0,,1.0,919.22,0.0,0.39909721299999995,0.0,0.6715179509999999,0.0,0.742310028,1.0,0.35496088299999995,False,,5f5199d96cfa743e8c9d0541,,1246444,109,,evan-feature22,full_pf_b,,0
84,6365,110,,,,2,2,0.0,1.0,0.0,1.0,,0.0-112.0,,1.0,432.735,1.0,0.37956104799999996,0.0,0.694725302,0.0,0.7181651309999999,1.0,0.38726906299999997,False,,5f5199d96cfa743e8c9d0541,,1256637,110,,evan-feature22,full_pf_b,,0
85,6366,111,,,,2,2,1.0,0.0,0.0,1.0,,0.0-113.0,,0.0,351.5400002,0.0,0.404995034,1.0,0.724375412,1.0,0.6910946859999999,0.0,0.387187347,False,,5f5199d96cfa743e8c9d0541,,1266750,111,,evan-feature22,full_pf_b,,0
86,6367,112,,,,2,2,0.0,1.0,0.0,1.0,,0.0-114.0,,1.0,421.69000020000004,1.0,0.461740803,0.0,0.75,0.0,0.75,1.0,0.34872038200000005,False,,5f5199d96cfa743e8c9d0541,,1276938,112,,evan-feature22,full_pf_b,,0
87,6368,113,,,,2,2,1.0,0.0,-1.0,0.0,,0.0-115.0,,-1.0,671.8299999,1.0,0.43821380600000004,1.0,0.738833273,1.0,0.728286963,0.0,0.399538128,False,,5f5199d96cfa743e8c9d0541,,1287375,113,,evan-feature22,full_pf_b,,0
88,6369,114,,,,1,1,0.0,0.0,0.0,1.0,,0.0-116.0,,0.0,493.85,0.0,0.41709882,0.0,0.736666736,1.0,0.75,0.0,0.389095584,False,,5f5199d96cfa743e8c9d0541,,1297628,114,,evan-feature22,full_pf_b,,1
89,6370,115,,,,1,1,1.0,0.0,0.0,1.0,,0.0-117.0,,0.0,417.5550002,1.0,0.39749009799999996,0.0,0.744320029,0.0,0.75,0.0,0.363848678,False,,5f5199d96cfa743e8c9d0541,,1307806,115,,evan-feature22,full_pf_b,,0
90,6371,116,,,,1,1,0.0,0.0,-1.0,0.0,,0.0-118.0,,0.0,478.1799999,0.0,0.392653706,0.0,0.75,1.0,0.75,0.0,0.384386976,False,,5f5199d96cfa743e8c9d0541,,1318047,116,,evan-feature22,full_pf_b,,0
91,6372,117,,,,1,1,0.0,0.0,-1.0,0.0,,0.0-119.0,,0.0,1941.365,0.0,0.31190902600000003,0.0,0.75,1.0,0.732413819,0.0,0.413082932,False,,5f5199d96cfa743e8c9d0541,,1329747,117,,evan-feature22,full_pf_b,,0
92,6373,118,,,,1,1,1.0,1.0,0.0,1.0,,0.0-120.0,,1.0,520.03,1.0,0.366917648,1.0,0.740073855,0.0,0.75,1.0,0.352861979,False,,5f5199d96cfa743e8c9d0541,,1340031,118,,evan-feature22,full_pf_b,,0
93,6374,119,,,,1,1,1.0,1.0,0.0,1.0,,0.0-121.0,,1.0,429.825,1.0,0.3645172,1.0,0.721770713,1.0,0.75,0.0,0.404074511,False,,5f5199d96cfa743e8c9d0541,,1350221,119,,evan-feature22,full_pf_b,,0
94,6375,120,,,,1,1,0.0,1.0,0.0,1.0,,0.0-122.0,,1.0,382.7149998,0.0,0.35205600299999995,1.0,0.68983859,0.0,0.739735447,0.0,0.366895945,False,,5f5199d96cfa743e8c9d0541,,1360366,120,,evan-feature22,full_pf_b,,0
95,6376,121,,,,1,1,0.0,1.0,0.0,1.0,,0.0-123.0,,1.0,998.17,0.0,0.40998722600000004,1.0,0.720859127,1.0,0.673854955,0.0,0.368528541,False,,5f5199d96cfa743e8c9d0541,,1371129,121,,evan-feature22,full_pf_b,,0
96,6377,122,,,,1,1,0.0,0.0,-1.0,0.0,,0.0-124.0,,0.0,459.4149999,0.0,0.353625316,0.0,0.75,1.0,0.695605473,1.0,0.38303674200000004,False,,5f5199d96cfa743e8c9d0541,,1381348,122,,evan-feature22,full_pf_b,,0
97,6378,123,,,,1,1,0.0,1.0,0.0,1.0,,0.0-125.0,,1.0,1661.85,0.0,0.359216989,1.0,0.75,1.0,0.6987915090000001,1.0,0.35169046200000004,False,,5f5199d96cfa743e8c9d0541,,1392772,123,,evan-feature22,full_pf_b,,0
98,6379,124,,,,1,1,1.0,1.0,-1.0,0.0,,0.0-126.0,,-1.0,1351.895,1.0,0.35834496899999996,1.0,0.75,0.0,0.707067742,1.0,0.416763636,False,,5f5199d96cfa743e8c9d0541,,1403884,124,,evan-feature22,full_pf_b,,0
99,6380,125,,,,2,2,1.0,0.0,-1.0,0.0,,0.0-127.0,,-1.0,2400.1,1.0,0.38741613799999997,0.0,0.7177369570000001,1.0,0.734902455,0.0,0.49438664299999996,False,,5f5199d96cfa743e8c9d0541,,1416048,125,,evan-feature22,full_pf_b,,1
100,6381,126,,,,1,1,0.0,1.0,0.0,1.0,,0.0-128.0,,1.0,362.705,0.0,0.405255252,1.0,0.7300466640000001,1.0,0.7027748070000001,0.0,0.504359668,False,,5f5199d96cfa743e8c9d0541,,1426174,126,,evan-feature22,full_pf_b,,1
101,6382,127,,,,1,1,0.0,1.0,0.0,1.0,,0.0-129.0,,1.0,564.675,0.0,0.40697073,1.0,0.7260142190000001,1.0,0.724461982,0.0,0.522779179,False,,5f5199d96cfa743e8c9d0541,,1436501,127,,evan-feature22,full_pf_b,,0
102,6383,128,,,,1,1,1.0,0.0,0.0,1.0,,0.0-130.0,,0.0,805.9149999,1.0,0.43906215299999996,0.0,0.7252802340000001,0.0,0.719079934,1.0,0.5712990579999999,False,,5f5199d96cfa743e8c9d0541,,1447068,128,,evan-feature22,full_pf_b,,0
103,6384,129,,,,1,1,0.0,1.0,0.0,1.0,,0.0-131.0,,1.0,422.6550001,0.0,0.4076705,1.0,0.73280499,1.0,0.681313127,1.0,0.523891346,False,,5f5199d96cfa743e8c9d0541,,1457251,129,,evan-feature22,full_pf_b,,0
104,6385,130,,,,1,1,0.0,1.0,0.0,1.0,,0.0-132.0,,1.0,564.0499999,0.0,0.399102911,1.0,0.730498344,1.0,0.661080239,0.0,0.46742603,False,,5f5199d96cfa743e8c9d0541,,1467576,130,,evan-feature22,full_pf_b,,0
105,6386,131,,,,1,1,0.0,1.0,-1.0,0.0,,0.0-133.0,,0.0,547.4350001,0.0,0.356477282,1.0,0.712296395,0.0,0.641812684,1.0,0.44868414,False,,5f5199d96cfa743e8c9d0541,,1477885,131,,evan-feature22,full_pf_b,,0
106,6387,132,,,,1,1,1.0,1.0,0.0,1.0,,0.0-134.0,,1.0,590.605,1.0,0.462760722,1.0,0.692349322,1.0,0.700947931,1.0,0.394680266,False,,5f5199d96cfa743e8c9d0541,,1488237,132,,evan-feature22,full_pf_b,,0
107,6388,133,,,,1,1,0.0,1.0,0.0,1.0,,0.0-135.0,,1.0,503.7100001,0.0,0.422306413,1.0,0.718375916,1.0,0.706340917,1.0,0.367787185,False,,5f5199d96cfa743e8c9d0541,,1498502,133,,evan-feature22,full_pf_b,,0
108,6390,135,,,,1,1,0.0,1.0,0.0,1.0,,0.0-137.0,,1.0,3739.76,0.0,0.4582233,1.0,0.643834117,0.0,0.75,0.0,0.39615823299999997,False,,5f5199d96cfa743e8c9d0541,,1516383,135,,evan-feature22,full_pf_b,,0
109,6391,136,,,,1,1,0.0,1.0,0.0,1.0,,0.0-138.0,,1.0,892.6550001,0.0,0.43813437899999996,1.0,0.651283804,1.0,0.729674191,0.0,0.37711048,False,,5f5199d96cfa743e8c9d0541,,1527039,136,,evan-feature22,full_pf_b,,0
110,6392,137,,,,1,1,0.0,1.0,0.0,1.0,,0.0-139.0,,1.0,491.715,0.0,0.471199094,1.0,0.6470010979999999,1.0,0.715008097,1.0,0.410656191,False,,5f5199d96cfa743e8c9d0541,,1537291,137,,evan-feature22,full_pf_b,,0
111,6393,138,,,,1,1,1.0,0.0,-1.0,0.0,,0.0-140.0,,-1.0,398.6899999,1.0,0.42486406,0.0,0.629771829,1.0,0.6550939960000001,0.0,0.459093873,False,,5f5199d96cfa743e8c9d0541,,1547460,138,,evan-feature22,full_pf_b,,0
112,6394,139,,,,2,2,1.0,0.0,-1.0,0.0,,0.0-141.0,,-1.0,374.95999989999996,0.0,0.4803197,1.0,0.645842715,1.0,0.6421749920000001,0.0,0.443092151,False,,5f5199d96cfa743e8c9d0541,,1557601,139,,evan-feature22,full_pf_b,,1
113,6395,140,,,,1,1,0.0,1.0,-1.0,0.0,,0.0-142.0,,0.0,1827.21,0.0,0.521848997,1.0,0.735801074,1.0,0.6691348460000001,1.0,0.45259351600000003,False,,5f5199d96cfa743e8c9d0541,,1569187,140,,evan-feature22,full_pf_b,,1
114,6396,141,,,,2,2,1.0,1.0,0.0,1.0,,0.0-143.0,,1.0,447.26999989999996,0.0,0.49565621299999996,0.0,0.742400847,1.0,0.661512553,1.0,0.483110831,False,,5f5199d96cfa743e8c9d0541,,1579397,141,,evan-feature22,full_pf_b,,1
115,6397,142,,,,2,2,1.0,0.0,-1.0,0.0,,0.0-144.0,,-1.0,1806.295,1.0,0.521564361,1.0,0.731078632,1.0,0.6774886809999999,0.0,0.483263956,False,,5f5199d96cfa743e8c9d0541,,1590966,142,,evan-feature22,full_pf_b,,0
116,6398,143,,,,1,1,0.0,1.0,-1.0,0.0,,0.0-145.0,,0.0,902.3549998999999,0.0,0.558893102,1.0,0.719810023,1.0,0.67461031,0.0,0.499349834,False,,5f5199d96cfa743e8c9d0541,,1601630,143,,evan-feature22,full_pf_b,,1
117,6399,144,,,,1,1,0.0,1.0,0.0,1.0,,0.0-146.0,,1.0,597.3650001,0.0,0.611031046,1.0,0.75,0.0,0.688072995,0.0,0.5321422729999999,False,,5f5199d96cfa743e8c9d0541,,1611989,144,,evan-feature22,full_pf_b,,0
118,6400,145,,,,1,1,1.0,1.0,-1.0,0.0,,0.0-147.0,,-1.0,1069.405,1.0,0.633223941,1.0,0.713567728,1.0,0.75,0.0,0.48185314700000004,False,,5f5199d96cfa743e8c9d0541,,1622821,145,,evan-feature22,full_pf_b,,0
119,6401,146,,,,2,2,1.0,1.0,-1.0,0.0,,0.0-148.0,,-1.0,463.03,1.0,0.664001694,1.0,0.705509768,1.0,0.75,1.0,0.500211065,False,,5f5199d96cfa743e8c9d0541,,1633043,146,,evan-feature22,full_pf_b,,1
120,6402,147,,,,1,1,1.0,1.0,0.0,1.0,,0.0-149.0,,1.0,1088.57,1.0,0.664001694,1.0,0.705509768,1.0,0.75,1.0,0.500211065,False,,5f5199d96cfa743e8c9d0541,,1643894,147,,evan-feature22,full_pf_b,,1
121,6403,148,,,,SLOW,SLOW,,,0.0,1.0,,0.0-150.0,,-3.0,,1.0,0.696508041,1.0,0.71066027,1.0,0.717028709,0.0,0.49792991,False,,5f5199d96cfa743e8c9d0541,,1649699,148,,evan-feature22,full_pf_b,,1
122,6404,149,,,,2,2,0.0,0.0,-1.0,0.0,,0.0-151.0,,0.0,551.4800001,1.0,0.699883272,0.0,0.75,0.0,0.713543895,0.0,0.496962643,False,,5f5199d96cfa743e8c9d0541,,1660013,149,,evan-feature22,full_pf_b,,1
123,6405,150,,,,1,1,0.0,0.0,0.0,1.0,,0.0-152.0,,0.0,581.975,0.0,0.741163419,0.0,0.75,0.0,0.64691024,0.0,0.513858197,False,,5f5199d96cfa743e8c9d0541,,1670354,150,,evan-feature22,full_pf_b,,1
124,6406,151,,,,1,1,0.0,1.0,-1.0,0.0,,0.0-153.0,,0.0,520.79,0.0,0.75,1.0,0.70816558,1.0,0.594499079,1.0,0.48502124,False,,5f5199d96cfa743e8c9d0541,,1680637,151,,evan-feature22,full_pf_b,,0
125,6407,152,,,,1,1,1.0,1.0,0.0,1.0,,0.0-154.0,,1.0,413.1149999,1.0,0.75,1.0,0.721848901,1.0,0.62197249,1.0,0.48263586399999997,False,,5f5199d96cfa743e8c9d0541,,1690811,152,,evan-feature22,full_pf_b,,0
126,6408,153,,,,1,1,1.0,1.0,-1.0,0.0,,0.0-155.0,,-1.0,624.42,1.0,0.75,1.0,0.74813071,1.0,0.584357161,0.0,0.411477782,False,,5f5199d96cfa743e8c9d0541,,1701199,153,,evan-feature22,full_pf_b,,0
127,6409,154,,,,2,2,1.0,0.0,0.0,1.0,,0.0-156.0,,0.0,420.405,0.0,0.75,0.0,0.75,1.0,0.52287236,0.0,0.488290656,False,,5f5199d96cfa743e8c9d0541,,1711383,154,,evan-feature22,full_pf_b,,1
128,6410,155,,,,2,2,0.0,0.0,0.0,1.0,,0.0-157.0,,0.0,514.1050001,0.0,0.75,1.0,0.75,0.0,0.544321581,0.0,0.53143059,False,,5f5199d96cfa743e8c9d0541,,1721658,155,,evan-feature22,full_pf_b,,0
129,6411,156,,,,1,1,0.0,1.0,0.0,1.0,,0.0-158.0,,1.0,561.22,0.0,0.726754564,1.0,0.75,0.0,0.5129306370000001,1.0,0.530592445,False,,5f5199d96cfa743e8c9d0541,,1731979,156,,evan-feature22,full_pf_b,,1
130,6412,157,,,,1,1,0.0,1.0,-1.0,0.0,,0.0-159.0,,0.0,394.2,0.0,0.75,1.0,0.7392590729999999,1.0,0.479875835,1.0,0.547007051,False,,5f5199d96cfa743e8c9d0541,,1742134,157,,evan-feature22,full_pf_b,,0
131,6413,158,,,,1,1,0.0,1.0,-1.0,0.0,,0.0-160.0,,0.0,1139.585,0.0,0.75,1.0,0.7393376979999999,1.0,0.546045419,0.0,0.541267353,False,,5f5199d96cfa743e8c9d0541,,1753035,158,,evan-feature22,full_pf_b,,0
132,6414,159,,,,1,1,1.0,1.0,-1.0,0.0,,0.0-161.0,,-1.0,520.605,1.0,0.75,1.0,0.75,0.0,0.485725895,0.0,0.527625395,False,,5f5199d96cfa743e8c9d0541,,1763314,159,,evan-feature22,full_pf_b,,0
133,6415,160,,,,2,2,0.0,1.0,0.0,1.0,,0.0-162.0,,1.0,409.0499999,1.0,0.75,0.0,0.725087974,0.0,0.488603595,1.0,0.504019206,False,,5f5199d96cfa743e8c9d0541,,1773487,160,,evan-feature22,full_pf_b,,1
134,6416,161,,,,2,2,0.0,0.0,0.0,1.0,,0.0-163.0,,0.0,692.67,1.0,0.745504295,1.0,0.75,0.0,0.452379914,0.0,0.50131194,False,,5f5199d96cfa743e8c9d0541,,1783937,161,,evan-feature22,full_pf_b,,0
135,6417,162,,,,1,1,1.0,1.0,0.0,1.0,,0.0-164.0,,1.0,434.76999989999996,1.0,0.728513874,1.0,0.75,0.0,0.44125567200000004,0.0,0.531454591,False,,5f5199d96cfa743e8c9d0541,,1794133,162,,evan-feature22,full_pf_b,,1
136,6418,163,,,,1,1,1.0,1.0,-1.0,0.0,,0.0-165.0,,-1.0,846.4650002000001,1.0,0.73790804,1.0,0.75,0.0,0.413036656,0.0,0.524619035,False,,5f5199d96cfa743e8c9d0541,,1804737,163,,evan-feature22,full_pf_b,,0
137,6419,164,,,,2,2,0.0,0.0,0.0,1.0,,0.0-166.0,,0.0,362.07,0.0,0.7080961309999999,1.0,0.708666865,0.0,0.431915581,0.0,0.481819489,False,,5f5199d96cfa743e8c9d0541,,1814858,164,,evan-feature22,full_pf_b,,1
138,6420,165,,,,2,2,0.0,1.0,0.0,1.0,,0.0-167.0,,1.0,543.905,1.0,0.721378003,1.0,0.71605913,0.0,0.36642387,1.0,0.5036739929999999,False,,5f5199d96cfa743e8c9d0541,,1825166,165,,evan-feature22,full_pf_b,,0
139,6421,166,,,,1,1,1.0,1.0,0.0,1.0,,0.0-168.0,,1.0,420.8750001,1.0,0.7340618959999999,1.0,0.699323252,0.0,0.35298046299999997,0.0,0.511241692,False,,5f5199d96cfa743e8c9d0541,,1835352,166,,evan-feature22,full_pf_b,,1
140,6422,167,,,,2,2,0.0,1.0,-1.0,0.0,,0.0-169.0,,0.0,674.935,0.0,0.75,0.0,0.70412698,0.0,0.380734814,1.0,0.529580116,False,,5f5199d96cfa743e8c9d0541,,1845791,167,,evan-feature22,full_pf_b,,1
141,6423,168,,,,2,2,0.0,1.0,0.0,1.0,,0.0-170.0,,1.0,650.84,0.0,0.7436654909999999,1.0,0.711182751,0.0,0.41125331,1.0,0.49554405,False,,5f5199d96cfa743e8c9d0541,,1856209,168,,evan-feature22,full_pf_b,,0
142,6424,169,,,,2,2,0.0,1.0,0.0,1.0,,0.0-171.0,,1.0,691.6049998,1.0,0.731607915,0.0,0.651774583,0.0,0.35688023,1.0,0.45194491600000003,False,,5f5199d96cfa743e8c9d0541,,1866663,169,,evan-feature22,full_pf_b,,0
143,6425,170,,,,2,2,0.0,0.0,-1.0,0.0,,0.0-172.0,,0.0,492.5249999,1.0,0.75,0.0,0.75,0.0,0.283145374,0.0,0.528608005,False,,5f5199d96cfa743e8c9d0541,,1876918,170,,evan-feature22,full_pf_b,,0
144,6426,171,,,,1,1,1.0,1.0,-1.0,0.0,,0.0-173.0,,-1.0,588.5050001,1.0,0.7491416890000001,1.0,0.7423785959999999,1.0,0.29135870399999997,1.0,0.498888318,False,,5f5199d96cfa743e8c9d0541,,1887272,171,,evan-feature22,full_pf_b,,1
145,6427,172,,,,2,2,0.0,0.0,-1.0,0.0,,0.0-174.0,,0.0,426.005,0.0,0.708569387,1.0,0.717682277,0.0,0.294421699,0.0,0.493838163,False,,5f5199d96cfa743e8c9d0541,,1897461,172,,evan-feature22,full_pf_b,,1
146,6428,173,,,,1,1,0.0,1.0,0.0,1.0,,0.0-175.0,,1.0,501.86999979999996,0.0,0.75,1.0,0.7383382159999999,1.0,0.356098707,0.0,0.442533405,False,,5f5199d96cfa743e8c9d0541,,1907728,173,,evan-feature22,full_pf_b,,1
147,6429,174,,,,1,1,1.0,1.0,0.0,1.0,,0.0-176.0,,1.0,578.1899998,1.0,0.744527075,1.0,0.75,1.0,0.334127506,0.0,0.393165805,False,,5f5199d96cfa743e8c9d0541,,1918072,174,,evan-feature22,full_pf_b,,0
148,6430,175,,,,1,1,1.0,0.0,0.0,1.0,,0.0-177.0,,0.0,515.4849998999999,1.0,0.75,0.0,0.75,0.0,0.33571021799999995,0.0,0.350393962,False,,5f5199d96cfa743e8c9d0541,,1928351,175,,evan-feature22,full_pf_b,,0
149,6431,176,,,,1,1,1.0,1.0,0.0,1.0,,0.0-178.0,,1.0,363.1749998,1.0,0.75,1.0,0.75,0.0,0.313628297,0.0,0.36349657399999996,False,,5f5199d96cfa743e8c9d0541,,1938478,176,,evan-feature22,full_pf_b,,0
150,6432,177,,,,1,1,0.0,1.0,-1.0,0.0,,0.0-179.0,,0.0,380.58499989999996,0.0,0.75,1.0,0.734284182,1.0,0.262667667,0.0,0.380199119,False,,5f5199d96cfa743e8c9d0541,,1948622,177,,evan-feature22,full_pf_b,,0
151,6433,178,,,,1,1,1.0,0.0,0.0,1.0,,0.0-180.0,,0.0,371.2200001,1.0,0.75,0.0,0.75,0.0,0.25,0.0,0.394494013,False,,5f5199d96cfa743e8c9d0541,,1958759,178,,evan-feature22,full_pf_b,,0
152,6434,179,,,,1,1,1.0,1.0,-1.0,0.0,,0.0-181.0,,-1.0,451.0350002,1.0,0.722298145,1.0,0.7357822340000001,0.0,0.25,0.0,0.319142121,False,,5f5199d96cfa743e8c9d0541,,1968975,179,,evan-feature22,full_pf_b,,0
153,6435,180,,,,2,2,0.0,0.0,-1.0,0.0,,0.0-182.0,,0.0,539.6499999,1.0,0.73149275,1.0,0.724276446,0.0,0.305856907,0.0,0.281315057,False,,5f5199d96cfa743e8c9d0541,,1979277,180,,evan-feature22,full_pf_b,,1
154,6436,181,,,,1,1,0.0,1.0,0.0,1.0,,0.0-183.0,,1.0,500.5950001,0.0,0.7458732690000001,1.0,0.7336382459999999,0.0,0.272571964,0.0,0.266021999,False,,5f5199d96cfa743e8c9d0541,,1989542,181,,evan-feature22,full_pf_b,,1
155,6437,182,,,,2,2,0.0,0.0,0.0,1.0,,0.0-184.0,,0.0,571.89,0.0,0.705579037,1.0,0.720778292,0.0,0.320238144,0.0,0.30971744,False,,5f5199d96cfa743e8c9d0541,,1999879,182,,evan-feature22,full_pf_b,,1
156,6438,183,,,,1,1,0.0,1.0,0.0,1.0,,0.0-185.0,,1.0,379.03000019999996,0.0,0.700425648,1.0,0.7198784009999999,1.0,0.272590393,1.0,0.304182931,False,,5f5199d96cfa743e8c9d0541,,2010023,183,,evan-feature22,full_pf_b,,1
157,6439,184,,,,2,2,0.0,1.0,0.0,1.0,,0.0-186.0,,1.0,499.4350001,1.0,0.735590785,1.0,0.722714973,0.0,0.25,1.0,0.323421091,False,,5f5199d96cfa743e8c9d0541,,2020287,184,,evan-feature22,full_pf_b,,1
158,6440,185,,,,1,1,1.0,1.0,0.0,1.0,,0.0-187.0,,1.0,659.6950002,1.0,0.724807662,1.0,0.63146213,0.0,0.36836492600000004,1.0,0.34592153299999995,False,,5f5199d96cfa743e8c9d0541,,2030713,185,,evan-feature22,full_pf_b,,1
159,6441,186,,,,2,2,1.0,0.0,0.0,1.0,,0.0-188.0,,0.0,433.62,1.0,0.7352796909999999,0.0,0.555111392,1.0,0.36003922,0.0,0.31433779999999995,False,,5f5199d96cfa743e8c9d0541,,2040910,186,,evan-feature22,full_pf_b,,1
160,6442,187,notice,,,,,,,,,,0.0-189.0,"{""Q0"":""more patterns""}",,14604.0,,,,,,,,,False,,5f5199d96cfa743e8c9d0541,,2055515,187,Q,survey-text,full_pf_b,,1
161,6443,188,track1,,[0],,,,,,,,0.0-190.0,"{""Q0"":""yes""}",,3995.0,,,,,,,,,False,,5f5199d96cfa743e8c9d0541,,2059514,188,Q,evan-quiz,full_pf_b,,1
162,6444,189,track2,,[0],,,,,,,,0.0-191.0,"{""Q0"":""yes""}",,4628.0,,,,,,,,,False,,5f5199d96cfa743e8c9d0541,,2064143,189,Q,evan-quiz,full_pf_b,,1
163,6445,190,strat,,,,,,,,,,0.0-192.0,"{""Q0"":""kept going with one until i got a minus""}",,17997.0,,,,,,,,,False,,5f5199d96cfa743e8c9d0541,,2082143,190,Q,survey-text,full_pf_b,,1
