,index,Unnamed: 0,Q_name,button_pressed,choice_idxs,chosen_pos,chosen_state,chosen_state_f_1_outcome,chosen_state_f_2_outcome,f_1_reward,f_2_reward,incor_questions,internal_node_id,responses,reward_received,rt,s_1_f_1_outcome,s_1_f_1_prob,s_1_f_2_outcome,s_1_f_2_prob,s_2_f_1_outcome,s_2_f_1_prob,s_2_f_2_outcome,s_2_f_2_prob,safe_first,stimulus,subjectID,success,time_elapsed,trial_index,trial_num,trial_type,version,view_history,switching
0,5707,25,,,,SLOW,SLOW,,,0.0,1.0,,0.0-27.0,,-3.0,,1.0,0.6,1.0,0.6,0.0,0.4,0.0,0.4,True,,5f75f7a73bf0b60009f88e38,,4811083,25,,evan-feature22,full_rf_b,,0
1,5708,26,,,,2,2,0.0,0.0,0.0,1.0,,0.0-28.0,,0.0,1428.475,1.0,0.608053294,0.0,0.63424552,0.0,0.397152172,0.0,0.347069101,True,,5f75f7a73bf0b60009f88e38,,4822272,26,,evan-feature22,full_rf_b,,1
2,5709,27,,,,1,1,1.0,1.0,0.0,1.0,,0.0-29.0,,1.0,1403.475,1.0,0.642237155,1.0,0.648566321,1.0,0.389407674,0.0,0.285525717,True,,5f75f7a73bf0b60009f88e38,,4833435,27,,evan-feature22,full_rf_b,,1
3,5710,28,,,,1,1,1.0,0.0,0.0,1.0,,0.0-30.0,,0.0,1113.11,1.0,0.661086576,0.0,0.630492543,1.0,0.399058924,1.0,0.25,True,,5f75f7a73bf0b60009f88e38,,4844318,28,,evan-feature22,full_rf_b,,0
4,5711,29,,,,1,1,1.0,0.0,0.0,1.0,,0.0-31.0,,0.0,971.3349999,1.0,0.631324137,0.0,0.6269842929999999,0.0,0.38734784299999997,1.0,0.25,True,,5f75f7a73bf0b60009f88e38,,4855049,29,,evan-feature22,full_rf_b,,0
5,5712,30,,,,2,2,0.0,1.0,0.0,1.0,,0.0-32.0,,1.0,624.235,1.0,0.6381991370000001,1.0,0.68987999,0.0,0.384107265,1.0,0.271332943,True,,5f75f7a73bf0b60009f88e38,,4865436,30,,evan-feature22,full_rf_b,,1
6,5713,31,,,,1,1,1.0,1.0,0.0,1.0,,0.0-33.0,,1.0,377.015,1.0,0.66034901,1.0,0.742641349,0.0,0.360225629,0.0,0.25,True,,5f75f7a73bf0b60009f88e38,,4875576,31,,evan-feature22,full_rf_b,,1
7,5714,32,,,,2,2,1.0,0.0,-1.0,0.0,,0.0-34.0,,-1.0,307.58,0.0,0.638612418,1.0,0.75,1.0,0.367273939,0.0,0.25,True,,5f75f7a73bf0b60009f88e38,,4885673,32,,evan-feature22,full_rf_b,,1
8,5715,33,,,,1,1,0.0,0.0,0.0,1.0,,0.0-35.0,,0.0,938.105,0.0,0.624340629,0.0,0.75,1.0,0.425829545,0.0,0.25,True,,5f75f7a73bf0b60009f88e38,,4896373,33,,evan-feature22,full_rf_b,,1
9,5716,34,,,,2,2,0.0,1.0,0.0,1.0,,0.0-36.0,,1.0,373.435,1.0,0.621999804,1.0,0.75,0.0,0.368609357,1.0,0.25,True,,5f75f7a73bf0b60009f88e38,,4906509,34,,evan-feature22,full_rf_b,,1
10,5717,35,,,,1,1,1.0,1.0,-1.0,0.0,,0.0-37.0,,-1.0,821.8499999,1.0,0.62666403,1.0,0.75,0.0,0.311151498,0.0,0.25,True,,5f75f7a73bf0b60009f88e38,,4917094,35,,evan-feature22,full_rf_b,,1
11,5718,36,,,,1,1,1.0,0.0,-1.0,0.0,,0.0-38.0,,-1.0,613.3900001000001,1.0,0.6819650009999999,0.0,0.75,1.0,0.310763048,0.0,0.25,True,,5f75f7a73bf0b60009f88e38,,4927469,36,,evan-feature22,full_rf_b,,0
12,5719,37,,,,2,2,0.0,0.0,0.0,1.0,,0.0-39.0,,0.0,394.3750001,1.0,0.740626951,1.0,0.75,0.0,0.25,0.0,0.25,True,,5f75f7a73bf0b60009f88e38,,4937626,37,,evan-feature22,full_rf_b,,1
13,5720,38,,,,2,2,0.0,0.0,0.0,1.0,,0.0-40.0,,0.0,509.23,1.0,0.739599242,1.0,0.742034978,0.0,0.25397114600000004,0.0,0.25,True,,5f75f7a73bf0b60009f88e38,,4947894,38,,evan-feature22,full_rf_b,,0
14,5721,39,,,,1,1,1.0,1.0,0.0,1.0,,0.0-41.0,,1.0,405.265,1.0,0.732341315,1.0,0.72735643,1.0,0.25,0.0,0.25,True,,5f75f7a73bf0b60009f88e38,,4958059,39,,evan-feature22,full_rf_b,,1
15,5722,40,,,,1,1,1.0,1.0,0.0,1.0,,0.0-42.0,,1.0,782.4649999,1.0,0.7062287770000001,1.0,0.75,0.0,0.29002151,1.0,0.288256649,True,,5f75f7a73bf0b60009f88e38,,4968603,40,,evan-feature22,full_rf_b,,0
16,5723,41,,,,2,2,0.0,1.0,-1.0,0.0,,0.0-43.0,,0.0,1262.195,1.0,0.7086029209999999,0.0,0.75,0.0,0.274129113,1.0,0.262851608,True,,5f75f7a73bf0b60009f88e38,,4979631,41,,evan-feature22,full_rf_b,,1
17,5724,42,,,,2,2,0.0,0.0,0.0,1.0,,0.0-44.0,,0.0,1484.105,0.0,0.669189651,0.0,0.727614338,0.0,0.298444036,0.0,0.296944518,True,,5f75f7a73bf0b60009f88e38,,4990875,42,,evan-feature22,full_rf_b,,0
18,5725,43,,,,2,2,0.0,0.0,-1.0,0.0,,0.0-45.0,,0.0,1402.26,1.0,0.6819912929999999,0.0,0.7179434290000001,0.0,0.265003961,0.0,0.28157921199999997,True,,5f75f7a73bf0b60009f88e38,,5002039,43,,evan-feature22,full_rf_b,,0
19,5726,44,,,,2,2,0.0,1.0,-1.0,0.0,,0.0-46.0,,0.0,1714.49,0.0,0.665275002,1.0,0.723065271,0.0,0.260414971,1.0,0.30973870000000003,True,,5f75f7a73bf0b60009f88e38,,5013513,44,,evan-feature22,full_rf_b,,0
20,5727,45,,,,2,2,0.0,0.0,0.0,1.0,,0.0-47.0,,0.0,1769.15,1.0,0.6660593260000001,1.0,0.728032907,0.0,0.30922817,0.0,0.338778608,True,,5f75f7a73bf0b60009f88e38,,5025043,45,,evan-feature22,full_rf_b,,0
21,5728,46,,,,1,1,0.0,0.0,0.0,1.0,,0.0-48.0,,0.0,3046.52,0.0,0.702068785,0.0,0.6528750879999999,1.0,0.287329608,0.0,0.35789613200000003,True,,5f75f7a73bf0b60009f88e38,,5037851,46,,evan-feature22,full_rf_b,,1
22,5729,47,,,,1,1,1.0,0.0,0.0,1.0,,0.0-49.0,,0.0,1899.035,1.0,0.651939787,0.0,0.636725589,0.0,0.284834488,0.0,0.358563756,True,,5f75f7a73bf0b60009f88e38,,5049512,47,,evan-feature22,full_rf_b,,0
23,5730,48,,,,2,2,0.0,1.0,0.0,1.0,,0.0-50.0,,1.0,798.1050001,1.0,0.67573929,0.0,0.612550049,0.0,0.37130387600000003,1.0,0.383542402,True,,5f75f7a73bf0b60009f88e38,,5060073,48,,evan-feature22,full_rf_b,,1
24,5731,49,,,,1,1,1.0,1.0,0.0,1.0,,0.0-51.0,,1.0,118.8599998,1.0,0.620753801,1.0,0.60513644,1.0,0.385529434,0.0,0.340361743,True,,5f75f7a73bf0b60009f88e38,,5069966,49,,evan-feature22,full_rf_b,,1
25,5732,50,,,,2,2,0.0,0.0,-1.0,0.0,,0.0-52.0,,0.0,1450.625,0.0,0.673564893,1.0,0.672437924,0.0,0.292955382,0.0,0.337633795,True,,5f75f7a73bf0b60009f88e38,,5081179,50,,evan-feature22,full_rf_b,,1
26,5733,51,,,,2,2,0.0,1.0,0.0,1.0,,0.0-53.0,,1.0,1763.54,0.0,0.6749427,1.0,0.724197502,0.0,0.32391132100000003,1.0,0.350995264,True,,5f75f7a73bf0b60009f88e38,,5092706,51,,evan-feature22,full_rf_b,,0
27,5734,52,,,,1,1,1.0,0.0,0.0,1.0,,0.0-54.0,,0.0,1010.665,1.0,0.6940159379999999,0.0,0.75,0.0,0.31710554399999996,0.0,0.413450341,True,,5f75f7a73bf0b60009f88e38,,5103477,52,,evan-feature22,full_rf_b,,1
28,5735,53,,,,2,2,0.0,0.0,0.0,1.0,,0.0-55.0,,0.0,894.93,1.0,0.6916018270000001,0.0,0.69001187,0.0,0.261817804,0.0,0.40038635,True,,5f75f7a73bf0b60009f88e38,,5114136,53,,evan-feature22,full_rf_b,,1
29,5736,54,,,,2,2,0.0,1.0,0.0,1.0,,0.0-56.0,,1.0,746.9800001,0.0,0.641061544,0.0,0.71337992,0.0,0.277296461,1.0,0.47372791700000005,True,,5f75f7a73bf0b60009f88e38,,5124651,54,,evan-feature22,full_rf_b,,0
30,5737,55,,,,2,2,0.0,1.0,0.0,1.0,,0.0-57.0,,1.0,556.05,1.0,0.6082438520000001,1.0,0.708471106,0.0,0.28745137,1.0,0.564174476,True,,5f75f7a73bf0b60009f88e38,,5134972,55,,evan-feature22,full_rf_b,,0
31,5738,56,,,,2,2,1.0,1.0,-1.0,0.0,,0.0-58.0,,-1.0,2022.825,0.0,0.6051112120000001,1.0,0.7118147229999999,1.0,0.272390611,1.0,0.5595149939999999,True,,5f75f7a73bf0b60009f88e38,,5146763,56,,evan-feature22,full_rf_b,,0
32,5739,57,,,,1,1,0.0,1.0,-1.0,0.0,,0.0-59.0,,0.0,1319.5,0.0,0.582420852,1.0,0.635867583,0.0,0.31089574,1.0,0.5227206520000001,True,,5f75f7a73bf0b60009f88e38,,5157848,57,,evan-feature22,full_rf_b,,1
33,5740,58,,,,1,1,1.0,1.0,-1.0,0.0,,0.0-60.0,,-1.0,1683.62,1.0,0.623195575,1.0,0.655026044,0.0,0.25,0.0,0.560387538,True,,5f75f7a73bf0b60009f88e38,,5169295,58,,evan-feature22,full_rf_b,,0
34,5741,59,,,,2,2,1.0,1.0,0.0,1.0,,0.0-61.0,,1.0,1068.615,1.0,0.601889598,1.0,0.678198724,1.0,0.25,1.0,0.559922936,True,,5f75f7a73bf0b60009f88e38,,5180144,59,,evan-feature22,full_rf_b,,1
35,5742,60,,,,2,2,1.0,1.0,-1.0,0.0,,0.0-62.0,,-1.0,1198.095,1.0,0.601259914,0.0,0.704681482,1.0,0.33908969299999997,1.0,0.505003715,True,,5f75f7a73bf0b60009f88e38,,5191107,60,,evan-feature22,full_rf_b,,0
36,5743,61,,,,2,2,0.0,0.0,-1.0,0.0,,0.0-63.0,,0.0,1685.935,1.0,0.59645454,1.0,0.710437172,0.0,0.327441879,0.0,0.391749613,True,,5f75f7a73bf0b60009f88e38,,5202556,61,,evan-feature22,full_rf_b,,0
37,5744,62,,,,2,2,1.0,0.0,0.0,1.0,,0.0-64.0,,0.0,1265.23,0.0,0.529473,1.0,0.636758527,1.0,0.301338063,0.0,0.365661481,True,,5f75f7a73bf0b60009f88e38,,5213584,62,,evan-feature22,full_rf_b,,0
38,5745,63,,,,1,1,0.0,1.0,-1.0,0.0,,0.0-65.0,,0.0,1968.605,0.0,0.541657162,1.0,0.634541962,1.0,0.343535366,0.0,0.371763742,True,,5f75f7a73bf0b60009f88e38,,5225318,63,,evan-feature22,full_rf_b,,1
39,5746,64,,,,1,1,1.0,0.0,-1.0,0.0,,0.0-66.0,,-1.0,1091.045,1.0,0.5707533260000001,0.0,0.589121171,1.0,0.326428396,0.0,0.43961622899999997,True,,5f75f7a73bf0b60009f88e38,,5236173,64,,evan-feature22,full_rf_b,,0
40,5747,65,,,,1,1,1.0,1.0,0.0,1.0,,0.0-67.0,,1.0,3319.755,1.0,0.5707533260000001,1.0,0.589121171,0.0,0.326428396,1.0,0.43961622899999997,True,,5f75f7a73bf0b60009f88e38,,5249259,65,,evan-feature22,full_rf_b,,0
41,5748,66,,,,2,2,0.0,1.0,0.0,1.0,,0.0-68.0,,1.0,890.195,1.0,0.506271295,0.0,0.641775594,0.0,0.37149690700000004,1.0,0.404330166,True,,5f75f7a73bf0b60009f88e38,,5259913,66,,evan-feature22,full_rf_b,,1
42,5749,67,,,,1,1,0.0,0.0,-1.0,0.0,,0.0-69.0,,0.0,1897.265,0.0,0.455642565,0.0,0.623605825,0.0,0.358753011,1.0,0.346174041,True,,5f75f7a73bf0b60009f88e38,,5271573,67,,evan-feature22,full_rf_b,,1
43,5750,68,,,,2,2,0.0,0.0,0.0,1.0,,0.0-70.0,,0.0,977.9350001,0.0,0.483677308,1.0,0.5904681070000001,0.0,0.402218411,0.0,0.35344697,True,,5f75f7a73bf0b60009f88e38,,5282311,68,,evan-feature22,full_rf_b,,1
44,5751,69,,,,1,1,0.0,1.0,-1.0,0.0,,0.0-71.0,,0.0,1575.545,0.0,0.394210977,1.0,0.558925494,1.0,0.540052017,0.0,0.35182128700000004,True,,5f75f7a73bf0b60009f88e38,,5293654,69,,evan-feature22,full_rf_b,,1
45,5752,70,,,,1,1,1.0,0.0,0.0,1.0,,0.0-72.0,,0.0,697.4899998999999,1.0,0.382300414,0.0,0.577670603,1.0,0.607608448,1.0,0.378261578,True,,5f75f7a73bf0b60009f88e38,,5304115,70,,evan-feature22,full_rf_b,,0
46,5753,71,,,,1,1,0.0,0.0,-1.0,0.0,,0.0-73.0,,0.0,2248.315,0.0,0.357596762,0.0,0.5929076529999999,1.0,0.6579790010000001,1.0,0.401326777,True,,5f75f7a73bf0b60009f88e38,,5316126,71,,evan-feature22,full_rf_b,,0
47,5754,72,,,,2,2,0.0,1.0,0.0,1.0,,0.0-74.0,,1.0,1232.625,0.0,0.362033495,1.0,0.582308608,0.0,0.649195052,1.0,0.355158505,True,,5f75f7a73bf0b60009f88e38,,5327124,72,,evan-feature22,full_rf_b,,1
48,5755,73,,,,1,1,1.0,1.0,0.0,1.0,,0.0-75.0,,1.0,1523.44,1.0,0.369620635,1.0,0.669100864,1.0,0.706059111,0.0,0.362516241,True,,5f75f7a73bf0b60009f88e38,,5338410,73,,evan-feature22,full_rf_b,,1
49,5756,74,,,,1,1,0.0,1.0,0.0,1.0,,0.0-76.0,,1.0,1359.57,0.0,0.41477751399999996,1.0,0.7284416779999999,0.0,0.7182656940000001,0.0,0.36228040899999997,True,,5f75f7a73bf0b60009f88e38,,5349530,74,,evan-feature22,full_rf_b,,0
50,5757,75,,,,2,2,1.0,0.0,-1.0,0.0,,0.0-77.0,,-1.0,1609.425,0.0,0.37675460299999997,1.0,0.703250285,1.0,0.75,0.0,0.461979164,True,,5f75f7a73bf0b60009f88e38,,5360905,75,,evan-feature22,full_rf_b,,1
51,5758,76,,,,1,1,0.0,0.0,-1.0,0.0,,0.0-78.0,,0.0,1613.41,0.0,0.398716075,0.0,0.6723864890000001,1.0,0.674153818,1.0,0.519029516,True,,5f75f7a73bf0b60009f88e38,,5372282,76,,evan-feature22,full_rf_b,,1
52,5759,77,,,,1,1,0.0,1.0,-1.0,0.0,,0.0-79.0,,0.0,1597.34,0.0,0.34677856700000004,1.0,0.69057175,1.0,0.6822438540000001,1.0,0.477292237,True,,5f75f7a73bf0b60009f88e38,,5383646,77,,evan-feature22,full_rf_b,,0
53,5760,78,,,,1,1,1.0,1.0,0.0,1.0,,0.0-80.0,,1.0,781.6550001,1.0,0.28580469199999997,1.0,0.68408818,0.0,0.684207565,0.0,0.49780448299999996,True,,5f75f7a73bf0b60009f88e38,,5394188,78,,evan-feature22,full_rf_b,,0
54,5762,80,,,,2,2,1.0,0.0,0.0,1.0,,0.0-82.0,,0.0,1401.6,0.0,0.25,0.0,0.7405808970000001,1.0,0.679614108,0.0,0.436436964,True,,5f75f7a73bf0b60009f88e38,,5411842,80,,evan-feature22,full_rf_b,,1
55,5763,81,,,,1,1,0.0,1.0,0.0,1.0,,0.0-83.0,,1.0,1129.035,0.0,0.29890393,1.0,0.730505706,1.0,0.7328203320000001,0.0,0.439256938,True,,5f75f7a73bf0b60009f88e38,,5422736,81,,evan-feature22,full_rf_b,,1
56,5764,82,,,,1,1,1.0,0.0,-1.0,0.0,,0.0-84.0,,-1.0,2937.93,1.0,0.326762398,0.0,0.7148059609999999,1.0,0.75,0.0,0.44389608799999997,True,,5f75f7a73bf0b60009f88e38,,5435439,82,,evan-feature22,full_rf_b,,0
57,5765,83,,,,1,1,0.0,0.0,0.0,1.0,,0.0-85.0,,0.0,1004.335,0.0,0.295168515,0.0,0.739760854,1.0,0.719947008,0.0,0.35277284600000003,True,,5f75f7a73bf0b60009f88e38,,5446206,83,,evan-feature22,full_rf_b,,0
58,5766,84,,,,1,1,0.0,1.0,0.0,1.0,,0.0-86.0,,1.0,976.1300001,0.0,0.25,1.0,0.70781482,0.0,0.75,1.0,0.286095925,True,,5f75f7a73bf0b60009f88e38,,5456945,84,,evan-feature22,full_rf_b,,0
59,5767,85,,,,1,1,1.0,1.0,0.0,1.0,,0.0-87.0,,1.0,687.4599999,1.0,0.25638190899999996,1.0,0.704088163,0.0,0.75,1.0,0.26872601399999996,True,,5f75f7a73bf0b60009f88e38,,5467395,85,,evan-feature22,full_rf_b,,0
60,5768,86,,,,2,2,0.0,0.0,-1.0,0.0,,0.0-88.0,,0.0,1099.46,1.0,0.271581126,1.0,0.669760107,0.0,0.733896663,0.0,0.273244572,True,,5f75f7a73bf0b60009f88e38,,5478259,86,,evan-feature22,full_rf_b,,1
61,5769,87,,,,1,1,1.0,0.0,0.0,1.0,,0.0-89.0,,0.0,960.8250002,1.0,0.257144401,0.0,0.600575706,1.0,0.74488122,0.0,0.25,True,,5f75f7a73bf0b60009f88e38,,5488983,87,,evan-feature22,full_rf_b,,1
62,5770,88,,,,1,1,1.0,0.0,0.0,1.0,,0.0-90.0,,0.0,755.8149998,1.0,0.25,0.0,0.616870026,1.0,0.723610234,1.0,0.25,True,,5f75f7a73bf0b60009f88e38,,5499500,88,,evan-feature22,full_rf_b,,0
63,5771,89,,,,2,2,0.0,1.0,-1.0,0.0,,0.0-91.0,,0.0,2861.535,0.0,0.25,0.0,0.583540187,0.0,0.7041042559999999,1.0,0.285961995,True,,5f75f7a73bf0b60009f88e38,,5512131,89,,evan-feature22,full_rf_b,,1
64,5772,90,,,,2,2,0.0,0.0,-1.0,0.0,,0.0-92.0,,0.0,982.51,1.0,0.27254536,0.0,0.53875765,0.0,0.693783448,0.0,0.284961652,True,,5f75f7a73bf0b60009f88e38,,5522876,90,,evan-feature22,full_rf_b,,0
65,5773,91,,,,2,2,1.0,0.0,-1.0,0.0,,0.0-93.0,,-1.0,890.4200001,1.0,0.25,0.0,0.548431252,1.0,0.734221895,0.0,0.279445214,True,,5f75f7a73bf0b60009f88e38,,5533529,91,,evan-feature22,full_rf_b,,0
66,5774,92,,,,1,1,0.0,0.0,0.0,1.0,,0.0-94.0,,0.0,1376.86,0.0,0.258640684,0.0,0.545878066,1.0,0.725245965,0.0,0.31487537,True,,5f75f7a73bf0b60009f88e38,,5544667,92,,evan-feature22,full_rf_b,,1
67,5775,93,,,,1,1,0.0,1.0,0.0,1.0,,0.0-95.0,,1.0,589.7550001,0.0,0.251103711,1.0,0.5776290629999999,1.0,0.696320133,0.0,0.317831047,True,,5f75f7a73bf0b60009f88e38,,5555021,93,,evan-feature22,full_rf_b,,0
68,5776,94,,,,1,1,1.0,0.0,0.0,1.0,,0.0-96.0,,0.0,961.78,1.0,0.276630292,0.0,0.617329858,1.0,0.73838088,1.0,0.261471582,True,,5f75f7a73bf0b60009f88e38,,5565746,94,,evan-feature22,full_rf_b,,0
69,5777,95,,,,1,1,0.0,0.0,0.0,1.0,,0.0-97.0,,0.0,561.6799998,0.0,0.297716424,0.0,0.618863717,0.0,0.7402358259999999,0.0,0.262600834,True,,5f75f7a73bf0b60009f88e38,,5576069,95,,evan-feature22,full_rf_b,,0
70,5778,96,,,,2,2,1.0,0.0,-1.0,0.0,,0.0-98.0,,-1.0,563.905,0.0,0.290935512,1.0,0.695370945,1.0,0.706570507,0.0,0.280030553,True,,5f75f7a73bf0b60009f88e38,,5586400,96,,evan-feature22,full_rf_b,,1
71,5779,97,,,,1,1,0.0,1.0,0.0,1.0,,0.0-99.0,,1.0,541.7200001,0.0,0.25,1.0,0.6465277079999999,1.0,0.67766682,1.0,0.25,True,,5f75f7a73bf0b60009f88e38,,5596711,97,,evan-feature22,full_rf_b,,1
72,5780,98,,,,1,1,1.0,1.0,-1.0,0.0,,0.0-100.0,,-1.0,1638.98,1.0,0.26463816,1.0,0.636100213,1.0,0.646048507,0.0,0.265607101,True,,5f75f7a73bf0b60009f88e38,,5608113,98,,evan-feature22,full_rf_b,,0
73,5781,99,,,,1,1,0.0,1.0,-1.0,0.0,,0.0-101.0,,0.0,1504.265,0.0,0.314340707,1.0,0.667795927,0.0,0.613630805,0.0,0.25,True,,5f75f7a73bf0b60009f88e38,,5619380,99,,evan-feature22,full_rf_b,,0
74,5782,100,,,,1,1,1.0,1.0,0.0,1.0,,0.0-102.0,,1.0,2112.185,1.0,0.28685784,1.0,0.6622549529999999,0.0,0.652154117,0.0,0.25,True,,5f75f7a73bf0b60009f88e38,,5631259,100,,evan-feature22,full_rf_b,,0
75,5783,101,,,,1,1,0.0,1.0,0.0,1.0,,0.0-103.0,,1.0,755.7049999,0.0,0.304106554,1.0,0.631289538,1.0,0.707041942,0.0,0.29314237,True,,5f75f7a73bf0b60009f88e38,,5641778,101,,evan-feature22,full_rf_b,,0
76,5784,102,,,,1,1,0.0,0.0,0.0,1.0,,0.0-104.0,,0.0,591.7,0.0,0.304806932,0.0,0.571167718,1.0,0.680472346,0.0,0.25,True,,5f75f7a73bf0b60009f88e38,,5652133,102,,evan-feature22,full_rf_b,,0
77,5785,103,,,,1,1,1.0,1.0,0.0,1.0,,0.0-105.0,,1.0,688.965,1.0,0.37919861,1.0,0.5724849710000001,1.0,0.705638003,1.0,0.30179300600000003,True,,5f75f7a73bf0b60009f88e38,,5662588,103,,evan-feature22,full_rf_b,,0
78,5786,104,,,,2,2,1.0,0.0,0.0,1.0,,0.0-106.0,,0.0,497.95,1.0,0.464277969,0.0,0.554034373,1.0,0.7372627340000001,0.0,0.264699741,True,,5f75f7a73bf0b60009f88e38,,5672860,104,,evan-feature22,full_rf_b,,1
79,5787,105,,,,1,1,0.0,1.0,0.0,1.0,,0.0-107.0,,1.0,585.1650001,0.0,0.465104323,1.0,0.530793115,0.0,0.75,1.0,0.31683071,True,,5f75f7a73bf0b60009f88e38,,5683211,105,,evan-feature22,full_rf_b,,1
80,5788,106,,,,1,1,0.0,1.0,-1.0,0.0,,0.0-108.0,,0.0,643.35,0.0,0.465104323,1.0,0.530793115,1.0,0.75,1.0,0.31683071,True,,5f75f7a73bf0b60009f88e38,,5693616,106,,evan-feature22,full_rf_b,,0
81,5789,107,,,,2,2,1.0,1.0,-1.0,0.0,,0.0-109.0,,-1.0,750.3900002,1.0,0.46833986,1.0,0.570249239,1.0,0.7244472590000001,1.0,0.364114163,True,,5f75f7a73bf0b60009f88e38,,5704131,107,,evan-feature22,full_rf_b,,1
82,5790,108,,,,2,2,0.0,0.0,-1.0,0.0,,0.0-110.0,,0.0,542.4800001,0.0,0.445444024,1.0,0.649673355,0.0,0.6845441290000001,0.0,0.300660449,True,,5f75f7a73bf0b60009f88e38,,5714432,108,,evan-feature22,full_rf_b,,0
83,5791,109,,,,2,2,0.0,1.0,-1.0,0.0,,0.0-111.0,,0.0,797.5899999,0.0,0.39909721299999995,1.0,0.6715179509999999,0.0,0.742310028,1.0,0.35496088299999995,True,,5f75f7a73bf0b60009f88e38,,5724991,109,,evan-feature22,full_rf_b,,0
84,5792,110,,,,1,1,1.0,0.0,0.0,1.0,,0.0-112.0,,0.0,1094.84,1.0,0.37956104799999996,0.0,0.694725302,0.0,0.7181651309999999,0.0,0.38726906299999997,True,,5f75f7a73bf0b60009f88e38,,5735853,110,,evan-feature22,full_rf_b,,1
85,5793,111,,,,1,1,1.0,1.0,0.0,1.0,,0.0-113.0,,1.0,463.0150001,1.0,0.404995034,1.0,0.724375412,1.0,0.6910946859999999,0.0,0.387187347,True,,5f75f7a73bf0b60009f88e38,,5746079,111,,evan-feature22,full_rf_b,,0
86,5794,112,,,,2,2,0.0,0.0,-1.0,0.0,,0.0-114.0,,0.0,994.215,1.0,0.461740803,1.0,0.75,0.0,0.75,0.0,0.34872038200000005,True,,5f75f7a73bf0b60009f88e38,,5756838,112,,evan-feature22,full_rf_b,,1
87,5795,113,,,,2,2,1.0,1.0,-1.0,0.0,,0.0-115.0,,-1.0,1394.01,1.0,0.43821380600000004,1.0,0.738833273,1.0,0.728286963,1.0,0.399538128,True,,5f75f7a73bf0b60009f88e38,,5767993,113,,evan-feature22,full_rf_b,,0
88,5796,114,,,,2,2,1.0,0.0,0.0,1.0,,0.0-116.0,,0.0,693.7149998,1.0,0.41709882,1.0,0.736666736,1.0,0.75,0.0,0.389095584,True,,5f75f7a73bf0b60009f88e38,,5778446,114,,evan-feature22,full_rf_b,,0
89,5797,115,,,,1,1,1.0,1.0,0.0,1.0,,0.0-117.0,,1.0,420.465,1.0,0.39749009799999996,1.0,0.744320029,1.0,0.75,1.0,0.363848678,True,,5f75f7a73bf0b60009f88e38,,5788632,115,,evan-feature22,full_rf_b,,1
90,5798,116,,,,2,2,1.0,0.0,-1.0,0.0,,0.0-118.0,,-1.0,818.7199999,0.0,0.392653706,0.0,0.75,1.0,0.75,0.0,0.384386976,True,,5f75f7a73bf0b60009f88e38,,5799214,116,,evan-feature22,full_rf_b,,1
91,5799,117,,,,1,1,0.0,1.0,0.0,1.0,,0.0-119.0,,1.0,502.4950001,0.0,0.31190902600000003,1.0,0.75,0.0,0.732413819,0.0,0.413082932,True,,5f75f7a73bf0b60009f88e38,,5809478,117,,evan-feature22,full_rf_b,,1
92,5800,118,,,,2,2,1.0,1.0,-1.0,0.0,,0.0-120.0,,-1.0,421.75,0.0,0.366917648,1.0,0.740073855,1.0,0.75,1.0,0.352861979,True,,5f75f7a73bf0b60009f88e38,,5819667,118,,evan-feature22,full_rf_b,,1
93,5801,119,,,,2,2,0.0,0.0,-1.0,0.0,,0.0-121.0,,0.0,1056.515,1.0,0.3645172,0.0,0.721770713,0.0,0.75,0.0,0.404074511,True,,5f75f7a73bf0b60009f88e38,,5830484,119,,evan-feature22,full_rf_b,,0
94,5802,120,,,,2,2,1.0,0.0,-1.0,0.0,,0.0-122.0,,-1.0,669.7249999,1.0,0.35205600299999995,1.0,0.68983859,1.0,0.739735447,0.0,0.366895945,True,,5f75f7a73bf0b60009f88e38,,5840920,120,,evan-feature22,full_rf_b,,0
95,5803,121,,,,2,2,0.0,1.0,-1.0,0.0,,0.0-123.0,,0.0,1230.9,1.0,0.40998722600000004,1.0,0.720859127,0.0,0.673854955,1.0,0.368528541,True,,5f75f7a73bf0b60009f88e38,,5851916,121,,evan-feature22,full_rf_b,,0
96,5804,122,,,,2,2,0.0,1.0,-1.0,0.0,,0.0-124.0,,0.0,912.6849999,0.0,0.353625316,1.0,0.75,0.0,0.695605473,1.0,0.38303674200000004,True,,5f75f7a73bf0b60009f88e38,,5862593,122,,evan-feature22,full_rf_b,,0
97,5805,123,,,,2,2,0.0,0.0,-1.0,0.0,,0.0-125.0,,0.0,831.09,0.0,0.359216989,1.0,0.75,0.0,0.6987915090000001,0.0,0.35169046200000004,True,,5f75f7a73bf0b60009f88e38,,5873188,123,,evan-feature22,full_rf_b,,0
98,5806,124,,,,2,2,1.0,0.0,-1.0,0.0,,0.0-126.0,,-1.0,1113.595,0.0,0.35834496899999996,1.0,0.75,1.0,0.707067742,0.0,0.416763636,True,,5f75f7a73bf0b60009f88e38,,5884066,124,,evan-feature22,full_rf_b,,0
99,5807,125,,,,1,1,0.0,1.0,0.0,1.0,,0.0-127.0,,1.0,1199.77,0.0,0.38741613799999997,1.0,0.7177369570000001,1.0,0.734902455,1.0,0.49438664299999996,True,,5f75f7a73bf0b60009f88e38,,5895030,125,,evan-feature22,full_rf_b,,1
100,5808,126,,,,2,2,0.0,0.0,-1.0,0.0,,0.0-128.0,,0.0,756.2599999,0.0,0.405255252,1.0,0.7300466640000001,0.0,0.7027748070000001,0.0,0.504359668,True,,5f75f7a73bf0b60009f88e38,,5905545,126,,evan-feature22,full_rf_b,,1
101,5809,127,,,,2,2,0.0,1.0,-1.0,0.0,,0.0-129.0,,0.0,1194.625,0.0,0.40697073,1.0,0.7260142190000001,0.0,0.724461982,1.0,0.522779179,True,,5f75f7a73bf0b60009f88e38,,5916501,127,,evan-feature22,full_rf_b,,0
102,5810,128,,,,2,2,1.0,1.0,-1.0,0.0,,0.0-130.0,,-1.0,1001.325,1.0,0.43906215299999996,1.0,0.7252802340000001,1.0,0.719079934,1.0,0.5712990579999999,True,,5f75f7a73bf0b60009f88e38,,5927266,128,,evan-feature22,full_rf_b,,0
103,5811,129,,,,1,1,1.0,0.0,0.0,1.0,,0.0-131.0,,0.0,593.8299999,1.0,0.4076705,0.0,0.73280499,1.0,0.681313127,1.0,0.523891346,True,,5f75f7a73bf0b60009f88e38,,5937625,129,,evan-feature22,full_rf_b,,1
104,5812,130,,,,1,1,1.0,1.0,0.0,1.0,,0.0-132.0,,1.0,518.7599999,1.0,0.399102911,1.0,0.730498344,1.0,0.661080239,0.0,0.46742603,True,,5f75f7a73bf0b60009f88e38,,5947907,130,,evan-feature22,full_rf_b,,0
105,5813,131,,,,2,2,1.0,1.0,0.0,1.0,,0.0-133.0,,1.0,834.3199999,0.0,0.356477282,1.0,0.712296395,1.0,0.641812684,1.0,0.44868414,True,,5f75f7a73bf0b60009f88e38,,5958502,131,,evan-feature22,full_rf_b,,1
106,5814,132,,,,2,2,1.0,0.0,-1.0,0.0,,0.0-134.0,,-1.0,1154.215,0.0,0.462760722,0.0,0.692349322,1.0,0.700947931,0.0,0.394680266,True,,5f75f7a73bf0b60009f88e38,,5969418,132,,evan-feature22,full_rf_b,,0
107,5815,133,,,,1,1,0.0,1.0,-1.0,0.0,,0.0-135.0,,0.0,463.765,0.0,0.422306413,1.0,0.718375916,1.0,0.706340917,0.0,0.367787185,True,,5f75f7a73bf0b60009f88e38,,5979646,133,,evan-feature22,full_rf_b,,1
108,5817,135,,,,2,2,1.0,0.0,-1.0,0.0,,0.0-137.0,,-1.0,860.995,1.0,0.4582233,1.0,0.643834117,1.0,0.75,0.0,0.39615823299999997,True,,5f75f7a73bf0b60009f88e38,,5994312,135,,evan-feature22,full_rf_b,,1
109,5818,136,,,,2,2,1.0,1.0,-1.0,0.0,,0.0-138.0,,-1.0,1761.845,0.0,0.43813437899999996,1.0,0.651283804,1.0,0.729674191,1.0,0.37711048,True,,5f75f7a73bf0b60009f88e38,,6005841,136,,evan-feature22,full_rf_b,,0
110,5819,137,,,,2,2,0.0,0.0,-1.0,0.0,,0.0-139.0,,0.0,799.3300001,0.0,0.471199094,0.0,0.6470010979999999,0.0,0.715008097,0.0,0.410656191,True,,5f75f7a73bf0b60009f88e38,,6016402,137,,evan-feature22,full_rf_b,,0
111,5820,138,,,,2,2,0.0,1.0,-1.0,0.0,,0.0-140.0,,0.0,611.0150001000001,1.0,0.42486406,1.0,0.629771829,0.0,0.6550939960000001,1.0,0.459093873,True,,5f75f7a73bf0b60009f88e38,,6026777,138,,evan-feature22,full_rf_b,,0
112,5821,139,,,,2,2,1.0,0.0,-1.0,0.0,,0.0-141.0,,-1.0,1110.745,1.0,0.4803197,1.0,0.645842715,1.0,0.6421749920000001,0.0,0.443092151,True,,5f75f7a73bf0b60009f88e38,,6037653,139,,evan-feature22,full_rf_b,,0
113,5822,140,,,,1,1,0.0,0.0,0.0,1.0,,0.0-142.0,,0.0,617.2,0.0,0.521848997,0.0,0.735801074,1.0,0.6691348460000001,1.0,0.45259351600000003,True,,5f75f7a73bf0b60009f88e38,,6048031,140,,evan-feature22,full_rf_b,,1
114,5823,141,,,,2,2,1.0,0.0,-1.0,0.0,,0.0-143.0,,-1.0,703.3299999,1.0,0.49565621299999996,0.0,0.742400847,1.0,0.661512553,0.0,0.483110831,True,,5f75f7a73bf0b60009f88e38,,6058495,141,,evan-feature22,full_rf_b,,1
115,5824,142,,,,1,1,0.0,1.0,-1.0,0.0,,0.0-144.0,,0.0,529.295,0.0,0.521564361,1.0,0.731078632,1.0,0.6774886809999999,0.0,0.483263956,True,,5f75f7a73bf0b60009f88e38,,6068788,142,,evan-feature22,full_rf_b,,1
116,5825,143,,,,2,2,1.0,0.0,-1.0,0.0,,0.0-145.0,,-1.0,847.85,1.0,0.558893102,0.0,0.719810023,1.0,0.67461031,0.0,0.499349834,True,,5f75f7a73bf0b60009f88e38,,6079400,143,,evan-feature22,full_rf_b,,1
117,5826,144,,,,1,1,1.0,1.0,-1.0,0.0,,0.0-146.0,,-1.0,701.7899997999999,1.0,0.611031046,1.0,0.75,1.0,0.688072995,0.0,0.5321422729999999,True,,5f75f7a73bf0b60009f88e38,,6089867,144,,evan-feature22,full_rf_b,,1
118,5827,145,,,,2,2,0.0,0.0,0.0,1.0,,0.0-147.0,,0.0,1289.195,1.0,0.633223941,0.0,0.713567728,0.0,0.75,0.0,0.48185314700000004,True,,5f75f7a73bf0b60009f88e38,,6100919,145,,evan-feature22,full_rf_b,,1
119,5828,146,,,,1,1,1.0,0.0,-1.0,0.0,,0.0-148.0,,-1.0,394.3649998,1.0,0.664001694,0.0,0.705509768,0.0,0.75,1.0,0.500211065,True,,5f75f7a73bf0b60009f88e38,,6111080,146,,evan-feature22,full_rf_b,,1
120,5829,147,,,,2,2,1.0,1.0,-1.0,0.0,,0.0-149.0,,-1.0,754.6950001,1.0,0.664001694,0.0,0.705509768,1.0,0.75,1.0,0.500211065,True,,5f75f7a73bf0b60009f88e38,,6121604,147,,evan-feature22,full_rf_b,,1
121,5830,148,,,,2,2,1.0,1.0,-1.0,0.0,,0.0-150.0,,-1.0,894.3700001,1.0,0.696508041,1.0,0.71066027,1.0,0.717028709,1.0,0.49792991,True,,5f75f7a73bf0b60009f88e38,,6132265,148,,evan-feature22,full_rf_b,,0
122,5831,149,,,,1,1,0.0,0.0,0.0,1.0,,0.0-151.0,,0.0,587.5850001,0.0,0.699883272,0.0,0.75,1.0,0.713543895,0.0,0.496962643,True,,5f75f7a73bf0b60009f88e38,,6142616,149,,evan-feature22,full_rf_b,,1
123,5832,150,,,,1,1,1.0,1.0,0.0,1.0,,0.0-152.0,,1.0,1069.89,1.0,0.741163419,1.0,0.75,0.0,0.64691024,1.0,0.513858197,True,,5f75f7a73bf0b60009f88e38,,6153459,150,,evan-feature22,full_rf_b,,0
124,5833,151,,,,1,1,1.0,1.0,0.0,1.0,,0.0-153.0,,1.0,893.74,1.0,0.75,1.0,0.70816558,1.0,0.594499079,0.0,0.48502124,True,,5f75f7a73bf0b60009f88e38,,6164119,151,,evan-feature22,full_rf_b,,0
125,5834,152,,,,2,2,1.0,0.0,-1.0,0.0,,0.0-154.0,,-1.0,817.485,1.0,0.75,1.0,0.721848901,1.0,0.62197249,0.0,0.48263586399999997,True,,5f75f7a73bf0b60009f88e38,,6174700,152,,evan-feature22,full_rf_b,,1
126,5835,153,,,,2,2,0.0,0.0,-1.0,0.0,,0.0-155.0,,0.0,1940.865,1.0,0.75,1.0,0.74813071,0.0,0.584357161,0.0,0.411477782,True,,5f75f7a73bf0b60009f88e38,,6186403,153,,evan-feature22,full_rf_b,,0
127,5836,154,,,,2,2,0.0,0.0,-1.0,0.0,,0.0-156.0,,0.0,1061.395,1.0,0.75,1.0,0.75,0.0,0.52287236,0.0,0.488290656,True,,5f75f7a73bf0b60009f88e38,,6197224,154,,evan-feature22,full_rf_b,,0
128,5837,155,,,,2,2,1.0,0.0,-1.0,0.0,,0.0-157.0,,-1.0,1103.745,1.0,0.75,0.0,0.75,1.0,0.544321581,0.0,0.53143059,True,,5f75f7a73bf0b60009f88e38,,6208095,155,,evan-feature22,full_rf_b,,0
129,5838,156,,,,2,2,1.0,1.0,-1.0,0.0,,0.0-158.0,,-1.0,1544.46,0.0,0.726754564,1.0,0.75,1.0,0.5129306370000001,1.0,0.530592445,True,,5f75f7a73bf0b60009f88e38,,6219403,156,,evan-feature22,full_rf_b,,0
130,5839,157,,,,1,1,1.0,1.0,0.0,1.0,,0.0-159.0,,1.0,1227.085,1.0,0.75,1.0,0.7392590729999999,1.0,0.479875835,0.0,0.547007051,True,,5f75f7a73bf0b60009f88e38,,6230394,157,,evan-feature22,full_rf_b,,1
131,5840,158,,,,1,1,1.0,1.0,0.0,1.0,,0.0-160.0,,1.0,1137.115,1.0,0.75,1.0,0.7393376979999999,1.0,0.546045419,1.0,0.541267353,True,,5f75f7a73bf0b60009f88e38,,6241303,158,,evan-feature22,full_rf_b,,0
132,5841,159,,,,2,2,1.0,1.0,-1.0,0.0,,0.0-161.0,,-1.0,1254.065,1.0,0.75,1.0,0.75,1.0,0.485725895,1.0,0.527625395,True,,5f75f7a73bf0b60009f88e38,,6252325,159,,evan-feature22,full_rf_b,,1
133,5842,160,,,,1,1,1.0,1.0,0.0,1.0,,0.0-162.0,,1.0,1080.82,1.0,0.75,1.0,0.725087974,1.0,0.488603595,0.0,0.504019206,True,,5f75f7a73bf0b60009f88e38,,6263169,160,,evan-feature22,full_rf_b,,1
134,5843,161,,,,2,2,1.0,1.0,-1.0,0.0,,0.0-163.0,,-1.0,966.86,1.0,0.745504295,1.0,0.75,1.0,0.452379914,1.0,0.50131194,True,,5f75f7a73bf0b60009f88e38,,6273899,161,,evan-feature22,full_rf_b,,1
135,5844,162,,,,1,1,1.0,1.0,0.0,1.0,,0.0-164.0,,1.0,906.9950001,1.0,0.728513874,1.0,0.75,1.0,0.44125567200000004,1.0,0.531454591,True,,5f75f7a73bf0b60009f88e38,,6284570,162,,evan-feature22,full_rf_b,,1
136,5845,163,,,,2,2,0.0,1.0,-1.0,0.0,,0.0-165.0,,0.0,1494.215,1.0,0.73790804,1.0,0.75,0.0,0.413036656,1.0,0.524619035,True,,5f75f7a73bf0b60009f88e38,,6295829,163,,evan-feature22,full_rf_b,,1
137,5846,164,,,,1,1,0.0,1.0,-1.0,0.0,,0.0-166.0,,0.0,648.67,0.0,0.7080961309999999,1.0,0.708666865,1.0,0.431915581,1.0,0.481819489,True,,5f75f7a73bf0b60009f88e38,,6306243,164,,evan-feature22,full_rf_b,,1
138,5847,165,,,,2,2,0.0,0.0,-1.0,0.0,,0.0-167.0,,0.0,956.4399999,1.0,0.721378003,0.0,0.71605913,0.0,0.36642387,0.0,0.5036739929999999,True,,5f75f7a73bf0b60009f88e38,,6316961,165,,evan-feature22,full_rf_b,,1
139,5848,166,,,,1,1,0.0,1.0,0.0,1.0,,0.0-168.0,,1.0,804.4599998,0.0,0.7340618959999999,1.0,0.699323252,0.0,0.35298046299999997,1.0,0.511241692,True,,5f75f7a73bf0b60009f88e38,,6327528,166,,evan-feature22,full_rf_b,,1
140,5849,167,,,,1,1,1.0,1.0,0.0,1.0,,0.0-169.0,,1.0,691.5000002,1.0,0.75,1.0,0.70412698,1.0,0.380734814,0.0,0.529580116,True,,5f75f7a73bf0b60009f88e38,,6337990,167,,evan-feature22,full_rf_b,,0
141,5850,168,,,,1,1,0.0,1.0,0.0,1.0,,0.0-170.0,,1.0,867.905,0.0,0.7436654909999999,1.0,0.711182751,1.0,0.41125331,1.0,0.49554405,True,,5f75f7a73bf0b60009f88e38,,6348622,168,,evan-feature22,full_rf_b,,0
142,5851,169,,,,2,2,0.0,0.0,-1.0,0.0,,0.0-171.0,,0.0,819.75,1.0,0.731607915,0.0,0.651774583,0.0,0.35688023,0.0,0.45194491600000003,True,,5f75f7a73bf0b60009f88e38,,6359204,169,,evan-feature22,full_rf_b,,1
143,5852,170,,,,1,1,0.0,0.0,0.0,1.0,,0.0-172.0,,0.0,472.99000020000005,0.0,0.75,0.0,0.75,1.0,0.283145374,1.0,0.528608005,True,,5f75f7a73bf0b60009f88e38,,6369440,170,,evan-feature22,full_rf_b,,1
144,5853,171,,,,2,2,0.0,0.0,-1.0,0.0,,0.0-173.0,,0.0,792.5499999,1.0,0.7491416890000001,1.0,0.7423785959999999,0.0,0.29135870399999997,0.0,0.498888318,True,,5f75f7a73bf0b60009f88e38,,6379995,171,,evan-feature22,full_rf_b,,1
145,5854,172,,,,1,1,1.0,1.0,0.0,1.0,,0.0-174.0,,1.0,625.0099998,1.0,0.708569387,1.0,0.717682277,0.0,0.294421699,0.0,0.493838163,True,,5f75f7a73bf0b60009f88e38,,6390385,172,,evan-feature22,full_rf_b,,1
146,5855,173,,,,2,2,1.0,1.0,-1.0,0.0,,0.0-175.0,,-1.0,576.8600001,0.0,0.75,1.0,0.7383382159999999,1.0,0.356098707,1.0,0.442533405,True,,5f75f7a73bf0b60009f88e38,,6400735,173,,evan-feature22,full_rf_b,,1
147,5856,174,,,,2,2,0.0,0.0,-1.0,0.0,,0.0-176.0,,0.0,543.63,0.0,0.744527075,1.0,0.75,0.0,0.334127506,0.0,0.393165805,True,,5f75f7a73bf0b60009f88e38,,6411054,174,,evan-feature22,full_rf_b,,0
148,5857,175,,,,2,2,0.0,0.0,-1.0,0.0,,0.0-177.0,,0.0,866.8,0.0,0.75,0.0,0.75,0.0,0.33571021799999995,0.0,0.350393962,True,,5f75f7a73bf0b60009f88e38,,6421681,175,,evan-feature22,full_rf_b,,0
149,5858,176,,,,1,1,1.0,1.0,0.0,1.0,,0.0-178.0,,1.0,725.41,1.0,0.75,1.0,0.75,0.0,0.313628297,0.0,0.36349657399999996,True,,5f75f7a73bf0b60009f88e38,,6432182,176,,evan-feature22,full_rf_b,,1
150,5859,177,,,,2,2,0.0,1.0,-1.0,0.0,,0.0-179.0,,0.0,700.985,1.0,0.75,1.0,0.734284182,0.0,0.262667667,1.0,0.380199119,True,,5f75f7a73bf0b60009f88e38,,6442648,177,,evan-feature22,full_rf_b,,1
151,5860,178,,,,2,2,0.0,1.0,-1.0,0.0,,0.0-180.0,,0.0,676.675,1.0,0.75,1.0,0.75,0.0,0.25,1.0,0.394494013,True,,5f75f7a73bf0b60009f88e38,,6453087,178,,evan-feature22,full_rf_b,,0
152,5861,179,,,,2,2,1.0,0.0,-1.0,0.0,,0.0-181.0,,-1.0,1039.88,1.0,0.722298145,1.0,0.7357822340000001,1.0,0.25,0.0,0.319142121,True,,5f75f7a73bf0b60009f88e38,,6463895,179,,evan-feature22,full_rf_b,,0
153,5862,180,,,,SLOW,SLOW,,,-1.0,0.0,,0.0-182.0,,-3.0,,1.0,0.73149275,0.0,0.724276446,0.0,0.305856907,0.0,0.281315057,True,,5f75f7a73bf0b60009f88e38,,6469700,180,,evan-feature22,full_rf_b,,1
154,5863,181,,,,2,2,0.0,0.0,-1.0,0.0,,0.0-183.0,,0.0,1182.2,1.0,0.7458732690000001,0.0,0.7336382459999999,0.0,0.272571964,0.0,0.266021999,True,,5f75f7a73bf0b60009f88e38,,6480646,181,,evan-feature22,full_rf_b,,1
155,5864,182,,,,1,1,1.0,1.0,0.0,1.0,,0.0-184.0,,1.0,513.5949999,1.0,0.705579037,1.0,0.720778292,0.0,0.320238144,0.0,0.30971744,True,,5f75f7a73bf0b60009f88e38,,6490926,182,,evan-feature22,full_rf_b,,1
156,5865,183,,,,1,1,1.0,1.0,0.0,1.0,,0.0-185.0,,1.0,531.3500001,1.0,0.700425648,1.0,0.7198784009999999,1.0,0.272590393,0.0,0.304182931,True,,5f75f7a73bf0b60009f88e38,,6501219,183,,evan-feature22,full_rf_b,,0
157,5866,184,,,,1,1,1.0,1.0,0.0,1.0,,0.0-186.0,,1.0,475.475,1.0,0.735590785,1.0,0.722714973,0.0,0.25,0.0,0.323421091,True,,5f75f7a73bf0b60009f88e38,,6511457,184,,evan-feature22,full_rf_b,,0
158,5867,185,,,,2,2,0.0,0.0,0.0,1.0,,0.0-187.0,,0.0,475.7700001,0.0,0.724807662,1.0,0.63146213,0.0,0.36836492600000004,0.0,0.34592153299999995,True,,5f75f7a73bf0b60009f88e38,,6521697,185,,evan-feature22,full_rf_b,,1
159,5868,186,,,,2,2,1.0,1.0,-1.0,0.0,,0.0-188.0,,-1.0,627.5599999,1.0,0.7352796909999999,0.0,0.555111392,1.0,0.36003922,1.0,0.31433779999999995,True,,5f75f7a73bf0b60009f88e38,,6532090,186,,evan-feature22,full_rf_b,,0
160,5869,187,notice,,,,,,,,,,0.0-189.0,"{""Q0"":""Yes""}",,7741.0,,,,,,,,,True,,5f75f7a73bf0b60009f88e38,,6539834,187,Q,survey-text,full_rf_b,,1
161,5870,188,track1,,[0],,,,,,,,0.0-190.0,"{""Q0"":""yes""}",,9762.0,,,,,,,,,True,,5f75f7a73bf0b60009f88e38,,6549603,188,Q,evan-quiz,full_rf_b,,1
162,5871,189,track2,,[1],,,,,,,,0.0-191.0,"{""Q0"":""no""}",,12103.0,,,,,,,,,True,,5f75f7a73bf0b60009f88e38,,6561709,189,Q,evan-quiz,full_rf_b,,1
163,5872,190,strat,,,,,,,,,,0.0-192.0,"{""Q0"":""Figure out if there was a pattern""}",,19023.0,,,,,,,,,True,,5f75f7a73bf0b60009f88e38,,6580735,190,Q,survey-text,full_rf_b,,1
