,index,Unnamed: 0,Q_name,button_pressed,choice_idxs,chosen_pos,chosen_state,chosen_state_f_1_outcome,chosen_state_f_2_outcome,f_1_reward,f_2_reward,incor_questions,internal_node_id,responses,reward_received,rt,s_1_f_1_outcome,s_1_f_1_prob,s_1_f_2_outcome,s_1_f_2_prob,s_2_f_1_outcome,s_2_f_1_prob,s_2_f_2_outcome,s_2_f_2_prob,safe_first,stimulus,subjectID,success,time_elapsed,trial_index,trial_num,trial_type,version,view_history,switching
0,8788,30,,,,2,2,0.0,0.0,0.0,-1.0,,0.0-27.0,,0.0,1318.305001,0.0,0.6,1.0,0.6,0.0,0.4,0.0,0.4,False,,5e75cf7b16fafe138cac64c8,,646388,30,,evan-feature22,full_pf_a,,0
1,8789,31,,,,1,1,1.0,1.0,0.0,-1.0,,0.0-28.0,,-1.0,528.6650006,1.0,0.608053294,1.0,0.63424552,0.0,0.397152172,0.0,0.347069101,False,,5e75cf7b16fafe138cac64c8,,656751,31,,evan-feature22,full_pf_a,,1
2,8790,32,,,,1,1,0.0,1.0,0.0,-1.0,,0.0-29.0,,-1.0,936.5750011,0.0,0.642237155,1.0,0.648566321,1.0,0.389407674,1.0,0.285525717,False,,5e75cf7b16fafe138cac64c8,,667502,32,,evan-feature22,full_pf_a,,0
3,8791,33,,,,2,2,1.0,0.0,0.0,-1.0,,0.0-30.0,,0.0,618.2199996,0.0,0.661086576,0.0,0.630492543,1.0,0.399058924,0.0,0.25,False,,5e75cf7b16fafe138cac64c8,,677897,33,,evan-feature22,full_pf_a,,1
4,8792,34,,,,2,2,0.0,1.0,0.0,-1.0,,0.0-31.0,,-1.0,1034.694999,0.0,0.631324137,1.0,0.6269842929999999,0.0,0.38734784299999997,1.0,0.25,False,,5e75cf7b16fafe138cac64c8,,688720,34,,evan-feature22,full_pf_a,,0
5,8793,35,,,,2,2,0.0,1.0,0.0,-1.0,,0.0-32.0,,-1.0,622.0249999,1.0,0.6381991370000001,1.0,0.68987999,0.0,0.384107265,1.0,0.271332943,False,,5e75cf7b16fafe138cac64c8,,699145,35,,evan-feature22,full_pf_a,,0
6,8794,36,,,,1,1,0.0,0.0,0.0,-1.0,,0.0-33.0,,0.0,419.85999979999997,0.0,0.66034901,0.0,0.742641349,0.0,0.360225629,0.0,0.25,False,,5e75cf7b16fafe138cac64c8,,709365,36,,evan-feature22,full_pf_a,,1
7,8795,37,,,,1,1,0.0,1.0,1.0,0.0,,0.0-34.0,,0.0,503.2199994,0.0,0.638612418,1.0,0.75,1.0,0.367273939,0.0,0.25,False,,5e75cf7b16fafe138cac64c8,,719696,37,,evan-feature22,full_pf_a,,0
8,8796,38,,,,2,2,0.0,0.0,0.0,-1.0,,0.0-35.0,,0.0,410.374999,1.0,0.624340629,1.0,0.75,0.0,0.425829545,0.0,0.25,False,,5e75cf7b16fafe138cac64c8,,729920,38,,evan-feature22,full_pf_a,,1
9,8797,39,,,,2,2,0.0,0.0,0.0,-1.0,,0.0-36.0,,0.0,386.15999930000004,1.0,0.621999804,1.0,0.75,0.0,0.368609357,0.0,0.25,False,,5e75cf7b16fafe138cac64c8,,740106,39,,evan-feature22,full_pf_a,,0
10,8798,40,,,,2,2,0.0,1.0,1.0,0.0,,0.0-37.0,,0.0,473.5249989,0.0,0.62666403,1.0,0.75,0.0,0.311151498,1.0,0.25,False,,5e75cf7b16fafe138cac64c8,,750384,40,,evan-feature22,full_pf_a,,0
11,8799,41,,,,1,1,0.0,1.0,1.0,0.0,,0.0-38.0,,0.0,421.3300012,0.0,0.6819650009999999,1.0,0.75,1.0,0.310763048,1.0,0.25,False,,5e75cf7b16fafe138cac64c8,,760629,41,,evan-feature22,full_pf_a,,1
12,8800,42,,,,2,2,0.0,1.0,0.0,-1.0,,0.0-39.0,,-1.0,361.3099996,1.0,0.740626951,1.0,0.75,0.0,0.25,1.0,0.25,False,,5e75cf7b16fafe138cac64c8,,770796,42,,evan-feature22,full_pf_a,,1
13,8801,43,,,,2,2,0.0,0.0,0.0,-1.0,,0.0-40.0,,0.0,668.8850001000001,1.0,0.739599242,0.0,0.742034978,0.0,0.25397114600000004,0.0,0.25,False,,5e75cf7b16fafe138cac64c8,,781253,43,,evan-feature22,full_pf_a,,0
14,8802,44,,,,2,2,0.0,0.0,0.0,-1.0,,0.0-41.0,,0.0,449.0499999,1.0,0.732341315,0.0,0.72735643,0.0,0.25,0.0,0.25,False,,5e75cf7b16fafe138cac64c8,,791495,44,,evan-feature22,full_pf_a,,0
15,8803,45,,,,1,1,1.0,1.0,0.0,-1.0,,0.0-42.0,,-1.0,386.58499900000004,1.0,0.7062287770000001,1.0,0.75,0.0,0.29002151,1.0,0.288256649,False,,5e75cf7b16fafe138cac64c8,,801699,45,,evan-feature22,full_pf_a,,1
16,8804,46,,,,1,1,0.0,1.0,1.0,0.0,,0.0-43.0,,0.0,391.40500130000004,0.0,0.7086029209999999,1.0,0.75,0.0,0.274129113,0.0,0.262851608,False,,5e75cf7b16fafe138cac64c8,,811901,46,,evan-feature22,full_pf_a,,0
17,8805,47,,,,2,2,1.0,1.0,0.0,-1.0,,0.0-44.0,,-1.0,446.814999,0.0,0.669189651,1.0,0.727614338,1.0,0.298444036,1.0,0.296944518,False,,5e75cf7b16fafe138cac64c8,,822171,47,,evan-feature22,full_pf_a,,1
18,8806,48,,,,2,2,0.0,0.0,1.0,0.0,,0.0-45.0,,0.0,330.8049999,1.0,0.6819912929999999,1.0,0.7179434290000001,0.0,0.265003961,0.0,0.28157921199999997,False,,5e75cf7b16fafe138cac64c8,,832303,48,,evan-feature22,full_pf_a,,0
19,8807,49,,,,2,2,1.0,0.0,1.0,0.0,,0.0-46.0,,1.0,377.8149989,1.0,0.665275002,0.0,0.723065271,1.0,0.260414971,0.0,0.30973870000000003,False,,5e75cf7b16fafe138cac64c8,,842496,49,,evan-feature22,full_pf_a,,0
20,8808,50,,,,1,1,1.0,1.0,0.0,-1.0,,0.0-47.0,,-1.0,526.6600009,1.0,0.6660593260000001,1.0,0.728032907,1.0,0.30922817,1.0,0.338778608,False,,5e75cf7b16fafe138cac64c8,,852838,50,,evan-feature22,full_pf_a,,1
21,8809,51,,,,1,1,0.0,1.0,0.0,-1.0,,0.0-48.0,,-1.0,414.7850014,0.0,0.702068785,1.0,0.6528750879999999,1.0,0.287329608,0.0,0.35789613200000003,False,,5e75cf7b16fafe138cac64c8,,863067,51,,evan-feature22,full_pf_a,,0
22,8810,52,,,,2,2,0.0,0.0,0.0,-1.0,,0.0-49.0,,0.0,305.42000010000004,1.0,0.651939787,0.0,0.636725589,0.0,0.284834488,0.0,0.358563756,False,,5e75cf7b16fafe138cac64c8,,873178,52,,evan-feature22,full_pf_a,,1
23,8811,53,,,,1,1,0.0,0.0,0.0,-1.0,,0.0-50.0,,0.0,387.5200003,0.0,0.67573929,0.0,0.612550049,0.0,0.37130387600000003,0.0,0.383542402,False,,5e75cf7b16fafe138cac64c8,,883365,53,,evan-feature22,full_pf_a,,1
24,8812,54,,,,2,2,0.0,1.0,0.0,-1.0,,0.0-51.0,,-1.0,359.38000120000004,1.0,0.620753801,0.0,0.60513644,0.0,0.385529434,1.0,0.340361743,False,,5e75cf7b16fafe138cac64c8,,893526,54,,evan-feature22,full_pf_a,,1
25,8813,55,,,,2,2,0.0,0.0,1.0,0.0,,0.0-52.0,,0.0,391.66500049999996,1.0,0.673564893,1.0,0.672437924,0.0,0.292955382,0.0,0.337633795,False,,5e75cf7b16fafe138cac64c8,,903736,55,,evan-feature22,full_pf_a,,0
26,8814,56,,,,1,1,1.0,1.0,0.0,-1.0,,0.0-53.0,,-1.0,261.669999,1.0,0.6749427,1.0,0.724197502,0.0,0.32391132100000003,0.0,0.350995264,False,,5e75cf7b16fafe138cac64c8,,913814,56,,evan-feature22,full_pf_a,,1
27,8815,57,,,,2,2,0.0,0.0,0.0,-1.0,,0.0-54.0,,0.0,518.2700008,1.0,0.6940159379999999,1.0,0.75,0.0,0.31710554399999996,0.0,0.413450341,False,,5e75cf7b16fafe138cac64c8,,924114,57,,evan-feature22,full_pf_a,,1
28,8816,58,,,,2,2,0.0,1.0,0.0,-1.0,,0.0-55.0,,-1.0,313.3400008,1.0,0.6916018270000001,0.0,0.69001187,0.0,0.261817804,1.0,0.40038635,False,,5e75cf7b16fafe138cac64c8,,934237,58,,evan-feature22,full_pf_a,,0
29,8817,59,,,,1,1,1.0,0.0,0.0,-1.0,,0.0-56.0,,0.0,352.9599998,1.0,0.641061544,0.0,0.71337992,0.0,0.277296461,1.0,0.47372791700000005,False,,5e75cf7b16fafe138cac64c8,,944376,59,,evan-feature22,full_pf_a,,1
30,8818,60,,,,1,1,1.0,1.0,0.0,-1.0,,0.0-57.0,,-1.0,631.2300004,1.0,0.6082438520000001,1.0,0.708471106,1.0,0.28745137,1.0,0.564174476,False,,5e75cf7b16fafe138cac64c8,,954820,60,,evan-feature22,full_pf_a,,0
31,8819,61,,,,2,2,0.0,0.0,1.0,0.0,,0.0-58.0,,0.0,395.9999997,0.0,0.6051112120000001,1.0,0.7118147229999999,0.0,0.272390611,0.0,0.5595149939999999,False,,5e75cf7b16fafe138cac64c8,,965020,61,,evan-feature22,full_pf_a,,1
32,8820,62,,,,2,2,0.0,0.0,1.0,0.0,,0.0-59.0,,0.0,341.6750003,0.0,0.582420852,0.0,0.635867583,0.0,0.31089574,0.0,0.5227206520000001,False,,5e75cf7b16fafe138cac64c8,,975157,62,,evan-feature22,full_pf_a,,0
33,8821,63,,,,2,2,0.0,1.0,1.0,0.0,,0.0-60.0,,0.0,404.3700006,0.0,0.623195575,1.0,0.655026044,0.0,0.25,1.0,0.560387538,False,,5e75cf7b16fafe138cac64c8,,985378,63,,evan-feature22,full_pf_a,,0
34,8822,64,,,,1,1,1.0,1.0,0.0,-1.0,,0.0-61.0,,-1.0,707.6200005,1.0,0.601889598,1.0,0.678198724,0.0,0.25,0.0,0.559922936,False,,5e75cf7b16fafe138cac64c8,,995885,64,,evan-feature22,full_pf_a,,1
35,8823,65,,,,2,2,1.0,0.0,1.0,0.0,,0.0-62.0,,1.0,658.0450013,0.0,0.601259914,1.0,0.704681482,1.0,0.33908969299999997,0.0,0.505003715,False,,5e75cf7b16fafe138cac64c8,,1006334,65,,evan-feature22,full_pf_a,,1
36,8824,66,,,,2,2,1.0,0.0,1.0,0.0,,0.0-63.0,,1.0,523.3050007,0.0,0.59645454,0.0,0.710437172,1.0,0.327441879,0.0,0.391749613,False,,5e75cf7b16fafe138cac64c8,,1016665,66,,evan-feature22,full_pf_a,,0
37,8825,67,,,,2,2,1.0,0.0,0.0,-1.0,,0.0-64.0,,0.0,526.744999,0.0,0.529473,1.0,0.636758527,1.0,0.301338063,0.0,0.365661481,False,,5e75cf7b16fafe138cac64c8,,1027009,67,,evan-feature22,full_pf_a,,0
38,8826,68,,,,1,1,1.0,1.0,1.0,0.0,,0.0-65.0,,1.0,995.494999,1.0,0.541657162,1.0,0.634541962,0.0,0.343535366,0.0,0.371763742,False,,5e75cf7b16fafe138cac64c8,,1037791,68,,evan-feature22,full_pf_a,,1
39,8827,69,,,,2,2,0.0,1.0,1.0,0.0,,0.0-66.0,,0.0,818.3149993,1.0,0.5707533260000001,1.0,0.589121171,0.0,0.326428396,1.0,0.43961622899999997,False,,5e75cf7b16fafe138cac64c8,,1048433,69,,evan-feature22,full_pf_a,,1
40,8828,70,,,,1,1,0.0,0.0,0.0,-1.0,,0.0-67.0,,0.0,631.7000017000001,0.0,0.5707533260000001,0.0,0.589121171,0.0,0.326428396,0.0,0.43961622899999997,False,,5e75cf7b16fafe138cac64c8,,1058889,70,,evan-feature22,full_pf_a,,1
41,8829,71,,,,2,2,1.0,0.0,0.0,-1.0,,0.0-68.0,,0.0,571.0700005,0.0,0.506271295,1.0,0.641775594,1.0,0.37149690700000004,0.0,0.404330166,False,,5e75cf7b16fafe138cac64c8,,1069286,71,,evan-feature22,full_pf_a,,1
42,8830,72,,,,1,1,1.0,0.0,1.0,0.0,,0.0-69.0,,1.0,640.7450008999999,1.0,0.455642565,0.0,0.623605825,0.0,0.358753011,0.0,0.346174041,False,,5e75cf7b16fafe138cac64c8,,1079732,72,,evan-feature22,full_pf_a,,1
43,8831,73,,,,SLOW,SLOW,,,0.0,-1.0,,0.0-70.0,,-3.0,,1.0,0.483677308,1.0,0.5904681070000001,0.0,0.402218411,1.0,0.35344697,False,,5e75cf7b16fafe138cac64c8,,1085559,73,,evan-feature22,full_pf_a,,1
44,8832,74,,,,2,2,0.0,1.0,1.0,0.0,,0.0-71.0,,0.0,994.8650002,1.0,0.394210977,1.0,0.558925494,0.0,0.540052017,1.0,0.35182128700000004,False,,5e75cf7b16fafe138cac64c8,,1096379,74,,evan-feature22,full_pf_a,,1
45,8833,75,,,,1,1,0.0,1.0,0.0,-1.0,,0.0-72.0,,-1.0,365.33000130000005,0.0,0.382300414,1.0,0.577670603,1.0,0.607608448,0.0,0.378261578,False,,5e75cf7b16fafe138cac64c8,,1106559,75,,evan-feature22,full_pf_a,,1
46,8834,76,,,,2,2,1.0,0.0,1.0,0.0,,0.0-73.0,,1.0,497.8149999,1.0,0.357596762,1.0,0.5929076529999999,1.0,0.6579790010000001,0.0,0.401326777,False,,5e75cf7b16fafe138cac64c8,,1116880,76,,evan-feature22,full_pf_a,,1
47,8835,77,,,,2,2,1.0,1.0,0.0,-1.0,,0.0-74.0,,-1.0,525.8200001,1.0,0.362033495,1.0,0.582308608,1.0,0.649195052,1.0,0.355158505,False,,5e75cf7b16fafe138cac64c8,,1127239,77,,evan-feature22,full_pf_a,,0
48,8836,78,,,,1,1,0.0,1.0,0.0,-1.0,,0.0-75.0,,-1.0,518.5800008,0.0,0.369620635,1.0,0.669100864,0.0,0.706059111,0.0,0.362516241,False,,5e75cf7b16fafe138cac64c8,,1137588,78,,evan-feature22,full_pf_a,,1
49,8837,79,,,,2,2,1.0,0.0,0.0,-1.0,,0.0-76.0,,0.0,413.95,0.0,0.41477751399999996,1.0,0.7284416779999999,1.0,0.7182656940000001,0.0,0.36228040899999997,False,,5e75cf7b16fafe138cac64c8,,1147822,79,,evan-feature22,full_pf_a,,1
50,8838,80,,,,2,2,1.0,0.0,1.0,0.0,,0.0-77.0,,1.0,274.9749999,0.0,0.37675460299999997,0.0,0.703250285,1.0,0.75,0.0,0.461979164,False,,5e75cf7b16fafe138cac64c8,,1157916,80,,evan-feature22,full_pf_a,,0
51,8839,81,,,,2,2,1.0,1.0,1.0,0.0,,0.0-78.0,,1.0,440.31500070000004,0.0,0.398716075,1.0,0.6723864890000001,1.0,0.674153818,1.0,0.519029516,False,,5e75cf7b16fafe138cac64c8,,1168180,81,,evan-feature22,full_pf_a,,0
52,8840,82,,,,2,2,1.0,0.0,1.0,0.0,,0.0-79.0,,1.0,2462.9799980000003,0.0,0.34677856700000004,0.0,0.69057175,1.0,0.6822438540000001,0.0,0.477292237,False,,5e75cf7b16fafe138cac64c8,,1180455,82,,evan-feature22,full_pf_a,,0
53,8841,83,,,,2,2,1.0,1.0,0.0,-1.0,,0.0-80.0,,-1.0,411.5299992,0.0,0.28580469199999997,1.0,0.68408818,1.0,0.684207565,1.0,0.49780448299999996,False,,5e75cf7b16fafe138cac64c8,,1190685,83,,evan-feature22,full_pf_a,,0
54,8843,85,,,,2,2,1.0,0.0,0.0,-1.0,,0.0-82.0,,0.0,470.7800001,0.0,0.25,0.0,0.7405808970000001,1.0,0.679614108,0.0,0.436436964,False,,5e75cf7b16fafe138cac64c8,,1203512,85,,evan-feature22,full_pf_a,,0
55,8844,86,,,,2,2,1.0,1.0,0.0,-1.0,,0.0-83.0,,-1.0,401.78499930000004,0.0,0.29890393,1.0,0.730505706,1.0,0.7328203320000001,1.0,0.439256938,False,,5e75cf7b16fafe138cac64c8,,1213741,86,,evan-feature22,full_pf_a,,0
56,8845,87,,,,1,1,0.0,0.0,1.0,0.0,,0.0-84.0,,0.0,504.9649999,0.0,0.326762398,0.0,0.7148059609999999,1.0,0.75,0.0,0.44389608799999997,False,,5e75cf7b16fafe138cac64c8,,1224050,87,,evan-feature22,full_pf_a,,1
57,8846,88,,,,1,1,1.0,1.0,0.0,-1.0,,0.0-85.0,,-1.0,502.52999919999996,1.0,0.295168515,1.0,0.739760854,1.0,0.719947008,1.0,0.35277284600000003,False,,5e75cf7b16fafe138cac64c8,,1234371,88,,evan-feature22,full_pf_a,,0
58,8847,89,,,,2,2,1.0,0.0,0.0,-1.0,,0.0-86.0,,0.0,470.51999900000004,0.0,0.25,1.0,0.70781482,1.0,0.75,0.0,0.286095925,False,,5e75cf7b16fafe138cac64c8,,1244657,89,,evan-feature22,full_pf_a,,1
59,8848,90,,,,2,2,1.0,1.0,0.0,-1.0,,0.0-87.0,,-1.0,473.3949993,0.0,0.25638190899999996,1.0,0.704088163,1.0,0.75,1.0,0.26872601399999996,False,,5e75cf7b16fafe138cac64c8,,1254937,90,,evan-feature22,full_pf_a,,0
60,8849,91,,,,2,2,1.0,0.0,1.0,0.0,,0.0-88.0,,1.0,964.7700004000001,0.0,0.271581126,1.0,0.669760107,1.0,0.733896663,0.0,0.273244572,False,,5e75cf7b16fafe138cac64c8,,1265706,91,,evan-feature22,full_pf_a,,0
61,8850,92,,,,2,2,1.0,0.0,0.0,-1.0,,0.0-89.0,,0.0,449.53499919999996,1.0,0.257144401,0.0,0.600575706,1.0,0.74488122,0.0,0.25,False,,5e75cf7b16fafe138cac64c8,,1275980,92,,evan-feature22,full_pf_a,,0
62,8851,93,,,,2,2,1.0,0.0,0.0,-1.0,,0.0-90.0,,0.0,516.5050011,0.0,0.25,1.0,0.616870026,1.0,0.723610234,0.0,0.25,False,,5e75cf7b16fafe138cac64c8,,1286299,93,,evan-feature22,full_pf_a,,0
63,8852,94,,,,2,2,1.0,1.0,1.0,0.0,,0.0-91.0,,1.0,494.6500007,0.0,0.25,1.0,0.583540187,1.0,0.7041042559999999,1.0,0.285961995,False,,5e75cf7b16fafe138cac64c8,,1296603,94,,evan-feature22,full_pf_a,,0
64,8853,95,,,,2,2,0.0,1.0,1.0,0.0,,0.0-92.0,,0.0,450.7149998,0.0,0.27254536,1.0,0.53875765,0.0,0.693783448,1.0,0.284961652,False,,5e75cf7b16fafe138cac64c8,,1306874,95,,evan-feature22,full_pf_a,,0
65,8854,96,,,,2,2,0.0,0.0,1.0,0.0,,0.0-93.0,,0.0,504.7849994,0.0,0.25,1.0,0.548431252,0.0,0.734221895,0.0,0.279445214,False,,5e75cf7b16fafe138cac64c8,,1317189,96,,evan-feature22,full_pf_a,,0
66,8855,97,,,,2,2,0.0,1.0,0.0,-1.0,,0.0-94.0,,-1.0,467.0150001,0.0,0.258640684,0.0,0.545878066,0.0,0.725245965,1.0,0.31487537,False,,5e75cf7b16fafe138cac64c8,,1327476,97,,evan-feature22,full_pf_a,,0
67,8856,98,,,,1,1,0.0,0.0,0.0,-1.0,,0.0-95.0,,0.0,3612.295,0.0,0.251103711,0.0,0.5776290629999999,1.0,0.696320133,0.0,0.317831047,False,,5e75cf7b16fafe138cac64c8,,1340888,98,,evan-feature22,full_pf_a,,1
68,8857,99,,,,1,1,1.0,0.0,0.0,-1.0,,0.0-96.0,,0.0,389.2599996,1.0,0.276630292,0.0,0.617329858,1.0,0.73838088,1.0,0.261471582,False,,5e75cf7b16fafe138cac64c8,,1351083,99,,evan-feature22,full_pf_a,,0
69,8858,100,,,,1,1,0.0,0.0,0.0,-1.0,,0.0-97.0,,0.0,310.385,0.0,0.297716424,0.0,0.618863717,0.0,0.7402358259999999,0.0,0.262600834,False,,5e75cf7b16fafe138cac64c8,,1361202,100,,evan-feature22,full_pf_a,,0
70,8859,101,,,,1,1,0.0,1.0,1.0,0.0,,0.0-98.0,,0.0,361.0449992,0.0,0.290935512,1.0,0.695370945,0.0,0.706570507,0.0,0.280030553,False,,5e75cf7b16fafe138cac64c8,,1371392,101,,evan-feature22,full_pf_a,,0
71,8860,102,,,,1,1,0.0,1.0,0.0,-1.0,,0.0-99.0,,-1.0,479.55499960000003,0.0,0.25,1.0,0.6465277079999999,1.0,0.67766682,0.0,0.25,False,,5e75cf7b16fafe138cac64c8,,1381706,102,,evan-feature22,full_pf_a,,0
72,8861,103,,,,2,2,1.0,0.0,1.0,0.0,,0.0-100.0,,1.0,702.1200005,0.0,0.26463816,0.0,0.636100213,1.0,0.646048507,0.0,0.265607101,False,,5e75cf7b16fafe138cac64c8,,1392211,103,,evan-feature22,full_pf_a,,1
73,8862,104,,,,2,2,0.0,1.0,1.0,0.0,,0.0-101.0,,0.0,357.6350007,1.0,0.314340707,1.0,0.667795927,0.0,0.613630805,1.0,0.25,False,,5e75cf7b16fafe138cac64c8,,1402401,104,,evan-feature22,full_pf_a,,0
74,8863,105,,,,1,1,0.0,1.0,0.0,-1.0,,0.0-102.0,,-1.0,703.0549999,0.0,0.28685784,1.0,0.6622549529999999,0.0,0.652154117,0.0,0.25,False,,5e75cf7b16fafe138cac64c8,,1412926,105,,evan-feature22,full_pf_a,,1
75,8864,106,,,,2,2,1.0,0.0,0.0,-1.0,,0.0-103.0,,0.0,634.5850006000001,1.0,0.304106554,0.0,0.631289538,1.0,0.707041942,0.0,0.29314237,False,,5e75cf7b16fafe138cac64c8,,1423369,106,,evan-feature22,full_pf_a,,1
76,8865,107,,,,2,2,1.0,0.0,0.0,-1.0,,0.0-104.0,,0.0,408.67500010000003,0.0,0.304806932,1.0,0.571167718,1.0,0.680472346,0.0,0.25,False,,5e75cf7b16fafe138cac64c8,,1433594,107,,evan-feature22,full_pf_a,,0
77,8866,108,,,,2,2,1.0,1.0,0.0,-1.0,,0.0-105.0,,-1.0,2519.654999,1.0,0.37919861,0.0,0.5724849710000001,1.0,0.705638003,1.0,0.30179300600000003,False,,5e75cf7b16fafe138cac64c8,,1445923,108,,evan-feature22,full_pf_a,,0
78,8867,109,,,,2,2,1.0,0.0,0.0,-1.0,,0.0-106.0,,0.0,696.8949996,1.0,0.464277969,0.0,0.554034373,1.0,0.7372627340000001,0.0,0.264699741,False,,5e75cf7b16fafe138cac64c8,,1456444,109,,evan-feature22,full_pf_a,,0
79,8868,110,,,,2,2,1.0,0.0,0.0,-1.0,,0.0-107.0,,0.0,370.9249999,0.0,0.465104323,1.0,0.530793115,1.0,0.75,0.0,0.31683071,False,,5e75cf7b16fafe138cac64c8,,1466621,110,,evan-feature22,full_pf_a,,0
80,8869,111,,,,2,2,1.0,0.0,1.0,0.0,,0.0-108.0,,1.0,326.1099998,1.0,0.465104323,1.0,0.530793115,1.0,0.75,0.0,0.31683071,False,,5e75cf7b16fafe138cac64c8,,1476747,111,,evan-feature22,full_pf_a,,0
81,8870,112,,,,2,2,0.0,0.0,1.0,0.0,,0.0-109.0,,0.0,419.3550013,1.0,0.46833986,1.0,0.570249239,0.0,0.7244472590000001,0.0,0.364114163,False,,5e75cf7b16fafe138cac64c8,,1486967,112,,evan-feature22,full_pf_a,,0
82,8871,113,,,,1,1,0.0,1.0,1.0,0.0,,0.0-110.0,,0.0,425.89499989999996,0.0,0.445444024,1.0,0.649673355,1.0,0.6845441290000001,0.0,0.300660449,False,,5e75cf7b16fafe138cac64c8,,1497186,113,,evan-feature22,full_pf_a,,1
83,8872,114,,,,2,2,1.0,0.0,1.0,0.0,,0.0-111.0,,1.0,714.7199996,0.0,0.39909721299999995,0.0,0.6715179509999999,1.0,0.742310028,0.0,0.35496088299999995,False,,5e75cf7b16fafe138cac64c8,,1507723,114,,evan-feature22,full_pf_a,,1
84,8873,115,,,,2,2,1.0,0.0,0.0,-1.0,,0.0-112.0,,0.0,360.01500110000006,0.0,0.37956104799999996,1.0,0.694725302,1.0,0.7181651309999999,0.0,0.38726906299999997,False,,5e75cf7b16fafe138cac64c8,,1517883,115,,evan-feature22,full_pf_a,,0
85,8874,116,,,,2,2,0.0,0.0,0.0,-1.0,,0.0-113.0,,0.0,446.4800004,1.0,0.404995034,0.0,0.724375412,0.0,0.6910946859999999,0.0,0.387187347,False,,5e75cf7b16fafe138cac64c8,,1528134,116,,evan-feature22,full_pf_a,,0
86,8875,117,,,,1,1,1.0,1.0,1.0,0.0,,0.0-114.0,,1.0,310.7750006,1.0,0.461740803,1.0,0.75,0.0,0.75,0.0,0.34872038200000005,False,,5e75cf7b16fafe138cac64c8,,1538265,117,,evan-feature22,full_pf_a,,1
87,8876,118,,,,1,1,0.0,1.0,1.0,0.0,,0.0-115.0,,0.0,461.54000049999996,0.0,0.43821380600000004,1.0,0.738833273,1.0,0.728286963,1.0,0.399538128,False,,5e75cf7b16fafe138cac64c8,,1548537,118,,evan-feature22,full_pf_a,,0
88,8877,119,,,,2,2,1.0,1.0,0.0,-1.0,,0.0-116.0,,-1.0,399.3850015,1.0,0.41709882,1.0,0.736666736,1.0,0.75,1.0,0.389095584,False,,5e75cf7b16fafe138cac64c8,,1558750,119,,evan-feature22,full_pf_a,,1
89,8878,120,,,,2,2,1.0,0.0,0.0,-1.0,,0.0-117.0,,0.0,632.2649997000001,1.0,0.39749009799999996,1.0,0.744320029,1.0,0.75,0.0,0.363848678,False,,5e75cf7b16fafe138cac64c8,,1569200,120,,evan-feature22,full_pf_a,,0
90,8879,121,,,,1,1,0.0,0.0,1.0,0.0,,0.0-118.0,,0.0,404.2799994,0.0,0.392653706,0.0,0.75,1.0,0.75,1.0,0.384386976,False,,5e75cf7b16fafe138cac64c8,,1579422,121,,evan-feature22,full_pf_a,,1
91,8880,122,,,,2,2,1.0,0.0,0.0,-1.0,,0.0-119.0,,0.0,670.979999,0.0,0.31190902600000003,1.0,0.75,1.0,0.732413819,0.0,0.413082932,False,,5e75cf7b16fafe138cac64c8,,1589907,122,,evan-feature22,full_pf_a,,1
92,8881,123,,,,2,2,1.0,0.0,1.0,0.0,,0.0-120.0,,1.0,430.9949987,1.0,0.366917648,1.0,0.740073855,1.0,0.75,0.0,0.352861979,False,,5e75cf7b16fafe138cac64c8,,1600137,123,,evan-feature22,full_pf_a,,0
93,8882,124,,,,2,2,1.0,1.0,1.0,0.0,,0.0-121.0,,1.0,923.6699994999999,0.0,0.3645172,1.0,0.721770713,1.0,0.75,1.0,0.404074511,False,,5e75cf7b16fafe138cac64c8,,1610863,124,,evan-feature22,full_pf_a,,0
94,8883,125,,,,1,1,1.0,1.0,1.0,0.0,,0.0-122.0,,1.0,2552.340001,1.0,0.35205600299999995,1.0,0.68983859,1.0,0.739735447,1.0,0.366895945,False,,5e75cf7b16fafe138cac64c8,,1623228,125,,evan-feature22,full_pf_a,,1
95,8884,126,,,,1,1,1.0,1.0,1.0,0.0,,0.0-123.0,,1.0,318.1350008,1.0,0.40998722600000004,1.0,0.720859127,0.0,0.673854955,1.0,0.368528541,False,,5e75cf7b16fafe138cac64c8,,1633358,126,,evan-feature22,full_pf_a,,0
96,8885,127,,,,1,1,1.0,1.0,1.0,0.0,,0.0-124.0,,1.0,431.5400012,1.0,0.353625316,1.0,0.75,1.0,0.695605473,1.0,0.38303674200000004,False,,5e75cf7b16fafe138cac64c8,,1643610,127,,evan-feature22,full_pf_a,,0
97,8886,128,,,,1,1,0.0,0.0,1.0,0.0,,0.0-125.0,,0.0,412.1850003,0.0,0.359216989,0.0,0.75,0.0,0.6987915090000001,0.0,0.35169046200000004,False,,5e75cf7b16fafe138cac64c8,,1653810,128,,evan-feature22,full_pf_a,,0
98,8887,129,,,,2,2,0.0,1.0,1.0,0.0,,0.0-126.0,,0.0,320.5750007,0.0,0.35834496899999996,0.0,0.75,0.0,0.707067742,1.0,0.416763636,False,,5e75cf7b16fafe138cac64c8,,1663948,129,,evan-feature22,full_pf_a,,1
99,8888,130,,,,2,2,1.0,1.0,0.0,-1.0,,0.0-127.0,,-1.0,3186.129998,0.0,0.38741613799999997,1.0,0.7177369570000001,1.0,0.734902455,1.0,0.49438664299999996,False,,5e75cf7b16fafe138cac64c8,,1676946,130,,evan-feature22,full_pf_a,,0
100,8889,131,,,,2,2,0.0,0.0,1.0,0.0,,0.0-128.0,,0.0,419.56000030000007,0.0,0.405255252,1.0,0.7300466640000001,0.0,0.7027748070000001,0.0,0.504359668,False,,5e75cf7b16fafe138cac64c8,,1687185,131,,evan-feature22,full_pf_a,,0
101,8890,132,,,,2,2,1.0,1.0,1.0,0.0,,0.0-129.0,,1.0,439.28500080000003,0.0,0.40697073,1.0,0.7260142190000001,1.0,0.724461982,1.0,0.522779179,False,,5e75cf7b16fafe138cac64c8,,1697444,132,,evan-feature22,full_pf_a,,0
102,8891,133,,,,2,2,0.0,1.0,1.0,0.0,,0.0-130.0,,0.0,479.700001,0.0,0.43906215299999996,0.0,0.7252802340000001,0.0,0.719079934,1.0,0.5712990579999999,False,,5e75cf7b16fafe138cac64c8,,1707706,133,,evan-feature22,full_pf_a,,0
103,8892,134,,,,1,1,1.0,1.0,0.0,-1.0,,0.0-131.0,,-1.0,377.2149999,1.0,0.4076705,1.0,0.73280499,1.0,0.681313127,1.0,0.523891346,False,,5e75cf7b16fafe138cac64c8,,1717919,134,,evan-feature22,full_pf_a,,1
104,8893,135,,,,1,1,0.0,1.0,0.0,-1.0,,0.0-132.0,,-1.0,367.3050012,0.0,0.399102911,1.0,0.730498344,1.0,0.661080239,0.0,0.46742603,False,,5e75cf7b16fafe138cac64c8,,1728102,135,,evan-feature22,full_pf_a,,0
105,8894,136,,,,2,2,1.0,0.0,0.0,-1.0,,0.0-133.0,,0.0,416.5649991,0.0,0.356477282,1.0,0.712296395,1.0,0.641812684,0.0,0.44868414,False,,5e75cf7b16fafe138cac64c8,,1738321,136,,evan-feature22,full_pf_a,,1
106,8895,137,,,,2,2,0.0,0.0,1.0,0.0,,0.0-134.0,,0.0,609.3650012999999,0.0,0.462760722,1.0,0.692349322,0.0,0.700947931,0.0,0.394680266,False,,5e75cf7b16fafe138cac64c8,,1748719,137,,evan-feature22,full_pf_a,,0
107,8896,138,,,,1,1,1.0,1.0,1.0,0.0,,0.0-135.0,,1.0,497.51999969999997,1.0,0.422306413,1.0,0.718375916,1.0,0.706340917,0.0,0.367787185,False,,5e75cf7b16fafe138cac64c8,,1759043,138,,evan-feature22,full_pf_a,,1
108,8898,140,,,,2,2,1.0,0.0,1.0,0.0,,0.0-137.0,,1.0,448.10999929999997,1.0,0.4582233,0.0,0.643834117,1.0,0.75,0.0,0.39615823299999997,False,,5e75cf7b16fafe138cac64c8,,1772127,140,,evan-feature22,full_pf_a,,1
109,8899,141,,,,2,2,1.0,1.0,1.0,0.0,,0.0-138.0,,1.0,355.8499999,0.0,0.43813437899999996,0.0,0.651283804,1.0,0.729674191,1.0,0.37711048,False,,5e75cf7b16fafe138cac64c8,,1782318,141,,evan-feature22,full_pf_a,,0
110,8900,142,,,,1,1,0.0,1.0,1.0,0.0,,0.0-139.0,,0.0,329.0799987,0.0,0.471199094,1.0,0.6470010979999999,0.0,0.715008097,1.0,0.410656191,False,,5e75cf7b16fafe138cac64c8,,1792449,142,,evan-feature22,full_pf_a,,1
111,8901,143,,,,1,1,0.0,0.0,1.0,0.0,,0.0-140.0,,0.0,446.18500020000005,0.0,0.42486406,0.0,0.629771829,1.0,0.6550939960000001,0.0,0.459093873,False,,5e75cf7b16fafe138cac64c8,,1802703,143,,evan-feature22,full_pf_a,,0
112,8902,144,,,,2,2,1.0,1.0,1.0,0.0,,0.0-141.0,,1.0,443.5399994,0.0,0.4803197,0.0,0.645842715,1.0,0.6421749920000001,1.0,0.443092151,False,,5e75cf7b16fafe138cac64c8,,1812963,144,,evan-feature22,full_pf_a,,1
113,8903,145,,,,2,2,0.0,1.0,0.0,-1.0,,0.0-142.0,,-1.0,1853.835,1.0,0.521848997,0.0,0.735801074,0.0,0.6691348460000001,1.0,0.45259351600000003,False,,5e75cf7b16fafe138cac64c8,,1824604,145,,evan-feature22,full_pf_a,,0
114,8904,146,,,,2,2,1.0,1.0,1.0,0.0,,0.0-143.0,,1.0,593.5549997,1.0,0.49565621299999996,0.0,0.742400847,1.0,0.661512553,1.0,0.483110831,False,,5e75cf7b16fafe138cac64c8,,1835046,146,,evan-feature22,full_pf_a,,0
115,8905,147,,,,1,1,0.0,1.0,1.0,0.0,,0.0-144.0,,0.0,748.6700006,0.0,0.521564361,1.0,0.731078632,0.0,0.6774886809999999,0.0,0.483263956,False,,5e75cf7b16fafe138cac64c8,,1845596,147,,evan-feature22,full_pf_a,,1
116,8906,148,,,,2,2,1.0,0.0,1.0,0.0,,0.0-145.0,,1.0,3056.135001,0.0,0.558893102,1.0,0.719810023,1.0,0.67461031,0.0,0.499349834,False,,5e75cf7b16fafe138cac64c8,,1858444,148,,evan-feature22,full_pf_a,,1
117,8907,149,,,,SLOW,SLOW,,,1.0,0.0,,0.0-146.0,,-3.0,,0.0,0.611031046,0.0,0.75,1.0,0.688072995,0.0,0.5321422729999999,False,,5e75cf7b16fafe138cac64c8,,1864282,149,,evan-feature22,full_pf_a,,1
118,8908,150,,,,2,2,1.0,0.0,0.0,-1.0,,0.0-147.0,,0.0,1365.1,1.0,0.633223941,1.0,0.713567728,1.0,0.75,0.0,0.48185314700000004,False,,5e75cf7b16fafe138cac64c8,,1875457,150,,evan-feature22,full_pf_a,,1
119,8909,151,,,,2,2,1.0,0.0,1.0,0.0,,0.0-148.0,,1.0,1723.3550010000001,1.0,0.664001694,1.0,0.705509768,1.0,0.75,0.0,0.500211065,False,,5e75cf7b16fafe138cac64c8,,1887022,151,,evan-feature22,full_pf_a,,0
120,8910,152,,,,1,1,1.0,1.0,1.0,0.0,,0.0-149.0,,1.0,985.4350016000001,1.0,0.664001694,1.0,0.705509768,1.0,0.75,1.0,0.500211065,False,,5e75cf7b16fafe138cac64c8,,1897822,152,,evan-feature22,full_pf_a,,1
121,8911,153,,,,1,1,0.0,1.0,1.0,0.0,,0.0-150.0,,0.0,472.16000039999994,0.0,0.696508041,1.0,0.71066027,1.0,0.717028709,0.0,0.49792991,False,,5e75cf7b16fafe138cac64c8,,1908119,153,,evan-feature22,full_pf_a,,0
122,8912,154,,,,2,2,0.0,1.0,0.0,-1.0,,0.0-151.0,,-1.0,452.4250012,0.0,0.699883272,1.0,0.75,0.0,0.713543895,1.0,0.496962643,False,,5e75cf7b16fafe138cac64c8,,1918400,154,,evan-feature22,full_pf_a,,1
123,8913,155,,,,2,2,1.0,1.0,0.0,-1.0,,0.0-152.0,,-1.0,467.5699994,1.0,0.741163419,1.0,0.75,1.0,0.64691024,1.0,0.513858197,False,,5e75cf7b16fafe138cac64c8,,1928658,155,,evan-feature22,full_pf_a,,0
124,8914,156,,,,1,1,1.0,1.0,0.0,-1.0,,0.0-153.0,,-1.0,605.2049994,1.0,0.75,1.0,0.70816558,1.0,0.594499079,1.0,0.48502124,False,,5e75cf7b16fafe138cac64c8,,1939096,156,,evan-feature22,full_pf_a,,1
125,8915,157,,,,2,2,0.0,1.0,1.0,0.0,,0.0-154.0,,0.0,405.98499960000004,1.0,0.75,1.0,0.721848901,0.0,0.62197249,1.0,0.48263586399999997,False,,5e75cf7b16fafe138cac64c8,,1949302,157,,evan-feature22,full_pf_a,,1
126,8916,158,,,,2,2,1.0,1.0,1.0,0.0,,0.0-155.0,,1.0,640.3349992000001,1.0,0.75,0.0,0.74813071,1.0,0.584357161,1.0,0.411477782,False,,5e75cf7b16fafe138cac64c8,,1959749,158,,evan-feature22,full_pf_a,,0
127,8917,159,,,,1,1,0.0,0.0,1.0,0.0,,0.0-156.0,,0.0,552.4099991,0.0,0.75,0.0,0.75,1.0,0.52287236,0.0,0.488290656,False,,5e75cf7b16fafe138cac64c8,,1970102,159,,evan-feature22,full_pf_a,,1
128,8918,160,,,,2,2,0.0,1.0,1.0,0.0,,0.0-157.0,,0.0,513.8899982,1.0,0.75,1.0,0.75,0.0,0.544321581,1.0,0.53143059,False,,5e75cf7b16fafe138cac64c8,,1980423,160,,evan-feature22,full_pf_a,,1
129,8919,161,,,,2,2,1.0,1.0,1.0,0.0,,0.0-158.0,,1.0,376.8750001,1.0,0.726754564,1.0,0.75,1.0,0.5129306370000001,1.0,0.530592445,False,,5e75cf7b16fafe138cac64c8,,1990612,161,,evan-feature22,full_pf_a,,0
130,8920,162,,,,1,1,1.0,0.0,0.0,-1.0,,0.0-159.0,,0.0,337.8199991,1.0,0.75,0.0,0.7392590729999999,1.0,0.479875835,0.0,0.547007051,False,,5e75cf7b16fafe138cac64c8,,2000784,162,,evan-feature22,full_pf_a,,1
131,8921,163,,,,2,2,1.0,0.0,0.0,-1.0,,0.0-160.0,,0.0,422.83499989999996,1.0,0.75,0.0,0.7393376979999999,1.0,0.546045419,0.0,0.541267353,False,,5e75cf7b16fafe138cac64c8,,2011038,163,,evan-feature22,full_pf_a,,1
132,8922,164,,,,1,1,1.0,1.0,1.0,0.0,,0.0-161.0,,1.0,375.3299993,1.0,0.75,1.0,0.75,0.0,0.485725895,0.0,0.527625395,False,,5e75cf7b16fafe138cac64c8,,2021235,164,,evan-feature22,full_pf_a,,1
133,8923,165,,,,2,2,0.0,1.0,0.0,-1.0,,0.0-162.0,,-1.0,238.1300014,0.0,0.75,0.0,0.725087974,0.0,0.488603595,1.0,0.504019206,False,,5e75cf7b16fafe138cac64c8,,2031289,165,,evan-feature22,full_pf_a,,1
134,8924,166,,,,1,1,1.0,1.0,1.0,0.0,,0.0-163.0,,1.0,396.8749996,1.0,0.745504295,1.0,0.75,1.0,0.452379914,0.0,0.50131194,False,,5e75cf7b16fafe138cac64c8,,2041486,166,,evan-feature22,full_pf_a,,1
135,8925,167,,,,1,1,1.0,0.0,0.0,-1.0,,0.0-164.0,,0.0,2290.415,1.0,0.728513874,0.0,0.75,0.0,0.44125567200000004,0.0,0.531454591,False,,5e75cf7b16fafe138cac64c8,,2053564,167,,evan-feature22,full_pf_a,,0
136,8926,168,,,,2,2,1.0,1.0,1.0,0.0,,0.0-165.0,,1.0,547.8400011,1.0,0.73790804,1.0,0.75,1.0,0.413036656,1.0,0.524619035,False,,5e75cf7b16fafe138cac64c8,,2063930,168,,evan-feature22,full_pf_a,,1
137,8927,169,,,,1,1,1.0,1.0,1.0,0.0,,0.0-166.0,,1.0,986.5449983999999,1.0,0.7080961309999999,1.0,0.708666865,1.0,0.431915581,1.0,0.481819489,False,,5e75cf7b16fafe138cac64c8,,2074731,169,,evan-feature22,full_pf_a,,1
138,8928,170,,,,2,2,1.0,1.0,1.0,0.0,,0.0-167.0,,1.0,399.7649997,1.0,0.721378003,1.0,0.71605913,1.0,0.36642387,1.0,0.5036739929999999,False,,5e75cf7b16fafe138cac64c8,,2084958,170,,evan-feature22,full_pf_a,,1
139,8929,171,,,,1,1,1.0,0.0,0.0,-1.0,,0.0-168.0,,0.0,377.3849998,1.0,0.7340618959999999,0.0,0.699323252,1.0,0.35298046299999997,1.0,0.511241692,False,,5e75cf7b16fafe138cac64c8,,2095155,171,,evan-feature22,full_pf_a,,1
140,8930,172,,,,2,2,0.0,1.0,0.0,-1.0,,0.0-169.0,,-1.0,655.0750006,0.0,0.75,1.0,0.70412698,0.0,0.380734814,1.0,0.529580116,False,,5e75cf7b16fafe138cac64c8,,2105620,172,,evan-feature22,full_pf_a,,1
141,8931,173,,,,1,1,0.0,1.0,0.0,-1.0,,0.0-170.0,,-1.0,643.3100011,0.0,0.7436654909999999,1.0,0.711182751,0.0,0.41125331,0.0,0.49554405,False,,5e75cf7b16fafe138cac64c8,,2116054,173,,evan-feature22,full_pf_a,,1
142,8932,174,,,,2,2,0.0,0.0,1.0,0.0,,0.0-171.0,,0.0,328.15000039999995,1.0,0.731607915,0.0,0.651774583,0.0,0.35688023,0.0,0.45194491600000003,False,,5e75cf7b16fafe138cac64c8,,2126200,174,,evan-feature22,full_pf_a,,1
143,8933,175,,,,1,1,1.0,1.0,0.0,-1.0,,0.0-172.0,,-1.0,411.32000089999997,1.0,0.75,1.0,0.75,0.0,0.283145374,1.0,0.528608005,False,,5e75cf7b16fafe138cac64c8,,2136435,175,,evan-feature22,full_pf_a,,1
144,8934,176,,,,SLOW,SLOW,,,1.0,0.0,,0.0-173.0,,-3.0,,1.0,0.7491416890000001,1.0,0.7423785959999999,0.0,0.29135870399999997,0.0,0.498888318,False,,5e75cf7b16fafe138cac64c8,,2142274,176,,evan-feature22,full_pf_a,,1
145,8935,177,,,,1,1,1.0,1.0,0.0,-1.0,,0.0-174.0,,-1.0,396.52499930000005,1.0,0.708569387,1.0,0.717682277,0.0,0.294421699,1.0,0.493838163,False,,5e75cf7b16fafe138cac64c8,,2152505,177,,evan-feature22,full_pf_a,,1
146,8936,178,,,,2,2,1.0,1.0,1.0,0.0,,0.0-175.0,,1.0,359.9449992,1.0,0.75,1.0,0.7383382159999999,1.0,0.356098707,1.0,0.442533405,False,,5e75cf7b16fafe138cac64c8,,2162676,178,,evan-feature22,full_pf_a,,1
147,8937,179,,,,1,1,1.0,1.0,1.0,0.0,,0.0-176.0,,1.0,416.7550001,1.0,0.744527075,1.0,0.75,1.0,0.334127506,1.0,0.393165805,False,,5e75cf7b16fafe138cac64c8,,2172915,179,,evan-feature22,full_pf_a,,1
148,8938,180,,,,2,2,0.0,1.0,1.0,0.0,,0.0-177.0,,0.0,436.1349996,1.0,0.75,1.0,0.75,0.0,0.33571021799999995,1.0,0.350393962,False,,5e75cf7b16fafe138cac64c8,,2183182,180,,evan-feature22,full_pf_a,,1
149,8939,181,,,,1,1,1.0,1.0,0.0,-1.0,,0.0-178.0,,-1.0,386.8049998,1.0,0.75,1.0,0.75,0.0,0.313628297,0.0,0.36349657399999996,False,,5e75cf7b16fafe138cac64c8,,2193378,181,,evan-feature22,full_pf_a,,1
150,8940,182,,,,1,1,1.0,1.0,1.0,0.0,,0.0-179.0,,1.0,1052.01,1.0,0.75,1.0,0.734284182,1.0,0.262667667,1.0,0.380199119,False,,5e75cf7b16fafe138cac64c8,,2204247,182,,evan-feature22,full_pf_a,,0
151,8941,183,,,,2,2,1.0,1.0,1.0,0.0,,0.0-180.0,,1.0,318.89499910000006,0.0,0.75,1.0,0.75,1.0,0.25,1.0,0.394494013,False,,5e75cf7b16fafe138cac64c8,,2214377,183,,evan-feature22,full_pf_a,,1
152,8942,184,,,,2,2,0.0,0.0,1.0,0.0,,0.0-181.0,,0.0,923.9400011,0.0,0.722298145,0.0,0.7357822340000001,0.0,0.25,0.0,0.319142121,False,,5e75cf7b16fafe138cac64c8,,2225098,184,,evan-feature22,full_pf_a,,0
153,8943,185,,,,1,1,1.0,1.0,1.0,0.0,,0.0-182.0,,1.0,553.3050001,1.0,0.73149275,1.0,0.724276446,0.0,0.305856907,0.0,0.281315057,False,,5e75cf7b16fafe138cac64c8,,2235455,185,,evan-feature22,full_pf_a,,1
154,8944,186,,,,2,2,0.0,0.0,1.0,0.0,,0.0-183.0,,0.0,352.00500120000004,1.0,0.7458732690000001,1.0,0.7336382459999999,0.0,0.272571964,0.0,0.266021999,False,,5e75cf7b16fafe138cac64c8,,2245596,186,,evan-feature22,full_pf_a,,1
155,8945,187,,,,1,1,1.0,1.0,0.0,-1.0,,0.0-184.0,,-1.0,426.5799988,1.0,0.705579037,1.0,0.720778292,0.0,0.320238144,0.0,0.30971744,False,,5e75cf7b16fafe138cac64c8,,2255836,187,,evan-feature22,full_pf_a,,1
156,8946,188,,,,2,2,1.0,0.0,0.0,-1.0,,0.0-185.0,,0.0,351.39000039999996,1.0,0.700425648,1.0,0.7198784009999999,1.0,0.272590393,0.0,0.304182931,False,,5e75cf7b16fafe138cac64c8,,2265995,188,,evan-feature22,full_pf_a,,1
157,8947,189,,,,1,1,1.0,1.0,0.0,-1.0,,0.0-186.0,,-1.0,629.3449998,1.0,0.735590785,1.0,0.722714973,0.0,0.25,1.0,0.323421091,False,,5e75cf7b16fafe138cac64c8,,2276434,189,,evan-feature22,full_pf_a,,1
158,8948,190,,,,2,2,1.0,1.0,0.0,-1.0,,0.0-187.0,,-1.0,406.92000089999993,0.0,0.724807662,0.0,0.63146213,1.0,0.36836492600000004,1.0,0.34592153299999995,False,,5e75cf7b16fafe138cac64c8,,2286647,190,,evan-feature22,full_pf_a,,1
159,8949,191,,,,1,1,1.0,1.0,1.0,0.0,,0.0-188.0,,1.0,592.1250004,1.0,0.7352796909999999,1.0,0.555111392,0.0,0.36003922,1.0,0.31433779999999995,False,,5e75cf7b16fafe138cac64c8,,2297050,191,,evan-feature22,full_pf_a,,1
160,8950,192,notice,,,,,,,,,,0.0-189.0,"{""Q0"":""Nothing noticeable""}",,39273.0,,,,,,,,,False,,5e75cf7b16fafe138cac64c8,,2336325,192,Q,survey-text,full_pf_a,,1
161,8951,193,track1,,[1],,,,,,,,0.0-190.0,"{""Q0"":""no""}",,6609.0,,,,,,,,,False,,5e75cf7b16fafe138cac64c8,,2342939,193,Q,evan-quiz,full_pf_a,,1
162,8952,194,track2,,[0],,,,,,,,0.0-191.0,"{""Q0"":""yes""}",,6577.0,,,,,,,,,False,,5e75cf7b16fafe138cac64c8,,2349523,194,Q,evan-quiz,full_pf_a,,1
163,8953,195,strat,,,,,,,,,,0.0-192.0,"{""Q0"":""repetitive decisions""}",,19704.0,,,,,,,,,False,,5e75cf7b16fafe138cac64c8,,2369236,195,Q,survey-text,full_pf_a,,1
