,index,Unnamed: 0,Q_name,button_pressed,choice_idxs,chosen_pos,chosen_state,chosen_state_f_1_outcome,chosen_state_f_2_outcome,f_1_reward,f_2_reward,incor_questions,internal_node_id,responses,reward_received,rt,s_1_f_1_outcome,s_1_f_1_prob,s_1_f_2_outcome,s_1_f_2_prob,s_2_f_1_outcome,s_2_f_1_prob,s_2_f_2_outcome,s_2_f_2_prob,safe_first,stimulus,subjectID,success,time_elapsed,trial_index,trial_num,trial_type,version,view_history,switching
0,34652,25,,,,1,1,1.0,1.0,1.0,0.0,,0.0-27.0,,1.0,1621.275,1.0,0.6,1.0,0.6,0.0,0.4,1.0,0.4,True,,5b07478c6f73510001fdbbda,,811892,25,,evan-feature22,full_rf_a,,0
1,34653,26,,,,1,1,1.0,1.0,1.0,0.0,,0.0-28.0,,1.0,1534.55,1.0,0.608053294,1.0,0.63424552,1.0,0.397152172,0.0,0.347069101,True,,5b07478c6f73510001fdbbda,,823234,26,,evan-feature22,full_rf_a,,0
2,34654,27,,,,1,1,1.0,0.0,1.0,0.0,,0.0-29.0,,1.0,1706.38,1.0,0.642237155,0.0,0.648566321,0.0,0.389407674,0.0,0.285525717,True,,5b07478c6f73510001fdbbda,,834756,27,,evan-feature22,full_rf_a,,0
3,34655,28,,,,1,1,1.0,0.0,1.0,0.0,,0.0-30.0,,1.0,471.63,1.0,0.661086576,0.0,0.630492543,1.0,0.399058924,0.0,0.25,True,,5b07478c6f73510001fdbbda,,845041,28,,evan-feature22,full_rf_a,,0
4,34656,29,,,,1,1,1.0,0.0,0.0,-1.0,,0.0-31.0,,0.0,672.355,1.0,0.631324137,0.0,0.6269842929999999,1.0,0.38734784299999997,0.0,0.25,True,,5b07478c6f73510001fdbbda,,855527,29,,evan-feature22,full_rf_a,,0
5,34657,30,,,,2,2,0.0,1.0,0.0,-1.0,,0.0-32.0,,-1.0,1314.055,0.0,0.6381991370000001,1.0,0.68987999,0.0,0.384107265,1.0,0.271332943,True,,5b07478c6f73510001fdbbda,,866660,30,,evan-feature22,full_rf_a,,1
6,34658,31,,,,1,1,0.0,1.0,1.0,0.0,,0.0-33.0,,0.0,559.135,0.0,0.66034901,1.0,0.742641349,1.0,0.360225629,0.0,0.25,True,,5b07478c6f73510001fdbbda,,877029,31,,evan-feature22,full_rf_a,,1
7,34659,32,,,,1,1,1.0,1.0,1.0,0.0,,0.0-34.0,,1.0,628.655,1.0,0.638612418,1.0,0.75,1.0,0.367273939,0.0,0.25,True,,5b07478c6f73510001fdbbda,,887477,32,,evan-feature22,full_rf_a,,0
8,34660,33,,,,2,2,0.0,0.0,0.0,-1.0,,0.0-35.0,,0.0,1166.68,1.0,0.624340629,0.0,0.75,0.0,0.425829545,0.0,0.25,True,,5b07478c6f73510001fdbbda,,898468,33,,evan-feature22,full_rf_a,,1
9,34661,34,,,,1,1,0.0,1.0,0.0,-1.0,,0.0-36.0,,-1.0,504.175,0.0,0.621999804,1.0,0.75,0.0,0.368609357,0.0,0.25,True,,5b07478c6f73510001fdbbda,,908792,34,,evan-feature22,full_rf_a,,1
10,34662,35,,,,2,2,0.0,1.0,1.0,0.0,,0.0-37.0,,0.0,587.41,1.0,0.62666403,0.0,0.75,0.0,0.311151498,1.0,0.25,True,,5b07478c6f73510001fdbbda,,919181,35,,evan-feature22,full_rf_a,,1
11,34663,36,,,,1,1,1.0,1.0,0.0,-1.0,,0.0-38.0,,-1.0,604.295,1.0,0.6819650009999999,1.0,0.75,0.0,0.310763048,1.0,0.25,True,,5b07478c6f73510001fdbbda,,929586,36,,evan-feature22,full_rf_a,,1
12,34664,37,,,,1,1,1.0,1.0,1.0,0.0,,0.0-39.0,,1.0,1151.81,1.0,0.740626951,1.0,0.75,0.0,0.25,0.0,0.25,True,,5b07478c6f73510001fdbbda,,940537,37,,evan-feature22,full_rf_a,,0
13,34665,38,,,,1,1,1.0,1.0,1.0,0.0,,0.0-40.0,,1.0,612.535,1.0,0.739599242,1.0,0.742034978,0.0,0.25397114600000004,0.0,0.25,True,,5b07478c6f73510001fdbbda,,950955,38,,evan-feature22,full_rf_a,,0
14,34666,39,,,,1,1,0.0,1.0,1.0,0.0,,0.0-41.0,,0.0,1348.26,0.0,0.732341315,1.0,0.72735643,0.0,0.25,0.0,0.25,True,,5b07478c6f73510001fdbbda,,962087,39,,evan-feature22,full_rf_a,,0
15,34667,40,,,,1,1,1.0,1.0,1.0,0.0,,0.0-42.0,,1.0,785.46,1.0,0.7062287770000001,1.0,0.75,0.0,0.29002151,1.0,0.288256649,True,,5b07478c6f73510001fdbbda,,972676,40,,evan-feature22,full_rf_a,,0
16,34668,41,,,,1,1,1.0,1.0,1.0,0.0,,0.0-43.0,,1.0,688.695,1.0,0.7086029209999999,1.0,0.75,1.0,0.274129113,0.0,0.262851608,True,,5b07478c6f73510001fdbbda,,983162,41,,evan-feature22,full_rf_a,,0
17,34669,42,,,,2,2,0.0,0.0,1.0,0.0,,0.0-44.0,,0.0,1401.225,1.0,0.669189651,1.0,0.727614338,0.0,0.298444036,0.0,0.296944518,True,,5b07478c6f73510001fdbbda,,994386,42,,evan-feature22,full_rf_a,,1
18,34670,43,,,,2,2,0.0,0.0,1.0,0.0,,0.0-45.0,,0.0,627.93,1.0,0.6819912929999999,1.0,0.7179434290000001,0.0,0.265003961,0.0,0.28157921199999997,True,,5b07478c6f73510001fdbbda,,1004818,43,,evan-feature22,full_rf_a,,0
19,34671,44,,,,2,2,0.0,0.0,0.0,-1.0,,0.0-46.0,,0.0,622.66,0.0,0.665275002,1.0,0.723065271,0.0,0.260414971,0.0,0.30973870000000003,True,,5b07478c6f73510001fdbbda,,1015253,44,,evan-feature22,full_rf_a,,0
20,34672,45,,,,2,2,0.0,0.0,1.0,0.0,,0.0-47.0,,0.0,1450.155,1.0,0.6660593260000001,1.0,0.728032907,0.0,0.30922817,0.0,0.338778608,True,,5b07478c6f73510001fdbbda,,1026504,45,,evan-feature22,full_rf_a,,0
21,34673,46,,,,1,1,0.0,1.0,1.0,0.0,,0.0-48.0,,0.0,808.165,0.0,0.702068785,1.0,0.6528750879999999,1.0,0.287329608,1.0,0.35789613200000003,True,,5b07478c6f73510001fdbbda,,1037128,46,,evan-feature22,full_rf_a,,1
22,34674,47,,,,1,1,0.0,1.0,1.0,0.0,,0.0-49.0,,0.0,416.705,0.0,0.651939787,1.0,0.636725589,0.0,0.284834488,0.0,0.358563756,True,,5b07478c6f73510001fdbbda,,1047366,47,,evan-feature22,full_rf_a,,0
23,34675,48,,,,1,1,1.0,1.0,0.0,-1.0,,0.0-50.0,,-1.0,408.48,1.0,0.67573929,1.0,0.612550049,1.0,0.37130387600000003,1.0,0.383542402,True,,5b07478c6f73510001fdbbda,,1057580,48,,evan-feature22,full_rf_a,,0
24,34676,49,,,,2,2,0.0,1.0,0.0,-1.0,,0.0-51.0,,-1.0,412.3,1.0,0.620753801,1.0,0.60513644,0.0,0.385529434,1.0,0.340361743,True,,5b07478c6f73510001fdbbda,,1067785,49,,evan-feature22,full_rf_a,,1
25,34677,50,,,,2,2,0.0,0.0,0.0,-1.0,,0.0-52.0,,0.0,551.36,0.0,0.673564893,0.0,0.672437924,0.0,0.292955382,0.0,0.337633795,True,,5b07478c6f73510001fdbbda,,1078155,50,,evan-feature22,full_rf_a,,0
26,34678,51,,,,2,2,1.0,0.0,1.0,0.0,,0.0-53.0,,1.0,637.09,1.0,0.6749427,0.0,0.724197502,1.0,0.32391132100000003,0.0,0.350995264,True,,5b07478c6f73510001fdbbda,,1088594,51,,evan-feature22,full_rf_a,,0
27,34679,52,,,,2,2,0.0,0.0,1.0,0.0,,0.0-54.0,,0.0,633.205,1.0,0.6940159379999999,1.0,0.75,0.0,0.31710554399999996,0.0,0.413450341,True,,5b07478c6f73510001fdbbda,,1099024,52,,evan-feature22,full_rf_a,,0
28,34680,53,,,,2,2,0.0,0.0,1.0,0.0,,0.0-55.0,,0.0,659.815,1.0,0.6916018270000001,0.0,0.69001187,0.0,0.261817804,0.0,0.40038635,True,,5b07478c6f73510001fdbbda,,1109492,53,,evan-feature22,full_rf_a,,0
29,34681,54,,,,2,2,1.0,1.0,1.0,0.0,,0.0-56.0,,1.0,542.005,1.0,0.641061544,1.0,0.71337992,1.0,0.277296461,1.0,0.47372791700000005,True,,5b07478c6f73510001fdbbda,,1119816,54,,evan-feature22,full_rf_a,,0
30,34682,55,,,,2,2,1.0,0.0,1.0,0.0,,0.0-57.0,,1.0,1123.175,0.0,0.6082438520000001,1.0,0.708471106,1.0,0.28745137,0.0,0.564174476,True,,5b07478c6f73510001fdbbda,,1130766,55,,evan-feature22,full_rf_a,,0
31,34683,56,,,,2,2,1.0,0.0,1.0,0.0,,0.0-58.0,,1.0,584.22,0.0,0.6051112120000001,1.0,0.7118147229999999,1.0,0.272390611,0.0,0.5595149939999999,True,,5b07478c6f73510001fdbbda,,1141143,56,,evan-feature22,full_rf_a,,0
32,34684,57,,,,2,2,0.0,0.0,1.0,0.0,,0.0-59.0,,0.0,533.05,1.0,0.582420852,1.0,0.635867583,0.0,0.31089574,0.0,0.5227206520000001,True,,5b07478c6f73510001fdbbda,,1151467,57,,evan-feature22,full_rf_a,,0
33,34685,58,,,,2,2,1.0,1.0,0.0,-1.0,,0.0-60.0,,-1.0,525.745,0.0,0.623195575,1.0,0.655026044,1.0,0.25,1.0,0.560387538,True,,5b07478c6f73510001fdbbda,,1161813,58,,evan-feature22,full_rf_a,,0
34,34686,59,,,,2,2,0.0,0.0,1.0,0.0,,0.0-61.0,,0.0,308.215,1.0,0.601889598,0.0,0.678198724,0.0,0.25,0.0,0.559922936,True,,5b07478c6f73510001fdbbda,,1171940,59,,evan-feature22,full_rf_a,,0
35,34687,60,,,,1,1,0.0,1.0,1.0,0.0,,0.0-62.0,,0.0,942.03,0.0,0.601259914,1.0,0.704681482,1.0,0.33908969299999997,1.0,0.505003715,True,,5b07478c6f73510001fdbbda,,1182716,60,,evan-feature22,full_rf_a,,1
36,34688,61,,,,1,1,0.0,0.0,1.0,0.0,,0.0-63.0,,0.0,546.935,0.0,0.59645454,0.0,0.710437172,1.0,0.327441879,1.0,0.391749613,True,,5b07478c6f73510001fdbbda,,1193076,61,,evan-feature22,full_rf_a,,0
37,34689,62,,,,1,1,0.0,0.0,1.0,0.0,,0.0-64.0,,0.0,692.625,0.0,0.529473,0.0,0.636758527,1.0,0.301338063,0.0,0.365661481,True,,5b07478c6f73510001fdbbda,,1203561,62,,evan-feature22,full_rf_a,,0
38,34690,63,,,,1,1,1.0,0.0,0.0,-1.0,,0.0-65.0,,0.0,1278.38,1.0,0.541657162,0.0,0.634541962,1.0,0.343535366,1.0,0.371763742,True,,5b07478c6f73510001fdbbda,,1214655,63,,evan-feature22,full_rf_a,,0
39,34691,64,,,,1,1,1.0,1.0,1.0,0.0,,0.0-66.0,,1.0,890.825,1.0,0.5707533260000001,1.0,0.589121171,0.0,0.326428396,1.0,0.43961622899999997,True,,5b07478c6f73510001fdbbda,,1225375,64,,evan-feature22,full_rf_a,,0
40,34692,65,,,,1,1,0.0,0.0,1.0,0.0,,0.0-67.0,,0.0,3100.24,0.0,0.5707533260000001,0.0,0.589121171,0.0,0.326428396,0.0,0.43961622899999997,True,,5b07478c6f73510001fdbbda,,1238284,65,,evan-feature22,full_rf_a,,0
41,34693,66,,,,1,1,1.0,1.0,1.0,0.0,,0.0-68.0,,1.0,500.925,1.0,0.506271295,1.0,0.641775594,1.0,0.37149690700000004,0.0,0.404330166,True,,5b07478c6f73510001fdbbda,,1248610,66,,evan-feature22,full_rf_a,,0
42,34694,67,,,,1,1,1.0,1.0,0.0,-1.0,,0.0-69.0,,-1.0,1140.585,1.0,0.455642565,1.0,0.623605825,1.0,0.358753011,1.0,0.346174041,True,,5b07478c6f73510001fdbbda,,1259566,67,,evan-feature22,full_rf_a,,0
43,34695,68,,,,2,2,1.0,1.0,0.0,-1.0,,0.0-70.0,,-1.0,3148.325,0.0,0.483677308,1.0,0.5904681070000001,1.0,0.402218411,1.0,0.35344697,True,,5b07478c6f73510001fdbbda,,1272532,68,,evan-feature22,full_rf_a,,1
44,34696,69,,,,1,1,1.0,0.0,0.0,-1.0,,0.0-71.0,,0.0,1831.51,1.0,0.394210977,0.0,0.558925494,1.0,0.540052017,0.0,0.35182128700000004,True,,5b07478c6f73510001fdbbda,,1284159,69,,evan-feature22,full_rf_a,,1
45,34697,70,,,,1,1,1.0,1.0,1.0,0.0,,0.0-72.0,,1.0,1750.235,1.0,0.382300414,1.0,0.577670603,1.0,0.607608448,0.0,0.378261578,True,,5b07478c6f73510001fdbbda,,1295722,70,,evan-feature22,full_rf_a,,0
46,34698,71,,,,1,1,1.0,1.0,1.0,0.0,,0.0-73.0,,1.0,1816.225,1.0,0.357596762,1.0,0.5929076529999999,1.0,0.6579790010000001,0.0,0.401326777,True,,5b07478c6f73510001fdbbda,,1307351,71,,evan-feature22,full_rf_a,,0
47,34699,72,,,,2,2,1.0,1.0,1.0,0.0,,0.0-74.0,,1.0,1946.215,0.0,0.362033495,0.0,0.582308608,1.0,0.649195052,1.0,0.355158505,True,,5b07478c6f73510001fdbbda,,1319124,72,,evan-feature22,full_rf_a,,1
48,34700,73,,,,2,2,1.0,1.0,1.0,0.0,,0.0-75.0,,1.0,1863.745,1.0,0.369620635,1.0,0.669100864,1.0,0.706059111,1.0,0.362516241,True,,5b07478c6f73510001fdbbda,,1330819,73,,evan-feature22,full_rf_a,,0
49,34701,74,,,,1,1,0.0,0.0,1.0,0.0,,0.0-76.0,,0.0,2215.52,0.0,0.41477751399999996,0.0,0.7284416779999999,1.0,0.7182656940000001,1.0,0.36228040899999997,True,,5b07478c6f73510001fdbbda,,1342854,74,,evan-feature22,full_rf_a,,1
50,34702,75,,,,2,2,1.0,0.0,0.0,-1.0,,0.0-77.0,,0.0,941.545,1.0,0.37675460299999997,0.0,0.703250285,1.0,0.75,0.0,0.461979164,True,,5b07478c6f73510001fdbbda,,1353613,75,,evan-feature22,full_rf_a,,1
51,34703,76,,,,1,1,0.0,1.0,0.0,-1.0,,0.0-78.0,,-1.0,2411.93,0.0,0.398716075,1.0,0.6723864890000001,0.0,0.674153818,0.0,0.519029516,True,,5b07478c6f73510001fdbbda,,1365837,76,,evan-feature22,full_rf_a,,1
52,34704,77,,,,2,2,1.0,0.0,1.0,0.0,,0.0-79.0,,1.0,1556.815,0.0,0.34677856700000004,1.0,0.69057175,1.0,0.6822438540000001,0.0,0.477292237,True,,5b07478c6f73510001fdbbda,,1377205,77,,evan-feature22,full_rf_a,,1
53,34705,78,,,,2,2,1.0,1.0,0.0,-1.0,,0.0-80.0,,-1.0,2681.505,0.0,0.28580469199999997,1.0,0.68408818,1.0,0.684207565,1.0,0.49780448299999996,True,,5b07478c6f73510001fdbbda,,1389699,78,,evan-feature22,full_rf_a,,0
54,34707,80,,,,1,1,1.0,0.0,1.0,0.0,,0.0-82.0,,1.0,1824.61,1.0,0.25,0.0,0.7405808970000001,0.0,0.679614108,0.0,0.436436964,True,,5b07478c6f73510001fdbbda,,1403758,80,,evan-feature22,full_rf_a,,1
55,34708,81,,,,2,2,0.0,0.0,0.0,-1.0,,0.0-83.0,,0.0,2890.28,1.0,0.29890393,1.0,0.730505706,0.0,0.7328203320000001,0.0,0.439256938,True,,5b07478c6f73510001fdbbda,,1416451,81,,evan-feature22,full_rf_a,,1
56,34709,82,,,,1,1,0.0,1.0,1.0,0.0,,0.0-84.0,,0.0,1525.805,0.0,0.326762398,1.0,0.7148059609999999,0.0,0.75,1.0,0.44389608799999997,True,,5b07478c6f73510001fdbbda,,1427793,82,,evan-feature22,full_rf_a,,1
57,34710,83,,,,1,1,0.0,1.0,1.0,0.0,,0.0-85.0,,0.0,796.7,0.0,0.295168515,1.0,0.739760854,0.0,0.719947008,0.0,0.35277284600000003,True,,5b07478c6f73510001fdbbda,,1438423,83,,evan-feature22,full_rf_a,,0
58,34711,84,,,,1,1,0.0,1.0,1.0,0.0,,0.0-86.0,,0.0,849.505,0.0,0.25,1.0,0.70781482,0.0,0.75,1.0,0.286095925,True,,5b07478c6f73510001fdbbda,,1449081,84,,evan-feature22,full_rf_a,,0
59,34712,85,,,,2,2,1.0,0.0,0.0,-1.0,,0.0-87.0,,0.0,3238.125,0.0,0.25638190899999996,1.0,0.704088163,1.0,0.75,0.0,0.26872601399999996,True,,5b07478c6f73510001fdbbda,,1462106,85,,evan-feature22,full_rf_a,,1
60,34713,86,,,,2,2,1.0,0.0,0.0,-1.0,,0.0-88.0,,0.0,3422.62,0.0,0.271581126,1.0,0.669760107,1.0,0.733896663,0.0,0.273244572,True,,5b07478c6f73510001fdbbda,,1475350,86,,evan-feature22,full_rf_a,,0
61,34714,87,,,,2,2,1.0,0.0,0.0,-1.0,,0.0-89.0,,0.0,2832.3,1.0,0.257144401,1.0,0.600575706,1.0,0.74488122,0.0,0.25,True,,5b07478c6f73510001fdbbda,,1488008,87,,evan-feature22,full_rf_a,,0
62,34715,88,,,,2,2,1.0,0.0,1.0,0.0,,0.0-90.0,,1.0,2675.635,1.0,0.25,0.0,0.616870026,1.0,0.723610234,0.0,0.25,True,,5b07478c6f73510001fdbbda,,1500473,88,,evan-feature22,full_rf_a,,0
63,34716,89,,,,2,2,0.0,0.0,0.0,-1.0,,0.0-91.0,,0.0,2936.52,0.0,0.25,0.0,0.583540187,0.0,0.7041042559999999,0.0,0.285961995,True,,5b07478c6f73510001fdbbda,,1513215,89,,evan-feature22,full_rf_a,,0
64,34717,90,,,,2,2,1.0,0.0,1.0,0.0,,0.0-92.0,,1.0,1705.78,0.0,0.27254536,1.0,0.53875765,1.0,0.693783448,0.0,0.284961652,True,,5b07478c6f73510001fdbbda,,1524734,90,,evan-feature22,full_rf_a,,0
65,34718,91,,,,2,2,1.0,0.0,0.0,-1.0,,0.0-93.0,,0.0,1787.285,0.0,0.25,0.0,0.548431252,1.0,0.734221895,0.0,0.279445214,True,,5b07478c6f73510001fdbbda,,1536328,91,,evan-feature22,full_rf_a,,0
66,34719,92,,,,2,2,1.0,0.0,1.0,0.0,,0.0-94.0,,1.0,1426.085,0.0,0.258640684,0.0,0.545878066,1.0,0.725245965,0.0,0.31487537,True,,5b07478c6f73510001fdbbda,,1547567,92,,evan-feature22,full_rf_a,,0
67,34720,93,,,,2,2,1.0,0.0,1.0,0.0,,0.0-95.0,,1.0,1816.06,1.0,0.251103711,0.0,0.5776290629999999,1.0,0.696320133,0.0,0.317831047,True,,5b07478c6f73510001fdbbda,,1559197,93,,evan-feature22,full_rf_a,,0
68,34721,94,,,,1,1,0.0,1.0,1.0,0.0,,0.0-96.0,,0.0,2055.615,0.0,0.276630292,1.0,0.617329858,0.0,0.73838088,0.0,0.261471582,True,,5b07478c6f73510001fdbbda,,1571057,94,,evan-feature22,full_rf_a,,1
69,34722,95,,,,1,1,0.0,0.0,0.0,-1.0,,0.0-97.0,,0.0,3766.07,0.0,0.297716424,0.0,0.618863717,1.0,0.7402358259999999,1.0,0.262600834,True,,5b07478c6f73510001fdbbda,,1584632,95,,evan-feature22,full_rf_a,,0
70,34723,96,,,,1,1,0.0,1.0,1.0,0.0,,0.0-98.0,,0.0,801.89,0.0,0.290935512,1.0,0.695370945,1.0,0.706570507,0.0,0.280030553,True,,5b07478c6f73510001fdbbda,,1595253,96,,evan-feature22,full_rf_a,,0
71,34724,97,,,,2,2,1.0,0.0,1.0,0.0,,0.0-99.0,,1.0,1265.985,1.0,0.25,1.0,0.6465277079999999,1.0,0.67766682,0.0,0.25,True,,5b07478c6f73510001fdbbda,,1606338,97,,evan-feature22,full_rf_a,,1
72,34725,98,,,,2,2,0.0,0.0,1.0,0.0,,0.0-100.0,,0.0,929.35,1.0,0.26463816,1.0,0.636100213,0.0,0.646048507,0.0,0.265607101,True,,5b07478c6f73510001fdbbda,,1617084,98,,evan-feature22,full_rf_a,,0
73,34726,99,,,,1,1,1.0,1.0,1.0,0.0,,0.0-101.0,,1.0,1063.145,1.0,0.314340707,1.0,0.667795927,1.0,0.613630805,0.0,0.25,True,,5b07478c6f73510001fdbbda,,1627982,99,,evan-feature22,full_rf_a,,1
74,34727,100,,,,1,1,1.0,1.0,1.0,0.0,,0.0-102.0,,1.0,923.06,1.0,0.28685784,1.0,0.6622549529999999,1.0,0.652154117,1.0,0.25,True,,5b07478c6f73510001fdbbda,,1638725,100,,evan-feature22,full_rf_a,,0
75,34728,101,,,,2,2,1.0,0.0,0.0,-1.0,,0.0-103.0,,0.0,3083.875,0.0,0.304106554,1.0,0.631289538,1.0,0.707041942,0.0,0.29314237,True,,5b07478c6f73510001fdbbda,,1651646,101,,evan-feature22,full_rf_a,,1
76,34729,102,,,,2,2,1.0,1.0,0.0,-1.0,,0.0-104.0,,-1.0,1819.7,1.0,0.304806932,1.0,0.571167718,1.0,0.680472346,1.0,0.25,True,,5b07478c6f73510001fdbbda,,1663294,102,,evan-feature22,full_rf_a,,0
77,34730,103,,,,2,2,1.0,0.0,0.0,-1.0,,0.0-105.0,,0.0,2603.68,1.0,0.37919861,0.0,0.5724849710000001,1.0,0.705638003,0.0,0.30179300600000003,True,,5b07478c6f73510001fdbbda,,1675723,103,,evan-feature22,full_rf_a,,0
78,34731,104,,,,1,1,1.0,1.0,0.0,-1.0,,0.0-106.0,,-1.0,2239.415,1.0,0.464277969,1.0,0.554034373,1.0,0.7372627340000001,0.0,0.264699741,True,,5b07478c6f73510001fdbbda,,1687781,104,,evan-feature22,full_rf_a,,1
79,34732,105,,,,2,2,1.0,1.0,1.0,0.0,,0.0-107.0,,1.0,579.85,0.0,0.465104323,1.0,0.530793115,1.0,0.75,1.0,0.31683071,True,,5b07478c6f73510001fdbbda,,1698177,105,,evan-feature22,full_rf_a,,1
80,34733,106,,,,2,2,1.0,0.0,0.0,-1.0,,0.0-108.0,,0.0,2590.85,0.0,0.465104323,0.0,0.530793115,1.0,0.75,0.0,0.31683071,True,,5b07478c6f73510001fdbbda,,1710568,106,,evan-feature22,full_rf_a,,0
81,34734,107,,,,2,2,0.0,0.0,0.0,-1.0,,0.0-109.0,,0.0,2362.225,1.0,0.46833986,0.0,0.570249239,0.0,0.7244472590000001,0.0,0.364114163,True,,5b07478c6f73510001fdbbda,,1722729,107,,evan-feature22,full_rf_a,,0
82,34735,108,,,,2,2,1.0,0.0,0.0,-1.0,,0.0-110.0,,0.0,2090.925,0.0,0.445444024,0.0,0.649673355,1.0,0.6845441290000001,0.0,0.300660449,True,,5b07478c6f73510001fdbbda,,1734639,108,,evan-feature22,full_rf_a,,0
83,34736,109,,,,1,1,0.0,1.0,0.0,-1.0,,0.0-111.0,,-1.0,2998.75,0.0,0.39909721299999995,1.0,0.6715179509999999,1.0,0.742310028,0.0,0.35496088299999995,True,,5b07478c6f73510001fdbbda,,1747455,109,,evan-feature22,full_rf_a,,1
84,34737,110,,,,2,2,1.0,1.0,0.0,-1.0,,0.0-112.0,,-1.0,1555.905,0.0,0.37956104799999996,1.0,0.694725302,1.0,0.7181651309999999,1.0,0.38726906299999997,True,,5b07478c6f73510001fdbbda,,1758845,110,,evan-feature22,full_rf_a,,1
85,34738,111,,,,2,2,1.0,0.0,0.0,-1.0,,0.0-113.0,,0.0,1274.535,0.0,0.404995034,0.0,0.724375412,1.0,0.6910946859999999,0.0,0.387187347,True,,5b07478c6f73510001fdbbda,,1769941,111,,evan-feature22,full_rf_a,,0
86,34739,112,,,,2,2,1.0,1.0,0.0,-1.0,,0.0-114.0,,-1.0,2110.675,1.0,0.461740803,1.0,0.75,1.0,0.75,1.0,0.34872038200000005,True,,5b07478c6f73510001fdbbda,,1781882,112,,evan-feature22,full_rf_a,,0
87,34740,113,,,,2,2,1.0,0.0,1.0,0.0,,0.0-115.0,,1.0,1572.32,0.0,0.43821380600000004,0.0,0.738833273,1.0,0.728286963,0.0,0.399538128,True,,5b07478c6f73510001fdbbda,,1793276,113,,evan-feature22,full_rf_a,,0
88,34741,114,,,,2,2,1.0,1.0,0.0,-1.0,,0.0-116.0,,-1.0,2082.365,0.0,0.41709882,1.0,0.736666736,1.0,0.75,1.0,0.389095584,True,,5b07478c6f73510001fdbbda,,1805152,114,,evan-feature22,full_rf_a,,0
89,34742,115,,,,1,1,0.0,1.0,0.0,-1.0,,0.0-117.0,,-1.0,2397.315,0.0,0.39749009799999996,1.0,0.744320029,1.0,0.75,0.0,0.363848678,True,,5b07478c6f73510001fdbbda,,1817363,115,,evan-feature22,full_rf_a,,1
90,34743,116,,,,2,2,1.0,0.0,1.0,0.0,,0.0-118.0,,1.0,881.13,0.0,0.392653706,1.0,0.75,1.0,0.75,0.0,0.384386976,True,,5b07478c6f73510001fdbbda,,1828066,116,,evan-feature22,full_rf_a,,1
91,34744,117,,,,2,2,1.0,0.0,1.0,0.0,,0.0-119.0,,1.0,863.23,1.0,0.31190902600000003,0.0,0.75,1.0,0.732413819,0.0,0.413082932,True,,5b07478c6f73510001fdbbda,,1838739,117,,evan-feature22,full_rf_a,,0
92,34745,118,,,,2,2,1.0,0.0,0.0,-1.0,,0.0-120.0,,0.0,1870.62,0.0,0.366917648,0.0,0.740073855,1.0,0.75,0.0,0.352861979,True,,5b07478c6f73510001fdbbda,,1850419,118,,evan-feature22,full_rf_a,,0
93,34746,119,,,,2,2,0.0,1.0,0.0,-1.0,,0.0-121.0,,-1.0,1766.88,1.0,0.3645172,1.0,0.721770713,0.0,0.75,1.0,0.404074511,True,,5b07478c6f73510001fdbbda,,1862000,119,,evan-feature22,full_rf_a,,0
94,34747,120,,,,2,2,1.0,0.0,0.0,-1.0,,0.0-122.0,,0.0,2236.575,0.0,0.35205600299999995,1.0,0.68983859,1.0,0.739735447,0.0,0.366895945,True,,5b07478c6f73510001fdbbda,,1874043,120,,evan-feature22,full_rf_a,,0
95,34748,121,,,,2,2,1.0,0.0,0.0,-1.0,,0.0-123.0,,0.0,3075.0,1.0,0.40998722600000004,1.0,0.720859127,1.0,0.673854955,0.0,0.368528541,True,,5b07478c6f73510001fdbbda,,1886926,121,,evan-feature22,full_rf_a,,0
96,34749,122,,,,2,2,0.0,1.0,1.0,0.0,,0.0-124.0,,0.0,1461.645,1.0,0.353625316,0.0,0.75,0.0,0.695605473,1.0,0.38303674200000004,True,,5b07478c6f73510001fdbbda,,1898220,122,,evan-feature22,full_rf_a,,0
97,34750,123,,,,2,2,1.0,1.0,0.0,-1.0,,0.0-125.0,,-1.0,2585.685,0.0,0.359216989,1.0,0.75,1.0,0.6987915090000001,1.0,0.35169046200000004,True,,5b07478c6f73510001fdbbda,,1910598,123,,evan-feature22,full_rf_a,,0
98,34751,124,,,,2,2,1.0,0.0,1.0,0.0,,0.0-126.0,,1.0,1111.215,0.0,0.35834496899999996,1.0,0.75,1.0,0.707067742,0.0,0.416763636,True,,5b07478c6f73510001fdbbda,,1921511,124,,evan-feature22,full_rf_a,,0
99,34752,125,,,,2,2,1.0,1.0,1.0,0.0,,0.0-127.0,,1.0,1109.995,0.0,0.38741613799999997,1.0,0.7177369570000001,1.0,0.734902455,1.0,0.49438664299999996,True,,5b07478c6f73510001fdbbda,,1932444,125,,evan-feature22,full_rf_a,,0
100,34753,126,,,,1,1,0.0,0.0,0.0,-1.0,,0.0-128.0,,0.0,2340.71,0.0,0.405255252,0.0,0.7300466640000001,1.0,0.7027748070000001,1.0,0.504359668,True,,5b07478c6f73510001fdbbda,,1944591,126,,evan-feature22,full_rf_a,,1
101,34754,127,,,,2,2,0.0,1.0,0.0,-1.0,,0.0-129.0,,-1.0,3192.15,1.0,0.40697073,1.0,0.7260142190000001,0.0,0.724461982,1.0,0.522779179,True,,5b07478c6f73510001fdbbda,,1957627,127,,evan-feature22,full_rf_a,,1
102,34755,128,,,,2,2,0.0,0.0,0.0,-1.0,,0.0-130.0,,0.0,2169.74,0.0,0.43906215299999996,1.0,0.7252802340000001,0.0,0.719079934,0.0,0.5712990579999999,True,,5b07478c6f73510001fdbbda,,1969593,128,,evan-feature22,full_rf_a,,0
103,34756,129,,,,2,2,1.0,0.0,0.0,-1.0,,0.0-131.0,,0.0,3095.285,0.0,0.4076705,1.0,0.73280499,1.0,0.681313127,0.0,0.523891346,True,,5b07478c6f73510001fdbbda,,1982495,129,,evan-feature22,full_rf_a,,0
104,34757,130,,,,2,2,1.0,1.0,0.0,-1.0,,0.0-132.0,,-1.0,2269.795,1.0,0.399102911,1.0,0.730498344,1.0,0.661080239,1.0,0.46742603,True,,5b07478c6f73510001fdbbda,,1994586,130,,evan-feature22,full_rf_a,,0
105,34758,131,,,,2,2,1.0,0.0,1.0,0.0,,0.0-133.0,,1.0,816.205,1.0,0.356477282,1.0,0.712296395,1.0,0.641812684,0.0,0.44868414,True,,5b07478c6f73510001fdbbda,,2005204,131,,evan-feature22,full_rf_a,,0
106,34759,132,,,,1,1,0.0,0.0,0.0,-1.0,,0.0-134.0,,0.0,2988.21,0.0,0.462760722,0.0,0.692349322,0.0,0.700947931,0.0,0.394680266,True,,5b07478c6f73510001fdbbda,,2017989,132,,evan-feature22,full_rf_a,,1
107,34760,133,,,,2,2,0.0,1.0,0.0,-1.0,,0.0-135.0,,-1.0,2513.36,0.0,0.422306413,0.0,0.718375916,0.0,0.706340917,1.0,0.367787185,True,,5b07478c6f73510001fdbbda,,2030305,133,,evan-feature22,full_rf_a,,1
108,34762,135,,,,1,1,0.0,1.0,0.0,-1.0,,0.0-137.0,,-1.0,2359.41,0.0,0.4582233,1.0,0.643834117,0.0,0.75,0.0,0.39615823299999997,True,,5b07478c6f73510001fdbbda,,2045125,135,,evan-feature22,full_rf_a,,1
109,34763,136,,,,1,1,1.0,1.0,0.0,-1.0,,0.0-138.0,,-1.0,2544.385,1.0,0.43813437899999996,1.0,0.651283804,1.0,0.729674191,0.0,0.37711048,True,,5b07478c6f73510001fdbbda,,2057477,136,,evan-feature22,full_rf_a,,0
110,34764,137,,,,2,2,1.0,0.0,0.0,-1.0,,0.0-139.0,,0.0,1240.095,0.0,0.471199094,0.0,0.6470010979999999,1.0,0.715008097,0.0,0.410656191,True,,5b07478c6f73510001fdbbda,,2068546,137,,evan-feature22,full_rf_a,,1
111,34765,138,,,,2,2,1.0,1.0,1.0,0.0,,0.0-140.0,,1.0,670.59,0.0,0.42486406,0.0,0.629771829,1.0,0.6550939960000001,1.0,0.459093873,True,,5b07478c6f73510001fdbbda,,2079043,138,,evan-feature22,full_rf_a,,0
112,34766,139,,,,2,2,1.0,1.0,1.0,0.0,,0.0-141.0,,1.0,643.025,0.0,0.4803197,1.0,0.645842715,1.0,0.6421749920000001,1.0,0.443092151,True,,5b07478c6f73510001fdbbda,,2089509,139,,evan-feature22,full_rf_a,,0
113,34767,140,,,,2,2,0.0,1.0,1.0,0.0,,0.0-142.0,,0.0,866.165,1.0,0.521848997,1.0,0.735801074,0.0,0.6691348460000001,1.0,0.45259351600000003,True,,5b07478c6f73510001fdbbda,,2100186,140,,evan-feature22,full_rf_a,,0
114,34768,141,,,,2,2,1.0,1.0,0.0,-1.0,,0.0-143.0,,-1.0,2567.21,1.0,0.49565621299999996,1.0,0.742400847,1.0,0.661512553,1.0,0.483110831,True,,5b07478c6f73510001fdbbda,,2112577,141,,evan-feature22,full_rf_a,,0
115,34769,142,,,,2,2,1.0,1.0,1.0,0.0,,0.0-144.0,,1.0,1302.665,1.0,0.521564361,0.0,0.731078632,1.0,0.6774886809999999,1.0,0.483263956,True,,5b07478c6f73510001fdbbda,,2123674,142,,evan-feature22,full_rf_a,,0
116,34770,143,,,,1,1,1.0,1.0,1.0,0.0,,0.0-145.0,,1.0,1509.0,1.0,0.558893102,1.0,0.719810023,1.0,0.67461031,0.0,0.499349834,True,,5b07478c6f73510001fdbbda,,2135010,143,,evan-feature22,full_rf_a,,1
117,34771,144,,,,1,1,1.0,1.0,0.0,-1.0,,0.0-146.0,,-1.0,1996.61,1.0,0.611031046,1.0,0.75,1.0,0.688072995,0.0,0.5321422729999999,True,,5b07478c6f73510001fdbbda,,2146805,144,,evan-feature22,full_rf_a,,0
118,34772,145,,,,2,2,1.0,0.0,1.0,0.0,,0.0-147.0,,1.0,936.305,1.0,0.633223941,1.0,0.713567728,1.0,0.75,0.0,0.48185314700000004,True,,5b07478c6f73510001fdbbda,,2157547,145,,evan-feature22,full_rf_a,,1
119,34773,146,,,,2,2,1.0,0.0,1.0,0.0,,0.0-148.0,,1.0,823.56,1.0,0.664001694,0.0,0.705509768,1.0,0.75,0.0,0.500211065,True,,5b07478c6f73510001fdbbda,,2168185,146,,evan-feature22,full_rf_a,,0
120,34774,147,,,,1,1,0.0,1.0,0.0,-1.0,,0.0-149.0,,-1.0,1364.435,0.0,0.664001694,1.0,0.705509768,1.0,0.75,0.0,0.500211065,True,,5b07478c6f73510001fdbbda,,2179361,147,,evan-feature22,full_rf_a,,1
121,34775,148,,,,2,2,1.0,0.0,0.0,-1.0,,0.0-150.0,,0.0,1316.92,1.0,0.696508041,1.0,0.71066027,1.0,0.717028709,0.0,0.49792991,True,,5b07478c6f73510001fdbbda,,2190470,148,,evan-feature22,full_rf_a,,1
122,34776,149,,,,2,2,1.0,0.0,1.0,0.0,,0.0-151.0,,1.0,919.115,1.0,0.699883272,1.0,0.75,1.0,0.713543895,0.0,0.496962643,True,,5b07478c6f73510001fdbbda,,2201208,149,,evan-feature22,full_rf_a,,0
123,34777,150,,,,2,2,0.0,1.0,0.0,-1.0,,0.0-152.0,,-1.0,1274.01,1.0,0.741163419,1.0,0.75,0.0,0.64691024,1.0,0.513858197,True,,5b07478c6f73510001fdbbda,,2212292,150,,evan-feature22,full_rf_a,,0
124,34778,151,,,,2,2,1.0,1.0,1.0,0.0,,0.0-153.0,,1.0,860.655,1.0,0.75,1.0,0.70816558,1.0,0.594499079,1.0,0.48502124,True,,5b07478c6f73510001fdbbda,,2222996,151,,evan-feature22,full_rf_a,,0
125,34779,152,,,,1,1,1.0,1.0,0.0,-1.0,,0.0-154.0,,-1.0,1062.925,1.0,0.75,1.0,0.721848901,0.0,0.62197249,1.0,0.48263586399999997,True,,5b07478c6f73510001fdbbda,,2233864,152,,evan-feature22,full_rf_a,,1
126,34780,153,,,,2,2,0.0,0.0,1.0,0.0,,0.0-155.0,,0.0,676.805,1.0,0.75,0.0,0.74813071,0.0,0.584357161,0.0,0.411477782,True,,5b07478c6f73510001fdbbda,,2244347,153,,evan-feature22,full_rf_a,,1
127,34781,154,,,,2,2,0.0,1.0,0.0,-1.0,,0.0-156.0,,-1.0,2763.04,1.0,0.75,0.0,0.75,0.0,0.52287236,1.0,0.488290656,True,,5b07478c6f73510001fdbbda,,2256915,154,,evan-feature22,full_rf_a,,0
128,34782,155,,,,1,1,1.0,1.0,0.0,-1.0,,0.0-157.0,,-1.0,1726.61,1.0,0.75,1.0,0.75,1.0,0.544321581,0.0,0.53143059,True,,5b07478c6f73510001fdbbda,,2268478,155,,evan-feature22,full_rf_a,,1
129,34783,156,,,,2,2,0.0,1.0,0.0,-1.0,,0.0-158.0,,-1.0,1036.98,0.0,0.726754564,0.0,0.75,0.0,0.5129306370000001,1.0,0.530592445,True,,5b07478c6f73510001fdbbda,,2279329,156,,evan-feature22,full_rf_a,,1
130,34784,157,,,,2,2,0.0,1.0,1.0,0.0,,0.0-159.0,,0.0,1460.995,0.0,0.75,1.0,0.7392590729999999,0.0,0.479875835,1.0,0.547007051,True,,5b07478c6f73510001fdbbda,,2290588,157,,evan-feature22,full_rf_a,,0
131,34785,158,,,,1,1,1.0,1.0,1.0,0.0,,0.0-160.0,,1.0,590.52,1.0,0.75,1.0,0.7393376979999999,0.0,0.546045419,1.0,0.541267353,True,,5b07478c6f73510001fdbbda,,2300988,158,,evan-feature22,full_rf_a,,1
132,34786,159,,,,1,1,1.0,1.0,1.0,0.0,,0.0-161.0,,1.0,500.29,1.0,0.75,1.0,0.75,0.0,0.485725895,0.0,0.527625395,True,,5b07478c6f73510001fdbbda,,2311308,159,,evan-feature22,full_rf_a,,0
133,34787,160,,,,2,2,0.0,0.0,0.0,-1.0,,0.0-162.0,,0.0,2141.365,1.0,0.75,0.0,0.725087974,0.0,0.488603595,0.0,0.504019206,True,,5b07478c6f73510001fdbbda,,2323263,160,,evan-feature22,full_rf_a,,1
134,34788,161,,,,1,1,1.0,0.0,0.0,-1.0,,0.0-163.0,,0.0,1767.12,1.0,0.745504295,0.0,0.75,1.0,0.452379914,0.0,0.50131194,True,,5b07478c6f73510001fdbbda,,2334845,161,,evan-feature22,full_rf_a,,1
135,34789,162,,,,1,1,1.0,1.0,0.0,-1.0,,0.0-164.0,,-1.0,1630.36,1.0,0.728513874,1.0,0.75,0.0,0.44125567200000004,1.0,0.531454591,True,,5b07478c6f73510001fdbbda,,2346290,162,,evan-feature22,full_rf_a,,0
136,34790,163,,,,1,1,1.0,1.0,1.0,0.0,,0.0-165.0,,1.0,525.255,1.0,0.73790804,1.0,0.75,0.0,0.413036656,1.0,0.524619035,True,,5b07478c6f73510001fdbbda,,2356627,163,,evan-feature22,full_rf_a,,0
137,34791,164,,,,2,2,1.0,1.0,0.0,-1.0,,0.0-166.0,,-1.0,1191.27,1.0,0.7080961309999999,0.0,0.708666865,1.0,0.431915581,1.0,0.481819489,True,,5b07478c6f73510001fdbbda,,2367632,164,,evan-feature22,full_rf_a,,1
138,34792,165,,,,1,1,0.0,1.0,0.0,-1.0,,0.0-167.0,,-1.0,1896.11,0.0,0.721378003,1.0,0.71605913,1.0,0.36642387,0.0,0.5036739929999999,True,,5b07478c6f73510001fdbbda,,2379327,165,,evan-feature22,full_rf_a,,1
139,34793,166,,,,2,2,0.0,0.0,0.0,-1.0,,0.0-168.0,,0.0,998.195,1.0,0.7340618959999999,0.0,0.699323252,0.0,0.35298046299999997,0.0,0.511241692,True,,5b07478c6f73510001fdbbda,,2390130,166,,evan-feature22,full_rf_a,,1
140,34794,167,,,,1,1,0.0,1.0,1.0,0.0,,0.0-169.0,,0.0,423.44,0.0,0.75,1.0,0.70412698,1.0,0.380734814,0.0,0.529580116,True,,5b07478c6f73510001fdbbda,,2400362,167,,evan-feature22,full_rf_a,,1
141,34795,168,,,,2,2,1.0,1.0,0.0,-1.0,,0.0-170.0,,-1.0,1947.235,1.0,0.7436654909999999,1.0,0.711182751,1.0,0.41125331,1.0,0.49554405,True,,5b07478c6f73510001fdbbda,,2412117,168,,evan-feature22,full_rf_a,,1
142,34796,169,,,,2,2,1.0,0.0,0.0,-1.0,,0.0-171.0,,0.0,1670.68,1.0,0.731607915,1.0,0.651774583,1.0,0.35688023,0.0,0.45194491600000003,True,,5b07478c6f73510001fdbbda,,2423598,169,,evan-feature22,full_rf_a,,0
143,34797,170,,,,2,2,0.0,1.0,1.0,0.0,,0.0-172.0,,0.0,461.5,1.0,0.75,0.0,0.75,0.0,0.283145374,1.0,0.528608005,True,,5b07478c6f73510001fdbbda,,2433888,170,,evan-feature22,full_rf_a,,0
144,34798,171,,,,1,1,1.0,1.0,1.0,0.0,,0.0-173.0,,1.0,627.765,1.0,0.7491416890000001,1.0,0.7423785959999999,0.0,0.29135870399999997,1.0,0.498888318,True,,5b07478c6f73510001fdbbda,,2444351,171,,evan-feature22,full_rf_a,,1
145,34799,172,,,,1,1,1.0,0.0,1.0,0.0,,0.0-174.0,,1.0,633.095,1.0,0.708569387,0.0,0.717682277,0.0,0.294421699,1.0,0.493838163,True,,5b07478c6f73510001fdbbda,,2454776,172,,evan-feature22,full_rf_a,,0
146,34800,173,,,,1,1,0.0,0.0,0.0,-1.0,,0.0-175.0,,0.0,2025.25,0.0,0.75,0.0,0.7383382159999999,0.0,0.356098707,0.0,0.442533405,True,,5b07478c6f73510001fdbbda,,2466597,173,,evan-feature22,full_rf_a,,0
147,34801,174,,,,1,1,1.0,1.0,0.0,-1.0,,0.0-176.0,,-1.0,1704.745,1.0,0.744527075,1.0,0.75,1.0,0.334127506,1.0,0.393165805,True,,5b07478c6f73510001fdbbda,,2478135,174,,evan-feature22,full_rf_a,,0
148,34802,175,,,,1,1,0.0,0.0,0.0,-1.0,,0.0-177.0,,0.0,2918.52,0.0,0.75,0.0,0.75,0.0,0.33571021799999995,0.0,0.350393962,True,,5b07478c6f73510001fdbbda,,2490861,175,,evan-feature22,full_rf_a,,0
149,34803,176,,,,2,2,1.0,1.0,0.0,-1.0,,0.0-178.0,,-1.0,907.725,1.0,0.75,1.0,0.75,1.0,0.313628297,1.0,0.36349657399999996,True,,5b07478c6f73510001fdbbda,,2501599,176,,evan-feature22,full_rf_a,,1
150,34804,177,,,,2,2,0.0,0.0,1.0,0.0,,0.0-179.0,,0.0,1132.96,1.0,0.75,1.0,0.734284182,0.0,0.262667667,0.0,0.380199119,True,,5b07478c6f73510001fdbbda,,2512520,177,,evan-feature22,full_rf_a,,0
151,34805,178,,,,2,2,0.0,1.0,0.0,-1.0,,0.0-180.0,,-1.0,1368.805,1.0,0.75,1.0,0.75,0.0,0.25,1.0,0.394494013,True,,5b07478c6f73510001fdbbda,,2523703,178,,evan-feature22,full_rf_a,,0
152,34806,179,,,,1,1,1.0,1.0,1.0,0.0,,0.0-181.0,,1.0,749.395,1.0,0.722298145,1.0,0.7357822340000001,0.0,0.25,1.0,0.319142121,True,,5b07478c6f73510001fdbbda,,2534282,179,,evan-feature22,full_rf_a,,1
153,34807,180,,,,1,1,1.0,1.0,1.0,0.0,,0.0-182.0,,1.0,735.29,1.0,0.73149275,1.0,0.724276446,0.0,0.305856907,1.0,0.281315057,True,,5b07478c6f73510001fdbbda,,2544832,180,,evan-feature22,full_rf_a,,0
154,34808,181,,,,2,2,0.0,1.0,0.0,-1.0,,0.0-183.0,,-1.0,3034.605,1.0,0.7458732690000001,1.0,0.7336382459999999,0.0,0.272571964,1.0,0.266021999,True,,5b07478c6f73510001fdbbda,,2557681,181,,evan-feature22,full_rf_a,,1
155,34809,182,,,,1,1,1.0,1.0,0.0,-1.0,,0.0-184.0,,-1.0,2906.73,1.0,0.705579037,1.0,0.720778292,0.0,0.320238144,0.0,0.30971744,True,,5b07478c6f73510001fdbbda,,2570397,182,,evan-feature22,full_rf_a,,1
156,34810,183,,,,1,1,1.0,1.0,0.0,-1.0,,0.0-185.0,,-1.0,1660.835,1.0,0.700425648,1.0,0.7198784009999999,0.0,0.272590393,0.0,0.304182931,True,,5b07478c6f73510001fdbbda,,2581877,183,,evan-feature22,full_rf_a,,0
157,34811,184,,,,2,2,0.0,0.0,0.0,-1.0,,0.0-186.0,,0.0,2536.53,1.0,0.735590785,0.0,0.722714973,0.0,0.25,0.0,0.323421091,True,,5b07478c6f73510001fdbbda,,2594206,184,,evan-feature22,full_rf_a,,1
158,34812,185,,,,1,1,1.0,0.0,0.0,-1.0,,0.0-187.0,,0.0,3340.79,1.0,0.724807662,0.0,0.63146213,0.0,0.36836492600000004,0.0,0.34592153299999995,True,,5b07478c6f73510001fdbbda,,2607338,185,,evan-feature22,full_rf_a,,1
159,34813,186,,,,1,1,0.0,0.0,0.0,-1.0,,0.0-188.0,,0.0,3275.645,0.0,0.7352796909999999,0.0,0.555111392,0.0,0.36003922,0.0,0.31433779999999995,True,,5b07478c6f73510001fdbbda,,2620432,186,,evan-feature22,full_rf_a,,0
160,34814,187,notice,,,,,,,,,,0.0-189.0,"{""Q0"":""I'm not sure""}",,16101.0,,,,,,,,,True,,5b07478c6f73510001fdbbda,,2636535,187,Q,survey-text,full_rf_a,,1
161,34815,188,track1,,[0],,,,,,,,0.0-190.0,"{""Q0"":""yes""}",,4557.0,,,,,,,,,True,,5b07478c6f73510001fdbbda,,2641096,188,Q,evan-quiz,full_rf_a,,1
162,34816,189,track2,,[2],,,,,,,,0.0-191.0,"{""Q0"":""N/A""}",,7082.0,,,,,,,,,True,,5b07478c6f73510001fdbbda,,2648182,189,Q,evan-quiz,full_rf_a,,1
163,34817,190,strat,,,,,,,,,,0.0-192.0,"{""Q0"":""I allowed my mind to try and work out a patten""}",,20707.0,,,,,,,,,True,,5b07478c6f73510001fdbbda,,2668892,190,Q,survey-text,full_rf_a,,1
