,index,Unnamed: 0,Q_name,button_pressed,choice_idxs,chosen_pos,chosen_state,chosen_state_f_1_outcome,chosen_state_f_2_outcome,f_1_reward,f_2_reward,incor_questions,internal_node_id,responses,reward_received,rt,s_1_f_1_outcome,s_1_f_1_prob,s_1_f_2_outcome,s_1_f_2_prob,s_2_f_1_outcome,s_2_f_1_prob,s_2_f_2_outcome,s_2_f_2_prob,safe_first,stimulus,subjectID,success,time_elapsed,trial_index,trial_num,trial_type,version,view_history,switching
0,33827,30,,,,1,1,0.0,0.0,0.0,-1.0,,0.0-27.0,,0.0,2281.375,0.0,0.6,0.0,0.6,0.0,0.4,0.0,0.4,False,,5d3dd59e791fe2001673f587,,714420,30,,evan-feature22,full_pf_a,,0
1,33828,31,,,,2,2,1.0,1.0,0.0,-1.0,,0.0-28.0,,-1.0,59.32,0.0,0.608053294,1.0,0.63424552,1.0,0.397152172,1.0,0.347069101,False,,5d3dd59e791fe2001673f587,,724271,31,,evan-feature22,full_pf_a,,1
2,33829,32,,,,1,1,1.0,1.0,0.0,-1.0,,0.0-29.0,,-1.0,550.2749997999999,1.0,0.642237155,1.0,0.648566321,1.0,0.389407674,0.0,0.285525717,False,,5d3dd59e791fe2001673f587,,734635,32,,evan-feature22,full_pf_a,,1
3,33830,33,,,,1,1,1.0,1.0,0.0,-1.0,,0.0-30.0,,-1.0,253.335,1.0,0.661086576,1.0,0.630492543,0.0,0.399058924,0.0,0.25,False,,5d3dd59e791fe2001673f587,,744680,33,,evan-feature22,full_pf_a,,0
4,33831,34,,,,2,2,0.0,0.0,0.0,-1.0,,0.0-31.0,,0.0,3574.115,1.0,0.631324137,1.0,0.6269842929999999,0.0,0.38734784299999997,0.0,0.25,False,,5d3dd59e791fe2001673f587,,758039,34,,evan-feature22,full_pf_a,,1
5,33832,35,,,,1,1,0.0,1.0,0.0,-1.0,,0.0-32.0,,-1.0,577.0349997999999,0.0,0.6381991370000001,1.0,0.68987999,0.0,0.384107265,0.0,0.271332943,False,,5d3dd59e791fe2001673f587,,768428,35,,evan-feature22,full_pf_a,,1
6,33833,36,,,,1,1,0.0,1.0,0.0,-1.0,,0.0-33.0,,-1.0,773.975,0.0,0.66034901,1.0,0.742641349,0.0,0.360225629,0.0,0.25,False,,5d3dd59e791fe2001673f587,,778999,36,,evan-feature22,full_pf_a,,0
7,33834,37,,,,2,2,0.0,0.0,1.0,0.0,,0.0-34.0,,0.0,99.73999998,1.0,0.638612418,1.0,0.75,0.0,0.367273939,0.0,0.25,False,,5d3dd59e791fe2001673f587,,788905,37,,evan-feature22,full_pf_a,,1
8,33835,38,,,,2,2,1.0,0.0,0.0,-1.0,,0.0-35.0,,0.0,306.55000010000003,1.0,0.624340629,0.0,0.75,1.0,0.425829545,0.0,0.25,False,,5d3dd59e791fe2001673f587,,799016,38,,evan-feature22,full_pf_a,,0
9,33836,39,,,,2,2,0.0,0.0,0.0,-1.0,,0.0-36.0,,0.0,414.95499989999996,1.0,0.621999804,1.0,0.75,0.0,0.368609357,0.0,0.25,False,,5d3dd59e791fe2001673f587,,809224,39,,evan-feature22,full_pf_a,,0
10,33837,40,,,,1,1,1.0,1.0,1.0,0.0,,0.0-37.0,,1.0,338.1149999,1.0,0.62666403,1.0,0.75,0.0,0.311151498,0.0,0.25,False,,5d3dd59e791fe2001673f587,,819365,40,,evan-feature22,full_pf_a,,1
11,33838,41,,,,2,2,0.0,0.0,1.0,0.0,,0.0-38.0,,0.0,277.02000019999997,0.0,0.6819650009999999,0.0,0.75,0.0,0.310763048,0.0,0.25,False,,5d3dd59e791fe2001673f587,,829439,41,,evan-feature22,full_pf_a,,1
12,33839,42,,,,2,2,0.0,1.0,0.0,-1.0,,0.0-39.0,,-1.0,438.935,1.0,0.740626951,0.0,0.75,0.0,0.25,1.0,0.25,False,,5d3dd59e791fe2001673f587,,839677,42,,evan-feature22,full_pf_a,,0
13,33840,43,,,,1,1,1.0,1.0,0.0,-1.0,,0.0-40.0,,-1.0,346.895,1.0,0.739599242,1.0,0.742034978,0.0,0.25397114600000004,0.0,0.25,False,,5d3dd59e791fe2001673f587,,849828,43,,evan-feature22,full_pf_a,,1
14,33841,44,,,,1,1,1.0,0.0,0.0,-1.0,,0.0-41.0,,0.0,682.67,1.0,0.732341315,0.0,0.72735643,0.0,0.25,0.0,0.25,False,,5d3dd59e791fe2001673f587,,860318,44,,evan-feature22,full_pf_a,,0
15,33842,45,,,,SLOW,SLOW,,,0.0,-1.0,,0.0-42.0,,-3.0,,1.0,0.7062287770000001,0.0,0.75,0.0,0.29002151,0.0,0.288256649,False,,5d3dd59e791fe2001673f587,,866137,45,,evan-feature22,full_pf_a,,1
16,33843,46,,,,2,2,0.0,0.0,1.0,0.0,,0.0-43.0,,0.0,1949.29,1.0,0.7086029209999999,1.0,0.75,0.0,0.274129113,0.0,0.262851608,False,,5d3dd59e791fe2001673f587,,877900,46,,evan-feature22,full_pf_a,,1
17,33844,47,,,,1,1,1.0,1.0,0.0,-1.0,,0.0-44.0,,-1.0,800.875,1.0,0.669189651,1.0,0.727614338,1.0,0.298444036,0.0,0.296944518,False,,5d3dd59e791fe2001673f587,,888496,47,,evan-feature22,full_pf_a,,1
18,33845,48,,,,1,1,1.0,1.0,1.0,0.0,,0.0-45.0,,1.0,791.1550002,1.0,0.6819912929999999,1.0,0.7179434290000001,0.0,0.265003961,1.0,0.28157921199999997,False,,5d3dd59e791fe2001673f587,,899090,48,,evan-feature22,full_pf_a,,0
19,33846,49,,,,1,1,1.0,0.0,1.0,0.0,,0.0-46.0,,1.0,410.29500010000004,1.0,0.665275002,0.0,0.723065271,0.0,0.260414971,0.0,0.30973870000000003,False,,5d3dd59e791fe2001673f587,,909298,49,,evan-feature22,full_pf_a,,0
20,33847,50,,,,1,1,1.0,1.0,0.0,-1.0,,0.0-47.0,,-1.0,348.3300002,1.0,0.6660593260000001,1.0,0.728032907,0.0,0.30922817,0.0,0.338778608,False,,5d3dd59e791fe2001673f587,,919437,50,,evan-feature22,full_pf_a,,0
21,33848,51,,,,1,1,1.0,1.0,0.0,-1.0,,0.0-48.0,,-1.0,301.8850002,1.0,0.702068785,1.0,0.6528750879999999,0.0,0.287329608,1.0,0.35789613200000003,False,,5d3dd59e791fe2001673f587,,929541,51,,evan-feature22,full_pf_a,,0
22,33849,52,,,,2,2,0.0,0.0,0.0,-1.0,,0.0-49.0,,0.0,911.2150001,1.0,0.651939787,1.0,0.636725589,0.0,0.284834488,0.0,0.358563756,False,,5d3dd59e791fe2001673f587,,940242,52,,evan-feature22,full_pf_a,,1
23,33850,53,,,,2,2,0.0,0.0,0.0,-1.0,,0.0-50.0,,0.0,1111.395,0.0,0.67573929,0.0,0.612550049,0.0,0.37130387600000003,0.0,0.383542402,False,,5d3dd59e791fe2001673f587,,951141,53,,evan-feature22,full_pf_a,,0
24,33851,54,,,,2,2,0.0,1.0,0.0,-1.0,,0.0-51.0,,-1.0,1210.76,1.0,0.620753801,1.0,0.60513644,0.0,0.385529434,1.0,0.340361743,False,,5d3dd59e791fe2001673f587,,962146,54,,evan-feature22,full_pf_a,,0
25,33852,55,,,,1,1,1.0,1.0,1.0,0.0,,0.0-52.0,,1.0,358.8750002,1.0,0.673564893,1.0,0.672437924,1.0,0.292955382,0.0,0.337633795,False,,5d3dd59e791fe2001673f587,,972292,55,,evan-feature22,full_pf_a,,1
26,33853,56,,,,1,1,1.0,1.0,0.0,-1.0,,0.0-53.0,,-1.0,2236.265,1.0,0.6749427,1.0,0.724197502,0.0,0.32391132100000003,1.0,0.350995264,False,,5d3dd59e791fe2001673f587,,984332,56,,evan-feature22,full_pf_a,,0
27,33854,57,,,,2,2,1.0,0.0,0.0,-1.0,,0.0-54.0,,0.0,333.66,0.0,0.6940159379999999,1.0,0.75,1.0,0.31710554399999996,0.0,0.413450341,False,,5d3dd59e791fe2001673f587,,994471,57,,evan-feature22,full_pf_a,,1
28,33855,58,,,,2,2,1.0,1.0,0.0,-1.0,,0.0-55.0,,-1.0,568.1649997999999,0.0,0.6916018270000001,1.0,0.69001187,1.0,0.261817804,1.0,0.40038635,False,,5d3dd59e791fe2001673f587,,1004845,58,,evan-feature22,full_pf_a,,0
29,33856,59,,,,1,1,0.0,1.0,0.0,-1.0,,0.0-56.0,,-1.0,475.3,0.0,0.641061544,1.0,0.71337992,0.0,0.277296461,0.0,0.47372791700000005,False,,5d3dd59e791fe2001673f587,,1015122,59,,evan-feature22,full_pf_a,,1
30,33857,60,,,,1,1,1.0,0.0,0.0,-1.0,,0.0-57.0,,0.0,2328.855,1.0,0.6082438520000001,0.0,0.708471106,1.0,0.28745137,1.0,0.564174476,False,,5d3dd59e791fe2001673f587,,1027252,60,,evan-feature22,full_pf_a,,0
31,33858,61,,,,1,1,0.0,1.0,1.0,0.0,,0.0-58.0,,0.0,1092.31,0.0,0.6051112120000001,1.0,0.7118147229999999,0.0,0.272390611,0.0,0.5595149939999999,False,,5d3dd59e791fe2001673f587,,1038155,61,,evan-feature22,full_pf_a,,0
32,33859,62,,,,2,2,0.0,0.0,1.0,0.0,,0.0-59.0,,0.0,489.9799998,0.0,0.582420852,1.0,0.635867583,0.0,0.31089574,0.0,0.5227206520000001,False,,5d3dd59e791fe2001673f587,,1048442,62,,evan-feature22,full_pf_a,,1
33,33860,63,,,,2,2,1.0,0.0,1.0,0.0,,0.0-60.0,,1.0,343.4299999,0.0,0.623195575,0.0,0.655026044,1.0,0.25,0.0,0.560387538,False,,5d3dd59e791fe2001673f587,,1058585,63,,evan-feature22,full_pf_a,,0
34,33861,64,,,,2,2,0.0,1.0,0.0,-1.0,,0.0-61.0,,-1.0,659.4750001,0.0,0.601889598,1.0,0.678198724,0.0,0.25,1.0,0.559922936,False,,5d3dd59e791fe2001673f587,,1069046,64,,evan-feature22,full_pf_a,,0
35,33862,65,,,,1,1,1.0,1.0,1.0,0.0,,0.0-62.0,,1.0,318.6600001,1.0,0.601259914,1.0,0.704681482,0.0,0.33908969299999997,1.0,0.505003715,False,,5d3dd59e791fe2001673f587,,1079170,65,,evan-feature22,full_pf_a,,1
36,33863,66,,,,1,1,1.0,1.0,1.0,0.0,,0.0-63.0,,1.0,323.85500010000004,1.0,0.59645454,1.0,0.710437172,0.0,0.327441879,1.0,0.391749613,False,,5d3dd59e791fe2001673f587,,1089301,66,,evan-feature22,full_pf_a,,0
37,33864,67,,,,2,2,0.0,0.0,0.0,-1.0,,0.0-64.0,,0.0,302.435,1.0,0.529473,1.0,0.636758527,0.0,0.301338063,0.0,0.365661481,False,,5d3dd59e791fe2001673f587,,1099400,67,,evan-feature22,full_pf_a,,1
38,33865,68,,,,1,1,1.0,1.0,1.0,0.0,,0.0-65.0,,1.0,477.68499979999996,1.0,0.541657162,1.0,0.634541962,0.0,0.343535366,1.0,0.371763742,False,,5d3dd59e791fe2001673f587,,1109679,68,,evan-feature22,full_pf_a,,1
39,33866,69,,,,1,1,0.0,1.0,1.0,0.0,,0.0-66.0,,0.0,556.3349999,0.0,0.5707533260000001,1.0,0.589121171,1.0,0.326428396,0.0,0.43961622899999997,False,,5d3dd59e791fe2001673f587,,1120052,69,,evan-feature22,full_pf_a,,0
40,33867,70,,,,2,2,0.0,0.0,0.0,-1.0,,0.0-67.0,,0.0,287.7450001,0.0,0.5707533260000001,1.0,0.589121171,0.0,0.326428396,0.0,0.43961622899999997,False,,5d3dd59e791fe2001673f587,,1130135,70,,evan-feature22,full_pf_a,,1
41,33868,71,,,,2,2,1.0,0.0,0.0,-1.0,,0.0-68.0,,0.0,1525.91,1.0,0.506271295,1.0,0.641775594,1.0,0.37149690700000004,0.0,0.404330166,False,,5d3dd59e791fe2001673f587,,1141461,71,,evan-feature22,full_pf_a,,0
42,33869,72,,,,2,2,0.0,1.0,1.0,0.0,,0.0-69.0,,0.0,394.4650001,1.0,0.455642565,1.0,0.623605825,0.0,0.358753011,1.0,0.346174041,False,,5d3dd59e791fe2001673f587,,1151643,72,,evan-feature22,full_pf_a,,0
43,33870,73,,,,2,2,0.0,0.0,0.0,-1.0,,0.0-70.0,,0.0,439.33,0.0,0.483677308,1.0,0.5904681070000001,0.0,0.402218411,0.0,0.35344697,False,,5d3dd59e791fe2001673f587,,1161882,73,,evan-feature22,full_pf_a,,0
44,33871,74,,,,1,1,0.0,1.0,1.0,0.0,,0.0-71.0,,0.0,372.7449998,0.0,0.394210977,1.0,0.558925494,1.0,0.540052017,0.0,0.35182128700000004,False,,5d3dd59e791fe2001673f587,,1172055,74,,evan-feature22,full_pf_a,,1
45,33872,75,,,,1,1,0.0,1.0,0.0,-1.0,,0.0-72.0,,-1.0,523.4150002,0.0,0.382300414,1.0,0.577670603,0.0,0.607608448,1.0,0.378261578,False,,5d3dd59e791fe2001673f587,,1182379,75,,evan-feature22,full_pf_a,,0
46,33873,76,,,,2,2,1.0,1.0,1.0,0.0,,0.0-73.0,,1.0,209.46499980000002,0.0,0.357596762,1.0,0.5929076529999999,1.0,0.6579790010000001,1.0,0.401326777,False,,5d3dd59e791fe2001673f587,,1192406,76,,evan-feature22,full_pf_a,,1
47,33874,77,,,,2,2,1.0,1.0,0.0,-1.0,,0.0-74.0,,-1.0,334.4950001,0.0,0.362033495,0.0,0.582308608,1.0,0.649195052,1.0,0.355158505,False,,5d3dd59e791fe2001673f587,,1202541,77,,evan-feature22,full_pf_a,,0
48,33875,78,,,,1,1,1.0,1.0,0.0,-1.0,,0.0-75.0,,-1.0,333.7000001,1.0,0.369620635,1.0,0.669100864,1.0,0.706059111,1.0,0.362516241,False,,5d3dd59e791fe2001673f587,,1212674,78,,evan-feature22,full_pf_a,,1
49,33876,79,,,,1,1,0.0,1.0,0.0,-1.0,,0.0-76.0,,-1.0,284.5249998,0.0,0.41477751399999996,1.0,0.7284416779999999,0.0,0.7182656940000001,1.0,0.36228040899999997,False,,5d3dd59e791fe2001673f587,,1222770,79,,evan-feature22,full_pf_a,,0
50,33877,80,,,,2,2,1.0,1.0,1.0,0.0,,0.0-77.0,,1.0,615.3749998,1.0,0.37675460299999997,1.0,0.703250285,1.0,0.75,1.0,0.461979164,False,,5d3dd59e791fe2001673f587,,1233194,80,,evan-feature22,full_pf_a,,1
51,33878,81,,,,2,2,0.0,0.0,1.0,0.0,,0.0-78.0,,0.0,675.605,0.0,0.398716075,1.0,0.6723864890000001,0.0,0.674153818,0.0,0.519029516,False,,5d3dd59e791fe2001673f587,,1243664,81,,evan-feature22,full_pf_a,,0
52,33879,82,,,,2,2,0.0,1.0,1.0,0.0,,0.0-79.0,,0.0,324.92,1.0,0.34677856700000004,0.0,0.69057175,0.0,0.6822438540000001,1.0,0.477292237,False,,5d3dd59e791fe2001673f587,,1253787,82,,evan-feature22,full_pf_a,,0
53,33880,83,,,,1,1,0.0,1.0,0.0,-1.0,,0.0-80.0,,-1.0,331.545,0.0,0.28580469199999997,1.0,0.68408818,0.0,0.684207565,1.0,0.49780448299999996,False,,5d3dd59e791fe2001673f587,,1263920,83,,evan-feature22,full_pf_a,,1
54,33882,85,,,,1,1,0.0,1.0,0.0,-1.0,,0.0-82.0,,-1.0,961.9849998999999,0.0,0.25,1.0,0.7405808970000001,0.0,0.679614108,0.0,0.436436964,False,,5d3dd59e791fe2001673f587,,4417962,85,,evan-feature22,full_pf_a,,0
55,33883,86,,,,2,2,0.0,1.0,0.0,-1.0,,0.0-83.0,,-1.0,329.59,0.0,0.29890393,1.0,0.730505706,0.0,0.7328203320000001,1.0,0.439256938,False,,5d3dd59e791fe2001673f587,,4428080,86,,evan-feature22,full_pf_a,,1
56,33884,87,,,,2,2,1.0,0.0,1.0,0.0,,0.0-84.0,,1.0,360.3950001,0.0,0.326762398,1.0,0.7148059609999999,1.0,0.75,0.0,0.44389608799999997,False,,5d3dd59e791fe2001673f587,,4438231,87,,evan-feature22,full_pf_a,,0
57,33885,88,,,,2,2,1.0,1.0,0.0,-1.0,,0.0-85.0,,-1.0,271.895,1.0,0.295168515,1.0,0.739760854,1.0,0.719947008,1.0,0.35277284600000003,False,,5d3dd59e791fe2001673f587,,4448293,88,,evan-feature22,full_pf_a,,0
58,33886,89,,,,2,2,1.0,0.0,0.0,-1.0,,0.0-86.0,,0.0,731.315,0.0,0.25,1.0,0.70781482,1.0,0.75,0.0,0.286095925,False,,5d3dd59e791fe2001673f587,,4458809,89,,evan-feature22,full_pf_a,,0
59,33887,90,,,,2,2,1.0,0.0,0.0,-1.0,,0.0-87.0,,0.0,288.6249998,0.0,0.25638190899999996,0.0,0.704088163,1.0,0.75,0.0,0.26872601399999996,False,,5d3dd59e791fe2001673f587,,4468877,90,,evan-feature22,full_pf_a,,0
60,33888,91,,,,2,2,1.0,0.0,1.0,0.0,,0.0-88.0,,1.0,225.8599999,0.0,0.271581126,1.0,0.669760107,1.0,0.733896663,0.0,0.273244572,False,,5d3dd59e791fe2001673f587,,4478897,91,,evan-feature22,full_pf_a,,0
61,33889,92,,,,2,2,0.0,0.0,0.0,-1.0,,0.0-89.0,,0.0,1065.025,0.0,0.257144401,1.0,0.600575706,0.0,0.74488122,0.0,0.25,False,,5d3dd59e791fe2001673f587,,4489778,92,,evan-feature22,full_pf_a,,0
62,33890,93,,,,2,2,0.0,0.0,0.0,-1.0,,0.0-90.0,,0.0,855.185,1.0,0.25,1.0,0.616870026,0.0,0.723610234,0.0,0.25,False,,5d3dd59e791fe2001673f587,,4500427,93,,evan-feature22,full_pf_a,,0
63,33891,94,,,,1,1,0.0,1.0,1.0,0.0,,0.0-91.0,,0.0,302.105,0.0,0.25,1.0,0.583540187,0.0,0.7041042559999999,0.0,0.285961995,False,,5d3dd59e791fe2001673f587,,4510535,94,,evan-feature22,full_pf_a,,1
64,33892,95,,,,2,2,1.0,0.0,1.0,0.0,,0.0-92.0,,1.0,237.6249998,0.0,0.27254536,1.0,0.53875765,1.0,0.693783448,0.0,0.284961652,False,,5d3dd59e791fe2001673f587,,4520593,95,,evan-feature22,full_pf_a,,1
65,33893,96,,,,2,2,0.0,0.0,1.0,0.0,,0.0-93.0,,0.0,1427.62,0.0,0.25,1.0,0.548431252,0.0,0.734221895,0.0,0.279445214,False,,5d3dd59e791fe2001673f587,,4531819,96,,evan-feature22,full_pf_a,,0
66,33894,97,,,,2,2,1.0,0.0,0.0,-1.0,,0.0-94.0,,0.0,314.8700001,1.0,0.258640684,1.0,0.545878066,1.0,0.725245965,0.0,0.31487537,False,,5d3dd59e791fe2001673f587,,4541933,97,,evan-feature22,full_pf_a,,0
67,33895,98,,,,2,2,0.0,0.0,0.0,-1.0,,0.0-95.0,,0.0,266.98500010000004,1.0,0.251103711,0.0,0.5776290629999999,0.0,0.696320133,0.0,0.317831047,False,,5d3dd59e791fe2001673f587,,4552000,98,,evan-feature22,full_pf_a,,0
68,33896,99,,,,1,1,0.0,1.0,0.0,-1.0,,0.0-96.0,,-1.0,996.515,0.0,0.276630292,1.0,0.617329858,0.0,0.73838088,0.0,0.261471582,False,,5d3dd59e791fe2001673f587,,4562792,99,,evan-feature22,full_pf_a,,1
69,33897,100,,,,2,2,1.0,0.0,0.0,-1.0,,0.0-97.0,,0.0,496.7149999,0.0,0.297716424,1.0,0.618863717,1.0,0.7402358259999999,0.0,0.262600834,False,,5d3dd59e791fe2001673f587,,4573087,100,,evan-feature22,full_pf_a,,1
70,33898,101,,,,2,2,1.0,0.0,1.0,0.0,,0.0-98.0,,1.0,273.61,0.0,0.290935512,1.0,0.695370945,1.0,0.706570507,0.0,0.280030553,False,,5d3dd59e791fe2001673f587,,4583160,101,,evan-feature22,full_pf_a,,0
71,33899,102,,,,2,2,1.0,0.0,0.0,-1.0,,0.0-99.0,,0.0,373.0349999,0.0,0.25,1.0,0.6465277079999999,1.0,0.67766682,0.0,0.25,False,,5d3dd59e791fe2001673f587,,4593335,102,,evan-feature22,full_pf_a,,0
72,33900,103,,,,2,2,0.0,0.0,1.0,0.0,,0.0-100.0,,0.0,334.8099999,0.0,0.26463816,1.0,0.636100213,0.0,0.646048507,0.0,0.265607101,False,,5d3dd59e791fe2001673f587,,4603451,103,,evan-feature22,full_pf_a,,0
73,33901,104,,,,2,2,0.0,0.0,1.0,0.0,,0.0-101.0,,0.0,367.88,0.0,0.314340707,1.0,0.667795927,0.0,0.613630805,0.0,0.25,False,,5d3dd59e791fe2001673f587,,4613612,104,,evan-feature22,full_pf_a,,0
74,33902,105,,,,2,2,1.0,0.0,0.0,-1.0,,0.0-102.0,,0.0,380.1299999,0.0,0.28685784,1.0,0.6622549529999999,1.0,0.652154117,0.0,0.25,False,,5d3dd59e791fe2001673f587,,4623799,105,,evan-feature22,full_pf_a,,0
75,33903,106,,,,2,2,0.0,0.0,0.0,-1.0,,0.0-103.0,,0.0,519.8600001,0.0,0.304106554,1.0,0.631289538,0.0,0.707041942,0.0,0.29314237,False,,5d3dd59e791fe2001673f587,,4634109,106,,evan-feature22,full_pf_a,,0
76,33904,107,,,,2,2,0.0,0.0,0.0,-1.0,,0.0-104.0,,0.0,287.365,0.0,0.304806932,1.0,0.571167718,0.0,0.680472346,0.0,0.25,False,,5d3dd59e791fe2001673f587,,4644192,107,,evan-feature22,full_pf_a,,0
77,33905,108,,,,2,2,1.0,0.0,0.0,-1.0,,0.0-105.0,,0.0,555.3549998,0.0,0.37919861,0.0,0.5724849710000001,1.0,0.705638003,0.0,0.30179300600000003,False,,5d3dd59e791fe2001673f587,,4654552,108,,evan-feature22,full_pf_a,,0
78,33906,109,,,,2,2,1.0,0.0,0.0,-1.0,,0.0-106.0,,0.0,2590.645,1.0,0.464277969,1.0,0.554034373,1.0,0.7372627340000001,0.0,0.264699741,False,,5d3dd59e791fe2001673f587,,4666947,109,,evan-feature22,full_pf_a,,0
79,33907,110,,,,2,2,1.0,0.0,0.0,-1.0,,0.0-107.0,,0.0,823.85,0.0,0.465104323,0.0,0.530793115,1.0,0.75,0.0,0.31683071,False,,5d3dd59e791fe2001673f587,,4677561,110,,evan-feature22,full_pf_a,,0
80,33908,111,,,,2,2,1.0,0.0,1.0,0.0,,0.0-108.0,,1.0,507.215,1.0,0.465104323,1.0,0.530793115,1.0,0.75,0.0,0.31683071,False,,5d3dd59e791fe2001673f587,,4687869,111,,evan-feature22,full_pf_a,,0
81,33909,112,,,,2,2,1.0,0.0,1.0,0.0,,0.0-109.0,,1.0,476.6200001,0.0,0.46833986,1.0,0.570249239,1.0,0.7244472590000001,0.0,0.364114163,False,,5d3dd59e791fe2001673f587,,4698157,112,,evan-feature22,full_pf_a,,0
82,33910,113,,,,2,2,1.0,0.0,1.0,0.0,,0.0-110.0,,1.0,1953.005,1.0,0.445444024,1.0,0.649673355,1.0,0.6845441290000001,0.0,0.300660449,False,,5d3dd59e791fe2001673f587,,4709906,113,,evan-feature22,full_pf_a,,0
83,33911,114,,,,2,2,1.0,1.0,1.0,0.0,,0.0-111.0,,1.0,620.3049999,0.0,0.39909721299999995,1.0,0.6715179509999999,1.0,0.742310028,1.0,0.35496088299999995,False,,5d3dd59e791fe2001673f587,,4720332,114,,evan-feature22,full_pf_a,,0
84,33912,115,,,,2,2,1.0,1.0,0.0,-1.0,,0.0-112.0,,-1.0,46.44499999,0.0,0.37956104799999996,1.0,0.694725302,1.0,0.7181651309999999,1.0,0.38726906299999997,False,,5d3dd59e791fe2001673f587,,4730184,115,,evan-feature22,full_pf_a,,0
85,33913,116,,,,1,1,1.0,1.0,0.0,-1.0,,0.0-113.0,,-1.0,192.76999980000002,1.0,0.404995034,1.0,0.724375412,1.0,0.6910946859999999,0.0,0.387187347,False,,5d3dd59e791fe2001673f587,,4740174,116,,evan-feature22,full_pf_a,,1
86,33914,117,,,,2,2,0.0,1.0,1.0,0.0,,0.0-114.0,,0.0,351.945,1.0,0.461740803,1.0,0.75,0.0,0.75,1.0,0.34872038200000005,False,,5d3dd59e791fe2001673f587,,4750322,117,,evan-feature22,full_pf_a,,1
87,33915,118,,,,1,1,1.0,0.0,1.0,0.0,,0.0-115.0,,1.0,248.45999989999999,1.0,0.43821380600000004,0.0,0.738833273,1.0,0.728286963,1.0,0.399538128,False,,5d3dd59e791fe2001673f587,,4760372,118,,evan-feature22,full_pf_a,,1
88,33916,119,,,,1,1,1.0,1.0,0.0,-1.0,,0.0-116.0,,-1.0,288.37,1.0,0.41709882,1.0,0.736666736,1.0,0.75,0.0,0.389095584,False,,5d3dd59e791fe2001673f587,,4770456,119,,evan-feature22,full_pf_a,,0
89,33917,120,,,,2,2,1.0,0.0,0.0,-1.0,,0.0-117.0,,0.0,347.61000010000004,0.0,0.39749009799999996,1.0,0.744320029,1.0,0.75,0.0,0.363848678,False,,5d3dd59e791fe2001673f587,,4780611,120,,evan-feature22,full_pf_a,,1
90,33918,121,,,,2,2,1.0,1.0,1.0,0.0,,0.0-118.0,,1.0,875.305,0.0,0.392653706,0.0,0.75,1.0,0.75,1.0,0.384386976,False,,5d3dd59e791fe2001673f587,,4791295,121,,evan-feature22,full_pf_a,,0
91,33919,122,,,,2,2,1.0,0.0,0.0,-1.0,,0.0-119.0,,0.0,293.24,0.0,0.31190902600000003,1.0,0.75,1.0,0.732413819,0.0,0.413082932,False,,5d3dd59e791fe2001673f587,,4801391,122,,evan-feature22,full_pf_a,,0
92,33920,123,,,,2,2,0.0,0.0,1.0,0.0,,0.0-120.0,,0.0,548.215,1.0,0.366917648,1.0,0.740073855,0.0,0.75,0.0,0.352861979,False,,5d3dd59e791fe2001673f587,,4811751,123,,evan-feature22,full_pf_a,,0
93,33921,124,,,,1,1,1.0,0.0,1.0,0.0,,0.0-121.0,,1.0,325.6300001,1.0,0.3645172,0.0,0.721770713,1.0,0.75,1.0,0.404074511,False,,5d3dd59e791fe2001673f587,,4821878,124,,evan-feature22,full_pf_a,,1
94,33922,125,,,,1,1,0.0,1.0,1.0,0.0,,0.0-122.0,,0.0,325.9649999,0.0,0.35205600299999995,1.0,0.68983859,1.0,0.739735447,1.0,0.366895945,False,,5d3dd59e791fe2001673f587,,4832003,125,,evan-feature22,full_pf_a,,0
95,33923,126,,,,2,2,0.0,0.0,1.0,0.0,,0.0-123.0,,0.0,296.135,0.0,0.40998722600000004,1.0,0.720859127,0.0,0.673854955,0.0,0.368528541,False,,5d3dd59e791fe2001673f587,,4842097,126,,evan-feature22,full_pf_a,,1
96,33924,127,,,,2,2,1.0,1.0,1.0,0.0,,0.0-124.0,,1.0,317.3149999,0.0,0.353625316,0.0,0.75,1.0,0.695605473,1.0,0.38303674200000004,False,,5d3dd59e791fe2001673f587,,4852224,127,,evan-feature22,full_pf_a,,0
97,33925,128,,,,2,2,1.0,1.0,1.0,0.0,,0.0-125.0,,1.0,438.075,0.0,0.359216989,1.0,0.75,1.0,0.6987915090000001,1.0,0.35169046200000004,False,,5d3dd59e791fe2001673f587,,4862458,128,,evan-feature22,full_pf_a,,0
98,33926,129,,,,2,2,1.0,0.0,1.0,0.0,,0.0-126.0,,1.0,477.8800001,1.0,0.35834496899999996,1.0,0.75,1.0,0.707067742,0.0,0.416763636,False,,5d3dd59e791fe2001673f587,,4872721,129,,evan-feature22,full_pf_a,,0
99,33927,130,,,,2,2,1.0,0.0,0.0,-1.0,,0.0-127.0,,0.0,876.81,0.0,0.38741613799999997,1.0,0.7177369570000001,1.0,0.734902455,0.0,0.49438664299999996,False,,5d3dd59e791fe2001673f587,,4883408,130,,evan-feature22,full_pf_a,,0
100,33928,131,,,,2,2,0.0,0.0,1.0,0.0,,0.0-128.0,,0.0,389.435,0.0,0.405255252,0.0,0.7300466640000001,0.0,0.7027748070000001,0.0,0.504359668,False,,5d3dd59e791fe2001673f587,,4893589,131,,evan-feature22,full_pf_a,,0
101,33929,132,,,,1,1,1.0,1.0,1.0,0.0,,0.0-129.0,,1.0,271.3700002,1.0,0.40697073,1.0,0.7260142190000001,1.0,0.724461982,1.0,0.522779179,False,,5d3dd59e791fe2001673f587,,4903665,132,,evan-feature22,full_pf_a,,1
102,33930,133,,,,1,1,0.0,1.0,1.0,0.0,,0.0-130.0,,0.0,358.5350001,0.0,0.43906215299999996,1.0,0.7252802340000001,1.0,0.719079934,1.0,0.5712990579999999,False,,5d3dd59e791fe2001673f587,,4913823,133,,evan-feature22,full_pf_a,,0
103,33931,134,,,,2,2,1.0,0.0,0.0,-1.0,,0.0-131.0,,0.0,342.71,1.0,0.4076705,1.0,0.73280499,1.0,0.681313127,0.0,0.523891346,False,,5d3dd59e791fe2001673f587,,4923959,134,,evan-feature22,full_pf_a,,1
104,33932,135,,,,2,2,0.0,0.0,0.0,-1.0,,0.0-132.0,,0.0,314.88,1.0,0.399102911,1.0,0.730498344,0.0,0.661080239,0.0,0.46742603,False,,5d3dd59e791fe2001673f587,,4934071,135,,evan-feature22,full_pf_a,,0
105,33933,136,,,,1,1,0.0,1.0,0.0,-1.0,,0.0-133.0,,-1.0,333.2349998,0.0,0.356477282,1.0,0.712296395,1.0,0.641812684,0.0,0.44868414,False,,5d3dd59e791fe2001673f587,,4944201,136,,evan-feature22,full_pf_a,,1
106,33934,137,,,,1,1,0.0,0.0,1.0,0.0,,0.0-134.0,,0.0,502.1250001,0.0,0.462760722,0.0,0.692349322,1.0,0.700947931,0.0,0.394680266,False,,5d3dd59e791fe2001673f587,,4954512,137,,evan-feature22,full_pf_a,,0
107,33935,138,,,,2,2,0.0,0.0,1.0,0.0,,0.0-135.0,,0.0,521.74,1.0,0.422306413,1.0,0.718375916,0.0,0.706340917,0.0,0.367787185,False,,5d3dd59e791fe2001673f587,,4964839,138,,evan-feature22,full_pf_a,,1
108,33937,140,,,,2,2,1.0,1.0,1.0,0.0,,0.0-137.0,,1.0,2071.005,1.0,0.4582233,1.0,0.643834117,1.0,0.75,1.0,0.39615823299999997,False,,5d3dd59e791fe2001673f587,,4983244,140,,evan-feature22,full_pf_a,,0
109,33938,141,,,,2,2,1.0,0.0,1.0,0.0,,0.0-138.0,,1.0,514.2349998999999,1.0,0.43813437899999996,0.0,0.651283804,1.0,0.729674191,0.0,0.37711048,False,,5d3dd59e791fe2001673f587,,4993559,141,,evan-feature22,full_pf_a,,0
110,33939,142,,,,2,2,1.0,1.0,1.0,0.0,,0.0-139.0,,1.0,337.09,0.0,0.471199094,0.0,0.6470010979999999,1.0,0.715008097,1.0,0.410656191,False,,5d3dd59e791fe2001673f587,,5003701,142,,evan-feature22,full_pf_a,,0
111,33940,143,,,,2,2,0.0,0.0,1.0,0.0,,0.0-140.0,,0.0,754.56,0.0,0.42486406,0.0,0.629771829,0.0,0.6550939960000001,0.0,0.459093873,False,,5d3dd59e791fe2001673f587,,5014251,143,,evan-feature22,full_pf_a,,0
112,33941,144,,,,1,1,1.0,0.0,1.0,0.0,,0.0-141.0,,1.0,340.4350001,1.0,0.4803197,0.0,0.645842715,0.0,0.6421749920000001,0.0,0.443092151,False,,5d3dd59e791fe2001673f587,,5024387,144,,evan-feature22,full_pf_a,,1
113,33942,145,,,,1,1,1.0,0.0,0.0,-1.0,,0.0-142.0,,0.0,298.16,1.0,0.521848997,0.0,0.735801074,0.0,0.6691348460000001,1.0,0.45259351600000003,False,,5d3dd59e791fe2001673f587,,5034493,145,,evan-feature22,full_pf_a,,0
114,33943,146,,,,1,1,1.0,0.0,1.0,0.0,,0.0-143.0,,1.0,767.035,1.0,0.49565621299999996,0.0,0.742400847,0.0,0.661512553,0.0,0.483110831,False,,5d3dd59e791fe2001673f587,,5045063,146,,evan-feature22,full_pf_a,,0
115,33944,147,,,,1,1,1.0,1.0,1.0,0.0,,0.0-144.0,,1.0,617.445,1.0,0.521564361,1.0,0.731078632,1.0,0.6774886809999999,0.0,0.483263956,False,,5d3dd59e791fe2001673f587,,5055479,147,,evan-feature22,full_pf_a,,0
116,33945,148,,,,2,2,0.0,0.0,1.0,0.0,,0.0-145.0,,0.0,662.4850002000001,1.0,0.558893102,1.0,0.719810023,0.0,0.67461031,0.0,0.499349834,False,,5d3dd59e791fe2001673f587,,5065940,148,,evan-feature22,full_pf_a,,1
117,33946,149,,,,2,2,1.0,1.0,1.0,0.0,,0.0-146.0,,1.0,580.145,0.0,0.611031046,0.0,0.75,1.0,0.688072995,1.0,0.5321422729999999,False,,5d3dd59e791fe2001673f587,,5076310,149,,evan-feature22,full_pf_a,,0
118,33947,150,,,,2,2,1.0,1.0,0.0,-1.0,,0.0-147.0,,-1.0,708.81,0.0,0.633223941,1.0,0.713567728,1.0,0.75,1.0,0.48185314700000004,False,,5d3dd59e791fe2001673f587,,5086823,150,,evan-feature22,full_pf_a,,0
119,33948,151,,,,1,1,0.0,1.0,1.0,0.0,,0.0-148.0,,0.0,737.3550001,0.0,0.664001694,1.0,0.705509768,1.0,0.75,0.0,0.500211065,False,,5d3dd59e791fe2001673f587,,5097365,151,,evan-feature22,full_pf_a,,1
120,33949,152,,,,2,2,1.0,0.0,1.0,0.0,,0.0-149.0,,1.0,445.1000001,1.0,0.664001694,1.0,0.705509768,1.0,0.75,0.0,0.500211065,False,,5d3dd59e791fe2001673f587,,5107614,152,,evan-feature22,full_pf_a,,1
121,33950,153,,,,2,2,0.0,1.0,1.0,0.0,,0.0-150.0,,0.0,348.37,1.0,0.696508041,1.0,0.71066027,0.0,0.717028709,1.0,0.49792991,False,,5d3dd59e791fe2001673f587,,5117768,153,,evan-feature22,full_pf_a,,0
122,33951,154,,,,1,1,0.0,1.0,0.0,-1.0,,0.0-151.0,,-1.0,184.9499999,0.0,0.699883272,1.0,0.75,0.0,0.713543895,0.0,0.496962643,False,,5d3dd59e791fe2001673f587,,5127759,154,,evan-feature22,full_pf_a,,1
123,33952,155,,,,2,2,1.0,0.0,0.0,-1.0,,0.0-152.0,,0.0,336.5750001,1.0,0.741163419,0.0,0.75,1.0,0.64691024,0.0,0.513858197,False,,5d3dd59e791fe2001673f587,,5137882,155,,evan-feature22,full_pf_a,,1
124,33953,156,,,,2,2,1.0,0.0,0.0,-1.0,,0.0-153.0,,0.0,537.8149999,1.0,0.75,1.0,0.70816558,1.0,0.594499079,0.0,0.48502124,False,,5d3dd59e791fe2001673f587,,5148222,156,,evan-feature22,full_pf_a,,0
125,33954,157,,,,2,2,0.0,0.0,1.0,0.0,,0.0-154.0,,0.0,1283.86,1.0,0.75,0.0,0.721848901,0.0,0.62197249,0.0,0.48263586399999997,False,,5d3dd59e791fe2001673f587,,5159292,157,,evan-feature22,full_pf_a,,0
126,33955,158,,,,1,1,1.0,1.0,1.0,0.0,,0.0-155.0,,1.0,256.395,1.0,0.75,1.0,0.74813071,1.0,0.584357161,0.0,0.411477782,False,,5d3dd59e791fe2001673f587,,5169353,158,,evan-feature22,full_pf_a,,1
127,33956,159,,,,1,1,1.0,1.0,1.0,0.0,,0.0-156.0,,1.0,283.4099999,1.0,0.75,1.0,0.75,1.0,0.52287236,0.0,0.488290656,False,,5d3dd59e791fe2001673f587,,5179434,159,,evan-feature22,full_pf_a,,0
128,33957,160,,,,1,1,1.0,0.0,1.0,0.0,,0.0-157.0,,1.0,900.01,1.0,0.75,0.0,0.75,0.0,0.544321581,1.0,0.53143059,False,,5d3dd59e791fe2001673f587,,5190127,160,,evan-feature22,full_pf_a,,0
129,33958,161,,,,1,1,1.0,1.0,1.0,0.0,,0.0-158.0,,1.0,612.98,1.0,0.726754564,1.0,0.75,1.0,0.5129306370000001,1.0,0.530592445,False,,5d3dd59e791fe2001673f587,,5200543,161,,evan-feature22,full_pf_a,,0
130,33959,162,,,,1,1,0.0,0.0,0.0,-1.0,,0.0-159.0,,0.0,464.9700001,0.0,0.75,0.0,0.7392590729999999,1.0,0.479875835,1.0,0.547007051,False,,5d3dd59e791fe2001673f587,,5210797,162,,evan-feature22,full_pf_a,,0
131,33960,163,,,,2,2,1.0,1.0,0.0,-1.0,,0.0-160.0,,-1.0,492.73000010000004,0.0,0.75,1.0,0.7393376979999999,1.0,0.546045419,1.0,0.541267353,False,,5d3dd59e791fe2001673f587,,5221098,163,,evan-feature22,full_pf_a,,1
132,33961,164,,,,2,2,0.0,1.0,1.0,0.0,,0.0-161.0,,0.0,372.29500010000004,1.0,0.75,1.0,0.75,0.0,0.485725895,1.0,0.527625395,False,,5d3dd59e791fe2001673f587,,5231270,164,,evan-feature22,full_pf_a,,0
133,33962,165,,,,2,2,1.0,0.0,0.0,-1.0,,0.0-162.0,,0.0,1944.665,1.0,0.75,1.0,0.725087974,1.0,0.488603595,0.0,0.504019206,False,,5d3dd59e791fe2001673f587,,5243038,165,,evan-feature22,full_pf_a,,0
134,33963,166,,,,2,2,0.0,1.0,1.0,0.0,,0.0-163.0,,0.0,498.82999989999996,1.0,0.745504295,1.0,0.75,0.0,0.452379914,1.0,0.50131194,False,,5d3dd59e791fe2001673f587,,5253353,166,,evan-feature22,full_pf_a,,0
135,33964,167,,,,2,2,0.0,0.0,0.0,-1.0,,0.0-164.0,,0.0,674.4199997999999,1.0,0.728513874,1.0,0.75,0.0,0.44125567200000004,0.0,0.531454591,False,,5d3dd59e791fe2001673f587,,5263818,167,,evan-feature22,full_pf_a,,0
136,33965,168,,,,1,1,0.0,1.0,1.0,0.0,,0.0-165.0,,0.0,278.615,0.0,0.73790804,1.0,0.75,1.0,0.413036656,0.0,0.524619035,False,,5d3dd59e791fe2001673f587,,5273892,168,,evan-feature22,full_pf_a,,1
137,33966,169,,,,2,2,0.0,1.0,1.0,0.0,,0.0-166.0,,0.0,340.38,0.0,0.7080961309999999,0.0,0.708666865,0.0,0.431915581,1.0,0.481819489,False,,5d3dd59e791fe2001673f587,,5284029,169,,evan-feature22,full_pf_a,,1
138,33967,170,,,,2,2,0.0,1.0,1.0,0.0,,0.0-167.0,,0.0,1216.99,1.0,0.721378003,0.0,0.71605913,0.0,0.36642387,1.0,0.5036739929999999,False,,5d3dd59e791fe2001673f587,,5295055,170,,evan-feature22,full_pf_a,,0
139,33968,171,,,,1,1,1.0,0.0,0.0,-1.0,,0.0-168.0,,0.0,518.7799997999999,1.0,0.7340618959999999,0.0,0.699323252,0.0,0.35298046299999997,0.0,0.511241692,False,,5d3dd59e791fe2001673f587,,5305390,171,,evan-feature22,full_pf_a,,1
140,33969,172,,,,1,1,1.0,1.0,0.0,-1.0,,0.0-169.0,,-1.0,762.7300001,1.0,0.75,1.0,0.70412698,0.0,0.380734814,1.0,0.529580116,False,,5d3dd59e791fe2001673f587,,5315953,172,,evan-feature22,full_pf_a,,0
141,33970,173,,,,2,2,0.0,1.0,0.0,-1.0,,0.0-170.0,,-1.0,287.795,1.0,0.7436654909999999,0.0,0.711182751,0.0,0.41125331,1.0,0.49554405,False,,5d3dd59e791fe2001673f587,,5326045,173,,evan-feature22,full_pf_a,,1
142,33971,174,,,,1,1,1.0,1.0,1.0,0.0,,0.0-171.0,,1.0,364.61500010000003,1.0,0.731607915,1.0,0.651774583,1.0,0.35688023,1.0,0.45194491600000003,False,,5d3dd59e791fe2001673f587,,5336214,174,,evan-feature22,full_pf_a,,1
143,33972,175,,,,1,1,0.0,1.0,0.0,-1.0,,0.0-172.0,,-1.0,378.94,0.0,0.75,1.0,0.75,1.0,0.283145374,0.0,0.528608005,False,,5d3dd59e791fe2001673f587,,5346395,175,,evan-feature22,full_pf_a,,0
144,33973,176,,,,2,2,0.0,0.0,1.0,0.0,,0.0-173.0,,0.0,334.39,0.0,0.7491416890000001,0.0,0.7423785959999999,0.0,0.29135870399999997,0.0,0.498888318,False,,5d3dd59e791fe2001673f587,,5356524,176,,evan-feature22,full_pf_a,,1
145,33974,177,,,,2,2,0.0,0.0,0.0,-1.0,,0.0-174.0,,0.0,429.4199999,0.0,0.708569387,0.0,0.717682277,0.0,0.294421699,0.0,0.493838163,False,,5d3dd59e791fe2001673f587,,5366738,177,,evan-feature22,full_pf_a,,0
146,33975,178,,,,2,2,0.0,0.0,1.0,0.0,,0.0-175.0,,0.0,405.235,1.0,0.75,1.0,0.7383382159999999,0.0,0.356098707,0.0,0.442533405,False,,5d3dd59e791fe2001673f587,,5376938,178,,evan-feature22,full_pf_a,,0
147,33976,179,,,,2,2,1.0,1.0,1.0,0.0,,0.0-176.0,,1.0,333.65500019999996,1.0,0.744527075,1.0,0.75,1.0,0.334127506,1.0,0.393165805,False,,5d3dd59e791fe2001673f587,,5387081,179,,evan-feature22,full_pf_a,,0
148,33977,180,,,,2,2,0.0,0.0,1.0,0.0,,0.0-177.0,,0.0,465.175,0.0,0.75,1.0,0.75,0.0,0.33571021799999995,0.0,0.350393962,False,,5d3dd59e791fe2001673f587,,5397344,180,,evan-feature22,full_pf_a,,0
149,33978,181,,,,SLOW,SLOW,,,0.0,-1.0,,0.0-178.0,,-3.0,,1.0,0.75,1.0,0.75,1.0,0.313628297,1.0,0.36349657399999996,False,,5d3dd59e791fe2001673f587,,5403161,181,,evan-feature22,full_pf_a,,1
150,33979,182,,,,2,2,0.0,1.0,1.0,0.0,,0.0-179.0,,0.0,483.8999999,1.0,0.75,1.0,0.734284182,0.0,0.262667667,1.0,0.380199119,False,,5d3dd59e791fe2001673f587,,5413440,182,,evan-feature22,full_pf_a,,1
151,33980,183,,,,2,2,0.0,1.0,1.0,0.0,,0.0-180.0,,0.0,296.61000010000004,1.0,0.75,0.0,0.75,0.0,0.25,1.0,0.394494013,False,,5d3dd59e791fe2001673f587,,5423532,183,,evan-feature22,full_pf_a,,0
152,33981,184,,,,1,1,0.0,0.0,1.0,0.0,,0.0-181.0,,0.0,271.9050001,0.0,0.722298145,0.0,0.7357822340000001,0.0,0.25,0.0,0.319142121,False,,5d3dd59e791fe2001673f587,,5433598,184,,evan-feature22,full_pf_a,,1
153,33982,185,,,,1,1,1.0,1.0,1.0,0.0,,0.0-182.0,,1.0,346.405,1.0,0.73149275,1.0,0.724276446,1.0,0.305856907,0.0,0.281315057,False,,5d3dd59e791fe2001673f587,,5443748,185,,evan-feature22,full_pf_a,,0
154,33983,186,,,,1,1,1.0,1.0,1.0,0.0,,0.0-183.0,,1.0,514.5350001,1.0,0.7458732690000001,1.0,0.7336382459999999,0.0,0.272571964,0.0,0.266021999,False,,5d3dd59e791fe2001673f587,,5454067,186,,evan-feature22,full_pf_a,,0
155,33984,187,,,,1,1,1.0,1.0,0.0,-1.0,,0.0-184.0,,-1.0,380.73000010000004,1.0,0.705579037,1.0,0.720778292,1.0,0.320238144,0.0,0.30971744,False,,5d3dd59e791fe2001673f587,,5464250,187,,evan-feature22,full_pf_a,,0
156,33985,188,,,,2,2,1.0,1.0,0.0,-1.0,,0.0-185.0,,-1.0,315.15000019999997,0.0,0.700425648,0.0,0.7198784009999999,1.0,0.272590393,1.0,0.304182931,False,,5d3dd59e791fe2001673f587,,5474384,188,,evan-feature22,full_pf_a,,1
157,33986,189,,,,1,1,0.0,1.0,0.0,-1.0,,0.0-186.0,,-1.0,940.3650002,0.0,0.735590785,1.0,0.722714973,1.0,0.25,1.0,0.323421091,False,,5d3dd59e791fe2001673f587,,5485134,189,,evan-feature22,full_pf_a,,1
158,33987,190,,,,SLOW,SLOW,,,0.0,-1.0,,0.0-187.0,,-3.0,,0.0,0.724807662,0.0,0.63146213,1.0,0.36836492600000004,0.0,0.34592153299999995,False,,5d3dd59e791fe2001673f587,,5490955,190,,evan-feature22,full_pf_a,,1
159,33988,191,,,,2,2,0.0,0.0,1.0,0.0,,0.0-188.0,,0.0,520.46,1.0,0.7352796909999999,0.0,0.555111392,0.0,0.36003922,0.0,0.31433779999999995,False,,5d3dd59e791fe2001673f587,,5501253,191,,evan-feature22,full_pf_a,,1
160,33989,192,notice,,,,,,,,,,0.0-189.0,"{""Q0"":""aliens seemed to switch minerals""}",,29285.0,,,,,,,,,False,,5d3dd59e791fe2001673f587,,5530575,192,Q,survey-text,full_pf_a,,1
161,33990,193,track1,,[1],,,,,,,,0.0-190.0,"{""Q0"":""no""}",,9703.0,,,,,,,,,False,,5d3dd59e791fe2001673f587,,5540285,193,Q,evan-quiz,full_pf_a,,1
162,33991,194,track2,,[0],,,,,,,,0.0-191.0,"{""Q0"":""yes""}",,8189.0,,,,,,,,,False,,5d3dd59e791fe2001673f587,,5548478,194,Q,evan-quiz,full_pf_a,,1
163,33992,195,strat,,,,,,,,,,0.0-192.0,"{""Q0"":""i just folloewd what i thought was a sequence""}",,20430.0,,,,,,,,,False,,5d3dd59e791fe2001673f587,,5568912,195,Q,survey-text,full_pf_a,,1
