,index,Unnamed: 0,Q_name,button_pressed,choice_idxs,chosen_pos,chosen_state,chosen_state_f_1_outcome,chosen_state_f_2_outcome,f_1_reward,f_2_reward,incor_questions,internal_node_id,responses,reward_received,rt,s_1_f_1_outcome,s_1_f_1_prob,s_1_f_2_outcome,s_1_f_2_prob,s_2_f_1_outcome,s_2_f_1_prob,s_2_f_2_outcome,s_2_f_2_prob,safe_first,stimulus,subjectID,success,time_elapsed,trial_index,trial_num,trial_type,version,view_history,switching
0,221,30,,,,1,1,1.0,1.0,0.0,1.0,,0.0-27.0,,1.0,1565.295,1.0,0.6,1.0,0.6,0.0,0.4,1.0,0.4,True,,5f0576c2b5b074000a8664cc,,557457,30,,evan-feature22,full_rf_b,,0
1,222,31,,,,1,1,0.0,0.0,0.0,1.0,,0.0-28.0,,0.0,699.415,0.0,0.608053294,0.0,0.63424552,1.0,0.397152172,0.0,0.347069101,True,,5f0576c2b5b074000a8664cc,,567928,31,,evan-feature22,full_rf_b,,0
2,223,32,,,,2,2,0.0,0.0,0.0,1.0,,0.0-29.0,,0.0,407.105,0.0,0.642237155,0.0,0.648566321,0.0,0.389407674,0.0,0.285525717,True,,5f0576c2b5b074000a8664cc,,578112,32,,evan-feature22,full_rf_b,,1
3,224,33,,,,1,1,1.0,0.0,0.0,1.0,,0.0-30.0,,0.0,585.255,1.0,0.661086576,0.0,0.630492543,0.0,0.399058924,1.0,0.25,True,,5f0576c2b5b074000a8664cc,,588481,33,,evan-feature22,full_rf_b,,1
4,225,34,,,,2,2,0.0,0.0,0.0,1.0,,0.0-31.0,,0.0,662.415,1.0,0.631324137,1.0,0.6269842929999999,0.0,0.38734784299999997,0.0,0.25,True,,5f0576c2b5b074000a8664cc,,598928,34,,evan-feature22,full_rf_b,,1
5,226,35,,,,2,2,1.0,0.0,0.0,1.0,,0.0-32.0,,0.0,83.92,0.0,0.6381991370000001,0.0,0.68987999,1.0,0.384107265,0.0,0.271332943,True,,5f0576c2b5b074000a8664cc,,608786,35,,evan-feature22,full_rf_b,,0
6,227,36,,,,1,1,1.0,0.0,0.0,1.0,,0.0-33.0,,0.0,196.38,1.0,0.66034901,0.0,0.742641349,0.0,0.360225629,0.0,0.25,True,,5f0576c2b5b074000a8664cc,,618766,36,,evan-feature22,full_rf_b,,1
7,228,37,,,,1,1,0.0,1.0,-1.0,0.0,,0.0-34.0,,0.0,151.18,0.0,0.638612418,1.0,0.75,0.0,0.367273939,1.0,0.25,True,,5f0576c2b5b074000a8664cc,,628702,37,,evan-feature22,full_rf_b,,0
8,229,38,,,,1,1,0.0,0.0,0.0,1.0,,0.0-35.0,,0.0,168.3,0.0,0.624340629,0.0,0.75,1.0,0.425829545,1.0,0.25,True,,5f0576c2b5b074000a8664cc,,638649,38,,evan-feature22,full_rf_b,,0
9,230,39,,,,1,1,0.0,1.0,0.0,1.0,,0.0-36.0,,1.0,466.245,0.0,0.621999804,1.0,0.75,1.0,0.368609357,0.0,0.25,True,,5f0576c2b5b074000a8664cc,,648888,39,,evan-feature22,full_rf_b,,0
10,231,40,,,,2,2,1.0,0.0,-1.0,0.0,,0.0-37.0,,-1.0,607.84,1.0,0.62666403,1.0,0.75,1.0,0.311151498,0.0,0.25,True,,5f0576c2b5b074000a8664cc,,659275,40,,evan-feature22,full_rf_b,,1
11,232,41,,,,2,2,1.0,0.0,-1.0,0.0,,0.0-38.0,,-1.0,625.485,1.0,0.6819650009999999,1.0,0.75,1.0,0.310763048,0.0,0.25,True,,5f0576c2b5b074000a8664cc,,669681,41,,evan-feature22,full_rf_b,,0
12,233,42,,,,2,2,0.0,0.0,0.0,1.0,,0.0-39.0,,0.0,567.74,1.0,0.740626951,1.0,0.75,0.0,0.25,0.0,0.25,True,,5f0576c2b5b074000a8664cc,,680023,42,,evan-feature22,full_rf_b,,0
13,234,43,,,,2,2,1.0,0.0,0.0,1.0,,0.0-40.0,,0.0,93.92499999,1.0,0.739599242,1.0,0.742034978,1.0,0.25397114600000004,0.0,0.25,True,,5f0576c2b5b074000a8664cc,,689886,43,,evan-feature22,full_rf_b,,0
14,235,44,,,,2,2,0.0,0.0,0.0,1.0,,0.0-41.0,,0.0,107.585,1.0,0.732341315,0.0,0.72735643,0.0,0.25,0.0,0.25,True,,5f0576c2b5b074000a8664cc,,699766,44,,evan-feature22,full_rf_b,,0
15,236,45,,,,2,2,0.0,0.0,0.0,1.0,,0.0-42.0,,0.0,402.835,1.0,0.7062287770000001,1.0,0.75,0.0,0.29002151,0.0,0.288256649,True,,5f0576c2b5b074000a8664cc,,709944,45,,evan-feature22,full_rf_b,,0
16,237,46,,,,1,1,1.0,1.0,-1.0,0.0,,0.0-43.0,,-1.0,343.605,1.0,0.7086029209999999,1.0,0.75,0.0,0.274129113,1.0,0.262851608,True,,5f0576c2b5b074000a8664cc,,720066,46,,evan-feature22,full_rf_b,,1
17,238,47,,,,1,1,0.0,0.0,0.0,1.0,,0.0-44.0,,0.0,436.34,0.0,0.669189651,0.0,0.727614338,0.0,0.298444036,0.0,0.296944518,True,,5f0576c2b5b074000a8664cc,,730280,47,,evan-feature22,full_rf_b,,0
18,239,48,,,,1,1,1.0,1.0,-1.0,0.0,,0.0-45.0,,-1.0,464.37,1.0,0.6819912929999999,1.0,0.7179434290000001,0.0,0.265003961,0.0,0.28157921199999997,True,,5f0576c2b5b074000a8664cc,,740516,48,,evan-feature22,full_rf_b,,0
19,240,49,,,,2,2,0.0,0.0,-1.0,0.0,,0.0-46.0,,0.0,111.16,1.0,0.665275002,1.0,0.723065271,0.0,0.260414971,0.0,0.30973870000000003,True,,5f0576c2b5b074000a8664cc,,750402,49,,evan-feature22,full_rf_b,,1
20,241,50,,,,1,1,1.0,1.0,0.0,1.0,,0.0-47.0,,1.0,620.875,1.0,0.6660593260000001,1.0,0.728032907,0.0,0.30922817,1.0,0.338778608,True,,5f0576c2b5b074000a8664cc,,760795,50,,evan-feature22,full_rf_b,,1
21,242,51,,,,1,1,1.0,1.0,0.0,1.0,,0.0-48.0,,1.0,598.2900001,1.0,0.702068785,1.0,0.6528750879999999,1.0,0.287329608,0.0,0.35789613200000003,True,,5f0576c2b5b074000a8664cc,,771176,51,,evan-feature22,full_rf_b,,0
22,243,52,,,,1,1,1.0,0.0,0.0,1.0,,0.0-49.0,,0.0,606.275,1.0,0.651939787,0.0,0.636725589,0.0,0.284834488,1.0,0.358563756,True,,5f0576c2b5b074000a8664cc,,781565,52,,evan-feature22,full_rf_b,,0
23,244,53,,,,1,1,1.0,1.0,0.0,1.0,,0.0-50.0,,1.0,255.86,1.0,0.67573929,1.0,0.612550049,1.0,0.37130387600000003,0.0,0.383542402,True,,5f0576c2b5b074000a8664cc,,791596,53,,evan-feature22,full_rf_b,,0
24,245,54,,,,2,2,0.0,0.0,0.0,1.0,,0.0-51.0,,0.0,465.015,0.0,0.620753801,1.0,0.60513644,0.0,0.385529434,0.0,0.340361743,True,,5f0576c2b5b074000a8664cc,,801833,54,,evan-feature22,full_rf_b,,1
25,246,55,,,,1,1,1.0,1.0,-1.0,0.0,,0.0-52.0,,-1.0,561.835,1.0,0.673564893,1.0,0.672437924,0.0,0.292955382,1.0,0.337633795,True,,5f0576c2b5b074000a8664cc,,812175,55,,evan-feature22,full_rf_b,,1
26,247,56,,,,2,2,0.0,0.0,0.0,1.0,,0.0-53.0,,0.0,84.355,0.0,0.6749427,1.0,0.724197502,0.0,0.32391132100000003,0.0,0.350995264,True,,5f0576c2b5b074000a8664cc,,822042,56,,evan-feature22,full_rf_b,,1
27,248,57,,,,1,1,1.0,0.0,0.0,1.0,,0.0-54.0,,0.0,79.73000006,1.0,0.6940159379999999,0.0,0.75,0.0,0.31710554399999996,0.0,0.413450341,True,,5f0576c2b5b074000a8664cc,,831907,57,,evan-feature22,full_rf_b,,1
28,249,58,,,,1,1,1.0,1.0,0.0,1.0,,0.0-55.0,,1.0,164.645,1.0,0.6916018270000001,1.0,0.69001187,0.0,0.261817804,0.0,0.40038635,True,,5f0576c2b5b074000a8664cc,,841837,58,,evan-feature22,full_rf_b,,0
29,250,59,,,,2,2,0.0,1.0,0.0,1.0,,0.0-56.0,,1.0,73.26500001,0.0,0.641061544,1.0,0.71337992,0.0,0.277296461,1.0,0.47372791700000005,True,,5f0576c2b5b074000a8664cc,,851689,59,,evan-feature22,full_rf_b,,1
30,251,60,,,,1,1,0.0,0.0,0.0,1.0,,0.0-57.0,,0.0,130.365,0.0,0.6082438520000001,0.0,0.708471106,0.0,0.28745137,0.0,0.564174476,True,,5f0576c2b5b074000a8664cc,,861588,60,,evan-feature22,full_rf_b,,1
31,252,61,,,,1,1,0.0,1.0,-1.0,0.0,,0.0-58.0,,0.0,546.325,0.0,0.6051112120000001,1.0,0.7118147229999999,0.0,0.272390611,1.0,0.5595149939999999,True,,5f0576c2b5b074000a8664cc,,871905,61,,evan-feature22,full_rf_b,,0
32,253,62,,,,2,2,0.0,0.0,-1.0,0.0,,0.0-59.0,,0.0,227.365,0.0,0.582420852,0.0,0.635867583,0.0,0.31089574,0.0,0.5227206520000001,True,,5f0576c2b5b074000a8664cc,,881906,62,,evan-feature22,full_rf_b,,1
33,254,63,,,,1,1,0.0,1.0,-1.0,0.0,,0.0-60.0,,0.0,388.095,0.0,0.623195575,1.0,0.655026044,0.0,0.25,1.0,0.560387538,True,,5f0576c2b5b074000a8664cc,,892068,63,,evan-feature22,full_rf_b,,1
34,255,64,,,,2,2,0.0,1.0,0.0,1.0,,0.0-61.0,,1.0,451.735,0.0,0.601889598,0.0,0.678198724,0.0,0.25,1.0,0.559922936,True,,5f0576c2b5b074000a8664cc,,902300,64,,evan-feature22,full_rf_b,,1
35,256,65,,,,1,1,0.0,1.0,-1.0,0.0,,0.0-62.0,,0.0,583.495,0.0,0.601259914,1.0,0.704681482,0.0,0.33908969299999997,0.0,0.505003715,True,,5f0576c2b5b074000a8664cc,,912655,65,,evan-feature22,full_rf_b,,1
36,257,66,,,,2,2,0.0,0.0,-1.0,0.0,,0.0-63.0,,0.0,75.55000001,0.0,0.59645454,1.0,0.710437172,0.0,0.327441879,0.0,0.391749613,True,,5f0576c2b5b074000a8664cc,,922497,66,,evan-feature22,full_rf_b,,1
37,258,67,,,,2,2,0.0,0.0,0.0,1.0,,0.0-64.0,,0.0,450.2,0.0,0.529473,0.0,0.636758527,0.0,0.301338063,0.0,0.365661481,True,,5f0576c2b5b074000a8664cc,,932724,67,,evan-feature22,full_rf_b,,0
38,259,68,,,,1,1,1.0,0.0,-1.0,0.0,,0.0-65.0,,-1.0,520.285,1.0,0.541657162,0.0,0.634541962,0.0,0.343535366,0.0,0.371763742,True,,5f0576c2b5b074000a8664cc,,943014,68,,evan-feature22,full_rf_b,,1
39,260,69,,,,1,1,1.0,0.0,-1.0,0.0,,0.0-66.0,,-1.0,451.905,1.0,0.5707533260000001,0.0,0.589121171,0.0,0.326428396,1.0,0.43961622899999997,True,,5f0576c2b5b074000a8664cc,,953240,69,,evan-feature22,full_rf_b,,0
40,261,70,,,,1,1,0.0,1.0,0.0,1.0,,0.0-67.0,,1.0,189.94,0.0,0.5707533260000001,1.0,0.589121171,1.0,0.326428396,0.0,0.43961622899999997,True,,5f0576c2b5b074000a8664cc,,963213,70,,evan-feature22,full_rf_b,,0
41,262,71,,,,2,2,0.0,1.0,0.0,1.0,,0.0-68.0,,1.0,3.620000032,1.0,0.506271295,0.0,0.641775594,0.0,0.37149690700000004,1.0,0.404330166,True,,5f0576c2b5b074000a8664cc,,972996,71,,evan-feature22,full_rf_b,,1
42,263,72,,,,2,2,1.0,1.0,-1.0,0.0,,0.0-69.0,,-1.0,520.16,0.0,0.455642565,0.0,0.623605825,1.0,0.358753011,1.0,0.346174041,True,,5f0576c2b5b074000a8664cc,,983299,72,,evan-feature22,full_rf_b,,0
43,264,73,,,,1,1,0.0,1.0,0.0,1.0,,0.0-70.0,,1.0,227.835,0.0,0.483677308,1.0,0.5904681070000001,0.0,0.402218411,0.0,0.35344697,True,,5f0576c2b5b074000a8664cc,,993310,73,,evan-feature22,full_rf_b,,1
44,265,74,,,,1,1,1.0,0.0,-1.0,0.0,,0.0-71.0,,-1.0,74.44,1.0,0.394210977,0.0,0.558925494,1.0,0.540052017,0.0,0.35182128700000004,True,,5f0576c2b5b074000a8664cc,,1003156,74,,evan-feature22,full_rf_b,,0
45,266,75,,,,1,1,1.0,1.0,0.0,1.0,,0.0-72.0,,1.0,211.215,1.0,0.382300414,1.0,0.577670603,1.0,0.607608448,1.0,0.378261578,True,,5f0576c2b5b074000a8664cc,,1013144,75,,evan-feature22,full_rf_b,,0
46,267,76,,,,1,1,1.0,1.0,-1.0,0.0,,0.0-73.0,,-1.0,468.75,1.0,0.357596762,1.0,0.5929076529999999,1.0,0.6579790010000001,1.0,0.401326777,True,,5f0576c2b5b074000a8664cc,,1023385,76,,evan-feature22,full_rf_b,,0
47,268,77,,,,2,2,1.0,0.0,0.0,1.0,,0.0-74.0,,0.0,365.2450001,0.0,0.362033495,1.0,0.582308608,1.0,0.649195052,0.0,0.355158505,True,,5f0576c2b5b074000a8664cc,,1033526,77,,evan-feature22,full_rf_b,,1
48,269,78,,,,2,2,0.0,0.0,0.0,1.0,,0.0-75.0,,0.0,118.36,0.0,0.369620635,1.0,0.669100864,0.0,0.706059111,0.0,0.362516241,True,,5f0576c2b5b074000a8664cc,,1043425,78,,evan-feature22,full_rf_b,,0
49,270,79,,,,2,2,0.0,1.0,0.0,1.0,,0.0-76.0,,1.0,439.885,1.0,0.41477751399999996,1.0,0.7284416779999999,0.0,0.7182656940000001,1.0,0.36228040899999997,True,,5f0576c2b5b074000a8664cc,,1053635,79,,evan-feature22,full_rf_b,,0
50,271,80,,,,2,2,0.0,1.0,-1.0,0.0,,0.0-77.0,,0.0,140.27,1.0,0.37675460299999997,1.0,0.703250285,0.0,0.75,1.0,0.461979164,True,,5f0576c2b5b074000a8664cc,,1063558,80,,evan-feature22,full_rf_b,,0
51,272,81,,,,2,2,0.0,0.0,-1.0,0.0,,0.0-78.0,,0.0,54.53999998,0.0,0.398716075,1.0,0.6723864890000001,0.0,0.674153818,0.0,0.519029516,True,,5f0576c2b5b074000a8664cc,,1073391,81,,evan-feature22,full_rf_b,,0
52,273,82,,,,1,1,0.0,0.0,-1.0,0.0,,0.0-79.0,,0.0,69.64,0.0,0.34677856700000004,0.0,0.69057175,0.0,0.6822438540000001,0.0,0.477292237,True,,5f0576c2b5b074000a8664cc,,1083241,82,,evan-feature22,full_rf_b,,1
53,274,83,,,,1,1,0.0,1.0,0.0,1.0,,0.0-80.0,,1.0,431.4,0.0,0.28580469199999997,1.0,0.68408818,0.0,0.684207565,1.0,0.49780448299999996,True,,5f0576c2b5b074000a8664cc,,1093451,83,,evan-feature22,full_rf_b,,0
54,276,85,,,,1,1,0.0,1.0,0.0,1.0,,0.0-82.0,,1.0,3.794999968,0.0,0.25,1.0,0.7405808970000001,1.0,0.679614108,1.0,0.436436964,True,,5f0576c2b5b074000a8664cc,,1105433,85,,evan-feature22,full_rf_b,,0
55,277,86,,,,1,1,0.0,1.0,0.0,1.0,,0.0-83.0,,1.0,594.1249999,0.0,0.29890393,1.0,0.730505706,0.0,0.7328203320000001,1.0,0.439256938,True,,5f0576c2b5b074000a8664cc,,1115807,86,,evan-feature22,full_rf_b,,0
56,278,87,,,,1,1,0.0,1.0,-1.0,0.0,,0.0-84.0,,0.0,444.83,0.0,0.326762398,1.0,0.7148059609999999,1.0,0.75,1.0,0.44389608799999997,True,,5f0576c2b5b074000a8664cc,,1126031,87,,evan-feature22,full_rf_b,,0
57,279,88,,,,1,1,1.0,1.0,0.0,1.0,,0.0-85.0,,1.0,70.56999998,1.0,0.295168515,1.0,0.739760854,1.0,0.719947008,0.0,0.35277284600000003,True,,5f0576c2b5b074000a8664cc,,1135881,88,,evan-feature22,full_rf_b,,0
58,280,89,,,,1,1,0.0,1.0,0.0,1.0,,0.0-86.0,,1.0,108.215,0.0,0.25,1.0,0.70781482,0.0,0.75,0.0,0.286095925,True,,5f0576c2b5b074000a8664cc,,1145760,89,,evan-feature22,full_rf_b,,0
59,281,90,,,,1,1,1.0,0.0,0.0,1.0,,0.0-87.0,,0.0,282.07,1.0,0.25638190899999996,0.0,0.704088163,1.0,0.75,0.0,0.26872601399999996,True,,5f0576c2b5b074000a8664cc,,1155814,90,,evan-feature22,full_rf_b,,0
60,282,91,,,,1,1,0.0,1.0,-1.0,0.0,,0.0-88.0,,0.0,534.39,0.0,0.271581126,1.0,0.669760107,0.0,0.733896663,0.0,0.273244572,True,,5f0576c2b5b074000a8664cc,,1166118,91,,evan-feature22,full_rf_b,,0
61,283,92,,,,1,1,0.0,0.0,0.0,1.0,,0.0-89.0,,0.0,431.875,0.0,0.257144401,0.0,0.600575706,1.0,0.74488122,0.0,0.25,True,,5f0576c2b5b074000a8664cc,,1176329,92,,evan-feature22,full_rf_b,,0
62,284,93,,,,2,2,0.0,1.0,0.0,1.0,,0.0-90.0,,1.0,429.215,1.0,0.25,1.0,0.616870026,0.0,0.723610234,1.0,0.25,True,,5f0576c2b5b074000a8664cc,,1186535,93,,evan-feature22,full_rf_b,,1
63,285,94,,,,2,2,1.0,0.0,-1.0,0.0,,0.0-91.0,,-1.0,83.36499997,0.0,0.25,1.0,0.583540187,1.0,0.7041042559999999,0.0,0.285961995,True,,5f0576c2b5b074000a8664cc,,1196391,94,,evan-feature22,full_rf_b,,0
64,286,95,,,,1,1,1.0,1.0,-1.0,0.0,,0.0-92.0,,-1.0,73.90999998,1.0,0.27254536,1.0,0.53875765,1.0,0.693783448,0.0,0.284961652,True,,5f0576c2b5b074000a8664cc,,1206245,95,,evan-feature22,full_rf_b,,1
65,287,96,,,,1,1,0.0,1.0,-1.0,0.0,,0.0-93.0,,0.0,414.785,0.0,0.25,1.0,0.548431252,1.0,0.734221895,1.0,0.279445214,True,,5f0576c2b5b074000a8664cc,,1216439,96,,evan-feature22,full_rf_b,,0
66,288,97,,,,2,2,0.0,0.0,0.0,1.0,,0.0-94.0,,0.0,631.24,0.0,0.258640684,0.0,0.545878066,0.0,0.725245965,0.0,0.31487537,True,,5f0576c2b5b074000a8664cc,,1226846,97,,evan-feature22,full_rf_b,,1
67,289,98,,,,1,1,0.0,1.0,0.0,1.0,,0.0-95.0,,1.0,381.43,0.0,0.251103711,1.0,0.5776290629999999,1.0,0.696320133,0.0,0.317831047,True,,5f0576c2b5b074000a8664cc,,1237006,98,,evan-feature22,full_rf_b,,1
68,290,99,,,,1,1,0.0,1.0,0.0,1.0,,0.0-96.0,,1.0,74.395,0.0,0.276630292,1.0,0.617329858,1.0,0.73838088,0.0,0.261471582,True,,5f0576c2b5b074000a8664cc,,1246852,99,,evan-feature22,full_rf_b,,0
69,291,100,,,,1,1,0.0,0.0,0.0,1.0,,0.0-97.0,,0.0,450.33,0.0,0.297716424,0.0,0.618863717,0.0,0.7402358259999999,0.0,0.262600834,True,,5f0576c2b5b074000a8664cc,,1257072,100,,evan-feature22,full_rf_b,,0
70,292,101,,,,2,2,1.0,0.0,-1.0,0.0,,0.0-98.0,,-1.0,281.595,0.0,0.290935512,1.0,0.695370945,1.0,0.706570507,0.0,0.280030553,True,,5f0576c2b5b074000a8664cc,,1267121,101,,evan-feature22,full_rf_b,,1
71,293,102,,,,1,1,1.0,1.0,0.0,1.0,,0.0-99.0,,1.0,86.55499999,1.0,0.25,1.0,0.6465277079999999,0.0,0.67766682,0.0,0.25,True,,5f0576c2b5b074000a8664cc,,1276987,102,,evan-feature22,full_rf_b,,1
72,294,103,,,,1,1,0.0,1.0,-1.0,0.0,,0.0-100.0,,0.0,2.274999977,0.0,0.26463816,1.0,0.636100213,1.0,0.646048507,0.0,0.265607101,True,,5f0576c2b5b074000a8664cc,,1286769,103,,evan-feature22,full_rf_b,,0
73,295,104,,,,1,1,0.0,1.0,-1.0,0.0,,0.0-101.0,,0.0,233.985,0.0,0.314340707,1.0,0.667795927,0.0,0.613630805,0.0,0.25,True,,5f0576c2b5b074000a8664cc,,1296772,104,,evan-feature22,full_rf_b,,0
74,296,105,,,,2,2,1.0,1.0,0.0,1.0,,0.0-102.0,,1.0,273.86,0.0,0.28685784,0.0,0.6622549529999999,1.0,0.652154117,1.0,0.25,True,,5f0576c2b5b074000a8664cc,,1306816,105,,evan-feature22,full_rf_b,,1
75,297,106,,,,1,1,0.0,1.0,0.0,1.0,,0.0-103.0,,1.0,427.505,0.0,0.304106554,1.0,0.631289538,1.0,0.707041942,0.0,0.29314237,True,,5f0576c2b5b074000a8664cc,,1317008,106,,evan-feature22,full_rf_b,,1
76,298,107,,,,1,1,1.0,0.0,0.0,1.0,,0.0-104.0,,0.0,206.04,1.0,0.304806932,0.0,0.571167718,1.0,0.680472346,1.0,0.25,True,,5f0576c2b5b074000a8664cc,,1326985,107,,evan-feature22,full_rf_b,,0
77,299,108,,,,1,1,0.0,0.0,0.0,1.0,,0.0-105.0,,0.0,204.43,0.0,0.37919861,0.0,0.5724849710000001,0.0,0.705638003,0.0,0.30179300600000003,True,,5f0576c2b5b074000a8664cc,,1336960,108,,evan-feature22,full_rf_b,,0
78,300,109,,,,1,1,0.0,0.0,0.0,1.0,,0.0-106.0,,0.0,3224.5,0.0,0.464277969,0.0,0.554034373,1.0,0.7372627340000001,1.0,0.264699741,True,,5f0576c2b5b074000a8664cc,,1349967,109,,evan-feature22,full_rf_b,,0
79,301,110,,,,2,2,1.0,0.0,0.0,1.0,,0.0-107.0,,0.0,381.93,0.0,0.465104323,0.0,0.530793115,1.0,0.75,0.0,0.31683071,True,,5f0576c2b5b074000a8664cc,,1360125,110,,evan-feature22,full_rf_b,,1
80,302,111,,,,1,1,1.0,0.0,-1.0,0.0,,0.0-108.0,,-1.0,276.865,1.0,0.465104323,0.0,0.530793115,1.0,0.75,0.0,0.31683071,True,,5f0576c2b5b074000a8664cc,,1370183,111,,evan-feature22,full_rf_b,,1
81,303,112,,,,2,2,1.0,1.0,-1.0,0.0,,0.0-109.0,,-1.0,1243.115,0.0,0.46833986,0.0,0.570249239,1.0,0.7244472590000001,1.0,0.364114163,True,,5f0576c2b5b074000a8664cc,,1381209,112,,evan-feature22,full_rf_b,,1
82,304,113,,,,2,2,1.0,0.0,-1.0,0.0,,0.0-110.0,,-1.0,1668.015,0.0,0.445444024,0.0,0.649673355,1.0,0.6845441290000001,0.0,0.300660449,True,,5f0576c2b5b074000a8664cc,,1392646,113,,evan-feature22,full_rf_b,,0
83,305,114,,,,1,1,1.0,1.0,-1.0,0.0,,0.0-111.0,,-1.0,2269.84,1.0,0.39909721299999995,1.0,0.6715179509999999,1.0,0.742310028,1.0,0.35496088299999995,True,,5f0576c2b5b074000a8664cc,,1404698,114,,evan-feature22,full_rf_b,,1
84,306,115,,,,1,1,1.0,1.0,0.0,1.0,,0.0-112.0,,1.0,765.545,1.0,0.37956104799999996,1.0,0.694725302,1.0,0.7181651309999999,1.0,0.38726906299999997,True,,5f0576c2b5b074000a8664cc,,1415229,115,,evan-feature22,full_rf_b,,0
85,307,116,,,,2,2,1.0,0.0,0.0,1.0,,0.0-113.0,,0.0,612.095,1.0,0.404995034,1.0,0.724375412,1.0,0.6910946859999999,0.0,0.387187347,True,,5f0576c2b5b074000a8664cc,,1425611,116,,evan-feature22,full_rf_b,,1
86,308,117,,,,1,1,1.0,1.0,-1.0,0.0,,0.0-114.0,,-1.0,1481.05,1.0,0.461740803,1.0,0.75,0.0,0.75,0.0,0.34872038200000005,True,,5f0576c2b5b074000a8664cc,,1436859,117,,evan-feature22,full_rf_b,,1
87,309,118,,,,1,1,1.0,1.0,-1.0,0.0,,0.0-115.0,,-1.0,2897.29,1.0,0.43821380600000004,1.0,0.738833273,1.0,0.728286963,0.0,0.399538128,True,,5f0576c2b5b074000a8664cc,,1449527,118,,evan-feature22,full_rf_b,,0
88,310,119,,,,1,1,1.0,1.0,0.0,1.0,,0.0-116.0,,1.0,453.805,1.0,0.41709882,1.0,0.736666736,1.0,0.75,1.0,0.389095584,True,,5f0576c2b5b074000a8664cc,,1459758,119,,evan-feature22,full_rf_b,,0
89,311,120,,,,1,1,1.0,1.0,0.0,1.0,,0.0-117.0,,1.0,1376.25,1.0,0.39749009799999996,1.0,0.744320029,1.0,0.75,0.0,0.363848678,True,,5f0576c2b5b074000a8664cc,,1470909,120,,evan-feature22,full_rf_b,,0
90,312,121,,,,1,1,1.0,0.0,-1.0,0.0,,0.0-118.0,,-1.0,656.19,1.0,0.392653706,0.0,0.75,1.0,0.75,0.0,0.384386976,True,,5f0576c2b5b074000a8664cc,,1481342,121,,evan-feature22,full_rf_b,,0
91,313,122,,,,2,2,1.0,1.0,0.0,1.0,,0.0-119.0,,1.0,1882.165,0.0,0.31190902600000003,0.0,0.75,1.0,0.732413819,1.0,0.413082932,True,,5f0576c2b5b074000a8664cc,,1493003,122,,evan-feature22,full_rf_b,,1
92,314,123,,,,2,2,1.0,0.0,-1.0,0.0,,0.0-120.0,,-1.0,335.45,1.0,0.366917648,1.0,0.740073855,1.0,0.75,0.0,0.352861979,True,,5f0576c2b5b074000a8664cc,,1503113,123,,evan-feature22,full_rf_b,,0
93,315,124,,,,SLOW,SLOW,,,-1.0,0.0,,0.0-121.0,,-3.0,,0.0,0.3645172,1.0,0.721770713,1.0,0.75,1.0,0.404074511,True,,5f0576c2b5b074000a8664cc,,1508924,124,,evan-feature22,full_rf_b,,1
94,316,125,,,,SLOW,SLOW,,,-1.0,0.0,,0.0-122.0,,-3.0,,0.0,0.35205600299999995,1.0,0.68983859,1.0,0.739735447,0.0,0.366895945,True,,5f0576c2b5b074000a8664cc,,1514734,125,,evan-feature22,full_rf_b,,0
95,317,126,,,,1,1,1.0,1.0,-1.0,0.0,,0.0-123.0,,-1.0,606.5150001000001,1.0,0.40998722600000004,1.0,0.720859127,1.0,0.673854955,1.0,0.368528541,True,,5f0576c2b5b074000a8664cc,,1525123,126,,evan-feature22,full_rf_b,,1
96,318,127,,,,SLOW,SLOW,,,-1.0,0.0,,0.0-124.0,,-3.0,,0.0,0.353625316,1.0,0.75,1.0,0.695605473,0.0,0.38303674200000004,True,,5f0576c2b5b074000a8664cc,,1530931,127,,evan-feature22,full_rf_b,,1
97,319,128,,,,1,1,0.0,1.0,-1.0,0.0,,0.0-125.0,,0.0,272.505,0.0,0.359216989,1.0,0.75,1.0,0.6987915090000001,1.0,0.35169046200000004,True,,5f0576c2b5b074000a8664cc,,1540982,128,,evan-feature22,full_rf_b,,1
98,320,129,,,,1,1,0.0,1.0,-1.0,0.0,,0.0-126.0,,0.0,1688.905,0.0,0.35834496899999996,1.0,0.75,1.0,0.707067742,1.0,0.416763636,True,,5f0576c2b5b074000a8664cc,,1552443,129,,evan-feature22,full_rf_b,,0
99,321,130,,,,2,2,1.0,1.0,0.0,1.0,,0.0-127.0,,1.0,385.655,0.0,0.38741613799999997,0.0,0.7177369570000001,1.0,0.734902455,1.0,0.49438664299999996,True,,5f0576c2b5b074000a8664cc,,1562609,130,,evan-feature22,full_rf_b,,1
100,322,131,,,,1,1,0.0,1.0,-1.0,0.0,,0.0-128.0,,0.0,1923.96,0.0,0.405255252,1.0,0.7300466640000001,0.0,0.7027748070000001,0.0,0.504359668,True,,5f0576c2b5b074000a8664cc,,1574311,131,,evan-feature22,full_rf_b,,1
101,323,132,,,,1,1,1.0,0.0,-1.0,0.0,,0.0-129.0,,-1.0,2539.54,1.0,0.40697073,0.0,0.7260142190000001,1.0,0.724461982,0.0,0.522779179,True,,5f0576c2b5b074000a8664cc,,1586620,132,,evan-feature22,full_rf_b,,0
102,324,133,,,,1,1,1.0,0.0,-1.0,0.0,,0.0-130.0,,-1.0,1265.08,1.0,0.43906215299999996,0.0,0.7252802340000001,0.0,0.719079934,0.0,0.5712990579999999,True,,5f0576c2b5b074000a8664cc,,1597671,133,,evan-feature22,full_rf_b,,0
103,325,134,,,,1,1,1.0,1.0,0.0,1.0,,0.0-131.0,,1.0,2636.155,1.0,0.4076705,1.0,0.73280499,0.0,0.681313127,1.0,0.523891346,True,,5f0576c2b5b074000a8664cc,,1610087,134,,evan-feature22,full_rf_b,,0
104,326,135,,,,1,1,1.0,1.0,0.0,1.0,,0.0-132.0,,1.0,986.93,1.0,0.399102911,1.0,0.730498344,1.0,0.661080239,1.0,0.46742603,True,,5f0576c2b5b074000a8664cc,,1620842,135,,evan-feature22,full_rf_b,,0
105,327,136,,,,1,1,0.0,1.0,0.0,1.0,,0.0-133.0,,1.0,702.91,0.0,0.356477282,1.0,0.712296395,1.0,0.641812684,1.0,0.44868414,True,,5f0576c2b5b074000a8664cc,,1631324,136,,evan-feature22,full_rf_b,,0
106,328,137,,,,1,1,1.0,0.0,-1.0,0.0,,0.0-134.0,,-1.0,1438.775,1.0,0.462760722,0.0,0.692349322,1.0,0.700947931,1.0,0.394680266,True,,5f0576c2b5b074000a8664cc,,1642548,137,,evan-feature22,full_rf_b,,0
107,329,138,,,,1,1,0.0,1.0,-1.0,0.0,,0.0-135.0,,0.0,1054.21,0.0,0.422306413,1.0,0.718375916,0.0,0.706340917,0.0,0.367787185,True,,5f0576c2b5b074000a8664cc,,1653379,138,,evan-feature22,full_rf_b,,0
108,331,140,,,,1,1,0.0,0.0,-1.0,0.0,,0.0-137.0,,0.0,526.585,0.0,0.4582233,0.0,0.643834117,0.0,0.75,0.0,0.39615823299999997,True,,5f0576c2b5b074000a8664cc,,1666901,140,,evan-feature22,full_rf_b,,0
109,332,141,,,,1,1,1.0,1.0,-1.0,0.0,,0.0-138.0,,-1.0,2306.275,1.0,0.43813437899999996,1.0,0.651283804,1.0,0.729674191,1.0,0.37711048,True,,5f0576c2b5b074000a8664cc,,1678988,141,,evan-feature22,full_rf_b,,0
110,333,142,,,,1,1,1.0,1.0,-1.0,0.0,,0.0-139.0,,-1.0,1569.205,1.0,0.471199094,1.0,0.6470010979999999,1.0,0.715008097,0.0,0.410656191,True,,5f0576c2b5b074000a8664cc,,1690328,142,,evan-feature22,full_rf_b,,0
111,334,143,,,,1,1,0.0,1.0,-1.0,0.0,,0.0-140.0,,0.0,1879.515,0.0,0.42486406,1.0,0.629771829,0.0,0.6550939960000001,1.0,0.459093873,True,,5f0576c2b5b074000a8664cc,,1701989,143,,evan-feature22,full_rf_b,,0
112,335,144,,,,1,1,0.0,1.0,-1.0,0.0,,0.0-141.0,,0.0,1525.81,0.0,0.4803197,1.0,0.645842715,0.0,0.6421749920000001,0.0,0.443092151,True,,5f0576c2b5b074000a8664cc,,1713293,144,,evan-feature22,full_rf_b,,0
113,336,145,,,,2,2,1.0,1.0,0.0,1.0,,0.0-142.0,,1.0,3006.73,0.0,0.521848997,0.0,0.735801074,1.0,0.6691348460000001,1.0,0.45259351600000003,True,,5f0576c2b5b074000a8664cc,,1726079,145,,evan-feature22,full_rf_b,,1
114,337,146,,,,2,2,1.0,0.0,-1.0,0.0,,0.0-143.0,,-1.0,1345.17,1.0,0.49565621299999996,0.0,0.742400847,1.0,0.661512553,0.0,0.483110831,True,,5f0576c2b5b074000a8664cc,,1737205,146,,evan-feature22,full_rf_b,,0
115,338,147,,,,1,1,0.0,1.0,-1.0,0.0,,0.0-144.0,,0.0,793.995,0.0,0.521564361,1.0,0.731078632,1.0,0.6774886809999999,0.0,0.483263956,True,,5f0576c2b5b074000a8664cc,,1747779,147,,evan-feature22,full_rf_b,,1
116,339,148,,,,1,1,1.0,1.0,-1.0,0.0,,0.0-145.0,,-1.0,6.504999998,1.0,0.558893102,1.0,0.719810023,1.0,0.67461031,1.0,0.499349834,True,,5f0576c2b5b074000a8664cc,,1757559,148,,evan-feature22,full_rf_b,,0
117,340,149,,,,1,1,0.0,1.0,-1.0,0.0,,0.0-146.0,,0.0,3322.4,0.0,0.611031046,1.0,0.75,0.0,0.688072995,0.0,0.5321422729999999,True,,5f0576c2b5b074000a8664cc,,1770661,149,,evan-feature22,full_rf_b,,0
118,341,150,,,,1,1,1.0,0.0,0.0,1.0,,0.0-147.0,,0.0,2125.82,1.0,0.633223941,0.0,0.713567728,0.0,0.75,1.0,0.48185314700000004,True,,5f0576c2b5b074000a8664cc,,1782567,150,,evan-feature22,full_rf_b,,0
119,342,151,,,,1,1,1.0,1.0,-1.0,0.0,,0.0-148.0,,-1.0,278.675,1.0,0.664001694,1.0,0.705509768,0.0,0.75,0.0,0.500211065,True,,5f0576c2b5b074000a8664cc,,1792621,151,,evan-feature22,full_rf_b,,0
120,343,152,,,,2,2,1.0,0.0,-1.0,0.0,,0.0-149.0,,-1.0,410.5,1.0,0.664001694,0.0,0.705509768,1.0,0.75,0.0,0.500211065,True,,5f0576c2b5b074000a8664cc,,1802803,152,,evan-feature22,full_rf_b,,1
121,344,153,,,,1,1,1.0,0.0,-1.0,0.0,,0.0-150.0,,-1.0,895.19,1.0,0.696508041,0.0,0.71066027,0.0,0.717028709,0.0,0.49792991,True,,5f0576c2b5b074000a8664cc,,1813480,153,,evan-feature22,full_rf_b,,1
122,345,154,,,,2,2,1.0,1.0,0.0,1.0,,0.0-151.0,,1.0,331.335,1.0,0.699883272,1.0,0.75,1.0,0.713543895,1.0,0.496962643,True,,5f0576c2b5b074000a8664cc,,1823574,154,,evan-feature22,full_rf_b,,1
123,346,155,,,,1,1,0.0,0.0,0.0,1.0,,0.0-152.0,,0.0,398.75,0.0,0.741163419,0.0,0.75,1.0,0.64691024,1.0,0.513858197,True,,5f0576c2b5b074000a8664cc,,1833745,155,,evan-feature22,full_rf_b,,1
124,347,156,,,,2,2,0.0,0.0,0.0,1.0,,0.0-153.0,,0.0,886.73,1.0,0.75,1.0,0.70816558,0.0,0.594499079,0.0,0.48502124,True,,5f0576c2b5b074000a8664cc,,1844399,156,,evan-feature22,full_rf_b,,1
125,348,157,,,,1,1,1.0,0.0,-1.0,0.0,,0.0-154.0,,-1.0,402.0,1.0,0.75,0.0,0.721848901,0.0,0.62197249,1.0,0.48263586399999997,True,,5f0576c2b5b074000a8664cc,,1854587,157,,evan-feature22,full_rf_b,,1
126,349,158,,,,1,1,1.0,1.0,-1.0,0.0,,0.0-155.0,,-1.0,934.81,1.0,0.75,1.0,0.74813071,0.0,0.584357161,1.0,0.411477782,True,,5f0576c2b5b074000a8664cc,,1865298,158,,evan-feature22,full_rf_b,,0
127,350,159,,,,2,2,1.0,0.0,-1.0,0.0,,0.0-156.0,,-1.0,1465.015,1.0,0.75,1.0,0.75,1.0,0.52287236,0.0,0.488290656,True,,5f0576c2b5b074000a8664cc,,1878460,159,,evan-feature22,full_rf_b,,1
128,351,160,,,,1,1,0.0,1.0,-1.0,0.0,,0.0-157.0,,0.0,388.31,0.0,0.75,1.0,0.75,0.0,0.544321581,1.0,0.53143059,True,,5f0576c2b5b074000a8664cc,,1888621,160,,evan-feature22,full_rf_b,,1
129,352,161,,,,1,1,0.0,0.0,-1.0,0.0,,0.0-158.0,,0.0,416.17,0.0,0.726754564,0.0,0.75,1.0,0.5129306370000001,0.0,0.530592445,True,,5f0576c2b5b074000a8664cc,,1898815,161,,evan-feature22,full_rf_b,,0
130,353,162,,,,SLOW,SLOW,,,0.0,1.0,,0.0-159.0,,-3.0,,1.0,0.75,1.0,0.7392590729999999,1.0,0.479875835,1.0,0.547007051,True,,5f0576c2b5b074000a8664cc,,1904629,162,,evan-feature22,full_rf_b,,1
131,354,163,,,,SLOW,SLOW,,,0.0,1.0,,0.0-160.0,,-3.0,,1.0,0.75,1.0,0.7393376979999999,0.0,0.546045419,0.0,0.541267353,True,,5f0576c2b5b074000a8664cc,,1910441,163,,evan-feature22,full_rf_b,,0
132,355,164,,,,SLOW,SLOW,,,-1.0,0.0,,0.0-161.0,,-3.0,,1.0,0.75,0.0,0.75,1.0,0.485725895,1.0,0.527625395,True,,5f0576c2b5b074000a8664cc,,1916252,164,,evan-feature22,full_rf_b,,0
133,356,165,,,,1,1,1.0,0.0,0.0,1.0,,0.0-162.0,,0.0,2638.775,1.0,0.75,0.0,0.725087974,0.0,0.488603595,0.0,0.504019206,True,,5f0576c2b5b074000a8664cc,,1928662,165,,evan-feature22,full_rf_b,,1
134,357,166,,,,1,1,1.0,1.0,-1.0,0.0,,0.0-163.0,,-1.0,790.73,1.0,0.745504295,1.0,0.75,0.0,0.452379914,0.0,0.50131194,True,,5f0576c2b5b074000a8664cc,,1939227,166,,evan-feature22,full_rf_b,,0
135,358,167,,,,1,1,0.0,1.0,0.0,1.0,,0.0-164.0,,1.0,1546.485,0.0,0.728513874,1.0,0.75,0.0,0.44125567200000004,0.0,0.531454591,True,,5f0576c2b5b074000a8664cc,,1950552,167,,evan-feature22,full_rf_b,,0
136,359,168,,,,1,1,1.0,1.0,-1.0,0.0,,0.0-165.0,,-1.0,2319.83,1.0,0.73790804,1.0,0.75,1.0,0.413036656,1.0,0.524619035,True,,5f0576c2b5b074000a8664cc,,1962648,168,,evan-feature22,full_rf_b,,0
137,360,169,,,,SLOW,SLOW,,,-1.0,0.0,,0.0-166.0,,-3.0,,1.0,0.7080961309999999,1.0,0.708666865,1.0,0.431915581,1.0,0.481819489,True,,5f0576c2b5b074000a8664cc,,1968460,169,,evan-feature22,full_rf_b,,1
138,361,170,,,,SLOW,SLOW,,,-1.0,0.0,,0.0-167.0,,-3.0,,1.0,0.721378003,1.0,0.71605913,1.0,0.36642387,0.0,0.5036739929999999,True,,5f0576c2b5b074000a8664cc,,1974272,170,,evan-feature22,full_rf_b,,0
139,362,171,,,,1,1,0.0,1.0,0.0,1.0,,0.0-168.0,,1.0,1697.79,0.0,0.7340618959999999,1.0,0.699323252,0.0,0.35298046299999997,0.0,0.511241692,True,,5f0576c2b5b074000a8664cc,,1985745,171,,evan-feature22,full_rf_b,,1
140,363,172,,,,1,1,0.0,1.0,0.0,1.0,,0.0-169.0,,1.0,1741.375,0.0,0.75,1.0,0.70412698,0.0,0.380734814,0.0,0.529580116,True,,5f0576c2b5b074000a8664cc,,1997270,172,,evan-feature22,full_rf_b,,0
141,364,173,,,,1,1,1.0,1.0,0.0,1.0,,0.0-170.0,,1.0,1007.835,1.0,0.7436654909999999,1.0,0.711182751,0.0,0.41125331,0.0,0.49554405,True,,5f0576c2b5b074000a8664cc,,2008054,173,,evan-feature22,full_rf_b,,0
142,365,174,,,,1,1,1.0,1.0,-1.0,0.0,,0.0-171.0,,-1.0,678.03,1.0,0.731607915,1.0,0.651774583,1.0,0.35688023,0.0,0.45194491600000003,True,,5f0576c2b5b074000a8664cc,,2018515,174,,evan-feature22,full_rf_b,,0
143,366,175,,,,1,1,1.0,1.0,0.0,1.0,,0.0-172.0,,1.0,113.82,1.0,0.75,1.0,0.75,1.0,0.283145374,1.0,0.528608005,True,,5f0576c2b5b074000a8664cc,,2028414,175,,evan-feature22,full_rf_b,,0
144,367,176,,,,1,1,1.0,0.0,-1.0,0.0,,0.0-173.0,,-1.0,267.845,1.0,0.7491416890000001,0.0,0.7423785959999999,1.0,0.29135870399999997,0.0,0.498888318,True,,5f0576c2b5b074000a8664cc,,2038452,176,,evan-feature22,full_rf_b,,0
145,368,177,,,,1,1,0.0,1.0,0.0,1.0,,0.0-174.0,,1.0,410.165,0.0,0.708569387,1.0,0.717682277,1.0,0.294421699,0.0,0.493838163,True,,5f0576c2b5b074000a8664cc,,2048642,177,,evan-feature22,full_rf_b,,0
146,369,178,,,,1,1,1.0,1.0,-1.0,0.0,,0.0-175.0,,-1.0,1216.21,1.0,0.75,1.0,0.7383382159999999,0.0,0.356098707,0.0,0.442533405,True,,5f0576c2b5b074000a8664cc,,2059645,178,,evan-feature22,full_rf_b,,0
147,370,179,,,,1,1,1.0,1.0,-1.0,0.0,,0.0-176.0,,-1.0,483.36,1.0,0.744527075,1.0,0.75,1.0,0.334127506,0.0,0.393165805,True,,5f0576c2b5b074000a8664cc,,2069906,179,,evan-feature22,full_rf_b,,0
148,371,180,,,,1,1,1.0,0.0,-1.0,0.0,,0.0-177.0,,-1.0,62.29000003,1.0,0.75,0.0,0.75,0.0,0.33571021799999995,1.0,0.350393962,True,,5f0576c2b5b074000a8664cc,,2079751,180,,evan-feature22,full_rf_b,,0
149,372,181,,,,1,1,0.0,1.0,0.0,1.0,,0.0-178.0,,1.0,619.185,0.0,0.75,1.0,0.75,0.0,0.313628297,0.0,0.36349657399999996,True,,5f0576c2b5b074000a8664cc,,2090147,181,,evan-feature22,full_rf_b,,0
150,373,182,,,,1,1,1.0,1.0,-1.0,0.0,,0.0-179.0,,-1.0,992.415,1.0,0.75,1.0,0.734284182,0.0,0.262667667,1.0,0.380199119,True,,5f0576c2b5b074000a8664cc,,2100907,182,,evan-feature22,full_rf_b,,0
151,374,183,,,,1,1,1.0,0.0,-1.0,0.0,,0.0-180.0,,-1.0,264.835,1.0,0.75,0.0,0.75,0.0,0.25,1.0,0.394494013,True,,5f0576c2b5b074000a8664cc,,2110949,183,,evan-feature22,full_rf_b,,0
152,375,184,,,,2,2,1.0,0.0,-1.0,0.0,,0.0-181.0,,-1.0,216.3,1.0,0.722298145,1.0,0.7357822340000001,1.0,0.25,0.0,0.319142121,True,,5f0576c2b5b074000a8664cc,,2120945,184,,evan-feature22,full_rf_b,,1
153,376,185,,,,1,1,1.0,0.0,-1.0,0.0,,0.0-182.0,,-1.0,211.87,1.0,0.73149275,0.0,0.724276446,0.0,0.305856907,0.0,0.281315057,True,,5f0576c2b5b074000a8664cc,,2130929,185,,evan-feature22,full_rf_b,,1
154,377,186,,,,1,1,0.0,1.0,-1.0,0.0,,0.0-183.0,,0.0,202.135,0.0,0.7458732690000001,1.0,0.7336382459999999,0.0,0.272571964,1.0,0.266021999,True,,5f0576c2b5b074000a8664cc,,2140912,186,,evan-feature22,full_rf_b,,0
155,378,187,,,,2,2,1.0,0.0,0.0,1.0,,0.0-184.0,,0.0,205.105,1.0,0.705579037,1.0,0.720778292,1.0,0.320238144,0.0,0.30971744,True,,5f0576c2b5b074000a8664cc,,2150877,187,,evan-feature22,full_rf_b,,1
156,379,188,,,,2,2,1.0,0.0,0.0,1.0,,0.0-185.0,,0.0,3373.425,1.0,0.700425648,1.0,0.7198784009999999,1.0,0.272590393,0.0,0.304182931,True,,5f0576c2b5b074000a8664cc,,2164025,188,,evan-feature22,full_rf_b,,0
157,380,189,,,,1,1,1.0,0.0,0.0,1.0,,0.0-186.0,,0.0,378.655,1.0,0.735590785,0.0,0.722714973,1.0,0.25,0.0,0.323421091,True,,5f0576c2b5b074000a8664cc,,2174183,189,,evan-feature22,full_rf_b,,1
158,381,190,,,,2,2,1.0,0.0,0.0,1.0,,0.0-187.0,,0.0,1607.22,1.0,0.724807662,1.0,0.63146213,1.0,0.36836492600000004,0.0,0.34592153299999995,True,,5f0576c2b5b074000a8664cc,,2185574,190,,evan-feature22,full_rf_b,,1
159,382,191,,,,2,2,0.0,1.0,-1.0,0.0,,0.0-188.0,,0.0,77.93000003,1.0,0.7352796909999999,0.0,0.555111392,0.0,0.36003922,1.0,0.31433779999999995,True,,5f0576c2b5b074000a8664cc,,2195424,191,,evan-feature22,full_rf_b,,0
160,383,192,notice,,,,,,,,,,0.0-189.0,"{""Q0"":""More of the yellow aliens""}",,17845.0,,,,,,,,,True,,5f0576c2b5b074000a8664cc,,2213271,192,Q,survey-text,full_rf_b,,1
161,384,193,track1,,[1],,,,,,,,0.0-190.0,"{""Q0"":""no""}",,3703.0,,,,,,,,,True,,5f0576c2b5b074000a8664cc,,2216977,193,Q,evan-quiz,full_rf_b,,1
162,385,194,track2,,[0],,,,,,,,0.0-191.0,"{""Q0"":""yes""}",,6422.0,,,,,,,,,True,,5f0576c2b5b074000a8664cc,,2223401,194,Q,evan-quiz,full_rf_b,,1
163,386,195,strat,,,,,,,,,,0.0-192.0,"{""Q0"":""Tried to find the pattern for more yellow aliens""}",,14574.0,,,,,,,,,True,,5f0576c2b5b074000a8664cc,,2237976,195,Q,survey-text,full_rf_b,,1
