,index,Unnamed: 0,Q_name,button_pressed,choice_idxs,chosen_pos,chosen_state,chosen_state_f_1_outcome,chosen_state_f_2_outcome,f_1_reward,f_2_reward,incor_questions,internal_node_id,responses,reward_received,rt,s_1_f_1_outcome,s_1_f_1_prob,s_1_f_2_outcome,s_1_f_2_prob,s_2_f_1_outcome,s_2_f_1_prob,s_2_f_2_outcome,s_2_f_2_prob,safe_first,stimulus,subjectID,success,time_elapsed,trial_index,trial_num,trial_type,version,view_history,switching
0,16145,30,,,,2,2,0.0,0.0,0.0,-1.0,,0.0-27.0,,0.0,2282.0,0.0,0.6,1.0,0.6,0.0,0.4,0.0,0.4,False,,5ed12660a41e2603213e1f87,,884114,30,,evan-feature22,full_pf_a,,0
1,16146,31,,,,2,2,0.0,0.0,0.0,-1.0,,0.0-28.0,,0.0,1926.0,1.0,0.608053294,0.0,0.63424552,0.0,0.397152172,0.0,0.347069101,False,,5ed12660a41e2603213e1f87,,895804,31,,evan-feature22,full_pf_a,,0
2,16147,32,,,,2,2,0.0,0.0,0.0,-1.0,,0.0-29.0,,0.0,2280.0,0.0,0.642237155,1.0,0.648566321,0.0,0.389407674,0.0,0.285525717,False,,5ed12660a41e2603213e1f87,,907845,32,,evan-feature22,full_pf_a,,0
3,16148,33,,,,1,1,0.0,1.0,0.0,-1.0,,0.0-30.0,,-1.0,1680.0,0.0,0.661086576,1.0,0.630492543,1.0,0.399058924,0.0,0.25,False,,5ed12660a41e2603213e1f87,,919287,33,,evan-feature22,full_pf_a,,1
4,16149,34,,,,2,2,1.0,1.0,0.0,-1.0,,0.0-31.0,,-1.0,437.0,1.0,0.631324137,1.0,0.6269842929999999,1.0,0.38734784299999997,1.0,0.25,False,,5ed12660a41e2603213e1f87,,929487,34,,evan-feature22,full_pf_a,,1
5,16150,35,,,,2,2,0.0,0.0,0.0,-1.0,,0.0-32.0,,0.0,1167.0,0.0,0.6381991370000001,1.0,0.68987999,0.0,0.384107265,0.0,0.271332943,False,,5ed12660a41e2603213e1f87,,940415,35,,evan-feature22,full_pf_a,,0
6,16151,36,,,,1,1,1.0,1.0,0.0,-1.0,,0.0-33.0,,-1.0,1039.0,1.0,0.66034901,1.0,0.742641349,0.0,0.360225629,0.0,0.25,False,,5ed12660a41e2603213e1f87,,951219,36,,evan-feature22,full_pf_a,,1
7,16152,37,,,,2,2,1.0,0.0,1.0,0.0,,0.0-34.0,,1.0,988.0,1.0,0.638612418,1.0,0.75,1.0,0.367273939,0.0,0.25,False,,5ed12660a41e2603213e1f87,,961969,37,,evan-feature22,full_pf_a,,1
8,16153,38,,,,2,2,1.0,0.0,0.0,-1.0,,0.0-35.0,,0.0,815.0,0.0,0.624340629,1.0,0.75,1.0,0.425829545,0.0,0.25,False,,5ed12660a41e2603213e1f87,,972546,38,,evan-feature22,full_pf_a,,0
9,16154,39,,,,2,2,0.0,0.0,0.0,-1.0,,0.0-36.0,,0.0,619.0,1.0,0.621999804,1.0,0.75,0.0,0.368609357,0.0,0.25,False,,5ed12660a41e2603213e1f87,,982928,39,,evan-feature22,full_pf_a,,0
10,16155,40,,,,2,2,0.0,0.0,1.0,0.0,,0.0-37.0,,0.0,1073.0,1.0,0.62666403,0.0,0.75,0.0,0.311151498,0.0,0.25,False,,5ed12660a41e2603213e1f87,,993761,40,,evan-feature22,full_pf_a,,0
11,16156,41,,,,2,2,0.0,1.0,1.0,0.0,,0.0-38.0,,0.0,777.0,1.0,0.6819650009999999,1.0,0.75,0.0,0.310763048,1.0,0.25,False,,5ed12660a41e2603213e1f87,,1004301,41,,evan-feature22,full_pf_a,,0
12,16157,42,,,,1,1,0.0,0.0,0.0,-1.0,,0.0-39.0,,0.0,751.0,0.0,0.740626951,0.0,0.75,1.0,0.25,0.0,0.25,False,,5ed12660a41e2603213e1f87,,1014812,42,,evan-feature22,full_pf_a,,1
13,16158,43,,,,2,2,0.0,1.0,0.0,-1.0,,0.0-40.0,,-1.0,979.0,1.0,0.739599242,1.0,0.742034978,0.0,0.25397114600000004,1.0,0.25,False,,5ed12660a41e2603213e1f87,,1025554,43,,evan-feature22,full_pf_a,,1
14,16159,44,,,,1,1,0.0,1.0,0.0,-1.0,,0.0-41.0,,-1.0,998.0,0.0,0.732341315,1.0,0.72735643,0.0,0.25,0.0,0.25,False,,5ed12660a41e2603213e1f87,,1036314,44,,evan-feature22,full_pf_a,,1
15,16160,45,,,,1,1,1.0,1.0,0.0,-1.0,,0.0-42.0,,-1.0,717.0,1.0,0.7062287770000001,1.0,0.75,0.0,0.29002151,0.0,0.288256649,False,,5ed12660a41e2603213e1f87,,1046791,45,,evan-feature22,full_pf_a,,0
16,16161,46,,,,2,2,1.0,1.0,1.0,0.0,,0.0-43.0,,1.0,969.0,1.0,0.7086029209999999,1.0,0.75,1.0,0.274129113,1.0,0.262851608,False,,5ed12660a41e2603213e1f87,,1057520,46,,evan-feature22,full_pf_a,,1
17,16162,47,,,,2,2,0.0,1.0,0.0,-1.0,,0.0-44.0,,-1.0,729.0,0.0,0.669189651,1.0,0.727614338,0.0,0.298444036,1.0,0.296944518,False,,5ed12660a41e2603213e1f87,,1068011,47,,evan-feature22,full_pf_a,,0
18,16163,48,,,,2,2,0.0,0.0,1.0,0.0,,0.0-45.0,,0.0,659.0,1.0,0.6819912929999999,1.0,0.7179434290000001,0.0,0.265003961,0.0,0.28157921199999997,False,,5ed12660a41e2603213e1f87,,1078430,48,,evan-feature22,full_pf_a,,0
19,16164,49,,,,1,1,1.0,0.0,1.0,0.0,,0.0-46.0,,1.0,654.0,1.0,0.665275002,0.0,0.723065271,0.0,0.260414971,1.0,0.30973870000000003,False,,5ed12660a41e2603213e1f87,,1088846,49,,evan-feature22,full_pf_a,,1
20,16165,50,,,,1,1,0.0,1.0,0.0,-1.0,,0.0-47.0,,-1.0,509.0,0.0,0.6660593260000001,1.0,0.728032907,1.0,0.30922817,0.0,0.338778608,False,,5ed12660a41e2603213e1f87,,1099115,50,,evan-feature22,full_pf_a,,0
21,16166,51,,,,1,1,1.0,1.0,0.0,-1.0,,0.0-48.0,,-1.0,427.0,1.0,0.702068785,1.0,0.6528750879999999,0.0,0.287329608,1.0,0.35789613200000003,False,,5ed12660a41e2603213e1f87,,1109307,51,,evan-feature22,full_pf_a,,0
22,16167,52,,,,2,2,0.0,1.0,0.0,-1.0,,0.0-49.0,,-1.0,458.0,1.0,0.651939787,0.0,0.636725589,0.0,0.284834488,1.0,0.358563756,False,,5ed12660a41e2603213e1f87,,1119527,52,,evan-feature22,full_pf_a,,1
23,16168,53,,,,1,1,1.0,0.0,0.0,-1.0,,0.0-50.0,,0.0,634.0,1.0,0.67573929,0.0,0.612550049,0.0,0.37130387600000003,1.0,0.383542402,False,,5ed12660a41e2603213e1f87,,1129921,53,,evan-feature22,full_pf_a,,1
24,16169,54,,,,1,1,1.0,1.0,0.0,-1.0,,0.0-51.0,,-1.0,554.0,1.0,0.620753801,1.0,0.60513644,0.0,0.385529434,0.0,0.340361743,False,,5ed12660a41e2603213e1f87,,1140236,54,,evan-feature22,full_pf_a,,0
25,16170,55,,,,2,2,0.0,0.0,1.0,0.0,,0.0-52.0,,0.0,749.0,1.0,0.673564893,0.0,0.672437924,0.0,0.292955382,0.0,0.337633795,False,,5ed12660a41e2603213e1f87,,1150746,55,,evan-feature22,full_pf_a,,1
26,16171,56,,,,2,2,0.0,0.0,0.0,-1.0,,0.0-53.0,,0.0,516.0,1.0,0.6749427,1.0,0.724197502,0.0,0.32391132100000003,0.0,0.350995264,False,,5ed12660a41e2603213e1f87,,1161023,56,,evan-feature22,full_pf_a,,0
27,16172,57,,,,2,2,0.0,1.0,0.0,-1.0,,0.0-54.0,,-1.0,1827.0,1.0,0.6940159379999999,1.0,0.75,0.0,0.31710554399999996,1.0,0.413450341,False,,5ed12660a41e2603213e1f87,,1172611,57,,evan-feature22,full_pf_a,,0
28,16173,58,,,,1,1,0.0,1.0,0.0,-1.0,,0.0-55.0,,-1.0,1601.0,0.0,0.6916018270000001,1.0,0.69001187,0.0,0.261817804,1.0,0.40038635,False,,5ed12660a41e2603213e1f87,,1183974,58,,evan-feature22,full_pf_a,,1
29,16174,59,,,,2,2,1.0,0.0,0.0,-1.0,,0.0-56.0,,0.0,1076.0,1.0,0.641061544,1.0,0.71337992,1.0,0.277296461,0.0,0.47372791700000005,False,,5ed12660a41e2603213e1f87,,1194811,59,,evan-feature22,full_pf_a,,1
30,16175,60,,,,2,2,0.0,1.0,0.0,-1.0,,0.0-57.0,,-1.0,880.0,1.0,0.6082438520000001,1.0,0.708471106,0.0,0.28745137,1.0,0.564174476,False,,5ed12660a41e2603213e1f87,,1205452,60,,evan-feature22,full_pf_a,,0
31,16176,61,,,,1,1,1.0,1.0,1.0,0.0,,0.0-58.0,,1.0,549.0,1.0,0.6051112120000001,1.0,0.7118147229999999,0.0,0.272390611,0.0,0.5595149939999999,False,,5ed12660a41e2603213e1f87,,1215763,61,,evan-feature22,full_pf_a,,1
32,16177,62,,,,1,1,1.0,1.0,1.0,0.0,,0.0-59.0,,1.0,661.0,1.0,0.582420852,1.0,0.635867583,1.0,0.31089574,1.0,0.5227206520000001,False,,5ed12660a41e2603213e1f87,,1226184,62,,evan-feature22,full_pf_a,,0
33,16178,63,,,,1,1,1.0,0.0,1.0,0.0,,0.0-60.0,,1.0,598.0,1.0,0.623195575,0.0,0.655026044,1.0,0.25,1.0,0.560387538,False,,5ed12660a41e2603213e1f87,,1236543,63,,evan-feature22,full_pf_a,,0
34,16179,64,,,,1,1,1.0,1.0,0.0,-1.0,,0.0-61.0,,-1.0,644.0,1.0,0.601889598,1.0,0.678198724,1.0,0.25,0.0,0.559922936,False,,5ed12660a41e2603213e1f87,,1246948,64,,evan-feature22,full_pf_a,,0
35,16180,65,,,,1,1,0.0,1.0,1.0,0.0,,0.0-62.0,,0.0,1299.0,0.0,0.601259914,1.0,0.704681482,0.0,0.33908969299999997,0.0,0.505003715,False,,5ed12660a41e2603213e1f87,,1258006,65,,evan-feature22,full_pf_a,,0
36,16181,66,,,,2,2,1.0,0.0,1.0,0.0,,0.0-63.0,,1.0,605.0,0.0,0.59645454,1.0,0.710437172,1.0,0.327441879,0.0,0.391749613,False,,5ed12660a41e2603213e1f87,,1268372,66,,evan-feature22,full_pf_a,,1
37,16182,67,,,,2,2,0.0,1.0,0.0,-1.0,,0.0-64.0,,-1.0,603.0,1.0,0.529473,1.0,0.636758527,0.0,0.301338063,1.0,0.365661481,False,,5ed12660a41e2603213e1f87,,1278735,67,,evan-feature22,full_pf_a,,0
38,16183,68,,,,1,1,0.0,0.0,1.0,0.0,,0.0-65.0,,0.0,580.0,0.0,0.541657162,0.0,0.634541962,0.0,0.343535366,0.0,0.371763742,False,,5ed12660a41e2603213e1f87,,1289074,68,,evan-feature22,full_pf_a,,1
39,16184,69,,,,2,2,0.0,0.0,1.0,0.0,,0.0-66.0,,0.0,1148.0,0.0,0.5707533260000001,1.0,0.589121171,0.0,0.326428396,0.0,0.43961622899999997,False,,5ed12660a41e2603213e1f87,,1299982,69,,evan-feature22,full_pf_a,,1
40,16185,70,,,,2,2,0.0,1.0,0.0,-1.0,,0.0-67.0,,-1.0,928.0,1.0,0.5707533260000001,0.0,0.589121171,0.0,0.326428396,1.0,0.43961622899999997,False,,5ed12660a41e2603213e1f87,,1310672,70,,evan-feature22,full_pf_a,,0
41,16186,71,,,,2,2,1.0,1.0,0.0,-1.0,,0.0-68.0,,-1.0,731.0,1.0,0.506271295,1.0,0.641775594,1.0,0.37149690700000004,1.0,0.404330166,False,,5ed12660a41e2603213e1f87,,1321166,71,,evan-feature22,full_pf_a,,0
42,16187,72,,,,1,1,0.0,0.0,1.0,0.0,,0.0-69.0,,0.0,550.0,0.0,0.455642565,0.0,0.623605825,0.0,0.358753011,0.0,0.346174041,False,,5ed12660a41e2603213e1f87,,1331474,72,,evan-feature22,full_pf_a,,1
43,16188,73,,,,1,1,0.0,1.0,0.0,-1.0,,0.0-70.0,,-1.0,1114.0,0.0,0.483677308,1.0,0.5904681070000001,0.0,0.402218411,0.0,0.35344697,False,,5ed12660a41e2603213e1f87,,1342346,73,,evan-feature22,full_pf_a,,0
44,16189,74,,,,2,2,0.0,1.0,1.0,0.0,,0.0-71.0,,0.0,1039.0,0.0,0.394210977,1.0,0.558925494,0.0,0.540052017,1.0,0.35182128700000004,False,,5ed12660a41e2603213e1f87,,1353145,74,,evan-feature22,full_pf_a,,1
45,16190,75,,,,1,1,0.0,1.0,0.0,-1.0,,0.0-72.0,,-1.0,544.0,0.0,0.382300414,1.0,0.577670603,0.0,0.607608448,1.0,0.378261578,False,,5ed12660a41e2603213e1f87,,1363452,75,,evan-feature22,full_pf_a,,1
46,16191,76,,,,1,1,0.0,0.0,1.0,0.0,,0.0-73.0,,0.0,802.0,0.0,0.357596762,0.0,0.5929076529999999,0.0,0.6579790010000001,0.0,0.401326777,False,,5ed12660a41e2603213e1f87,,1374013,76,,evan-feature22,full_pf_a,,0
47,16192,77,,,,1,1,1.0,0.0,0.0,-1.0,,0.0-74.0,,0.0,866.0,1.0,0.362033495,0.0,0.582308608,1.0,0.649195052,0.0,0.355158505,False,,5ed12660a41e2603213e1f87,,1384640,77,,evan-feature22,full_pf_a,,0
48,16193,78,,,,2,2,1.0,1.0,0.0,-1.0,,0.0-75.0,,-1.0,486.0,0.0,0.369620635,1.0,0.669100864,1.0,0.706059111,1.0,0.362516241,False,,5ed12660a41e2603213e1f87,,1394889,78,,evan-feature22,full_pf_a,,1
49,16194,79,,,,1,1,1.0,1.0,0.0,-1.0,,0.0-76.0,,-1.0,482.0,1.0,0.41477751399999996,1.0,0.7284416779999999,1.0,0.7182656940000001,0.0,0.36228040899999997,False,,5ed12660a41e2603213e1f87,,1405133,79,,evan-feature22,full_pf_a,,1
50,16195,80,,,,2,2,0.0,1.0,1.0,0.0,,0.0-77.0,,0.0,470.0,1.0,0.37675460299999997,1.0,0.703250285,0.0,0.75,1.0,0.461979164,False,,5ed12660a41e2603213e1f87,,1415363,80,,evan-feature22,full_pf_a,,1
51,16196,81,,,,2,2,1.0,0.0,1.0,0.0,,0.0-78.0,,1.0,511.0,1.0,0.398716075,1.0,0.6723864890000001,1.0,0.674153818,0.0,0.519029516,False,,5ed12660a41e2603213e1f87,,1425640,81,,evan-feature22,full_pf_a,,0
52,16197,82,,,,2,2,1.0,1.0,1.0,0.0,,0.0-79.0,,1.0,537.0,1.0,0.34677856700000004,0.0,0.69057175,1.0,0.6822438540000001,1.0,0.477292237,False,,5ed12660a41e2603213e1f87,,1435938,82,,evan-feature22,full_pf_a,,0
53,16198,83,,,,2,2,0.0,1.0,0.0,-1.0,,0.0-80.0,,-1.0,518.0,1.0,0.28580469199999997,0.0,0.68408818,0.0,0.684207565,1.0,0.49780448299999996,False,,5ed12660a41e2603213e1f87,,1446216,83,,evan-feature22,full_pf_a,,0
54,16200,85,,,,2,2,1.0,0.0,0.0,-1.0,,0.0-82.0,,0.0,1652.0,0.0,0.25,1.0,0.7405808970000001,1.0,0.679614108,0.0,0.436436964,False,,5ed12660a41e2603213e1f87,,1663584,85,,evan-feature22,full_pf_a,,0
55,16201,86,,,,2,2,1.0,1.0,0.0,-1.0,,0.0-83.0,,-1.0,661.0,0.0,0.29890393,1.0,0.730505706,1.0,0.7328203320000001,1.0,0.439256938,False,,5ed12660a41e2603213e1f87,,1674007,86,,evan-feature22,full_pf_a,,0
56,16202,87,,,,2,2,1.0,0.0,1.0,0.0,,0.0-84.0,,1.0,835.0,0.0,0.326762398,0.0,0.7148059609999999,1.0,0.75,0.0,0.44389608799999997,False,,5ed12660a41e2603213e1f87,,1684603,87,,evan-feature22,full_pf_a,,0
57,16203,88,,,,2,2,0.0,0.0,0.0,-1.0,,0.0-85.0,,0.0,573.0,0.0,0.295168515,1.0,0.739760854,0.0,0.719947008,0.0,0.35277284600000003,False,,5ed12660a41e2603213e1f87,,1694935,88,,evan-feature22,full_pf_a,,0
58,16204,89,,,,2,2,1.0,0.0,0.0,-1.0,,0.0-86.0,,0.0,586.0,1.0,0.25,0.0,0.70781482,1.0,0.75,0.0,0.286095925,False,,5ed12660a41e2603213e1f87,,1705284,89,,evan-feature22,full_pf_a,,0
59,16205,90,,,,2,2,0.0,0.0,0.0,-1.0,,0.0-87.0,,0.0,649.0,0.0,0.25638190899999996,1.0,0.704088163,0.0,0.75,0.0,0.26872601399999996,False,,5ed12660a41e2603213e1f87,,1715693,90,,evan-feature22,full_pf_a,,0
60,16206,91,,,,2,2,1.0,0.0,1.0,0.0,,0.0-88.0,,1.0,586.0,0.0,0.271581126,1.0,0.669760107,1.0,0.733896663,0.0,0.273244572,False,,5ed12660a41e2603213e1f87,,1726041,91,,evan-feature22,full_pf_a,,0
61,16207,92,,,,2,2,1.0,0.0,0.0,-1.0,,0.0-89.0,,0.0,645.0,1.0,0.257144401,1.0,0.600575706,1.0,0.74488122,0.0,0.25,False,,5ed12660a41e2603213e1f87,,1736448,92,,evan-feature22,full_pf_a,,0
62,16208,93,,,,2,2,0.0,0.0,0.0,-1.0,,0.0-90.0,,0.0,816.0,0.0,0.25,0.0,0.616870026,0.0,0.723610234,0.0,0.25,False,,5ed12660a41e2603213e1f87,,1747023,93,,evan-feature22,full_pf_a,,0
63,16209,94,,,,2,2,1.0,0.0,1.0,0.0,,0.0-91.0,,1.0,1025.0,1.0,0.25,1.0,0.583540187,1.0,0.7041042559999999,0.0,0.285961995,False,,5ed12660a41e2603213e1f87,,1757809,94,,evan-feature22,full_pf_a,,0
64,16210,95,,,,2,2,1.0,0.0,1.0,0.0,,0.0-92.0,,1.0,604.0,0.0,0.27254536,0.0,0.53875765,1.0,0.693783448,0.0,0.284961652,False,,5ed12660a41e2603213e1f87,,1768173,95,,evan-feature22,full_pf_a,,0
65,16211,96,,,,2,2,1.0,0.0,1.0,0.0,,0.0-93.0,,1.0,265.0,0.0,0.25,1.0,0.548431252,1.0,0.734221895,0.0,0.279445214,False,,5ed12660a41e2603213e1f87,,1778199,96,,evan-feature22,full_pf_a,,0
66,16212,97,,,,2,2,1.0,0.0,0.0,-1.0,,0.0-94.0,,0.0,556.0,1.0,0.258640684,1.0,0.545878066,1.0,0.725245965,0.0,0.31487537,False,,5ed12660a41e2603213e1f87,,1788515,97,,evan-feature22,full_pf_a,,0
67,16213,98,,,,2,2,1.0,0.0,0.0,-1.0,,0.0-95.0,,0.0,493.0,1.0,0.251103711,1.0,0.5776290629999999,1.0,0.696320133,0.0,0.317831047,False,,5ed12660a41e2603213e1f87,,1798768,98,,evan-feature22,full_pf_a,,0
68,16214,99,,,,2,2,1.0,1.0,0.0,-1.0,,0.0-96.0,,-1.0,695.0,0.0,0.276630292,1.0,0.617329858,1.0,0.73838088,1.0,0.261471582,False,,5ed12660a41e2603213e1f87,,1809225,99,,evan-feature22,full_pf_a,,0
69,16215,100,,,,2,2,1.0,0.0,0.0,-1.0,,0.0-97.0,,0.0,2251.0,0.0,0.297716424,0.0,0.618863717,1.0,0.7402358259999999,0.0,0.262600834,False,,5ed12660a41e2603213e1f87,,1821238,100,,evan-feature22,full_pf_a,,0
70,16216,101,,,,2,2,1.0,1.0,1.0,0.0,,0.0-98.0,,1.0,705.0,1.0,0.290935512,0.0,0.695370945,1.0,0.706570507,1.0,0.280030553,False,,5ed12660a41e2603213e1f87,,1831704,101,,evan-feature22,full_pf_a,,0
71,16217,102,,,,2,2,1.0,0.0,0.0,-1.0,,0.0-99.0,,0.0,498.0,1.0,0.25,1.0,0.6465277079999999,1.0,0.67766682,0.0,0.25,False,,5ed12660a41e2603213e1f87,,1841966,102,,evan-feature22,full_pf_a,,0
72,16218,103,,,,2,2,1.0,1.0,1.0,0.0,,0.0-100.0,,1.0,668.0,0.0,0.26463816,0.0,0.636100213,1.0,0.646048507,1.0,0.265607101,False,,5ed12660a41e2603213e1f87,,1852394,103,,evan-feature22,full_pf_a,,0
73,16219,104,,,,2,2,1.0,0.0,1.0,0.0,,0.0-101.0,,1.0,448.0,1.0,0.314340707,1.0,0.667795927,1.0,0.613630805,0.0,0.25,False,,5ed12660a41e2603213e1f87,,1862604,104,,evan-feature22,full_pf_a,,0
74,16220,105,,,,2,2,1.0,1.0,0.0,-1.0,,0.0-102.0,,-1.0,584.0,1.0,0.28685784,1.0,0.6622549529999999,1.0,0.652154117,1.0,0.25,False,,5ed12660a41e2603213e1f87,,1872949,105,,evan-feature22,full_pf_a,,0
75,16221,106,,,,2,2,0.0,0.0,0.0,-1.0,,0.0-103.0,,0.0,955.0,0.0,0.304106554,1.0,0.631289538,0.0,0.707041942,0.0,0.29314237,False,,5ed12660a41e2603213e1f87,,1883665,106,,evan-feature22,full_pf_a,,0
76,16222,107,,,,2,2,1.0,1.0,0.0,-1.0,,0.0-104.0,,-1.0,727.0,0.0,0.304806932,0.0,0.571167718,1.0,0.680472346,1.0,0.25,False,,5ed12660a41e2603213e1f87,,1894151,107,,evan-feature22,full_pf_a,,0
77,16223,108,,,,2,2,1.0,0.0,0.0,-1.0,,0.0-105.0,,0.0,736.0,1.0,0.37919861,0.0,0.5724849710000001,1.0,0.705638003,0.0,0.30179300600000003,False,,5ed12660a41e2603213e1f87,,1904651,108,,evan-feature22,full_pf_a,,0
78,16224,109,,,,2,2,0.0,1.0,0.0,-1.0,,0.0-106.0,,-1.0,731.0,0.0,0.464277969,1.0,0.554034373,0.0,0.7372627340000001,1.0,0.264699741,False,,5ed12660a41e2603213e1f87,,1915145,109,,evan-feature22,full_pf_a,,0
79,16225,110,,,,1,1,0.0,1.0,0.0,-1.0,,0.0-107.0,,-1.0,920.0,0.0,0.465104323,1.0,0.530793115,0.0,0.75,0.0,0.31683071,False,,5ed12660a41e2603213e1f87,,1925827,110,,evan-feature22,full_pf_a,,1
80,16226,111,,,,2,2,1.0,0.0,1.0,0.0,,0.0-108.0,,1.0,540.0,1.0,0.465104323,1.0,0.530793115,1.0,0.75,0.0,0.31683071,False,,5ed12660a41e2603213e1f87,,1936130,111,,evan-feature22,full_pf_a,,1
81,16227,112,,,,2,2,1.0,1.0,1.0,0.0,,0.0-109.0,,1.0,621.0,1.0,0.46833986,0.0,0.570249239,1.0,0.7244472590000001,1.0,0.364114163,False,,5ed12660a41e2603213e1f87,,1946516,112,,evan-feature22,full_pf_a,,0
82,16228,113,,,,2,2,0.0,0.0,1.0,0.0,,0.0-110.0,,0.0,505.0,0.0,0.445444024,1.0,0.649673355,0.0,0.6845441290000001,0.0,0.300660449,False,,5ed12660a41e2603213e1f87,,1956780,113,,evan-feature22,full_pf_a,,0
83,16229,114,,,,2,2,1.0,1.0,1.0,0.0,,0.0-111.0,,1.0,657.0,0.0,0.39909721299999995,0.0,0.6715179509999999,1.0,0.742310028,1.0,0.35496088299999995,False,,5ed12660a41e2603213e1f87,,1967196,114,,evan-feature22,full_pf_a,,0
84,16230,115,,,,2,2,0.0,0.0,0.0,-1.0,,0.0-112.0,,0.0,1097.0,1.0,0.37956104799999996,1.0,0.694725302,0.0,0.7181651309999999,0.0,0.38726906299999997,False,,5ed12660a41e2603213e1f87,,1978052,115,,evan-feature22,full_pf_a,,0
85,16231,116,,,,2,2,0.0,0.0,0.0,-1.0,,0.0-113.0,,0.0,691.0,1.0,0.404995034,1.0,0.724375412,0.0,0.6910946859999999,0.0,0.387187347,False,,5ed12660a41e2603213e1f87,,1988504,116,,evan-feature22,full_pf_a,,0
86,16232,117,,,,2,2,1.0,1.0,1.0,0.0,,0.0-114.0,,1.0,1043.0,0.0,0.461740803,1.0,0.75,1.0,0.75,1.0,0.34872038200000005,False,,5ed12660a41e2603213e1f87,,1999307,117,,evan-feature22,full_pf_a,,0
87,16233,118,,,,2,2,0.0,0.0,1.0,0.0,,0.0-115.0,,0.0,476.0,1.0,0.43821380600000004,1.0,0.738833273,0.0,0.728286963,0.0,0.399538128,False,,5ed12660a41e2603213e1f87,,2009546,118,,evan-feature22,full_pf_a,,0
88,16234,119,,,,2,2,1.0,0.0,0.0,-1.0,,0.0-116.0,,0.0,1034.0,1.0,0.41709882,1.0,0.736666736,1.0,0.75,0.0,0.389095584,False,,5ed12660a41e2603213e1f87,,2020340,119,,evan-feature22,full_pf_a,,0
89,16235,120,,,,2,2,1.0,1.0,0.0,-1.0,,0.0-117.0,,-1.0,610.0,1.0,0.39749009799999996,1.0,0.744320029,1.0,0.75,1.0,0.363848678,False,,5ed12660a41e2603213e1f87,,2030712,120,,evan-feature22,full_pf_a,,0
90,16236,121,,,,SLOW,SLOW,,,1.0,0.0,,0.0-118.0,,-3.0,,0.0,0.392653706,1.0,0.75,1.0,0.75,0.0,0.384386976,False,,5ed12660a41e2603213e1f87,,2036518,121,,evan-feature22,full_pf_a,,1
91,16237,122,,,,2,2,1.0,0.0,0.0,-1.0,,0.0-119.0,,0.0,759.0,0.0,0.31190902600000003,1.0,0.75,1.0,0.732413819,0.0,0.413082932,False,,5ed12660a41e2603213e1f87,,2047042,122,,evan-feature22,full_pf_a,,1
92,16238,123,,,,2,2,1.0,0.0,1.0,0.0,,0.0-120.0,,1.0,549.0,1.0,0.366917648,1.0,0.740073855,1.0,0.75,0.0,0.352861979,False,,5ed12660a41e2603213e1f87,,2057352,123,,evan-feature22,full_pf_a,,0
93,16239,124,,,,2,2,1.0,0.0,1.0,0.0,,0.0-121.0,,1.0,477.0,1.0,0.3645172,0.0,0.721770713,1.0,0.75,0.0,0.404074511,False,,5ed12660a41e2603213e1f87,,2067588,124,,evan-feature22,full_pf_a,,0
94,16240,125,,,,2,2,1.0,1.0,1.0,0.0,,0.0-122.0,,1.0,432.0,1.0,0.35205600299999995,1.0,0.68983859,1.0,0.739735447,1.0,0.366895945,False,,5ed12660a41e2603213e1f87,,2077780,125,,evan-feature22,full_pf_a,,0
95,16241,126,,,,2,2,0.0,1.0,1.0,0.0,,0.0-123.0,,0.0,755.0,1.0,0.40998722600000004,1.0,0.720859127,0.0,0.673854955,1.0,0.368528541,False,,5ed12660a41e2603213e1f87,,2088296,126,,evan-feature22,full_pf_a,,0
96,16242,127,,,,2,2,0.0,0.0,1.0,0.0,,0.0-124.0,,0.0,652.0,0.0,0.353625316,0.0,0.75,0.0,0.695605473,0.0,0.38303674200000004,False,,5ed12660a41e2603213e1f87,,2098705,127,,evan-feature22,full_pf_a,,0
97,16243,128,,,,2,2,0.0,1.0,1.0,0.0,,0.0-125.0,,0.0,624.0,0.0,0.359216989,1.0,0.75,0.0,0.6987915090000001,1.0,0.35169046200000004,False,,5ed12660a41e2603213e1f87,,2109090,128,,evan-feature22,full_pf_a,,0
98,16244,129,,,,2,2,1.0,0.0,1.0,0.0,,0.0-126.0,,1.0,1083.0,1.0,0.35834496899999996,1.0,0.75,1.0,0.707067742,0.0,0.416763636,False,,5ed12660a41e2603213e1f87,,2119932,129,,evan-feature22,full_pf_a,,0
99,16245,130,,,,2,2,1.0,0.0,0.0,-1.0,,0.0-127.0,,0.0,559.0,1.0,0.38741613799999997,1.0,0.7177369570000001,1.0,0.734902455,0.0,0.49438664299999996,False,,5ed12660a41e2603213e1f87,,2130253,130,,evan-feature22,full_pf_a,,0
100,16246,131,,,,2,2,0.0,0.0,1.0,0.0,,0.0-128.0,,0.0,840.0,1.0,0.405255252,0.0,0.7300466640000001,0.0,0.7027748070000001,0.0,0.504359668,False,,5ed12660a41e2603213e1f87,,2140852,131,,evan-feature22,full_pf_a,,0
101,16247,132,,,,2,2,0.0,1.0,1.0,0.0,,0.0-129.0,,0.0,1072.0,0.0,0.40697073,0.0,0.7260142190000001,0.0,0.724461982,1.0,0.522779179,False,,5ed12660a41e2603213e1f87,,2151688,132,,evan-feature22,full_pf_a,,0
102,16248,133,,,,1,1,0.0,0.0,1.0,0.0,,0.0-130.0,,0.0,107.0,0.0,0.43906215299999996,0.0,0.7252802340000001,1.0,0.719079934,1.0,0.5712990579999999,False,,5ed12660a41e2603213e1f87,,2161555,133,,evan-feature22,full_pf_a,,1
103,16249,134,,,,1,1,1.0,0.0,0.0,-1.0,,0.0-131.0,,0.0,534.0,1.0,0.4076705,0.0,0.73280499,1.0,0.681313127,1.0,0.523891346,False,,5ed12660a41e2603213e1f87,,2171848,134,,evan-feature22,full_pf_a,,0
104,16250,135,,,,1,1,1.0,1.0,0.0,-1.0,,0.0-132.0,,-1.0,598.0,1.0,0.399102911,1.0,0.730498344,1.0,0.661080239,0.0,0.46742603,False,,5ed12660a41e2603213e1f87,,2182208,135,,evan-feature22,full_pf_a,,0
105,16251,136,,,,2,2,0.0,1.0,0.0,-1.0,,0.0-133.0,,-1.0,629.0,0.0,0.356477282,1.0,0.712296395,0.0,0.641812684,1.0,0.44868414,False,,5ed12660a41e2603213e1f87,,2192599,136,,evan-feature22,full_pf_a,,1
106,16252,137,,,,2,2,1.0,0.0,1.0,0.0,,0.0-134.0,,1.0,977.0,0.0,0.462760722,1.0,0.692349322,1.0,0.700947931,0.0,0.394680266,False,,5ed12660a41e2603213e1f87,,2203338,137,,evan-feature22,full_pf_a,,0
107,16253,138,,,,2,2,1.0,1.0,1.0,0.0,,0.0-135.0,,1.0,565.0,1.0,0.422306413,1.0,0.718375916,1.0,0.706340917,1.0,0.367787185,False,,5ed12660a41e2603213e1f87,,2213663,138,,evan-feature22,full_pf_a,,0
108,16255,140,,,,2,2,1.0,0.0,1.0,0.0,,0.0-137.0,,1.0,1780.0,0.0,0.4582233,1.0,0.643834117,1.0,0.75,0.0,0.39615823299999997,False,,5ed12660a41e2603213e1f87,,2576071,140,,evan-feature22,full_pf_a,,0
109,16256,141,,,,2,2,0.0,0.0,1.0,0.0,,0.0-138.0,,0.0,666.0,0.0,0.43813437899999996,0.0,0.651283804,0.0,0.729674191,0.0,0.37711048,False,,5ed12660a41e2603213e1f87,,2586497,141,,evan-feature22,full_pf_a,,0
110,16257,142,,,,2,2,1.0,1.0,1.0,0.0,,0.0-139.0,,1.0,512.0,0.0,0.471199094,0.0,0.6470010979999999,1.0,0.715008097,1.0,0.410656191,False,,5ed12660a41e2603213e1f87,,2596775,142,,evan-feature22,full_pf_a,,0
111,16258,143,,,,2,2,1.0,0.0,1.0,0.0,,0.0-140.0,,1.0,979.0,0.0,0.42486406,1.0,0.629771829,1.0,0.6550939960000001,0.0,0.459093873,False,,5ed12660a41e2603213e1f87,,2607518,143,,evan-feature22,full_pf_a,,0
112,16259,144,,,,2,2,0.0,1.0,1.0,0.0,,0.0-141.0,,0.0,946.0,0.0,0.4803197,1.0,0.645842715,0.0,0.6421749920000001,1.0,0.443092151,False,,5ed12660a41e2603213e1f87,,2618224,144,,evan-feature22,full_pf_a,,0
113,16260,145,,,,2,2,1.0,0.0,0.0,-1.0,,0.0-142.0,,0.0,1092.0,0.0,0.521848997,1.0,0.735801074,1.0,0.6691348460000001,0.0,0.45259351600000003,False,,5ed12660a41e2603213e1f87,,2629076,145,,evan-feature22,full_pf_a,,0
114,16261,146,,,,2,2,1.0,0.0,1.0,0.0,,0.0-143.0,,1.0,670.0,1.0,0.49565621299999996,1.0,0.742400847,1.0,0.661512553,0.0,0.483110831,False,,5ed12660a41e2603213e1f87,,2639508,146,,evan-feature22,full_pf_a,,0
115,16262,147,,,,2,2,0.0,1.0,1.0,0.0,,0.0-144.0,,0.0,511.0,1.0,0.521564361,1.0,0.731078632,0.0,0.6774886809999999,1.0,0.483263956,False,,5ed12660a41e2603213e1f87,,2649781,147,,evan-feature22,full_pf_a,,0
116,16263,148,,,,2,2,1.0,0.0,1.0,0.0,,0.0-145.0,,1.0,557.0,1.0,0.558893102,1.0,0.719810023,1.0,0.67461031,0.0,0.499349834,False,,5ed12660a41e2603213e1f87,,2660098,148,,evan-feature22,full_pf_a,,0
117,16264,149,,,,2,2,1.0,0.0,1.0,0.0,,0.0-146.0,,1.0,561.0,0.0,0.611031046,1.0,0.75,1.0,0.688072995,0.0,0.5321422729999999,False,,5ed12660a41e2603213e1f87,,2670421,149,,evan-feature22,full_pf_a,,0
118,16265,150,,,,1,1,0.0,0.0,0.0,-1.0,,0.0-147.0,,0.0,652.0,0.0,0.633223941,0.0,0.713567728,1.0,0.75,1.0,0.48185314700000004,False,,5ed12660a41e2603213e1f87,,2680833,150,,evan-feature22,full_pf_a,,1
119,16266,151,,,,2,2,0.0,1.0,1.0,0.0,,0.0-148.0,,0.0,605.0,1.0,0.664001694,1.0,0.705509768,0.0,0.75,1.0,0.500211065,False,,5ed12660a41e2603213e1f87,,2691200,151,,evan-feature22,full_pf_a,,1
120,16267,152,,,,2,2,0.0,0.0,1.0,0.0,,0.0-149.0,,0.0,497.0,1.0,0.664001694,0.0,0.705509768,0.0,0.75,0.0,0.500211065,False,,5ed12660a41e2603213e1f87,,2701457,152,,evan-feature22,full_pf_a,,0
121,16268,153,,,,2,2,1.0,1.0,1.0,0.0,,0.0-150.0,,1.0,689.0,0.0,0.696508041,0.0,0.71066027,1.0,0.717028709,1.0,0.49792991,False,,5ed12660a41e2603213e1f87,,2711908,153,,evan-feature22,full_pf_a,,0
122,16269,154,,,,2,2,0.0,0.0,0.0,-1.0,,0.0-151.0,,0.0,578.0,1.0,0.699883272,1.0,0.75,0.0,0.713543895,0.0,0.496962643,False,,5ed12660a41e2603213e1f87,,2722246,154,,evan-feature22,full_pf_a,,0
123,16270,155,,,,2,2,1.0,1.0,0.0,-1.0,,0.0-152.0,,-1.0,628.0,1.0,0.741163419,1.0,0.75,1.0,0.64691024,1.0,0.513858197,False,,5ed12660a41e2603213e1f87,,2732634,155,,evan-feature22,full_pf_a,,0
124,16271,156,,,,2,2,1.0,0.0,0.0,-1.0,,0.0-153.0,,0.0,903.0,1.0,0.75,0.0,0.70816558,1.0,0.594499079,0.0,0.48502124,False,,5ed12660a41e2603213e1f87,,2743299,156,,evan-feature22,full_pf_a,,0
125,16272,157,,,,1,1,1.0,1.0,1.0,0.0,,0.0-154.0,,1.0,43.0,1.0,0.75,1.0,0.721848901,1.0,0.62197249,0.0,0.48263586399999997,False,,5ed12660a41e2603213e1f87,,2753100,157,,evan-feature22,full_pf_a,,1
126,16273,158,,,,1,1,1.0,1.0,1.0,0.0,,0.0-155.0,,1.0,604.0,1.0,0.75,1.0,0.74813071,0.0,0.584357161,0.0,0.411477782,False,,5ed12660a41e2603213e1f87,,2763460,158,,evan-feature22,full_pf_a,,0
127,16274,159,,,,1,1,1.0,1.0,1.0,0.0,,0.0-156.0,,1.0,550.0,1.0,0.75,1.0,0.75,1.0,0.52287236,1.0,0.488290656,False,,5ed12660a41e2603213e1f87,,2773771,159,,evan-feature22,full_pf_a,,0
128,16275,160,,,,1,1,0.0,0.0,1.0,0.0,,0.0-157.0,,0.0,588.0,0.0,0.75,0.0,0.75,1.0,0.544321581,0.0,0.53143059,False,,5ed12660a41e2603213e1f87,,2784122,160,,evan-feature22,full_pf_a,,0
129,16276,161,,,,1,1,0.0,0.0,1.0,0.0,,0.0-158.0,,0.0,519.0,0.0,0.726754564,0.0,0.75,0.0,0.5129306370000001,1.0,0.530592445,False,,5ed12660a41e2603213e1f87,,2794403,161,,evan-feature22,full_pf_a,,0
130,16277,162,,,,1,1,1.0,1.0,0.0,-1.0,,0.0-159.0,,-1.0,620.0,1.0,0.75,1.0,0.7392590729999999,1.0,0.479875835,0.0,0.547007051,False,,5ed12660a41e2603213e1f87,,2804782,162,,evan-feature22,full_pf_a,,0
131,16278,163,,,,1,1,1.0,0.0,0.0,-1.0,,0.0-160.0,,0.0,648.0,1.0,0.75,0.0,0.7393376979999999,1.0,0.546045419,0.0,0.541267353,False,,5ed12660a41e2603213e1f87,,2815194,163,,evan-feature22,full_pf_a,,0
132,16279,164,,,,1,1,1.0,0.0,1.0,0.0,,0.0-161.0,,1.0,600.0,1.0,0.75,0.0,0.75,1.0,0.485725895,1.0,0.527625395,False,,5ed12660a41e2603213e1f87,,2825554,164,,evan-feature22,full_pf_a,,0
133,16280,165,,,,1,1,1.0,1.0,0.0,-1.0,,0.0-162.0,,-1.0,512.0,1.0,0.75,1.0,0.725087974,0.0,0.488603595,0.0,0.504019206,False,,5ed12660a41e2603213e1f87,,2835826,165,,evan-feature22,full_pf_a,,0
134,16281,166,,,,1,1,0.0,0.0,1.0,0.0,,0.0-163.0,,0.0,491.0,0.0,0.745504295,0.0,0.75,0.0,0.452379914,0.0,0.50131194,False,,5ed12660a41e2603213e1f87,,2846078,166,,evan-feature22,full_pf_a,,0
135,16282,167,,,,1,1,0.0,1.0,0.0,-1.0,,0.0-164.0,,-1.0,627.0,0.0,0.728513874,1.0,0.75,0.0,0.44125567200000004,1.0,0.531454591,False,,5ed12660a41e2603213e1f87,,2856465,167,,evan-feature22,full_pf_a,,0
136,16283,168,,,,2,2,0.0,1.0,1.0,0.0,,0.0-165.0,,0.0,592.0,0.0,0.73790804,1.0,0.75,0.0,0.413036656,1.0,0.524619035,False,,5ed12660a41e2603213e1f87,,2866817,168,,evan-feature22,full_pf_a,,1
137,16284,169,,,,2,2,0.0,1.0,1.0,0.0,,0.0-166.0,,0.0,731.0,0.0,0.7080961309999999,0.0,0.708666865,0.0,0.431915581,1.0,0.481819489,False,,5ed12660a41e2603213e1f87,,2877309,169,,evan-feature22,full_pf_a,,0
138,16285,170,,,,2,2,1.0,1.0,1.0,0.0,,0.0-167.0,,1.0,535.0,1.0,0.721378003,1.0,0.71605913,1.0,0.36642387,1.0,0.5036739929999999,False,,5ed12660a41e2603213e1f87,,2887605,170,,evan-feature22,full_pf_a,,0
139,16286,171,,,,2,2,0.0,0.0,0.0,-1.0,,0.0-168.0,,0.0,484.0,1.0,0.7340618959999999,1.0,0.699323252,0.0,0.35298046299999997,0.0,0.511241692,False,,5ed12660a41e2603213e1f87,,2897849,171,,evan-feature22,full_pf_a,,0
140,16287,172,,,,2,2,0.0,0.0,0.0,-1.0,,0.0-169.0,,0.0,815.0,0.0,0.75,1.0,0.70412698,0.0,0.380734814,0.0,0.529580116,False,,5ed12660a41e2603213e1f87,,2908424,172,,evan-feature22,full_pf_a,,0
141,16288,173,,,,2,2,0.0,0.0,0.0,-1.0,,0.0-170.0,,0.0,460.0,0.0,0.7436654909999999,0.0,0.711182751,0.0,0.41125331,0.0,0.49554405,False,,5ed12660a41e2603213e1f87,,2918647,173,,evan-feature22,full_pf_a,,0
142,16289,174,,,,2,2,0.0,0.0,1.0,0.0,,0.0-171.0,,0.0,589.0,0.0,0.731607915,0.0,0.651774583,0.0,0.35688023,0.0,0.45194491600000003,False,,5ed12660a41e2603213e1f87,,2928995,174,,evan-feature22,full_pf_a,,0
143,16290,175,,,,2,2,0.0,0.0,0.0,-1.0,,0.0-172.0,,0.0,495.0,1.0,0.75,1.0,0.75,0.0,0.283145374,0.0,0.528608005,False,,5ed12660a41e2603213e1f87,,2939251,175,,evan-feature22,full_pf_a,,0
144,16291,176,,,,2,2,1.0,0.0,1.0,0.0,,0.0-173.0,,1.0,475.0,0.0,0.7491416890000001,1.0,0.7423785959999999,1.0,0.29135870399999997,0.0,0.498888318,False,,5ed12660a41e2603213e1f87,,2949486,176,,evan-feature22,full_pf_a,,0
145,16292,177,,,,2,2,0.0,0.0,0.0,-1.0,,0.0-174.0,,0.0,394.0,0.0,0.708569387,1.0,0.717682277,0.0,0.294421699,0.0,0.493838163,False,,5ed12660a41e2603213e1f87,,2959639,177,,evan-feature22,full_pf_a,,0
146,16293,178,,,,2,2,1.0,1.0,1.0,0.0,,0.0-175.0,,1.0,523.0,0.0,0.75,1.0,0.7383382159999999,1.0,0.356098707,1.0,0.442533405,False,,5ed12660a41e2603213e1f87,,2969923,178,,evan-feature22,full_pf_a,,0
147,16294,179,,,,2,2,0.0,0.0,1.0,0.0,,0.0-176.0,,0.0,413.0,1.0,0.744527075,0.0,0.75,0.0,0.334127506,0.0,0.393165805,False,,5ed12660a41e2603213e1f87,,2980095,179,,evan-feature22,full_pf_a,,0
148,16295,180,,,,2,2,0.0,1.0,1.0,0.0,,0.0-177.0,,0.0,557.0,1.0,0.75,0.0,0.75,0.0,0.33571021799999995,1.0,0.350393962,False,,5ed12660a41e2603213e1f87,,2990415,180,,evan-feature22,full_pf_a,,0
149,16296,181,,,,2,2,0.0,0.0,0.0,-1.0,,0.0-178.0,,0.0,443.0,0.0,0.75,1.0,0.75,0.0,0.313628297,0.0,0.36349657399999996,False,,5ed12660a41e2603213e1f87,,3000617,181,,evan-feature22,full_pf_a,,0
150,16297,182,,,,2,2,0.0,1.0,1.0,0.0,,0.0-179.0,,0.0,576.0,1.0,0.75,1.0,0.734284182,0.0,0.262667667,1.0,0.380199119,False,,5ed12660a41e2603213e1f87,,3010953,182,,evan-feature22,full_pf_a,,0
151,16298,183,,,,1,1,0.0,1.0,1.0,0.0,,0.0-180.0,,0.0,1029.0,0.0,0.75,1.0,0.75,0.0,0.25,0.0,0.394494013,False,,5ed12660a41e2603213e1f87,,3021746,183,,evan-feature22,full_pf_a,,1
152,16299,184,,,,1,1,1.0,1.0,1.0,0.0,,0.0-181.0,,1.0,657.0,1.0,0.722298145,1.0,0.7357822340000001,0.0,0.25,0.0,0.319142121,False,,5ed12660a41e2603213e1f87,,3032163,184,,evan-feature22,full_pf_a,,0
153,16300,185,,,,1,1,0.0,0.0,1.0,0.0,,0.0-182.0,,0.0,696.0,0.0,0.73149275,0.0,0.724276446,0.0,0.305856907,0.0,0.281315057,False,,5ed12660a41e2603213e1f87,,3042619,185,,evan-feature22,full_pf_a,,0
154,16301,186,,,,1,1,0.0,0.0,1.0,0.0,,0.0-183.0,,0.0,671.0,0.0,0.7458732690000001,0.0,0.7336382459999999,0.0,0.272571964,1.0,0.266021999,False,,5ed12660a41e2603213e1f87,,3053051,186,,evan-feature22,full_pf_a,,0
155,16302,187,,,,1,1,0.0,0.0,0.0,-1.0,,0.0-184.0,,0.0,706.0,0.0,0.705579037,0.0,0.720778292,1.0,0.320238144,1.0,0.30971744,False,,5ed12660a41e2603213e1f87,,3063515,187,,evan-feature22,full_pf_a,,0
156,16303,188,,,,2,2,0.0,1.0,0.0,-1.0,,0.0-185.0,,-1.0,572.0,1.0,0.700425648,1.0,0.7198784009999999,0.0,0.272590393,1.0,0.304182931,False,,5ed12660a41e2603213e1f87,,3073849,188,,evan-feature22,full_pf_a,,1
157,16304,189,,,,2,2,1.0,1.0,0.0,-1.0,,0.0-186.0,,-1.0,362.0,0.0,0.735590785,1.0,0.722714973,1.0,0.25,1.0,0.323421091,False,,5ed12660a41e2603213e1f87,,3083972,189,,evan-feature22,full_pf_a,,0
158,16305,190,,,,2,2,0.0,0.0,0.0,-1.0,,0.0-187.0,,0.0,903.0,0.0,0.724807662,1.0,0.63146213,0.0,0.36836492600000004,0.0,0.34592153299999995,False,,5ed12660a41e2603213e1f87,,3094634,190,,evan-feature22,full_pf_a,,0
159,16306,191,,,,2,2,1.0,0.0,1.0,0.0,,0.0-188.0,,1.0,598.0,1.0,0.7352796909999999,1.0,0.555111392,1.0,0.36003922,0.0,0.31433779999999995,False,,5ed12660a41e2603213e1f87,,3104992,191,,evan-feature22,full_pf_a,,0
160,16307,192,notice,,,,,,,,,,0.0-189.0,"{""Q0"":""no""}",,13844.0,,,,,,,,,False,,5ed12660a41e2603213e1f87,,3118840,192,Q,survey-text,full_pf_a,,1
161,16308,193,track1,,[1],,,,,,,,0.0-190.0,"{""Q0"":""no""}",,7148.0,,,,,,,,,False,,5ed12660a41e2603213e1f87,,3125997,193,Q,evan-quiz,full_pf_a,,1
162,16309,194,track2,,[0],,,,,,,,0.0-191.0,"{""Q0"":""yes""}",,19579.0,,,,,,,,,False,,5ed12660a41e2603213e1f87,,3145582,194,Q,evan-quiz,full_pf_a,,1
163,16310,195,strat,,,,,,,,,,0.0-192.0,"{""Q0"":""stayed mostly with j""}",,24866.0,,,,,,,,,False,,5ed12660a41e2603213e1f87,,3170456,195,Q,survey-text,full_pf_a,,1
