,index,Unnamed: 0,Q_name,button_pressed,choice_idxs,chosen_pos,chosen_state,chosen_state_f_1_outcome,chosen_state_f_2_outcome,f_1_reward,f_2_reward,incor_questions,internal_node_id,responses,reward_received,rt,s_1_f_1_outcome,s_1_f_1_prob,s_1_f_2_outcome,s_1_f_2_prob,s_2_f_1_outcome,s_2_f_1_prob,s_2_f_2_outcome,s_2_f_2_prob,safe_first,stimulus,subjectID,success,time_elapsed,trial_index,trial_num,trial_type,version,view_history,switching
0,603,25,,,,1,1,0.0,1.0,1.0,0.0,,0.0-27.0,,0.0,734.73,0.0,0.6,1.0,0.6,1.0,0.4,1.0,0.4,True,,5d8ceadadad82b0016bac50b,,651743,25,,evan-feature22,full_rf_a,,0
1,604,26,,,,1,1,1.0,1.0,1.0,0.0,,0.0-28.0,,1.0,1533.77,1.0,0.608053294,1.0,0.63424552,1.0,0.397152172,0.0,0.347069101,True,,5d8ceadadad82b0016bac50b,,663040,26,,evan-feature22,full_rf_a,,0
2,605,27,,,,1,1,1.0,1.0,1.0,0.0,,0.0-29.0,,1.0,694.5,1.0,0.642237155,1.0,0.648566321,0.0,0.389407674,1.0,0.285525717,True,,5d8ceadadad82b0016bac50b,,673498,27,,evan-feature22,full_rf_a,,0
3,606,28,,,,1,1,1.0,1.0,1.0,0.0,,0.0-30.0,,1.0,604.485,1.0,0.661086576,1.0,0.630492543,0.0,0.399058924,0.0,0.25,True,,5d8ceadadad82b0016bac50b,,683866,28,,evan-feature22,full_rf_a,,0
4,607,29,,,,2,2,1.0,1.0,0.0,-1.0,,0.0-31.0,,-1.0,1508.225,0.0,0.631324137,1.0,0.6269842929999999,1.0,0.38734784299999997,1.0,0.25,True,,5d8ceadadad82b0016bac50b,,695138,29,,evan-feature22,full_rf_a,,1
5,608,30,,,,2,2,0.0,0.0,0.0,-1.0,,0.0-32.0,,0.0,1234.86,1.0,0.6381991370000001,0.0,0.68987999,0.0,0.384107265,0.0,0.271332943,True,,5d8ceadadad82b0016bac50b,,706134,30,,evan-feature22,full_rf_a,,0
6,609,31,,,,SLOW,SLOW,,,1.0,0.0,,0.0-33.0,,-3.0,,0.0,0.66034901,0.0,0.742641349,0.0,0.360225629,0.0,0.25,True,,5d8ceadadad82b0016bac50b,,711942,31,,evan-feature22,full_rf_a,,1
7,610,32,,,,1,1,0.0,1.0,1.0,0.0,,0.0-34.0,,0.0,432.195,0.0,0.638612418,1.0,0.75,0.0,0.367273939,0.0,0.25,True,,5d8ceadadad82b0016bac50b,,722135,32,,evan-feature22,full_rf_a,,1
8,611,33,,,,SLOW,SLOW,,,0.0,-1.0,,0.0-35.0,,-3.0,,1.0,0.624340629,0.0,0.75,1.0,0.425829545,0.0,0.25,True,,5d8ceadadad82b0016bac50b,,727943,33,,evan-feature22,full_rf_a,,1
9,612,34,,,,2,2,1.0,0.0,0.0,-1.0,,0.0-36.0,,0.0,406.1,0.0,0.621999804,1.0,0.75,1.0,0.368609357,0.0,0.25,True,,5d8ceadadad82b0016bac50b,,738286,34,,evan-feature22,full_rf_a,,1
10,613,35,,,,2,2,0.0,1.0,1.0,0.0,,0.0-37.0,,0.0,470.705,1.0,0.62666403,1.0,0.75,0.0,0.311151498,1.0,0.25,True,,5d8ceadadad82b0016bac50b,,748519,35,,evan-feature22,full_rf_a,,0
11,614,36,,,,2,2,0.0,1.0,0.0,-1.0,,0.0-38.0,,-1.0,1285.465,0.0,0.6819650009999999,0.0,0.75,0.0,0.310763048,1.0,0.25,True,,5d8ceadadad82b0016bac50b,,759568,36,,evan-feature22,full_rf_a,,0
12,615,37,,,,1,1,1.0,1.0,1.0,0.0,,0.0-39.0,,1.0,918.52,1.0,0.740626951,1.0,0.75,1.0,0.25,1.0,0.25,True,,5d8ceadadad82b0016bac50b,,770252,37,,evan-feature22,full_rf_a,,1
13,616,38,,,,1,1,1.0,1.0,1.0,0.0,,0.0-40.0,,1.0,970.05,1.0,0.739599242,1.0,0.742034978,0.0,0.25397114600000004,0.0,0.25,True,,5d8ceadadad82b0016bac50b,,780986,38,,evan-feature22,full_rf_a,,0
14,617,39,,,,1,1,0.0,1.0,1.0,0.0,,0.0-41.0,,0.0,1220.05,0.0,0.732341315,1.0,0.72735643,0.0,0.25,0.0,0.25,True,,5d8ceadadad82b0016bac50b,,791968,39,,evan-feature22,full_rf_a,,0
15,618,40,,,,1,1,0.0,0.0,1.0,0.0,,0.0-42.0,,0.0,550.025,0.0,0.7062287770000001,0.0,0.75,1.0,0.29002151,0.0,0.288256649,True,,5d8ceadadad82b0016bac50b,,802278,40,,evan-feature22,full_rf_a,,0
16,619,41,,,,1,1,1.0,1.0,1.0,0.0,,0.0-43.0,,1.0,1815.675,1.0,0.7086029209999999,1.0,0.75,0.0,0.274129113,0.0,0.262851608,True,,5d8ceadadad82b0016bac50b,,813860,41,,evan-feature22,full_rf_a,,0
17,620,42,,,,1,1,0.0,1.0,1.0,0.0,,0.0-44.0,,0.0,1578.295,0.0,0.669189651,1.0,0.727614338,0.0,0.298444036,0.0,0.296944518,True,,5d8ceadadad82b0016bac50b,,825202,42,,evan-feature22,full_rf_a,,0
18,621,43,,,,1,1,1.0,0.0,1.0,0.0,,0.0-45.0,,1.0,1556.045,1.0,0.6819912929999999,0.0,0.7179434290000001,0.0,0.265003961,0.0,0.28157921199999997,True,,5d8ceadadad82b0016bac50b,,836521,43,,evan-feature22,full_rf_a,,0
19,622,44,,,,2,2,1.0,0.0,0.0,-1.0,,0.0-46.0,,0.0,1500.315,0.0,0.665275002,1.0,0.723065271,1.0,0.260414971,0.0,0.30973870000000003,True,,5d8ceadadad82b0016bac50b,,847784,44,,evan-feature22,full_rf_a,,1
20,623,45,,,,1,1,1.0,1.0,1.0,0.0,,0.0-47.0,,1.0,1269.505,1.0,0.6660593260000001,1.0,0.728032907,0.0,0.30922817,0.0,0.338778608,True,,5d8ceadadad82b0016bac50b,,858818,45,,evan-feature22,full_rf_a,,1
21,624,46,,,,1,1,1.0,1.0,1.0,0.0,,0.0-48.0,,1.0,1089.47,1.0,0.702068785,1.0,0.6528750879999999,0.0,0.287329608,1.0,0.35789613200000003,True,,5d8ceadadad82b0016bac50b,,869676,46,,evan-feature22,full_rf_a,,0
22,625,47,,,,1,1,1.0,0.0,1.0,0.0,,0.0-49.0,,1.0,1049.94,1.0,0.651939787,0.0,0.636725589,1.0,0.284834488,1.0,0.358563756,True,,5d8ceadadad82b0016bac50b,,880487,47,,evan-feature22,full_rf_a,,0
23,626,48,,,,2,2,1.0,0.0,0.0,-1.0,,0.0-50.0,,0.0,1158.235,1.0,0.67573929,1.0,0.612550049,1.0,0.37130387600000003,0.0,0.383542402,True,,5d8ceadadad82b0016bac50b,,891413,48,,evan-feature22,full_rf_a,,1
24,627,49,,,,2,2,0.0,1.0,0.0,-1.0,,0.0-51.0,,-1.0,1440.69,1.0,0.620753801,1.0,0.60513644,0.0,0.385529434,1.0,0.340361743,True,,5d8ceadadad82b0016bac50b,,902617,49,,evan-feature22,full_rf_a,,0
25,628,50,,,,2,2,1.0,0.0,0.0,-1.0,,0.0-52.0,,0.0,995.365,1.0,0.673564893,1.0,0.672437924,1.0,0.292955382,0.0,0.337633795,True,,5d8ceadadad82b0016bac50b,,913377,50,,evan-feature22,full_rf_a,,0
26,629,51,,,,1,1,1.0,0.0,1.0,0.0,,0.0-53.0,,1.0,1428.235,1.0,0.6749427,0.0,0.724197502,0.0,0.32391132100000003,0.0,0.350995264,True,,5d8ceadadad82b0016bac50b,,924567,51,,evan-feature22,full_rf_a,,1
27,630,52,,,,1,1,1.0,1.0,1.0,0.0,,0.0-54.0,,1.0,1086.56,1.0,0.6940159379999999,1.0,0.75,0.0,0.31710554399999996,1.0,0.413450341,True,,5d8ceadadad82b0016bac50b,,935421,52,,evan-feature22,full_rf_a,,0
28,631,53,,,,1,1,0.0,1.0,1.0,0.0,,0.0-55.0,,0.0,1072.18,0.0,0.6916018270000001,1.0,0.69001187,0.0,0.261817804,0.0,0.40038635,True,,5d8ceadadad82b0016bac50b,,946257,53,,evan-feature22,full_rf_a,,0
29,632,54,,,,SLOW,SLOW,,,1.0,0.0,,0.0-56.0,,-3.0,,1.0,0.641061544,0.0,0.71337992,0.0,0.277296461,1.0,0.47372791700000005,True,,5d8ceadadad82b0016bac50b,,952064,54,,evan-feature22,full_rf_a,,1
30,633,55,,,,1,1,1.0,0.0,1.0,0.0,,0.0-57.0,,1.0,1084.815,1.0,0.6082438520000001,0.0,0.708471106,0.0,0.28745137,0.0,0.564174476,True,,5d8ceadadad82b0016bac50b,,962913,55,,evan-feature22,full_rf_a,,1
31,634,56,,,,1,1,0.0,1.0,1.0,0.0,,0.0-58.0,,0.0,1380.56,0.0,0.6051112120000001,1.0,0.7118147229999999,0.0,0.272390611,1.0,0.5595149939999999,True,,5d8ceadadad82b0016bac50b,,974056,56,,evan-feature22,full_rf_a,,0
32,635,57,,,,2,2,1.0,0.0,1.0,0.0,,0.0-59.0,,1.0,1197.03,0.0,0.582420852,1.0,0.635867583,1.0,0.31089574,0.0,0.5227206520000001,True,,5d8ceadadad82b0016bac50b,,985015,57,,evan-feature22,full_rf_a,,1
33,636,58,,,,1,1,0.0,1.0,0.0,-1.0,,0.0-60.0,,-1.0,1565.785,0.0,0.623195575,1.0,0.655026044,1.0,0.25,0.0,0.560387538,True,,5d8ceadadad82b0016bac50b,,996343,58,,evan-feature22,full_rf_a,,1
34,637,59,,,,1,1,1.0,1.0,1.0,0.0,,0.0-61.0,,1.0,1435.385,1.0,0.601889598,1.0,0.678198724,0.0,0.25,1.0,0.559922936,True,,5d8ceadadad82b0016bac50b,,1007545,59,,evan-feature22,full_rf_a,,0
35,638,60,,,,1,1,1.0,1.0,1.0,0.0,,0.0-62.0,,1.0,1684.87,1.0,0.601259914,1.0,0.704681482,0.0,0.33908969299999997,0.0,0.505003715,True,,5d8ceadadad82b0016bac50b,,1018993,60,,evan-feature22,full_rf_a,,0
36,639,61,,,,1,1,0.0,1.0,1.0,0.0,,0.0-63.0,,0.0,1732.195,0.0,0.59645454,1.0,0.710437172,1.0,0.327441879,0.0,0.391749613,True,,5d8ceadadad82b0016bac50b,,1030487,61,,evan-feature22,full_rf_a,,0
37,640,62,,,,1,1,1.0,0.0,1.0,0.0,,0.0-64.0,,1.0,1390.605,1.0,0.529473,0.0,0.636758527,1.0,0.301338063,0.0,0.365661481,True,,5d8ceadadad82b0016bac50b,,1041640,62,,evan-feature22,full_rf_a,,0
38,641,63,,,,2,2,0.0,1.0,0.0,-1.0,,0.0-65.0,,-1.0,1908.37,0.0,0.541657162,1.0,0.634541962,0.0,0.343535366,1.0,0.371763742,True,,5d8ceadadad82b0016bac50b,,1053315,63,,evan-feature22,full_rf_a,,1
39,642,64,,,,1,1,0.0,0.0,1.0,0.0,,0.0-66.0,,0.0,1610.44,0.0,0.5707533260000001,0.0,0.589121171,0.0,0.326428396,1.0,0.43961622899999997,True,,5d8ceadadad82b0016bac50b,,1064686,64,,evan-feature22,full_rf_a,,1
40,643,65,,,,1,1,0.0,0.0,1.0,0.0,,0.0-67.0,,0.0,3694.755,0.0,0.5707533260000001,0.0,0.589121171,0.0,0.326428396,0.0,0.43961622899999997,True,,5d8ceadadad82b0016bac50b,,1078144,65,,evan-feature22,full_rf_a,,0
41,644,66,,,,1,1,0.0,0.0,1.0,0.0,,0.0-68.0,,0.0,1595.61,0.0,0.506271295,0.0,0.641775594,0.0,0.37149690700000004,1.0,0.404330166,True,,5d8ceadadad82b0016bac50b,,1089502,66,,evan-feature22,full_rf_a,,0
42,645,67,,,,2,2,1.0,0.0,0.0,-1.0,,0.0-69.0,,0.0,1559.35,0.0,0.455642565,0.0,0.623605825,1.0,0.358753011,0.0,0.346174041,True,,5d8ceadadad82b0016bac50b,,1100821,67,,evan-feature22,full_rf_a,,1
43,646,68,,,,1,1,0.0,0.0,0.0,-1.0,,0.0-70.0,,0.0,2526.825,0.0,0.483677308,0.0,0.5904681070000001,0.0,0.402218411,0.0,0.35344697,True,,5d8ceadadad82b0016bac50b,,1113110,68,,evan-feature22,full_rf_a,,1
44,647,69,,,,2,2,0.0,0.0,0.0,-1.0,,0.0-71.0,,0.0,1478.77,0.0,0.394210977,0.0,0.558925494,0.0,0.540052017,0.0,0.35182128700000004,True,,5d8ceadadad82b0016bac50b,,1124348,69,,evan-feature22,full_rf_a,,1
45,648,70,,,,1,1,0.0,0.0,1.0,0.0,,0.0-72.0,,0.0,1496.41,0.0,0.382300414,0.0,0.577670603,1.0,0.607608448,1.0,0.378261578,True,,5d8ceadadad82b0016bac50b,,1135608,70,,evan-feature22,full_rf_a,,1
46,649,71,,,,1,1,0.0,1.0,1.0,0.0,,0.0-73.0,,0.0,1284.405,0.0,0.357596762,1.0,0.5929076529999999,1.0,0.6579790010000001,0.0,0.401326777,True,,5d8ceadadad82b0016bac50b,,1146655,71,,evan-feature22,full_rf_a,,0
47,650,72,,,,1,1,1.0,1.0,1.0,0.0,,0.0-74.0,,1.0,1101.845,1.0,0.362033495,1.0,0.582308608,0.0,0.649195052,0.0,0.355158505,True,,5d8ceadadad82b0016bac50b,,1157523,72,,evan-feature22,full_rf_a,,0
48,651,73,,,,1,1,0.0,1.0,1.0,0.0,,0.0-75.0,,0.0,1139.24,0.0,0.369620635,1.0,0.669100864,0.0,0.706059111,0.0,0.362516241,True,,5d8ceadadad82b0016bac50b,,1168429,73,,evan-feature22,full_rf_a,,0
49,652,74,,,,1,1,1.0,1.0,1.0,0.0,,0.0-76.0,,1.0,417.36,1.0,0.41477751399999996,1.0,0.7284416779999999,1.0,0.7182656940000001,0.0,0.36228040899999997,True,,5d8ceadadad82b0016bac50b,,1178608,74,,evan-feature22,full_rf_a,,0
50,653,75,,,,2,2,1.0,1.0,0.0,-1.0,,0.0-77.0,,-1.0,1445.6,0.0,0.37675460299999997,1.0,0.703250285,1.0,0.75,1.0,0.461979164,True,,5d8ceadadad82b0016bac50b,,1189818,75,,evan-feature22,full_rf_a,,1
51,654,76,,,,2,2,1.0,0.0,0.0,-1.0,,0.0-78.0,,0.0,1130.435,0.0,0.398716075,0.0,0.6723864890000001,1.0,0.674153818,0.0,0.519029516,True,,5d8ceadadad82b0016bac50b,,1200710,76,,evan-feature22,full_rf_a,,0
52,655,77,,,,1,1,0.0,1.0,1.0,0.0,,0.0-79.0,,0.0,1086.81,0.0,0.34677856700000004,1.0,0.69057175,1.0,0.6822438540000001,1.0,0.477292237,True,,5d8ceadadad82b0016bac50b,,1211559,77,,evan-feature22,full_rf_a,,1
53,656,78,,,,1,1,1.0,1.0,0.0,-1.0,,0.0-80.0,,-1.0,422.845,1.0,0.28580469199999997,1.0,0.68408818,1.0,0.684207565,0.0,0.49780448299999996,True,,5d8ceadadad82b0016bac50b,,1221745,78,,evan-feature22,full_rf_a,,0
54,658,80,,,,1,1,0.0,0.0,1.0,0.0,,0.0-82.0,,0.0,1564.715,0.0,0.25,0.0,0.7405808970000001,0.0,0.679614108,0.0,0.436436964,True,,5d8ceadadad82b0016bac50b,,1235782,80,,evan-feature22,full_rf_a,,0
55,659,81,,,,2,2,1.0,0.0,0.0,-1.0,,0.0-83.0,,0.0,894.765,0.0,0.29890393,1.0,0.730505706,1.0,0.7328203320000001,0.0,0.439256938,True,,5d8ceadadad82b0016bac50b,,1246441,81,,evan-feature22,full_rf_a,,1
56,660,82,,,,1,1,0.0,1.0,1.0,0.0,,0.0-84.0,,0.0,691.87,0.0,0.326762398,1.0,0.7148059609999999,0.0,0.75,0.0,0.44389608799999997,True,,5d8ceadadad82b0016bac50b,,1256898,82,,evan-feature22,full_rf_a,,1
57,661,83,,,,1,1,1.0,1.0,1.0,0.0,,0.0-85.0,,1.0,738.42,1.0,0.295168515,1.0,0.739760854,1.0,0.719947008,0.0,0.35277284600000003,True,,5d8ceadadad82b0016bac50b,,1267400,83,,evan-feature22,full_rf_a,,0
58,662,84,,,,1,1,0.0,1.0,1.0,0.0,,0.0-86.0,,0.0,1550.78,0.0,0.25,1.0,0.70781482,0.0,0.75,0.0,0.286095925,True,,5d8ceadadad82b0016bac50b,,1278709,84,,evan-feature22,full_rf_a,,0
59,663,85,,,,2,2,0.0,0.0,0.0,-1.0,,0.0-87.0,,0.0,855.585,0.0,0.25638190899999996,1.0,0.704088163,0.0,0.75,0.0,0.26872601399999996,True,,5d8ceadadad82b0016bac50b,,1289328,85,,evan-feature22,full_rf_a,,1
60,664,86,,,,1,1,0.0,0.0,0.0,-1.0,,0.0-88.0,,0.0,444.3,0.0,0.271581126,0.0,0.669760107,1.0,0.733896663,0.0,0.273244572,True,,5d8ceadadad82b0016bac50b,,1299533,86,,evan-feature22,full_rf_a,,1
61,665,87,,,,2,2,1.0,0.0,0.0,-1.0,,0.0-89.0,,0.0,1980.905,0.0,0.257144401,0.0,0.600575706,1.0,0.74488122,0.0,0.25,True,,5d8ceadadad82b0016bac50b,,1311282,87,,evan-feature22,full_rf_a,,1
62,666,88,,,,1,1,1.0,1.0,1.0,0.0,,0.0-90.0,,1.0,1537.44,1.0,0.25,1.0,0.616870026,1.0,0.723610234,0.0,0.25,True,,5d8ceadadad82b0016bac50b,,1322781,88,,evan-feature22,full_rf_a,,1
63,667,89,,,,SLOW,SLOW,,,0.0,-1.0,,0.0-91.0,,-3.0,,1.0,0.25,0.0,0.583540187,1.0,0.7041042559999999,0.0,0.285961995,True,,5d8ceadadad82b0016bac50b,,1328638,89,,evan-feature22,full_rf_a,,1
64,668,90,,,,1,1,0.0,1.0,1.0,0.0,,0.0-92.0,,0.0,374.15,0.0,0.27254536,1.0,0.53875765,1.0,0.693783448,0.0,0.284961652,True,,5d8ceadadad82b0016bac50b,,1338778,90,,evan-feature22,full_rf_a,,1
65,669,91,,,,2,2,0.0,0.0,0.0,-1.0,,0.0-93.0,,0.0,2787.005,0.0,0.25,1.0,0.548431252,0.0,0.734221895,0.0,0.279445214,True,,5d8ceadadad82b0016bac50b,,1351328,91,,evan-feature22,full_rf_a,,1
66,670,92,,,,1,1,0.0,0.0,1.0,0.0,,0.0-94.0,,0.0,1867.975,0.0,0.258640684,0.0,0.545878066,0.0,0.725245965,1.0,0.31487537,True,,5d8ceadadad82b0016bac50b,,1362960,92,,evan-feature22,full_rf_a,,1
67,671,93,,,,1,1,0.0,1.0,1.0,0.0,,0.0-95.0,,0.0,797.17,0.0,0.251103711,1.0,0.5776290629999999,1.0,0.696320133,0.0,0.317831047,True,,5d8ceadadad82b0016bac50b,,1373521,93,,evan-feature22,full_rf_a,,0
68,672,94,,,,1,1,1.0,1.0,1.0,0.0,,0.0-96.0,,1.0,482.12,1.0,0.276630292,1.0,0.617329858,1.0,0.73838088,0.0,0.261471582,True,,5d8ceadadad82b0016bac50b,,1383766,94,,evan-feature22,full_rf_a,,0
69,673,95,,,,SLOW,SLOW,,,0.0,-1.0,,0.0-97.0,,-3.0,,0.0,0.297716424,1.0,0.618863717,0.0,0.7402358259999999,0.0,0.262600834,True,,5d8ceadadad82b0016bac50b,,1389574,95,,evan-feature22,full_rf_a,,1
70,674,96,,,,1,1,0.0,1.0,1.0,0.0,,0.0-98.0,,0.0,1261.445,0.0,0.290935512,1.0,0.695370945,1.0,0.706570507,0.0,0.280030553,True,,5d8ceadadad82b0016bac50b,,1400598,96,,evan-feature22,full_rf_a,,1
71,675,97,,,,1,1,0.0,1.0,1.0,0.0,,0.0-99.0,,0.0,925.795,0.0,0.25,1.0,0.6465277079999999,1.0,0.67766682,1.0,0.25,True,,5d8ceadadad82b0016bac50b,,1411290,97,,evan-feature22,full_rf_a,,0
72,676,98,,,,1,1,1.0,1.0,1.0,0.0,,0.0-100.0,,1.0,986.48,1.0,0.26463816,1.0,0.636100213,1.0,0.646048507,0.0,0.265607101,True,,5d8ceadadad82b0016bac50b,,1422039,98,,evan-feature22,full_rf_a,,0
73,677,99,,,,1,1,0.0,1.0,1.0,0.0,,0.0-101.0,,0.0,941.375,0.0,0.314340707,1.0,0.667795927,0.0,0.613630805,0.0,0.25,True,,5d8ceadadad82b0016bac50b,,1432741,99,,evan-feature22,full_rf_a,,0
74,678,100,,,,1,1,0.0,1.0,1.0,0.0,,0.0-102.0,,0.0,421.09,0.0,0.28685784,1.0,0.6622549529999999,0.0,0.652154117,0.0,0.25,True,,5d8ceadadad82b0016bac50b,,1442926,100,,evan-feature22,full_rf_a,,0
75,679,101,,,,2,2,1.0,0.0,0.0,-1.0,,0.0-103.0,,0.0,1198.59,0.0,0.304106554,0.0,0.631289538,1.0,0.707041942,0.0,0.29314237,True,,5d8ceadadad82b0016bac50b,,1453886,101,,evan-feature22,full_rf_a,,1
76,680,102,,,,2,2,0.0,0.0,0.0,-1.0,,0.0-104.0,,0.0,1269.575,0.0,0.304806932,1.0,0.571167718,0.0,0.680472346,0.0,0.25,True,,5d8ceadadad82b0016bac50b,,1464916,102,,evan-feature22,full_rf_a,,0
77,681,103,,,,2,2,1.0,0.0,0.0,-1.0,,0.0-105.0,,0.0,2352.04,0.0,0.37919861,1.0,0.5724849710000001,1.0,0.705638003,0.0,0.30179300600000003,True,,5d8ceadadad82b0016bac50b,,1477031,103,,evan-feature22,full_rf_a,,0
78,682,104,,,,1,1,0.0,1.0,0.0,-1.0,,0.0-106.0,,-1.0,1261.07,0.0,0.464277969,1.0,0.554034373,1.0,0.7372627340000001,0.0,0.264699741,True,,5d8ceadadad82b0016bac50b,,1488058,104,,evan-feature22,full_rf_a,,1
79,683,105,,,,1,1,0.0,1.0,1.0,0.0,,0.0-107.0,,0.0,1017.89,0.0,0.465104323,1.0,0.530793115,1.0,0.75,0.0,0.31683071,True,,5d8ceadadad82b0016bac50b,,1498841,105,,evan-feature22,full_rf_a,,0
80,684,106,,,,2,2,1.0,0.0,0.0,-1.0,,0.0-108.0,,0.0,818.78,1.0,0.465104323,0.0,0.530793115,1.0,0.75,0.0,0.31683071,True,,5d8ceadadad82b0016bac50b,,1509424,106,,evan-feature22,full_rf_a,,1
81,685,107,,,,2,2,1.0,1.0,0.0,-1.0,,0.0-109.0,,-1.0,1345.52,1.0,0.46833986,0.0,0.570249239,1.0,0.7244472590000001,1.0,0.364114163,True,,5d8ceadadad82b0016bac50b,,1520537,107,,evan-feature22,full_rf_a,,0
82,686,108,,,,1,1,1.0,1.0,0.0,-1.0,,0.0-110.0,,-1.0,1026.41,1.0,0.445444024,1.0,0.649673355,0.0,0.6845441290000001,0.0,0.300660449,True,,5d8ceadadad82b0016bac50b,,1531328,108,,evan-feature22,full_rf_a,,1
83,687,109,,,,2,2,1.0,0.0,0.0,-1.0,,0.0-111.0,,0.0,1372.72,1.0,0.39909721299999995,1.0,0.6715179509999999,1.0,0.742310028,0.0,0.35496088299999995,True,,5d8ceadadad82b0016bac50b,,1542462,109,,evan-feature22,full_rf_a,,1
84,688,110,,,,2,2,1.0,1.0,0.0,-1.0,,0.0-112.0,,-1.0,1084.06,0.0,0.37956104799999996,1.0,0.694725302,1.0,0.7181651309999999,1.0,0.38726906299999997,True,,5d8ceadadad82b0016bac50b,,1553311,110,,evan-feature22,full_rf_a,,0
85,689,111,,,,2,2,0.0,0.0,0.0,-1.0,,0.0-113.0,,0.0,1509.34,1.0,0.404995034,1.0,0.724375412,0.0,0.6910946859999999,0.0,0.387187347,True,,5d8ceadadad82b0016bac50b,,1564581,111,,evan-feature22,full_rf_a,,0
86,690,112,,,,2,2,1.0,1.0,0.0,-1.0,,0.0-114.0,,-1.0,1222.265,1.0,0.461740803,1.0,0.75,1.0,0.75,1.0,0.34872038200000005,True,,5d8ceadadad82b0016bac50b,,1575568,112,,evan-feature22,full_rf_a,,0
87,691,113,,,,1,1,0.0,0.0,1.0,0.0,,0.0-115.0,,0.0,1456.755,0.0,0.43821380600000004,0.0,0.738833273,1.0,0.728286963,1.0,0.399538128,True,,5d8ceadadad82b0016bac50b,,1586790,113,,evan-feature22,full_rf_a,,1
88,692,114,,,,2,2,1.0,1.0,0.0,-1.0,,0.0-116.0,,-1.0,1582.51,0.0,0.41709882,0.0,0.736666736,1.0,0.75,1.0,0.389095584,True,,5d8ceadadad82b0016bac50b,,1598137,114,,evan-feature22,full_rf_a,,1
89,693,115,,,,1,1,1.0,1.0,0.0,-1.0,,0.0-117.0,,-1.0,683.2,1.0,0.39749009799999996,1.0,0.744320029,1.0,0.75,1.0,0.363848678,True,,5d8ceadadad82b0016bac50b,,1608583,115,,evan-feature22,full_rf_a,,1
90,694,116,,,,1,1,1.0,0.0,1.0,0.0,,0.0-118.0,,1.0,630.145,1.0,0.392653706,0.0,0.75,0.0,0.75,0.0,0.384386976,True,,5d8ceadadad82b0016bac50b,,1618974,116,,evan-feature22,full_rf_a,,0
91,695,117,,,,1,1,0.0,1.0,1.0,0.0,,0.0-119.0,,0.0,1140.455,0.0,0.31190902600000003,1.0,0.75,1.0,0.732413819,0.0,0.413082932,True,,5d8ceadadad82b0016bac50b,,1629879,117,,evan-feature22,full_rf_a,,0
92,696,118,,,,2,2,0.0,0.0,0.0,-1.0,,0.0-120.0,,0.0,2276.875,0.0,0.366917648,1.0,0.740073855,0.0,0.75,0.0,0.352861979,True,,5d8ceadadad82b0016bac50b,,1641921,118,,evan-feature22,full_rf_a,,1
93,697,119,,,,2,2,1.0,1.0,0.0,-1.0,,0.0-121.0,,-1.0,1131.465,0.0,0.3645172,1.0,0.721770713,1.0,0.75,1.0,0.404074511,True,,5d8ceadadad82b0016bac50b,,1652818,119,,evan-feature22,full_rf_a,,0
94,698,120,,,,2,2,1.0,1.0,0.0,-1.0,,0.0-122.0,,-1.0,1586.55,0.0,0.35205600299999995,1.0,0.68983859,1.0,0.739735447,1.0,0.366895945,True,,5d8ceadadad82b0016bac50b,,1664169,120,,evan-feature22,full_rf_a,,0
95,699,121,,,,2,2,1.0,1.0,0.0,-1.0,,0.0-123.0,,-1.0,858.645,0.0,0.40998722600000004,0.0,0.720859127,1.0,0.673854955,1.0,0.368528541,True,,5d8ceadadad82b0016bac50b,,1674793,121,,evan-feature22,full_rf_a,,0
96,700,122,,,,1,1,0.0,1.0,1.0,0.0,,0.0-124.0,,0.0,523.065,0.0,0.353625316,1.0,0.75,0.0,0.695605473,0.0,0.38303674200000004,True,,5d8ceadadad82b0016bac50b,,1685078,122,,evan-feature22,full_rf_a,,1
97,701,123,,,,2,2,1.0,1.0,0.0,-1.0,,0.0-125.0,,-1.0,989.925,0.0,0.359216989,1.0,0.75,1.0,0.6987915090000001,1.0,0.35169046200000004,True,,5d8ceadadad82b0016bac50b,,1695837,123,,evan-feature22,full_rf_a,,1
98,702,124,,,,1,1,0.0,0.0,1.0,0.0,,0.0-126.0,,0.0,1576.905,0.0,0.35834496899999996,0.0,0.75,1.0,0.707067742,0.0,0.416763636,True,,5d8ceadadad82b0016bac50b,,1707174,124,,evan-feature22,full_rf_a,,1
99,703,125,,,,1,1,1.0,1.0,1.0,0.0,,0.0-127.0,,1.0,1270.87,1.0,0.38741613799999997,1.0,0.7177369570000001,0.0,0.734902455,0.0,0.49438664299999996,True,,5d8ceadadad82b0016bac50b,,1718208,125,,evan-feature22,full_rf_a,,0
100,704,126,,,,2,2,1.0,1.0,0.0,-1.0,,0.0-128.0,,-1.0,1315.745,1.0,0.405255252,1.0,0.7300466640000001,1.0,0.7027748070000001,1.0,0.504359668,True,,5d8ceadadad82b0016bac50b,,1729290,126,,evan-feature22,full_rf_a,,1
101,705,127,,,,2,2,1.0,0.0,0.0,-1.0,,0.0-129.0,,0.0,855.93,0.0,0.40697073,1.0,0.7260142190000001,1.0,0.724461982,0.0,0.522779179,True,,5d8ceadadad82b0016bac50b,,1739911,127,,evan-feature22,full_rf_a,,0
102,706,128,,,,2,2,1.0,1.0,0.0,-1.0,,0.0-130.0,,-1.0,1189.035,1.0,0.43906215299999996,0.0,0.7252802340000001,1.0,0.719079934,1.0,0.5712990579999999,True,,5d8ceadadad82b0016bac50b,,1750864,128,,evan-feature22,full_rf_a,,0
103,707,129,,,,2,2,1.0,1.0,0.0,-1.0,,0.0-131.0,,-1.0,1146.99,1.0,0.4076705,1.0,0.73280499,1.0,0.681313127,1.0,0.523891346,True,,5d8ceadadad82b0016bac50b,,1761776,129,,evan-feature22,full_rf_a,,0
104,708,130,,,,2,2,1.0,0.0,0.0,-1.0,,0.0-132.0,,0.0,1051.665,0.0,0.399102911,0.0,0.730498344,1.0,0.661080239,0.0,0.46742603,True,,5d8ceadadad82b0016bac50b,,1772590,130,,evan-feature22,full_rf_a,,0
105,709,131,,,,1,1,0.0,1.0,1.0,0.0,,0.0-133.0,,0.0,1445.745,0.0,0.356477282,1.0,0.712296395,0.0,0.641812684,0.0,0.44868414,True,,5d8ceadadad82b0016bac50b,,1783798,131,,evan-feature22,full_rf_a,,1
106,710,132,,,,2,2,0.0,0.0,0.0,-1.0,,0.0-134.0,,0.0,1270.13,1.0,0.462760722,1.0,0.692349322,0.0,0.700947931,0.0,0.394680266,True,,5d8ceadadad82b0016bac50b,,1794831,132,,evan-feature22,full_rf_a,,1
107,711,133,,,,2,2,1.0,0.0,0.0,-1.0,,0.0-135.0,,0.0,1757.265,0.0,0.422306413,1.0,0.718375916,1.0,0.706340917,0.0,0.367787185,True,,5d8ceadadad82b0016bac50b,,1806352,133,,evan-feature22,full_rf_a,,0
108,713,135,,,,2,2,0.0,0.0,0.0,-1.0,,0.0-137.0,,0.0,1252.885,1.0,0.4582233,0.0,0.643834117,0.0,0.75,0.0,0.39615823299999997,True,,5d8ceadadad82b0016bac50b,,1820683,135,,evan-feature22,full_rf_a,,0
109,714,136,,,,2,2,0.0,0.0,0.0,-1.0,,0.0-138.0,,0.0,1159.91,1.0,0.43813437899999996,1.0,0.651283804,0.0,0.729674191,0.0,0.37711048,True,,5d8ceadadad82b0016bac50b,,1831604,136,,evan-feature22,full_rf_a,,0
110,715,137,,,,2,2,1.0,1.0,0.0,-1.0,,0.0-139.0,,-1.0,1439.68,1.0,0.471199094,0.0,0.6470010979999999,1.0,0.715008097,1.0,0.410656191,True,,5d8ceadadad82b0016bac50b,,1842808,137,,evan-feature22,full_rf_a,,0
111,716,138,,,,1,1,1.0,1.0,1.0,0.0,,0.0-140.0,,1.0,657.815,1.0,0.42486406,1.0,0.629771829,0.0,0.6550939960000001,0.0,0.459093873,True,,5d8ceadadad82b0016bac50b,,1853234,138,,evan-feature22,full_rf_a,,1
112,717,139,,,,1,1,1.0,0.0,1.0,0.0,,0.0-141.0,,1.0,674.3,1.0,0.4803197,0.0,0.645842715,1.0,0.6421749920000001,1.0,0.443092151,True,,5d8ceadadad82b0016bac50b,,1863674,139,,evan-feature22,full_rf_a,,0
113,718,140,,,,1,1,0.0,1.0,1.0,0.0,,0.0-142.0,,0.0,2074.515,0.0,0.521848997,1.0,0.735801074,1.0,0.6691348460000001,0.0,0.45259351600000003,True,,5d8ceadadad82b0016bac50b,,1875509,140,,evan-feature22,full_rf_a,,0
114,719,141,,,,2,2,0.0,1.0,0.0,-1.0,,0.0-143.0,,-1.0,1175.795,1.0,0.49565621299999996,1.0,0.742400847,0.0,0.661512553,1.0,0.483110831,True,,5d8ceadadad82b0016bac50b,,1886450,141,,evan-feature22,full_rf_a,,1
115,720,142,,,,1,1,0.0,1.0,1.0,0.0,,0.0-144.0,,0.0,1177.675,0.0,0.521564361,1.0,0.731078632,1.0,0.6774886809999999,1.0,0.483263956,True,,5d8ceadadad82b0016bac50b,,1897389,142,,evan-feature22,full_rf_a,,1
116,721,143,,,,1,1,1.0,1.0,1.0,0.0,,0.0-145.0,,1.0,1231.31,1.0,0.558893102,1.0,0.719810023,1.0,0.67461031,1.0,0.499349834,True,,5d8ceadadad82b0016bac50b,,1908384,143,,evan-feature22,full_rf_a,,0
117,722,144,,,,2,2,0.0,1.0,0.0,-1.0,,0.0-146.0,,-1.0,1203.715,1.0,0.611031046,0.0,0.75,0.0,0.688072995,1.0,0.5321422729999999,True,,5d8ceadadad82b0016bac50b,,1919351,144,,evan-feature22,full_rf_a,,1
118,723,145,,,,1,1,1.0,1.0,1.0,0.0,,0.0-147.0,,1.0,405.48,1.0,0.633223941,1.0,0.713567728,1.0,0.75,0.0,0.48185314700000004,True,,5d8ceadadad82b0016bac50b,,1929523,145,,evan-feature22,full_rf_a,,1
119,724,146,,,,1,1,1.0,0.0,1.0,0.0,,0.0-148.0,,1.0,1232.805,1.0,0.664001694,0.0,0.705509768,0.0,0.75,0.0,0.500211065,True,,5d8ceadadad82b0016bac50b,,1940517,146,,evan-feature22,full_rf_a,,0
120,725,147,,,,1,1,1.0,1.0,0.0,-1.0,,0.0-149.0,,-1.0,3919.73,1.0,0.664001694,1.0,0.705509768,0.0,0.75,0.0,0.500211065,True,,5d8ceadadad82b0016bac50b,,1954197,147,,evan-feature22,full_rf_a,,0
121,726,148,,,,2,2,1.0,0.0,0.0,-1.0,,0.0-150.0,,0.0,708.71,1.0,0.696508041,0.0,0.71066027,1.0,0.717028709,0.0,0.49792991,True,,5d8ceadadad82b0016bac50b,,1964671,148,,evan-feature22,full_rf_a,,1
122,727,149,,,,1,1,1.0,1.0,1.0,0.0,,0.0-151.0,,1.0,619.865,1.0,0.699883272,1.0,0.75,0.0,0.713543895,0.0,0.496962643,True,,5d8ceadadad82b0016bac50b,,1975052,149,,evan-feature22,full_rf_a,,1
123,728,150,,,,2,2,1.0,1.0,0.0,-1.0,,0.0-152.0,,-1.0,1390.25,0.0,0.741163419,1.0,0.75,1.0,0.64691024,1.0,0.513858197,True,,5d8ceadadad82b0016bac50b,,1986210,150,,evan-feature22,full_rf_a,,1
124,729,151,,,,1,1,1.0,1.0,1.0,0.0,,0.0-153.0,,1.0,1561.475,1.0,0.75,1.0,0.70816558,1.0,0.594499079,1.0,0.48502124,True,,5d8ceadadad82b0016bac50b,,1997539,151,,evan-feature22,full_rf_a,,1
125,730,152,,,,2,2,0.0,1.0,0.0,-1.0,,0.0-154.0,,-1.0,744.17,1.0,0.75,1.0,0.721848901,0.0,0.62197249,1.0,0.48263586399999997,True,,5d8ceadadad82b0016bac50b,,2008047,152,,evan-feature22,full_rf_a,,1
126,731,153,,,,1,1,1.0,0.0,1.0,0.0,,0.0-155.0,,1.0,1149.455,1.0,0.75,0.0,0.74813071,0.0,0.584357161,0.0,0.411477782,True,,5d8ceadadad82b0016bac50b,,2018958,153,,evan-feature22,full_rf_a,,1
127,732,154,,,,2,2,1.0,1.0,0.0,-1.0,,0.0-156.0,,-1.0,765.38,1.0,0.75,1.0,0.75,1.0,0.52287236,1.0,0.488290656,True,,5d8ceadadad82b0016bac50b,,2029487,154,,evan-feature22,full_rf_a,,1
128,733,155,,,,2,2,1.0,1.0,0.0,-1.0,,0.0-157.0,,-1.0,916.525,1.0,0.75,1.0,0.75,1.0,0.544321581,1.0,0.53143059,True,,5d8ceadadad82b0016bac50b,,2040169,155,,evan-feature22,full_rf_a,,0
129,734,156,,,,1,1,1.0,1.0,0.0,-1.0,,0.0-158.0,,-1.0,691.4,1.0,0.726754564,1.0,0.75,1.0,0.5129306370000001,1.0,0.530592445,True,,5d8ceadadad82b0016bac50b,,2050623,156,,evan-feature22,full_rf_a,,1
130,735,157,,,,1,1,1.0,1.0,1.0,0.0,,0.0-159.0,,1.0,2179.885,1.0,0.75,1.0,0.7392590729999999,0.0,0.479875835,0.0,0.547007051,True,,5d8ceadadad82b0016bac50b,,2062565,157,,evan-feature22,full_rf_a,,0
131,736,158,,,,1,1,1.0,1.0,1.0,0.0,,0.0-160.0,,1.0,859.095,1.0,0.75,1.0,0.7393376979999999,0.0,0.546045419,1.0,0.541267353,True,,5d8ceadadad82b0016bac50b,,2073192,158,,evan-feature22,full_rf_a,,0
132,737,159,,,,1,1,0.0,1.0,1.0,0.0,,0.0-161.0,,0.0,740.73,0.0,0.75,1.0,0.75,1.0,0.485725895,0.0,0.527625395,True,,5d8ceadadad82b0016bac50b,,2083693,159,,evan-feature22,full_rf_a,,0
133,738,160,,,,2,2,1.0,1.0,0.0,-1.0,,0.0-162.0,,-1.0,1870.925,1.0,0.75,0.0,0.725087974,1.0,0.488603595,1.0,0.504019206,True,,5d8ceadadad82b0016bac50b,,2095328,160,,evan-feature22,full_rf_a,,1
134,739,161,,,,2,2,0.0,1.0,0.0,-1.0,,0.0-163.0,,-1.0,2491.245,1.0,0.745504295,1.0,0.75,0.0,0.452379914,1.0,0.50131194,True,,5d8ceadadad82b0016bac50b,,2107581,161,,evan-feature22,full_rf_a,,0
135,740,162,,,,2,2,0.0,1.0,0.0,-1.0,,0.0-164.0,,-1.0,966.385,1.0,0.728513874,1.0,0.75,0.0,0.44125567200000004,1.0,0.531454591,True,,5d8ceadadad82b0016bac50b,,2118308,162,,evan-feature22,full_rf_a,,0
136,741,163,,,,1,1,0.0,0.0,1.0,0.0,,0.0-165.0,,0.0,1303.09,0.0,0.73790804,0.0,0.75,0.0,0.413036656,1.0,0.524619035,True,,5d8ceadadad82b0016bac50b,,2129374,163,,evan-feature22,full_rf_a,,1
137,742,164,,,,2,2,0.0,0.0,0.0,-1.0,,0.0-166.0,,0.0,1046.26,1.0,0.7080961309999999,0.0,0.708666865,0.0,0.431915581,0.0,0.481819489,True,,5d8ceadadad82b0016bac50b,,2140179,164,,evan-feature22,full_rf_a,,1
138,743,165,,,,2,2,0.0,0.0,0.0,-1.0,,0.0-167.0,,0.0,1744.82,1.0,0.721378003,1.0,0.71605913,0.0,0.36642387,0.0,0.5036739929999999,True,,5d8ceadadad82b0016bac50b,,2151686,165,,evan-feature22,full_rf_a,,0
139,744,166,,,,1,1,0.0,1.0,0.0,-1.0,,0.0-168.0,,-1.0,453.335,0.0,0.7340618959999999,1.0,0.699323252,0.0,0.35298046299999997,1.0,0.511241692,True,,5d8ceadadad82b0016bac50b,,2161903,166,,evan-feature22,full_rf_a,,1
140,745,167,,,,2,2,0.0,1.0,1.0,0.0,,0.0-169.0,,0.0,1284.95,0.0,0.75,1.0,0.70412698,0.0,0.380734814,1.0,0.529580116,True,,5d8ceadadad82b0016bac50b,,2172950,167,,evan-feature22,full_rf_a,,1
141,746,168,,,,2,2,0.0,1.0,0.0,-1.0,,0.0-170.0,,-1.0,1620.38,1.0,0.7436654909999999,1.0,0.711182751,0.0,0.41125331,1.0,0.49554405,True,,5d8ceadadad82b0016bac50b,,2184334,168,,evan-feature22,full_rf_a,,0
142,747,169,,,,1,1,1.0,0.0,0.0,-1.0,,0.0-171.0,,0.0,1245.175,1.0,0.731607915,0.0,0.651774583,0.0,0.35688023,1.0,0.45194491600000003,True,,5d8ceadadad82b0016bac50b,,2195343,169,,evan-feature22,full_rf_a,,1
143,748,170,,,,1,1,0.0,0.0,1.0,0.0,,0.0-172.0,,0.0,2027.185,0.0,0.75,0.0,0.75,0.0,0.283145374,1.0,0.528608005,True,,5d8ceadadad82b0016bac50b,,2207132,170,,evan-feature22,full_rf_a,,0
144,749,171,,,,2,2,1.0,1.0,1.0,0.0,,0.0-173.0,,1.0,791.66,1.0,0.7491416890000001,0.0,0.7423785959999999,1.0,0.29135870399999997,1.0,0.498888318,True,,5d8ceadadad82b0016bac50b,,2217687,171,,evan-feature22,full_rf_a,,1
145,750,172,,,,1,1,1.0,1.0,1.0,0.0,,0.0-174.0,,1.0,1810.575,1.0,0.708569387,1.0,0.717682277,0.0,0.294421699,0.0,0.493838163,True,,5d8ceadadad82b0016bac50b,,2229265,172,,evan-feature22,full_rf_a,,1
146,751,173,,,,2,2,0.0,1.0,0.0,-1.0,,0.0-175.0,,-1.0,1938.645,1.0,0.75,1.0,0.7383382159999999,0.0,0.356098707,1.0,0.442533405,True,,5d8ceadadad82b0016bac50b,,2240968,173,,evan-feature22,full_rf_a,,1
147,752,174,,,,1,1,0.0,1.0,0.0,-1.0,,0.0-176.0,,-1.0,1604.6,0.0,0.744527075,1.0,0.75,1.0,0.334127506,0.0,0.393165805,True,,5d8ceadadad82b0016bac50b,,2252336,174,,evan-feature22,full_rf_a,,1
148,753,175,,,,2,2,0.0,0.0,0.0,-1.0,,0.0-177.0,,0.0,524.145,0.0,0.75,0.0,0.75,0.0,0.33571021799999995,0.0,0.350393962,True,,5d8ceadadad82b0016bac50b,,2262622,175,,evan-feature22,full_rf_a,,1
149,754,176,,,,2,2,1.0,1.0,0.0,-1.0,,0.0-178.0,,-1.0,1037.565,0.0,0.75,1.0,0.75,1.0,0.313628297,1.0,0.36349657399999996,True,,5d8ceadadad82b0016bac50b,,2273424,176,,evan-feature22,full_rf_a,,0
150,755,177,,,,1,1,0.0,1.0,1.0,0.0,,0.0-179.0,,0.0,843.31,0.0,0.75,1.0,0.734284182,1.0,0.262667667,0.0,0.380199119,True,,5d8ceadadad82b0016bac50b,,2284035,177,,evan-feature22,full_rf_a,,1
151,756,178,,,,2,2,0.0,0.0,0.0,-1.0,,0.0-180.0,,0.0,485.795,1.0,0.75,1.0,0.75,0.0,0.25,0.0,0.394494013,True,,5d8ceadadad82b0016bac50b,,2294286,178,,evan-feature22,full_rf_a,,1
152,757,179,,,,1,1,1.0,1.0,1.0,0.0,,0.0-181.0,,1.0,1694.17,1.0,0.722298145,1.0,0.7357822340000001,0.0,0.25,0.0,0.319142121,True,,5d8ceadadad82b0016bac50b,,2305743,179,,evan-feature22,full_rf_a,,1
153,758,180,,,,1,1,0.0,1.0,1.0,0.0,,0.0-182.0,,0.0,1292.685,0.0,0.73149275,1.0,0.724276446,0.0,0.305856907,0.0,0.281315057,True,,5d8ceadadad82b0016bac50b,,2316798,180,,evan-feature22,full_rf_a,,0
154,759,181,,,,2,2,0.0,0.0,0.0,-1.0,,0.0-183.0,,0.0,1277.61,0.0,0.7458732690000001,1.0,0.7336382459999999,0.0,0.272571964,0.0,0.266021999,True,,5d8ceadadad82b0016bac50b,,2327837,181,,evan-feature22,full_rf_a,,1
155,760,182,,,,2,2,0.0,1.0,0.0,-1.0,,0.0-184.0,,-1.0,1102.97,1.0,0.705579037,0.0,0.720778292,0.0,0.320238144,1.0,0.30971744,True,,5d8ceadadad82b0016bac50b,,2338701,182,,evan-feature22,full_rf_a,,0
156,761,183,,,,2,2,1.0,1.0,0.0,-1.0,,0.0-185.0,,-1.0,1007.165,0.0,0.700425648,1.0,0.7198784009999999,1.0,0.272590393,1.0,0.304182931,True,,5d8ceadadad82b0016bac50b,,2349472,183,,evan-feature22,full_rf_a,,0
157,762,184,,,,2,2,0.0,1.0,0.0,-1.0,,0.0-186.0,,-1.0,699.47,1.0,0.735590785,1.0,0.722714973,0.0,0.25,1.0,0.323421091,True,,5d8ceadadad82b0016bac50b,,2359939,184,,evan-feature22,full_rf_a,,0
158,763,185,,,,2,2,0.0,1.0,0.0,-1.0,,0.0-187.0,,-1.0,1063.895,1.0,0.724807662,1.0,0.63146213,0.0,0.36836492600000004,1.0,0.34592153299999995,True,,5d8ceadadad82b0016bac50b,,2370766,185,,evan-feature22,full_rf_a,,0
159,764,186,,,,1,1,1.0,1.0,0.0,-1.0,,0.0-188.0,,-1.0,805.835,1.0,0.7352796909999999,1.0,0.555111392,0.0,0.36003922,0.0,0.31433779999999995,True,,5d8ceadadad82b0016bac50b,,2381335,186,,evan-feature22,full_rf_a,,1
160,765,187,notice,,,,,,,,,,0.0-189.0,"{""Q0"":""no""}",,12230.0,,,,,,,,,True,,5d8ceadadad82b0016bac50b,,2393567,187,Q,survey-text,full_rf_a,,1
161,766,188,track1,,[1],,,,,,,,0.0-190.0,"{""Q0"":""no""}",,4942.0,,,,,,,,,True,,5d8ceadadad82b0016bac50b,,2398511,188,Q,evan-quiz,full_rf_a,,1
162,767,189,track2,,[1],,,,,,,,0.0-191.0,"{""Q0"":""no""}",,12695.0,,,,,,,,,True,,5d8ceadadad82b0016bac50b,,2411207,189,Q,evan-quiz,full_rf_a,,1
163,768,190,strat,,,,,,,,,,0.0-192.0,"{""Q0"":""i tried to follow patterns that seems to get points as much as possible""}",,23182.0,,,,,,,,,True,,5d8ceadadad82b0016bac50b,,2434391,190,Q,survey-text,full_rf_a,,1
