,index,Unnamed: 0,Q_name,button_pressed,choice_idxs,chosen_pos,chosen_state,chosen_state_f_1_outcome,chosen_state_f_2_outcome,f_1_reward,f_2_reward,incor_questions,internal_node_id,responses,reward_received,rt,s_1_f_1_outcome,s_1_f_1_prob,s_1_f_2_outcome,s_1_f_2_prob,s_2_f_1_outcome,s_2_f_1_prob,s_2_f_2_outcome,s_2_f_2_prob,safe_first,stimulus,subjectID,success,time_elapsed,trial_index,trial_num,trial_type,version,view_history,switching
0,41884,30,,,,1,1,1.0,0.0,0.0,1.0,,0.0-27.0,,0.0,1061.74,1.0,0.6,0.0,0.6,0.0,0.4,1.0,0.4,True,,5f76f9bc8ed0b91b34f829da,,614650,30,,evan-feature22,full_rf_b,,0
1,41885,31,,,,1,1,1.0,0.0,0.0,1.0,,0.0-28.0,,0.0,1311.465,1.0,0.608053294,0.0,0.63424552,1.0,0.397152172,1.0,0.347069101,True,,5f76f9bc8ed0b91b34f829da,,625747,31,,evan-feature22,full_rf_b,,0
2,41886,32,,,,1,1,0.0,1.0,0.0,1.0,,0.0-29.0,,1.0,2547.345,0.0,0.642237155,1.0,0.648566321,1.0,0.389407674,0.0,0.285525717,True,,5f76f9bc8ed0b91b34f829da,,638072,32,,evan-feature22,full_rf_b,,0
3,41887,33,,,,1,1,1.0,0.0,0.0,1.0,,0.0-30.0,,0.0,968.31,1.0,0.661086576,0.0,0.630492543,0.0,0.399058924,0.0,0.25,True,,5f76f9bc8ed0b91b34f829da,,648814,33,,evan-feature22,full_rf_b,,0
4,41888,34,,,,2,2,0.0,0.0,0.0,1.0,,0.0-31.0,,0.0,1001.095,1.0,0.631324137,1.0,0.6269842929999999,0.0,0.38734784299999997,0.0,0.25,True,,5f76f9bc8ed0b91b34f829da,,659601,34,,evan-feature22,full_rf_b,,1
5,41889,35,,,,1,1,1.0,1.0,0.0,1.0,,0.0-32.0,,1.0,687.77,1.0,0.6381991370000001,1.0,0.68987999,0.0,0.384107265,1.0,0.271332943,True,,5f76f9bc8ed0b91b34f829da,,670066,35,,evan-feature22,full_rf_b,,1
6,41890,36,,,,1,1,1.0,1.0,0.0,1.0,,0.0-33.0,,1.0,641.215,1.0,0.66034901,1.0,0.742641349,1.0,0.360225629,0.0,0.25,True,,5f76f9bc8ed0b91b34f829da,,680484,36,,evan-feature22,full_rf_b,,0
7,41891,37,,,,1,1,1.0,1.0,-1.0,0.0,,0.0-34.0,,-1.0,671.44,1.0,0.638612418,1.0,0.75,0.0,0.367273939,0.0,0.25,True,,5f76f9bc8ed0b91b34f829da,,690931,37,,evan-feature22,full_rf_b,,0
8,41892,38,,,,2,2,0.0,0.0,0.0,1.0,,0.0-35.0,,0.0,449.02,1.0,0.624340629,1.0,0.75,0.0,0.425829545,0.0,0.25,True,,5f76f9bc8ed0b91b34f829da,,701160,38,,evan-feature22,full_rf_b,,1
9,41893,39,,,,1,1,1.0,1.0,0.0,1.0,,0.0-36.0,,1.0,1918.76,1.0,0.621999804,1.0,0.75,1.0,0.368609357,0.0,0.25,True,,5f76f9bc8ed0b91b34f829da,,712849,39,,evan-feature22,full_rf_b,,1
10,41894,40,,,,1,1,1.0,1.0,-1.0,0.0,,0.0-37.0,,-1.0,625.64,1.0,0.62666403,1.0,0.75,1.0,0.311151498,0.0,0.25,True,,5f76f9bc8ed0b91b34f829da,,723250,40,,evan-feature22,full_rf_b,,0
11,41895,41,,,,1,1,1.0,0.0,-1.0,0.0,,0.0-38.0,,-1.0,618.525,1.0,0.6819650009999999,0.0,0.75,1.0,0.310763048,0.0,0.25,True,,5f76f9bc8ed0b91b34f829da,,733646,41,,evan-feature22,full_rf_b,,0
12,41896,42,,,,1,1,0.0,1.0,0.0,1.0,,0.0-39.0,,1.0,940.78,0.0,0.740626951,1.0,0.75,1.0,0.25,0.0,0.25,True,,5f76f9bc8ed0b91b34f829da,,744366,42,,evan-feature22,full_rf_b,,0
13,41897,43,,,,1,1,1.0,1.0,0.0,1.0,,0.0-40.0,,1.0,1346.495,1.0,0.739599242,1.0,0.742034978,0.0,0.25397114600000004,0.0,0.25,True,,5f76f9bc8ed0b91b34f829da,,755483,43,,evan-feature22,full_rf_b,,0
14,41898,44,,,,1,1,0.0,1.0,0.0,1.0,,0.0-41.0,,1.0,559.14,0.0,0.732341315,1.0,0.72735643,0.0,0.25,0.0,0.25,True,,5f76f9bc8ed0b91b34f829da,,765816,44,,evan-feature22,full_rf_b,,0
15,41899,45,,,,1,1,1.0,1.0,0.0,1.0,,0.0-42.0,,1.0,1252.025,1.0,0.7062287770000001,1.0,0.75,0.0,0.29002151,1.0,0.288256649,True,,5f76f9bc8ed0b91b34f829da,,776840,45,,evan-feature22,full_rf_b,,0
16,41900,46,,,,1,1,1.0,1.0,-1.0,0.0,,0.0-43.0,,-1.0,1058.815,1.0,0.7086029209999999,1.0,0.75,0.0,0.274129113,0.0,0.262851608,True,,5f76f9bc8ed0b91b34f829da,,787671,46,,evan-feature22,full_rf_b,,0
17,41901,47,,,,1,1,1.0,0.0,0.0,1.0,,0.0-44.0,,0.0,837.65,1.0,0.669189651,0.0,0.727614338,0.0,0.298444036,0.0,0.296944518,True,,5f76f9bc8ed0b91b34f829da,,798288,47,,evan-feature22,full_rf_b,,0
18,41902,48,,,,1,1,1.0,1.0,-1.0,0.0,,0.0-45.0,,-1.0,644.845,1.0,0.6819912929999999,1.0,0.7179434290000001,0.0,0.265003961,0.0,0.28157921199999997,True,,5f76f9bc8ed0b91b34f829da,,808710,48,,evan-feature22,full_rf_b,,0
19,41903,49,,,,2,2,1.0,0.0,-1.0,0.0,,0.0-46.0,,-1.0,539.36,1.0,0.665275002,1.0,0.723065271,1.0,0.260414971,0.0,0.30973870000000003,True,,5f76f9bc8ed0b91b34f829da,,819019,49,,evan-feature22,full_rf_b,,1
20,41904,50,,,,1,1,1.0,1.0,0.0,1.0,,0.0-47.0,,1.0,703.48,1.0,0.6660593260000001,1.0,0.728032907,0.0,0.30922817,0.0,0.338778608,True,,5f76f9bc8ed0b91b34f829da,,829499,50,,evan-feature22,full_rf_b,,1
21,41905,51,,,,1,1,1.0,1.0,0.0,1.0,,0.0-48.0,,1.0,641.0,1.0,0.702068785,1.0,0.6528750879999999,0.0,0.287329608,1.0,0.35789613200000003,True,,5f76f9bc8ed0b91b34f829da,,839915,51,,evan-feature22,full_rf_b,,0
22,41906,52,,,,1,1,0.0,1.0,0.0,1.0,,0.0-49.0,,1.0,1023.855,0.0,0.651939787,1.0,0.636725589,0.0,0.284834488,0.0,0.358563756,True,,5f76f9bc8ed0b91b34f829da,,850715,52,,evan-feature22,full_rf_b,,0
23,41907,53,,,,1,1,0.0,0.0,0.0,1.0,,0.0-50.0,,0.0,826.055,0.0,0.67573929,0.0,0.612550049,0.0,0.37130387600000003,0.0,0.383542402,True,,5f76f9bc8ed0b91b34f829da,,861318,53,,evan-feature22,full_rf_b,,0
24,41908,54,,,,1,1,0.0,0.0,0.0,1.0,,0.0-51.0,,0.0,593.06,0.0,0.620753801,0.0,0.60513644,0.0,0.385529434,0.0,0.340361743,True,,5f76f9bc8ed0b91b34f829da,,871682,54,,evan-feature22,full_rf_b,,0
25,41909,55,,,,1,1,1.0,1.0,-1.0,0.0,,0.0-52.0,,-1.0,669.35,1.0,0.673564893,1.0,0.672437924,0.0,0.292955382,1.0,0.337633795,True,,5f76f9bc8ed0b91b34f829da,,882127,55,,evan-feature22,full_rf_b,,0
26,41910,56,,,,2,2,0.0,0.0,0.0,1.0,,0.0-53.0,,0.0,563.08,0.0,0.6749427,1.0,0.724197502,0.0,0.32391132100000003,0.0,0.350995264,True,,5f76f9bc8ed0b91b34f829da,,892463,56,,evan-feature22,full_rf_b,,1
27,41911,57,,,,1,1,0.0,0.0,0.0,1.0,,0.0-54.0,,0.0,597.775,0.0,0.6940159379999999,0.0,0.75,1.0,0.31710554399999996,0.0,0.413450341,True,,5f76f9bc8ed0b91b34f829da,,902831,57,,evan-feature22,full_rf_b,,1
28,41912,58,,,,1,1,1.0,1.0,0.0,1.0,,0.0-55.0,,1.0,827.59,1.0,0.6916018270000001,1.0,0.69001187,1.0,0.261817804,0.0,0.40038635,True,,5f76f9bc8ed0b91b34f829da,,913434,58,,evan-feature22,full_rf_b,,0
29,41913,59,,,,1,1,1.0,1.0,0.0,1.0,,0.0-56.0,,1.0,605.145,1.0,0.641061544,1.0,0.71337992,0.0,0.277296461,0.0,0.47372791700000005,True,,5f76f9bc8ed0b91b34f829da,,923812,59,,evan-feature22,full_rf_b,,0
30,41914,60,,,,1,1,1.0,0.0,0.0,1.0,,0.0-57.0,,0.0,691.05,1.0,0.6082438520000001,0.0,0.708471106,0.0,0.28745137,0.0,0.564174476,True,,5f76f9bc8ed0b91b34f829da,,934277,60,,evan-feature22,full_rf_b,,0
31,41915,61,,,,1,1,1.0,1.0,-1.0,0.0,,0.0-58.0,,-1.0,698.245,1.0,0.6051112120000001,1.0,0.7118147229999999,1.0,0.272390611,0.0,0.5595149939999999,True,,5f76f9bc8ed0b91b34f829da,,944752,61,,evan-feature22,full_rf_b,,0
32,41916,62,,,,1,1,0.0,1.0,-1.0,0.0,,0.0-59.0,,0.0,1006.435,0.0,0.582420852,1.0,0.635867583,1.0,0.31089574,1.0,0.5227206520000001,True,,5f76f9bc8ed0b91b34f829da,,955534,62,,evan-feature22,full_rf_b,,0
33,41917,63,,,,1,1,1.0,1.0,-1.0,0.0,,0.0-60.0,,-1.0,1474.73,1.0,0.623195575,1.0,0.655026044,0.0,0.25,0.0,0.560387538,True,,5f76f9bc8ed0b91b34f829da,,966788,63,,evan-feature22,full_rf_b,,0
34,41918,64,,,,2,2,0.0,0.0,0.0,1.0,,0.0-61.0,,0.0,1065.085,1.0,0.601889598,1.0,0.678198724,0.0,0.25,0.0,0.559922936,True,,5f76f9bc8ed0b91b34f829da,,977636,64,,evan-feature22,full_rf_b,,1
35,41919,65,,,,2,2,0.0,1.0,-1.0,0.0,,0.0-62.0,,0.0,1696.265,1.0,0.601259914,0.0,0.704681482,0.0,0.33908969299999997,1.0,0.505003715,True,,5f76f9bc8ed0b91b34f829da,,989113,65,,evan-feature22,full_rf_b,,0
36,41920,66,,,,2,2,0.0,1.0,-1.0,0.0,,0.0-63.0,,0.0,1563.085,0.0,0.59645454,0.0,0.710437172,0.0,0.327441879,1.0,0.391749613,True,,5f76f9bc8ed0b91b34f829da,,1000452,66,,evan-feature22,full_rf_b,,0
37,41921,67,,,,1,1,0.0,1.0,0.0,1.0,,0.0-64.0,,1.0,2712.08,0.0,0.529473,1.0,0.636758527,0.0,0.301338063,1.0,0.365661481,True,,5f76f9bc8ed0b91b34f829da,,1012941,67,,evan-feature22,full_rf_b,,1
38,41922,68,,,,1,1,1.0,1.0,-1.0,0.0,,0.0-65.0,,-1.0,780.155,1.0,0.541657162,1.0,0.634541962,1.0,0.343535366,0.0,0.371763742,True,,5f76f9bc8ed0b91b34f829da,,1023503,68,,evan-feature22,full_rf_b,,0
39,41923,69,,,,1,1,1.0,0.0,-1.0,0.0,,0.0-66.0,,-1.0,1206.105,1.0,0.5707533260000001,0.0,0.589121171,1.0,0.326428396,1.0,0.43961622899999997,True,,5f76f9bc8ed0b91b34f829da,,1034488,69,,evan-feature22,full_rf_b,,0
40,41924,70,,,,2,2,1.0,1.0,0.0,1.0,,0.0-67.0,,1.0,1124.325,1.0,0.5707533260000001,0.0,0.589121171,1.0,0.326428396,1.0,0.43961622899999997,True,,5f76f9bc8ed0b91b34f829da,,1045390,70,,evan-feature22,full_rf_b,,1
41,41925,71,,,,2,2,1.0,0.0,0.0,1.0,,0.0-68.0,,0.0,865.765,1.0,0.506271295,1.0,0.641775594,1.0,0.37149690700000004,0.0,0.404330166,True,,5f76f9bc8ed0b91b34f829da,,1056035,71,,evan-feature22,full_rf_b,,0
42,41926,72,,,,1,1,1.0,1.0,-1.0,0.0,,0.0-69.0,,-1.0,1174.39,1.0,0.455642565,1.0,0.623605825,0.0,0.358753011,0.0,0.346174041,True,,5f76f9bc8ed0b91b34f829da,,1066989,72,,evan-feature22,full_rf_b,,1
43,41927,73,,,,1,1,0.0,1.0,0.0,1.0,,0.0-70.0,,1.0,606.13,0.0,0.483677308,1.0,0.5904681070000001,0.0,0.402218411,0.0,0.35344697,True,,5f76f9bc8ed0b91b34f829da,,1077367,73,,evan-feature22,full_rf_b,,0
44,41928,74,,,,2,2,1.0,1.0,-1.0,0.0,,0.0-71.0,,-1.0,1377.805,1.0,0.394210977,0.0,0.558925494,1.0,0.540052017,1.0,0.35182128700000004,True,,5f76f9bc8ed0b91b34f829da,,1088525,74,,evan-feature22,full_rf_b,,1
45,41929,75,,,,1,1,1.0,1.0,0.0,1.0,,0.0-72.0,,1.0,797.365,1.0,0.382300414,1.0,0.577670603,1.0,0.607608448,1.0,0.378261578,True,,5f76f9bc8ed0b91b34f829da,,1099106,75,,evan-feature22,full_rf_b,,1
46,41930,76,,,,1,1,0.0,1.0,-1.0,0.0,,0.0-73.0,,0.0,1167.985,0.0,0.357596762,1.0,0.5929076529999999,0.0,0.6579790010000001,0.0,0.401326777,True,,5f76f9bc8ed0b91b34f829da,,1110050,76,,evan-feature22,full_rf_b,,0
47,41931,77,,,,1,1,1.0,0.0,0.0,1.0,,0.0-74.0,,0.0,1743.7,1.0,0.362033495,0.0,0.582308608,1.0,0.649195052,0.0,0.355158505,True,,5f76f9bc8ed0b91b34f829da,,1121559,77,,evan-feature22,full_rf_b,,0
48,41932,78,,,,1,1,0.0,1.0,0.0,1.0,,0.0-75.0,,1.0,569.92,0.0,0.369620635,1.0,0.669100864,1.0,0.706059111,1.0,0.362516241,True,,5f76f9bc8ed0b91b34f829da,,1131905,78,,evan-feature22,full_rf_b,,0
49,41933,79,,,,1,1,1.0,0.0,0.0,1.0,,0.0-76.0,,0.0,831.785,1.0,0.41477751399999996,0.0,0.7284416779999999,1.0,0.7182656940000001,1.0,0.36228040899999997,True,,5f76f9bc8ed0b91b34f829da,,1142517,79,,evan-feature22,full_rf_b,,0
50,41934,80,,,,2,2,1.0,0.0,-1.0,0.0,,0.0-77.0,,-1.0,930.665,1.0,0.37675460299999997,1.0,0.703250285,1.0,0.75,0.0,0.461979164,True,,5f76f9bc8ed0b91b34f829da,,1153216,80,,evan-feature22,full_rf_b,,1
51,41935,81,,,,1,1,1.0,1.0,-1.0,0.0,,0.0-78.0,,-1.0,717.325,1.0,0.398716075,1.0,0.6723864890000001,1.0,0.674153818,1.0,0.519029516,True,,5f76f9bc8ed0b91b34f829da,,1163713,81,,evan-feature22,full_rf_b,,1
52,41936,82,,,,1,1,1.0,0.0,-1.0,0.0,,0.0-79.0,,-1.0,646.265,1.0,0.34677856700000004,0.0,0.69057175,0.0,0.6822438540000001,1.0,0.477292237,True,,5f76f9bc8ed0b91b34f829da,,1174133,82,,evan-feature22,full_rf_b,,0
53,41937,83,,,,2,2,1.0,1.0,0.0,1.0,,0.0-80.0,,1.0,839.325,1.0,0.28580469199999997,0.0,0.68408818,1.0,0.684207565,1.0,0.49780448299999996,True,,5f76f9bc8ed0b91b34f829da,,1184740,83,,evan-feature22,full_rf_b,,1
54,41939,85,,,,1,1,0.0,1.0,0.0,1.0,,0.0-82.0,,1.0,738.165,0.0,0.25,1.0,0.7405808970000001,1.0,0.679614108,0.0,0.436436964,True,,5f76f9bc8ed0b91b34f829da,,1198065,85,,evan-feature22,full_rf_b,,1
55,41940,86,,,,1,1,0.0,0.0,0.0,1.0,,0.0-83.0,,0.0,728.05,0.0,0.29890393,0.0,0.730505706,1.0,0.7328203320000001,1.0,0.439256938,True,,5f76f9bc8ed0b91b34f829da,,1208564,86,,evan-feature22,full_rf_b,,0
56,41941,87,,,,1,1,0.0,0.0,-1.0,0.0,,0.0-84.0,,0.0,1675.77,0.0,0.326762398,0.0,0.7148059609999999,1.0,0.75,0.0,0.44389608799999997,True,,5f76f9bc8ed0b91b34f829da,,1220019,87,,evan-feature22,full_rf_b,,0
57,41942,88,,,,1,1,0.0,0.0,0.0,1.0,,0.0-85.0,,0.0,664.835,0.0,0.295168515,0.0,0.739760854,1.0,0.719947008,0.0,0.35277284600000003,True,,5f76f9bc8ed0b91b34f829da,,1230465,88,,evan-feature22,full_rf_b,,0
58,41943,89,,,,1,1,0.0,1.0,0.0,1.0,,0.0-86.0,,1.0,1131.89,0.0,0.25,1.0,0.70781482,1.0,0.75,0.0,0.286095925,True,,5f76f9bc8ed0b91b34f829da,,1241373,89,,evan-feature22,full_rf_b,,0
59,41944,90,,,,1,1,1.0,1.0,0.0,1.0,,0.0-87.0,,1.0,810.24,1.0,0.25638190899999996,1.0,0.704088163,0.0,0.75,0.0,0.26872601399999996,True,,5f76f9bc8ed0b91b34f829da,,1251957,90,,evan-feature22,full_rf_b,,0
60,41945,91,,,,1,1,0.0,1.0,-1.0,0.0,,0.0-88.0,,0.0,885.82,0.0,0.271581126,1.0,0.669760107,1.0,0.733896663,1.0,0.273244572,True,,5f76f9bc8ed0b91b34f829da,,1262625,91,,evan-feature22,full_rf_b,,0
61,41946,92,,,,1,1,0.0,0.0,0.0,1.0,,0.0-89.0,,0.0,495.755,0.0,0.257144401,0.0,0.600575706,0.0,0.74488122,0.0,0.25,True,,5f76f9bc8ed0b91b34f829da,,1272887,92,,evan-feature22,full_rf_b,,0
62,41947,93,,,,1,1,0.0,1.0,0.0,1.0,,0.0-90.0,,1.0,898.745,0.0,0.25,1.0,0.616870026,1.0,0.723610234,1.0,0.25,True,,5f76f9bc8ed0b91b34f829da,,1283558,93,,evan-feature22,full_rf_b,,0
63,41948,94,,,,1,1,0.0,1.0,-1.0,0.0,,0.0-91.0,,0.0,1454.37,0.0,0.25,1.0,0.583540187,0.0,0.7041042559999999,0.0,0.285961995,True,,5f76f9bc8ed0b91b34f829da,,1294790,94,,evan-feature22,full_rf_b,,0
64,41949,95,,,,1,1,1.0,1.0,-1.0,0.0,,0.0-92.0,,-1.0,1134.28,1.0,0.27254536,1.0,0.53875765,1.0,0.693783448,1.0,0.284961652,True,,5f76f9bc8ed0b91b34f829da,,1305707,95,,evan-feature22,full_rf_b,,0
65,41950,96,,,,1,1,0.0,0.0,-1.0,0.0,,0.0-93.0,,0.0,614.515,0.0,0.25,0.0,0.548431252,1.0,0.734221895,0.0,0.279445214,True,,5f76f9bc8ed0b91b34f829da,,1316092,96,,evan-feature22,full_rf_b,,0
66,41951,97,,,,1,1,0.0,1.0,0.0,1.0,,0.0-94.0,,1.0,928.68,0.0,0.258640684,1.0,0.545878066,1.0,0.725245965,0.0,0.31487537,True,,5f76f9bc8ed0b91b34f829da,,1326795,97,,evan-feature22,full_rf_b,,0
67,41952,98,,,,1,1,1.0,0.0,0.0,1.0,,0.0-95.0,,0.0,643.605,1.0,0.251103711,0.0,0.5776290629999999,0.0,0.696320133,1.0,0.317831047,True,,5f76f9bc8ed0b91b34f829da,,1337216,98,,evan-feature22,full_rf_b,,0
68,41953,99,,,,2,2,0.0,0.0,0.0,1.0,,0.0-96.0,,0.0,995.235,1.0,0.276630292,1.0,0.617329858,0.0,0.73838088,0.0,0.261471582,True,,5f76f9bc8ed0b91b34f829da,,1347989,99,,evan-feature22,full_rf_b,,1
69,41954,100,,,,1,1,0.0,0.0,0.0,1.0,,0.0-97.0,,0.0,625.42,0.0,0.297716424,0.0,0.618863717,1.0,0.7402358259999999,0.0,0.262600834,True,,5f76f9bc8ed0b91b34f829da,,1358389,100,,evan-feature22,full_rf_b,,1
70,41955,101,,,,1,1,1.0,1.0,-1.0,0.0,,0.0-98.0,,-1.0,1182.36,1.0,0.290935512,1.0,0.695370945,0.0,0.706570507,1.0,0.280030553,True,,5f76f9bc8ed0b91b34f829da,,1369346,101,,evan-feature22,full_rf_b,,0
71,41956,102,,,,1,1,1.0,1.0,0.0,1.0,,0.0-99.0,,1.0,929.91,1.0,0.25,1.0,0.6465277079999999,1.0,0.67766682,0.0,0.25,True,,5f76f9bc8ed0b91b34f829da,,1380052,102,,evan-feature22,full_rf_b,,0
72,41957,103,,,,1,1,0.0,0.0,-1.0,0.0,,0.0-100.0,,0.0,611.1,0.0,0.26463816,0.0,0.636100213,1.0,0.646048507,1.0,0.265607101,True,,5f76f9bc8ed0b91b34f829da,,1390442,103,,evan-feature22,full_rf_b,,0
73,41958,104,,,,2,2,1.0,0.0,-1.0,0.0,,0.0-101.0,,-1.0,2100.035,0.0,0.314340707,1.0,0.667795927,1.0,0.613630805,0.0,0.25,True,,5f76f9bc8ed0b91b34f829da,,1402324,104,,evan-feature22,full_rf_b,,1
74,41959,105,,,,1,1,0.0,1.0,0.0,1.0,,0.0-102.0,,1.0,924.76,0.0,0.28685784,1.0,0.6622549529999999,1.0,0.652154117,0.0,0.25,True,,5f76f9bc8ed0b91b34f829da,,1413020,105,,evan-feature22,full_rf_b,,1
75,41960,106,,,,1,1,1.0,1.0,0.0,1.0,,0.0-103.0,,1.0,822.015,1.0,0.304106554,1.0,0.631289538,1.0,0.707041942,0.0,0.29314237,True,,5f76f9bc8ed0b91b34f829da,,1423615,106,,evan-feature22,full_rf_b,,0
76,41961,107,,,,1,1,1.0,0.0,0.0,1.0,,0.0-104.0,,0.0,700.56,1.0,0.304806932,0.0,0.571167718,0.0,0.680472346,0.0,0.25,True,,5f76f9bc8ed0b91b34f829da,,1434090,107,,evan-feature22,full_rf_b,,0
77,41962,108,,,,1,1,1.0,0.0,0.0,1.0,,0.0-105.0,,0.0,650.03,1.0,0.37919861,0.0,0.5724849710000001,0.0,0.705638003,0.0,0.30179300600000003,True,,5f76f9bc8ed0b91b34f829da,,1444509,108,,evan-feature22,full_rf_b,,0
78,41963,109,,,,1,1,0.0,1.0,0.0,1.0,,0.0-106.0,,1.0,706.34,0.0,0.464277969,1.0,0.554034373,1.0,0.7372627340000001,0.0,0.264699741,True,,5f76f9bc8ed0b91b34f829da,,1454995,109,,evan-feature22,full_rf_b,,0
79,41964,110,,,,1,1,1.0,1.0,0.0,1.0,,0.0-107.0,,1.0,751.53,1.0,0.465104323,1.0,0.530793115,0.0,0.75,0.0,0.31683071,True,,5f76f9bc8ed0b91b34f829da,,1465513,110,,evan-feature22,full_rf_b,,0
80,41965,111,,,,1,1,1.0,0.0,-1.0,0.0,,0.0-108.0,,-1.0,1125.275,1.0,0.465104323,0.0,0.530793115,0.0,0.75,0.0,0.31683071,True,,5f76f9bc8ed0b91b34f829da,,1476411,111,,evan-feature22,full_rf_b,,0
81,41966,112,,,,1,1,1.0,1.0,-1.0,0.0,,0.0-109.0,,-1.0,2362.685,1.0,0.46833986,1.0,0.570249239,1.0,0.7244472590000001,1.0,0.364114163,True,,5f76f9bc8ed0b91b34f829da,,1488553,112,,evan-feature22,full_rf_b,,0
82,41967,113,,,,1,1,0.0,0.0,-1.0,0.0,,0.0-110.0,,0.0,968.94,0.0,0.445444024,0.0,0.649673355,1.0,0.6845441290000001,0.0,0.300660449,True,,5f76f9bc8ed0b91b34f829da,,1499305,113,,evan-feature22,full_rf_b,,0
83,41968,114,,,,1,1,0.0,0.0,-1.0,0.0,,0.0-111.0,,0.0,577.715,0.0,0.39909721299999995,0.0,0.6715179509999999,1.0,0.742310028,1.0,0.35496088299999995,True,,5f76f9bc8ed0b91b34f829da,,1509662,114,,evan-feature22,full_rf_b,,0
84,41969,115,,,,1,1,0.0,1.0,0.0,1.0,,0.0-112.0,,1.0,952.8,0.0,0.37956104799999996,1.0,0.694725302,0.0,0.7181651309999999,1.0,0.38726906299999997,True,,5f76f9bc8ed0b91b34f829da,,1520391,115,,evan-feature22,full_rf_b,,0
85,41970,116,,,,1,1,1.0,1.0,0.0,1.0,,0.0-113.0,,1.0,823.31,1.0,0.404995034,1.0,0.724375412,1.0,0.6910946859999999,1.0,0.387187347,True,,5f76f9bc8ed0b91b34f829da,,1530994,116,,evan-feature22,full_rf_b,,0
86,41971,117,,,,1,1,1.0,1.0,-1.0,0.0,,0.0-114.0,,-1.0,773.365,1.0,0.461740803,1.0,0.75,1.0,0.75,0.0,0.34872038200000005,True,,5f76f9bc8ed0b91b34f829da,,1541551,117,,evan-feature22,full_rf_b,,0
87,41972,118,,,,1,1,0.0,1.0,-1.0,0.0,,0.0-115.0,,0.0,1280.325,0.0,0.43821380600000004,1.0,0.738833273,0.0,0.728286963,0.0,0.399538128,True,,5f76f9bc8ed0b91b34f829da,,1552612,118,,evan-feature22,full_rf_b,,0
88,41973,119,,,,1,1,1.0,1.0,0.0,1.0,,0.0-116.0,,1.0,936.195,1.0,0.41709882,1.0,0.736666736,0.0,0.75,0.0,0.389095584,True,,5f76f9bc8ed0b91b34f829da,,1563336,119,,evan-feature22,full_rf_b,,0
89,41974,120,,,,1,1,1.0,1.0,0.0,1.0,,0.0-117.0,,1.0,1121.17,1.0,0.39749009799999996,1.0,0.744320029,1.0,0.75,1.0,0.363848678,True,,5f76f9bc8ed0b91b34f829da,,1574237,120,,evan-feature22,full_rf_b,,0
90,41975,121,,,,1,1,0.0,1.0,-1.0,0.0,,0.0-118.0,,0.0,971.075,0.0,0.392653706,1.0,0.75,1.0,0.75,0.0,0.384386976,True,,5f76f9bc8ed0b91b34f829da,,1584989,121,,evan-feature22,full_rf_b,,0
91,41976,122,,,,1,1,0.0,1.0,0.0,1.0,,0.0-119.0,,1.0,1932.49,0.0,0.31190902600000003,1.0,0.75,0.0,0.732413819,0.0,0.413082932,True,,5f76f9bc8ed0b91b34f829da,,1596700,122,,evan-feature22,full_rf_b,,0
92,41977,123,,,,1,1,0.0,1.0,-1.0,0.0,,0.0-120.0,,0.0,1623.135,0.0,0.366917648,1.0,0.740073855,1.0,0.75,1.0,0.352861979,True,,5f76f9bc8ed0b91b34f829da,,1608099,123,,evan-feature22,full_rf_b,,0
93,41978,124,,,,1,1,0.0,0.0,-1.0,0.0,,0.0-121.0,,0.0,1038.165,0.0,0.3645172,0.0,0.721770713,1.0,0.75,1.0,0.404074511,True,,5f76f9bc8ed0b91b34f829da,,1618917,124,,evan-feature22,full_rf_b,,0
94,41979,125,,,,1,1,1.0,1.0,-1.0,0.0,,0.0-122.0,,-1.0,1167.17,1.0,0.35205600299999995,1.0,0.68983859,1.0,0.739735447,0.0,0.366895945,True,,5f76f9bc8ed0b91b34f829da,,1629858,125,,evan-feature22,full_rf_b,,0
95,41980,126,,,,1,1,1.0,0.0,-1.0,0.0,,0.0-123.0,,-1.0,929.305,1.0,0.40998722600000004,0.0,0.720859127,1.0,0.673854955,0.0,0.368528541,True,,5f76f9bc8ed0b91b34f829da,,1640561,126,,evan-feature22,full_rf_b,,0
96,41981,127,,,,1,1,0.0,1.0,-1.0,0.0,,0.0-124.0,,0.0,1249.935,0.0,0.353625316,1.0,0.75,0.0,0.695605473,0.0,0.38303674200000004,True,,5f76f9bc8ed0b91b34f829da,,1651590,127,,evan-feature22,full_rf_b,,0
97,41982,128,,,,1,1,0.0,0.0,-1.0,0.0,,0.0-125.0,,0.0,1085.11,0.0,0.359216989,0.0,0.75,1.0,0.6987915090000001,0.0,0.35169046200000004,True,,5f76f9bc8ed0b91b34f829da,,1662449,128,,evan-feature22,full_rf_b,,0
98,41983,129,,,,1,1,1.0,1.0,-1.0,0.0,,0.0-126.0,,-1.0,1035.555,1.0,0.35834496899999996,1.0,0.75,0.0,0.707067742,1.0,0.416763636,True,,5f76f9bc8ed0b91b34f829da,,1673264,129,,evan-feature22,full_rf_b,,0
99,41984,130,,,,1,1,0.0,1.0,0.0,1.0,,0.0-127.0,,1.0,1179.76,0.0,0.38741613799999997,1.0,0.7177369570000001,1.0,0.734902455,1.0,0.49438664299999996,True,,5f76f9bc8ed0b91b34f829da,,1684219,130,,evan-feature22,full_rf_b,,0
100,41985,131,,,,1,1,1.0,0.0,-1.0,0.0,,0.0-128.0,,-1.0,657.08,1.0,0.405255252,0.0,0.7300466640000001,1.0,0.7027748070000001,1.0,0.504359668,True,,5f76f9bc8ed0b91b34f829da,,1694660,131,,evan-feature22,full_rf_b,,0
101,41986,132,,,,1,1,0.0,1.0,-1.0,0.0,,0.0-129.0,,0.0,1191.455,0.0,0.40697073,1.0,0.7260142190000001,1.0,0.724461982,1.0,0.522779179,True,,5f76f9bc8ed0b91b34f829da,,1705627,132,,evan-feature22,full_rf_b,,0
102,41987,133,,,,1,1,1.0,1.0,-1.0,0.0,,0.0-130.0,,-1.0,1236.94,1.0,0.43906215299999996,1.0,0.7252802340000001,0.0,0.719079934,1.0,0.5712990579999999,True,,5f76f9bc8ed0b91b34f829da,,1716643,133,,evan-feature22,full_rf_b,,0
103,41988,134,,,,1,1,0.0,0.0,0.0,1.0,,0.0-131.0,,0.0,1109.74,0.0,0.4076705,0.0,0.73280499,1.0,0.681313127,1.0,0.523891346,True,,5f76f9bc8ed0b91b34f829da,,1727526,134,,evan-feature22,full_rf_b,,0
104,41989,135,,,,2,2,1.0,0.0,0.0,1.0,,0.0-132.0,,0.0,1145.57,0.0,0.399102911,0.0,0.730498344,1.0,0.661080239,0.0,0.46742603,True,,5f76f9bc8ed0b91b34f829da,,1738439,135,,evan-feature22,full_rf_b,,1
105,41990,136,,,,2,2,0.0,0.0,0.0,1.0,,0.0-133.0,,0.0,1057.795,0.0,0.356477282,1.0,0.712296395,0.0,0.641812684,0.0,0.44868414,True,,5f76f9bc8ed0b91b34f829da,,1749275,136,,evan-feature22,full_rf_b,,0
106,41991,137,,,,1,1,1.0,1.0,-1.0,0.0,,0.0-134.0,,-1.0,609.435,1.0,0.462760722,1.0,0.692349322,1.0,0.700947931,0.0,0.394680266,True,,5f76f9bc8ed0b91b34f829da,,1759664,137,,evan-feature22,full_rf_b,,1
107,41992,138,,,,1,1,1.0,1.0,-1.0,0.0,,0.0-135.0,,-1.0,1031.3,1.0,0.422306413,1.0,0.718375916,1.0,0.706340917,1.0,0.367787185,True,,5f76f9bc8ed0b91b34f829da,,1770527,138,,evan-feature22,full_rf_b,,0
108,41994,140,,,,1,1,1.0,1.0,-1.0,0.0,,0.0-137.0,,-1.0,739.305,1.0,0.4582233,1.0,0.643834117,1.0,0.75,0.0,0.39615823299999997,True,,5f76f9bc8ed0b91b34f829da,,1783049,140,,evan-feature22,full_rf_b,,0
109,41995,141,,,,1,1,0.0,1.0,-1.0,0.0,,0.0-138.0,,0.0,638.67,0.0,0.43813437899999996,1.0,0.651283804,0.0,0.729674191,1.0,0.37711048,True,,5f76f9bc8ed0b91b34f829da,,1793460,141,,evan-feature22,full_rf_b,,0
110,41996,142,,,,1,1,0.0,1.0,-1.0,0.0,,0.0-139.0,,0.0,753.365,0.0,0.471199094,1.0,0.6470010979999999,1.0,0.715008097,1.0,0.410656191,True,,5f76f9bc8ed0b91b34f829da,,1803988,142,,evan-feature22,full_rf_b,,0
111,41997,143,,,,1,1,1.0,1.0,-1.0,0.0,,0.0-140.0,,-1.0,1109.615,1.0,0.42486406,1.0,0.629771829,0.0,0.6550939960000001,1.0,0.459093873,True,,5f76f9bc8ed0b91b34f829da,,1814883,143,,evan-feature22,full_rf_b,,0
112,41998,144,,,,1,1,0.0,1.0,-1.0,0.0,,0.0-141.0,,0.0,1174.925,0.0,0.4803197,1.0,0.645842715,1.0,0.6421749920000001,1.0,0.443092151,True,,5f76f9bc8ed0b91b34f829da,,1825821,144,,evan-feature22,full_rf_b,,0
113,41999,145,,,,1,1,0.0,1.0,0.0,1.0,,0.0-142.0,,1.0,1022.03,0.0,0.521848997,1.0,0.735801074,1.0,0.6691348460000001,0.0,0.45259351600000003,True,,5f76f9bc8ed0b91b34f829da,,1836621,145,,evan-feature22,full_rf_b,,0
114,42000,146,,,,1,1,0.0,0.0,-1.0,0.0,,0.0-143.0,,0.0,772.485,0.0,0.49565621299999996,0.0,0.742400847,0.0,0.661512553,1.0,0.483110831,True,,5f76f9bc8ed0b91b34f829da,,1847160,146,,evan-feature22,full_rf_b,,0
115,42001,147,,,,2,2,1.0,1.0,-1.0,0.0,,0.0-144.0,,-1.0,971.185,0.0,0.521564361,1.0,0.731078632,1.0,0.6774886809999999,1.0,0.483263956,True,,5f76f9bc8ed0b91b34f829da,,1857896,147,,evan-feature22,full_rf_b,,1
116,42002,148,,,,1,1,1.0,0.0,-1.0,0.0,,0.0-145.0,,-1.0,422.775,1.0,0.558893102,0.0,0.719810023,1.0,0.67461031,0.0,0.499349834,True,,5f76f9bc8ed0b91b34f829da,,1868098,148,,evan-feature22,full_rf_b,,1
117,42003,149,,,,1,1,0.0,1.0,-1.0,0.0,,0.0-146.0,,0.0,833.475,0.0,0.611031046,1.0,0.75,1.0,0.688072995,1.0,0.5321422729999999,True,,5f76f9bc8ed0b91b34f829da,,1878701,149,,evan-feature22,full_rf_b,,0
118,42004,150,,,,1,1,1.0,1.0,0.0,1.0,,0.0-147.0,,1.0,808.97,1.0,0.633223941,1.0,0.713567728,0.0,0.75,1.0,0.48185314700000004,True,,5f76f9bc8ed0b91b34f829da,,1889293,150,,evan-feature22,full_rf_b,,0
119,42005,151,,,,1,1,0.0,1.0,-1.0,0.0,,0.0-148.0,,0.0,1330.99,0.0,0.664001694,1.0,0.705509768,1.0,0.75,1.0,0.500211065,True,,5f76f9bc8ed0b91b34f829da,,1900395,151,,evan-feature22,full_rf_b,,0
120,42006,152,,,,1,1,0.0,0.0,-1.0,0.0,,0.0-149.0,,0.0,769.6150001,0.0,0.664001694,0.0,0.705509768,1.0,0.75,0.0,0.500211065,True,,5f76f9bc8ed0b91b34f829da,,1910937,152,,evan-feature22,full_rf_b,,0
121,42007,153,,,,1,1,1.0,1.0,-1.0,0.0,,0.0-150.0,,-1.0,921.615,1.0,0.696508041,1.0,0.71066027,1.0,0.717028709,1.0,0.49792991,True,,5f76f9bc8ed0b91b34f829da,,1921637,153,,evan-feature22,full_rf_b,,0
122,42008,154,,,,1,1,0.0,1.0,0.0,1.0,,0.0-151.0,,1.0,531.7,0.0,0.699883272,1.0,0.75,1.0,0.713543895,1.0,0.496962643,True,,5f76f9bc8ed0b91b34f829da,,1931948,154,,evan-feature22,full_rf_b,,0
123,42009,155,,,,1,1,1.0,1.0,0.0,1.0,,0.0-152.0,,1.0,1061.26,1.0,0.741163419,1.0,0.75,1.0,0.64691024,1.0,0.513858197,True,,5f76f9bc8ed0b91b34f829da,,1942786,155,,evan-feature22,full_rf_b,,0
124,42010,156,,,,1,1,1.0,0.0,0.0,1.0,,0.0-153.0,,0.0,641.125,1.0,0.75,0.0,0.70816558,1.0,0.594499079,0.0,0.48502124,True,,5f76f9bc8ed0b91b34f829da,,1953207,156,,evan-feature22,full_rf_b,,0
125,42011,157,,,,1,1,0.0,1.0,-1.0,0.0,,0.0-154.0,,0.0,797.215,0.0,0.75,1.0,0.721848901,1.0,0.62197249,0.0,0.48263586399999997,True,,5f76f9bc8ed0b91b34f829da,,1963788,157,,evan-feature22,full_rf_b,,0
126,42012,158,,,,1,1,0.0,1.0,-1.0,0.0,,0.0-155.0,,0.0,520.87,0.0,0.75,1.0,0.74813071,0.0,0.584357161,1.0,0.411477782,True,,5f76f9bc8ed0b91b34f829da,,1974092,158,,evan-feature22,full_rf_b,,0
127,42013,159,,,,1,1,1.0,1.0,-1.0,0.0,,0.0-156.0,,-1.0,950.155,1.0,0.75,1.0,0.75,0.0,0.52287236,0.0,0.488290656,True,,5f76f9bc8ed0b91b34f829da,,1984822,159,,evan-feature22,full_rf_b,,0
128,42014,160,,,,1,1,1.0,1.0,-1.0,0.0,,0.0-157.0,,-1.0,863.91,1.0,0.75,1.0,0.75,0.0,0.544321581,0.0,0.53143059,True,,5f76f9bc8ed0b91b34f829da,,1995467,160,,evan-feature22,full_rf_b,,0
129,42015,161,,,,1,1,1.0,1.0,-1.0,0.0,,0.0-158.0,,-1.0,582.85,1.0,0.726754564,1.0,0.75,0.0,0.5129306370000001,0.0,0.530592445,True,,5f76f9bc8ed0b91b34f829da,,2005824,161,,evan-feature22,full_rf_b,,0
130,42016,162,,,,2,2,0.0,1.0,0.0,1.0,,0.0-159.0,,1.0,826.145,1.0,0.75,1.0,0.7392590729999999,0.0,0.479875835,1.0,0.547007051,True,,5f76f9bc8ed0b91b34f829da,,2016421,162,,evan-feature22,full_rf_b,,1
131,42017,163,,,,2,2,0.0,1.0,0.0,1.0,,0.0-160.0,,1.0,737.04,1.0,0.75,0.0,0.7393376979999999,0.0,0.546045419,1.0,0.541267353,True,,5f76f9bc8ed0b91b34f829da,,2026943,163,,evan-feature22,full_rf_b,,0
132,42018,164,,,,2,2,0.0,0.0,-1.0,0.0,,0.0-161.0,,0.0,1062.53,1.0,0.75,1.0,0.75,0.0,0.485725895,0.0,0.527625395,True,,5f76f9bc8ed0b91b34f829da,,2037781,164,,evan-feature22,full_rf_b,,0
133,42019,165,,,,2,2,1.0,0.0,0.0,1.0,,0.0-162.0,,0.0,455.805,0.0,0.75,0.0,0.725087974,1.0,0.488603595,0.0,0.504019206,True,,5f76f9bc8ed0b91b34f829da,,2048011,165,,evan-feature22,full_rf_b,,0
134,42020,166,,,,2,2,0.0,1.0,-1.0,0.0,,0.0-163.0,,0.0,655.605,0.0,0.745504295,0.0,0.75,0.0,0.452379914,1.0,0.50131194,True,,5f76f9bc8ed0b91b34f829da,,2058443,166,,evan-feature22,full_rf_b,,0
135,42021,167,,,,2,2,0.0,0.0,0.0,1.0,,0.0-164.0,,0.0,523.955,1.0,0.728513874,1.0,0.75,0.0,0.44125567200000004,0.0,0.531454591,True,,5f76f9bc8ed0b91b34f829da,,2068747,167,,evan-feature22,full_rf_b,,0
136,42022,168,,,,1,1,1.0,1.0,-1.0,0.0,,0.0-165.0,,-1.0,471.88,1.0,0.73790804,1.0,0.75,1.0,0.413036656,1.0,0.524619035,True,,5f76f9bc8ed0b91b34f829da,,2078997,168,,evan-feature22,full_rf_b,,1
137,42023,169,,,,1,1,1.0,0.0,-1.0,0.0,,0.0-166.0,,-1.0,592.84,1.0,0.7080961309999999,0.0,0.708666865,1.0,0.431915581,1.0,0.481819489,True,,5f76f9bc8ed0b91b34f829da,,2089373,169,,evan-feature22,full_rf_b,,0
138,42024,170,,,,2,2,0.0,0.0,-1.0,0.0,,0.0-167.0,,0.0,671.485,1.0,0.721378003,1.0,0.71605913,0.0,0.36642387,0.0,0.5036739929999999,True,,5f76f9bc8ed0b91b34f829da,,2099824,170,,evan-feature22,full_rf_b,,1
139,42025,171,,,,1,1,0.0,1.0,0.0,1.0,,0.0-168.0,,1.0,1021.89,0.0,0.7340618959999999,1.0,0.699323252,0.0,0.35298046299999997,1.0,0.511241692,True,,5f76f9bc8ed0b91b34f829da,,2110626,171,,evan-feature22,full_rf_b,,1
140,42026,172,,,,1,1,0.0,1.0,0.0,1.0,,0.0-169.0,,1.0,1189.68,0.0,0.75,1.0,0.70412698,1.0,0.380734814,0.0,0.529580116,True,,5f76f9bc8ed0b91b34f829da,,2121598,172,,evan-feature22,full_rf_b,,0
141,42027,173,,,,1,1,1.0,1.0,0.0,1.0,,0.0-170.0,,1.0,887.925,1.0,0.7436654909999999,1.0,0.711182751,1.0,0.41125331,0.0,0.49554405,True,,5f76f9bc8ed0b91b34f829da,,2132263,173,,evan-feature22,full_rf_b,,0
142,42028,174,,,,1,1,1.0,1.0,-1.0,0.0,,0.0-171.0,,-1.0,931.15,1.0,0.731607915,1.0,0.651774583,0.0,0.35688023,1.0,0.45194491600000003,True,,5f76f9bc8ed0b91b34f829da,,2142964,174,,evan-feature22,full_rf_b,,0
143,42029,175,,,,1,1,1.0,1.0,0.0,1.0,,0.0-172.0,,1.0,588.035,1.0,0.75,1.0,0.75,1.0,0.283145374,1.0,0.528608005,True,,5f76f9bc8ed0b91b34f829da,,2153330,175,,evan-feature22,full_rf_b,,0
144,42030,176,,,,1,1,1.0,1.0,-1.0,0.0,,0.0-173.0,,-1.0,797.82,1.0,0.7491416890000001,1.0,0.7423785959999999,0.0,0.29135870399999997,0.0,0.498888318,True,,5f76f9bc8ed0b91b34f829da,,2163908,176,,evan-feature22,full_rf_b,,0
145,42031,177,,,,1,1,0.0,1.0,0.0,1.0,,0.0-174.0,,1.0,682.35,0.0,0.708569387,1.0,0.717682277,0.0,0.294421699,1.0,0.493838163,True,,5f76f9bc8ed0b91b34f829da,,2174372,177,,evan-feature22,full_rf_b,,0
146,42032,178,,,,1,1,1.0,0.0,-1.0,0.0,,0.0-175.0,,-1.0,957.345,1.0,0.75,0.0,0.7383382159999999,0.0,0.356098707,1.0,0.442533405,True,,5f76f9bc8ed0b91b34f829da,,2185106,178,,evan-feature22,full_rf_b,,0
147,42033,179,,,,2,2,1.0,0.0,-1.0,0.0,,0.0-176.0,,-1.0,522.35,1.0,0.744527075,0.0,0.75,1.0,0.334127506,0.0,0.393165805,True,,5f76f9bc8ed0b91b34f829da,,2195409,179,,evan-feature22,full_rf_b,,1
148,42034,180,,,,1,1,0.0,1.0,-1.0,0.0,,0.0-177.0,,0.0,799.57,0.0,0.75,1.0,0.75,0.0,0.33571021799999995,0.0,0.350393962,True,,5f76f9bc8ed0b91b34f829da,,2205980,180,,evan-feature22,full_rf_b,,1
149,42035,181,,,,1,1,0.0,1.0,0.0,1.0,,0.0-178.0,,1.0,632.095,0.0,0.75,1.0,0.75,1.0,0.313628297,1.0,0.36349657399999996,True,,5f76f9bc8ed0b91b34f829da,,2216390,181,,evan-feature22,full_rf_b,,0
150,42036,182,,,,1,1,1.0,1.0,-1.0,0.0,,0.0-179.0,,-1.0,863.095,1.0,0.75,1.0,0.734284182,0.0,0.262667667,1.0,0.380199119,True,,5f76f9bc8ed0b91b34f829da,,2227038,182,,evan-feature22,full_rf_b,,0
151,42037,183,,,,1,1,1.0,1.0,-1.0,0.0,,0.0-180.0,,-1.0,760.085,1.0,0.75,1.0,0.75,0.0,0.25,1.0,0.394494013,True,,5f76f9bc8ed0b91b34f829da,,2237576,183,,evan-feature22,full_rf_b,,0
152,42038,184,,,,1,1,0.0,1.0,-1.0,0.0,,0.0-181.0,,0.0,1040.255,0.0,0.722298145,1.0,0.7357822340000001,1.0,0.25,1.0,0.319142121,True,,5f76f9bc8ed0b91b34f829da,,2248399,184,,evan-feature22,full_rf_b,,0
153,42039,185,,,,1,1,1.0,1.0,-1.0,0.0,,0.0-182.0,,-1.0,890.795,1.0,0.73149275,1.0,0.724276446,1.0,0.305856907,0.0,0.281315057,True,,5f76f9bc8ed0b91b34f829da,,2259066,185,,evan-feature22,full_rf_b,,0
154,42040,186,,,,1,1,1.0,1.0,-1.0,0.0,,0.0-183.0,,-1.0,2628.485,1.0,0.7458732690000001,1.0,0.7336382459999999,0.0,0.272571964,0.0,0.266021999,True,,5f76f9bc8ed0b91b34f829da,,2271473,186,,evan-feature22,full_rf_b,,0
155,42041,187,,,,1,1,0.0,1.0,0.0,1.0,,0.0-184.0,,1.0,1501.195,0.0,0.705579037,1.0,0.720778292,0.0,0.320238144,0.0,0.30971744,True,,5f76f9bc8ed0b91b34f829da,,2282748,187,,evan-feature22,full_rf_b,,0
156,42042,188,,,,1,1,0.0,1.0,0.0,1.0,,0.0-185.0,,1.0,1445.515,0.0,0.700425648,1.0,0.7198784009999999,0.0,0.272590393,0.0,0.304182931,True,,5f76f9bc8ed0b91b34f829da,,2293965,188,,evan-feature22,full_rf_b,,0
157,42043,189,,,,1,1,1.0,1.0,0.0,1.0,,0.0-186.0,,1.0,615.535,1.0,0.735590785,1.0,0.722714973,0.0,0.25,0.0,0.323421091,True,,5f76f9bc8ed0b91b34f829da,,2304355,189,,evan-feature22,full_rf_b,,0
158,42044,190,,,,1,1,1.0,1.0,0.0,1.0,,0.0-187.0,,1.0,967.33,1.0,0.724807662,1.0,0.63146213,0.0,0.36836492600000004,1.0,0.34592153299999995,True,,5f76f9bc8ed0b91b34f829da,,2315101,190,,evan-feature22,full_rf_b,,0
159,42045,191,,,,1,1,0.0,1.0,-1.0,0.0,,0.0-188.0,,0.0,1003.185,0.0,0.7352796909999999,1.0,0.555111392,0.0,0.36003922,0.0,0.31433779999999995,True,,5f76f9bc8ed0b91b34f829da,,2325880,191,,evan-feature22,full_rf_b,,0
160,42046,192,notice,,,,,,,,,,0.0-189.0,"{""Q0"":""No""}",,7158.0,,,,,,,,,True,,5f76f9bc8ed0b91b34f829da,,2333040,192,Q,survey-text,full_rf_b,,1
161,42047,193,track1,,[0],,,,,,,,0.0-190.0,"{""Q0"":""yes""}",,6055.0,,,,,,,,,True,,5f76f9bc8ed0b91b34f829da,,2339101,193,Q,evan-quiz,full_rf_b,,1
162,42048,194,track2,,[0],,,,,,,,0.0-191.0,"{""Q0"":""yes""}",,16171.0,,,,,,,,,True,,5f76f9bc8ed0b91b34f829da,,2355279,194,Q,evan-quiz,full_rf_b,,1
163,42049,195,strat,,,,,,,,,,0.0-192.0,"{""Q0"":""I favoured the 'G' door because you seemed to have more chance of getting a black Alien, which was more likely to yield a positive or neutral result.""}",,41375.0,,,,,,,,,True,,5f76f9bc8ed0b91b34f829da,,2396660,195,Q,survey-text,full_rf_b,,1
