,index,Unnamed: 0,Q_name,button_pressed,choice_idxs,chosen_pos,chosen_state,chosen_state_f_1_outcome,chosen_state_f_2_outcome,f_1_reward,f_2_reward,incor_questions,internal_node_id,responses,reward_received,rt,s_1_f_1_outcome,s_1_f_1_prob,s_1_f_2_outcome,s_1_f_2_prob,s_2_f_1_outcome,s_2_f_1_prob,s_2_f_2_outcome,s_2_f_2_prob,safe_first,stimulus,subjectID,success,time_elapsed,trial_index,trial_num,trial_type,version,view_history,switching
0,47387,35,,,,2,2,0.0,0.0,1.0,0.0,,0.0-27.0,,0.0,3569.21,1.0,0.6,1.0,0.6,0.0,0.4,0.0,0.4,True,,5d83b4c19358b400013494e8,,1269508,35,,evan-feature22,full_rf_a,,0
1,47388,36,,,,2,2,1.0,0.0,1.0,0.0,,0.0-28.0,,1.0,1207.665,1.0,0.608053294,1.0,0.63424552,1.0,0.397152172,0.0,0.347069101,True,,5d83b4c19358b400013494e8,,1280480,36,,evan-feature22,full_rf_a,,0
2,47389,37,,,,1,1,0.0,1.0,1.0,0.0,,0.0-29.0,,0.0,466.00499979999995,0.0,0.642237155,1.0,0.648566321,1.0,0.389407674,0.0,0.285525717,True,,5d83b4c19358b400013494e8,,1290704,37,,evan-feature22,full_rf_a,,1
3,47390,38,,,,1,1,0.0,1.0,1.0,0.0,,0.0-30.0,,0.0,1137.81,0.0,0.661086576,1.0,0.630492543,1.0,0.399058924,0.0,0.25,True,,5d83b4c19358b400013494e8,,1301604,38,,evan-feature22,full_rf_a,,0
4,47391,39,,,,2,2,1.0,0.0,0.0,-1.0,,0.0-31.0,,0.0,500.24,0.0,0.631324137,1.0,0.6269842929999999,1.0,0.38734784299999997,0.0,0.25,True,,5d83b4c19358b400013494e8,,1311861,39,,evan-feature22,full_rf_a,,1
5,47392,40,,,,2,2,1.0,1.0,0.0,-1.0,,0.0-32.0,,-1.0,530.0,1.0,0.6381991370000001,0.0,0.68987999,1.0,0.384107265,1.0,0.271332943,True,,5d83b4c19358b400013494e8,,1322150,40,,evan-feature22,full_rf_a,,0
6,47393,41,,,,2,2,0.0,0.0,1.0,0.0,,0.0-33.0,,0.0,2629.72,1.0,0.66034901,1.0,0.742641349,0.0,0.360225629,0.0,0.25,True,,5d83b4c19358b400013494e8,,1334538,41,,evan-feature22,full_rf_a,,0
7,47394,42,,,,1,1,1.0,1.0,1.0,0.0,,0.0-34.0,,1.0,328.5450002,1.0,0.638612418,1.0,0.75,1.0,0.367273939,0.0,0.25,True,,5d83b4c19358b400013494e8,,1344628,42,,evan-feature22,full_rf_a,,1
8,47395,43,,,,1,1,1.0,1.0,0.0,-1.0,,0.0-35.0,,-1.0,426.17000010000004,1.0,0.624340629,1.0,0.75,0.0,0.425829545,0.0,0.25,True,,5d83b4c19358b400013494e8,,1354813,43,,evan-feature22,full_rf_a,,0
9,47396,44,,,,2,2,1.0,0.0,0.0,-1.0,,0.0-36.0,,0.0,466.2200001,1.0,0.621999804,1.0,0.75,1.0,0.368609357,0.0,0.25,True,,5d83b4c19358b400013494e8,,1365037,44,,evan-feature22,full_rf_a,,1
10,47397,45,,,,1,1,1.0,0.0,1.0,0.0,,0.0-37.0,,1.0,1789.76,1.0,0.62666403,0.0,0.75,0.0,0.311151498,0.0,0.25,True,,5d83b4c19358b400013494e8,,1376583,45,,evan-feature22,full_rf_a,,1
11,47398,46,,,,2,2,0.0,1.0,0.0,-1.0,,0.0-38.0,,-1.0,2175.65,1.0,0.6819650009999999,0.0,0.75,0.0,0.310763048,1.0,0.25,True,,5d83b4c19358b400013494e8,,1388518,46,,evan-feature22,full_rf_a,,1
12,47399,47,,,,1,1,1.0,1.0,1.0,0.0,,0.0-39.0,,1.0,969.79,1.0,0.740626951,1.0,0.75,0.0,0.25,0.0,0.25,True,,5d83b4c19358b400013494e8,,1399249,47,,evan-feature22,full_rf_a,,1
13,47400,48,,,,1,1,0.0,0.0,1.0,0.0,,0.0-40.0,,0.0,890.6650001,0.0,0.739599242,0.0,0.742034978,1.0,0.25397114600000004,0.0,0.25,True,,5d83b4c19358b400013494e8,,1409899,48,,evan-feature22,full_rf_a,,0
14,47401,49,,,,2,2,0.0,0.0,1.0,0.0,,0.0-41.0,,0.0,395.5000001,1.0,0.732341315,1.0,0.72735643,0.0,0.25,0.0,0.25,True,,5d83b4c19358b400013494e8,,1420053,49,,evan-feature22,full_rf_a,,1
15,47402,50,,,,1,1,1.0,1.0,1.0,0.0,,0.0-42.0,,1.0,706.6600001,1.0,0.7062287770000001,1.0,0.75,0.0,0.29002151,0.0,0.288256649,True,,5d83b4c19358b400013494e8,,1430519,50,,evan-feature22,full_rf_a,,1
16,47403,51,,,,1,1,1.0,1.0,1.0,0.0,,0.0-43.0,,1.0,461.135,1.0,0.7086029209999999,1.0,0.75,0.0,0.274129113,0.0,0.262851608,True,,5d83b4c19358b400013494e8,,1440739,51,,evan-feature22,full_rf_a,,0
17,47404,52,,,,1,1,0.0,0.0,1.0,0.0,,0.0-44.0,,0.0,1068.805,0.0,0.669189651,0.0,0.727614338,0.0,0.298444036,0.0,0.296944518,True,,5d83b4c19358b400013494e8,,1451565,52,,evan-feature22,full_rf_a,,0
18,47405,53,,,,2,2,0.0,0.0,1.0,0.0,,0.0-45.0,,0.0,395.6299999,1.0,0.6819912929999999,1.0,0.7179434290000001,0.0,0.265003961,0.0,0.28157921199999997,True,,5d83b4c19358b400013494e8,,1461719,53,,evan-feature22,full_rf_a,,1
19,47406,54,,,,1,1,1.0,1.0,0.0,-1.0,,0.0-46.0,,-1.0,693.56,1.0,0.665275002,1.0,0.723065271,0.0,0.260414971,0.0,0.30973870000000003,True,,5d83b4c19358b400013494e8,,1472172,54,,evan-feature22,full_rf_a,,1
20,47407,55,,,,2,2,1.0,0.0,1.0,0.0,,0.0-47.0,,1.0,25.96500004,1.0,0.6660593260000001,0.0,0.728032907,1.0,0.30922817,0.0,0.338778608,True,,5d83b4c19358b400013494e8,,1481957,55,,evan-feature22,full_rf_a,,1
21,47408,56,,,,1,1,0.0,1.0,1.0,0.0,,0.0-48.0,,0.0,900.4199997999999,0.0,0.702068785,1.0,0.6528750879999999,1.0,0.287329608,0.0,0.35789613200000003,True,,5d83b4c19358b400013494e8,,1492616,56,,evan-feature22,full_rf_a,,1
22,47409,57,,,,2,2,0.0,1.0,1.0,0.0,,0.0-49.0,,0.0,692.4700001,1.0,0.651939787,1.0,0.636725589,0.0,0.284834488,1.0,0.358563756,True,,5d83b4c19358b400013494e8,,1503066,57,,evan-feature22,full_rf_a,,1
23,47410,58,,,,2,2,0.0,0.0,0.0,-1.0,,0.0-50.0,,0.0,1041.22,1.0,0.67573929,0.0,0.612550049,0.0,0.37130387600000003,0.0,0.383542402,True,,5d83b4c19358b400013494e8,,1513867,58,,evan-feature22,full_rf_a,,0
24,47411,59,,,,2,2,1.0,0.0,0.0,-1.0,,0.0-51.0,,0.0,134.76,0.0,0.620753801,0.0,0.60513644,1.0,0.385529434,0.0,0.340361743,True,,5d83b4c19358b400013494e8,,1523760,59,,evan-feature22,full_rf_a,,0
25,47412,60,,,,1,1,1.0,0.0,0.0,-1.0,,0.0-52.0,,0.0,584.7100001,1.0,0.673564893,0.0,0.672437924,0.0,0.292955382,1.0,0.337633795,True,,5d83b4c19358b400013494e8,,1534102,60,,evan-feature22,full_rf_a,,1
26,47413,61,,,,2,2,0.0,0.0,1.0,0.0,,0.0-53.0,,0.0,915.9599999,1.0,0.6749427,1.0,0.724197502,0.0,0.32391132100000003,0.0,0.350995264,True,,5d83b4c19358b400013494e8,,1544774,61,,evan-feature22,full_rf_a,,1
27,47414,62,,,,1,1,1.0,0.0,1.0,0.0,,0.0-54.0,,1.0,2020.93,1.0,0.6940159379999999,0.0,0.75,0.0,0.31710554399999996,0.0,0.413450341,True,,5d83b4c19358b400013494e8,,1556554,62,,evan-feature22,full_rf_a,,1
28,47415,63,,,,1,1,1.0,1.0,1.0,0.0,,0.0-55.0,,1.0,738.225,1.0,0.6916018270000001,1.0,0.69001187,0.0,0.261817804,0.0,0.40038635,True,,5d83b4c19358b400013494e8,,1567053,63,,evan-feature22,full_rf_a,,0
29,47416,64,,,,2,2,1.0,1.0,1.0,0.0,,0.0-56.0,,1.0,476.7849999,1.0,0.641061544,0.0,0.71337992,1.0,0.277296461,1.0,0.47372791700000005,True,,5d83b4c19358b400013494e8,,1577290,64,,evan-feature22,full_rf_a,,1
30,47417,65,,,,2,2,1.0,0.0,1.0,0.0,,0.0-57.0,,1.0,1142.88,0.0,0.6082438520000001,0.0,0.708471106,1.0,0.28745137,0.0,0.564174476,True,,5d83b4c19358b400013494e8,,1588190,65,,evan-feature22,full_rf_a,,0
31,47418,66,,,,1,1,1.0,1.0,1.0,0.0,,0.0-58.0,,1.0,375.6500001,1.0,0.6051112120000001,1.0,0.7118147229999999,1.0,0.272390611,0.0,0.5595149939999999,True,,5d83b4c19358b400013494e8,,1598324,66,,evan-feature22,full_rf_a,,1
32,47419,67,,,,1,1,1.0,0.0,1.0,0.0,,0.0-59.0,,1.0,2709.245,1.0,0.582420852,0.0,0.635867583,0.0,0.31089574,0.0,0.5227206520000001,True,,5d83b4c19358b400013494e8,,1610791,67,,evan-feature22,full_rf_a,,0
33,47420,68,,,,1,1,1.0,1.0,0.0,-1.0,,0.0-60.0,,-1.0,312.3300001,1.0,0.623195575,1.0,0.655026044,0.0,0.25,1.0,0.560387538,True,,5d83b4c19358b400013494e8,,1620864,68,,evan-feature22,full_rf_a,,0
34,47421,69,,,,2,2,0.0,1.0,1.0,0.0,,0.0-61.0,,0.0,940.1499999,0.0,0.601889598,1.0,0.678198724,0.0,0.25,1.0,0.559922936,True,,5d83b4c19358b400013494e8,,1631562,69,,evan-feature22,full_rf_a,,1
35,47422,70,,,,1,1,1.0,1.0,1.0,0.0,,0.0-62.0,,1.0,608.0450001,1.0,0.601259914,1.0,0.704681482,0.0,0.33908969299999997,0.0,0.505003715,True,,5d83b4c19358b400013494e8,,1641928,70,,evan-feature22,full_rf_a,,1
36,47423,71,,,,1,1,1.0,1.0,1.0,0.0,,0.0-63.0,,1.0,356.495,1.0,0.59645454,1.0,0.710437172,1.0,0.327441879,0.0,0.391749613,True,,5d83b4c19358b400013494e8,,1652043,71,,evan-feature22,full_rf_a,,0
37,47424,72,,,,1,1,0.0,1.0,1.0,0.0,,0.0-64.0,,0.0,380.57999989999996,0.0,0.529473,1.0,0.636758527,0.0,0.301338063,0.0,0.365661481,True,,5d83b4c19358b400013494e8,,1662182,72,,evan-feature22,full_rf_a,,0
38,47425,73,,,,1,1,1.0,1.0,0.0,-1.0,,0.0-65.0,,-1.0,809.4200001,1.0,0.541657162,1.0,0.634541962,0.0,0.343535366,0.0,0.371763742,True,,5d83b4c19358b400013494e8,,1672750,73,,evan-feature22,full_rf_a,,0
39,47426,74,,,,2,2,0.0,1.0,1.0,0.0,,0.0-66.0,,0.0,1952.925,0.0,0.5707533260000001,1.0,0.589121171,0.0,0.326428396,1.0,0.43961622899999997,True,,5d83b4c19358b400013494e8,,1684462,74,,evan-feature22,full_rf_a,,1
40,47427,75,,,,1,1,1.0,1.0,1.0,0.0,,0.0-67.0,,1.0,817.6849999,1.0,0.5707533260000001,1.0,0.589121171,0.0,0.326428396,0.0,0.43961622899999997,True,,5d83b4c19358b400013494e8,,1695039,75,,evan-feature22,full_rf_a,,1
41,47428,76,,,,1,1,0.0,1.0,1.0,0.0,,0.0-68.0,,0.0,1021.465,0.0,0.506271295,1.0,0.641775594,1.0,0.37149690700000004,0.0,0.404330166,True,,5d83b4c19358b400013494e8,,1705819,76,,evan-feature22,full_rf_a,,0
42,47429,77,,,,SLOW,SLOW,,,0.0,-1.0,,0.0-69.0,,-3.0,,1.0,0.455642565,1.0,0.623605825,0.0,0.358753011,0.0,0.346174041,True,,5d83b4c19358b400013494e8,,1711624,77,,evan-feature22,full_rf_a,,1
43,47430,78,,,,2,2,0.0,0.0,0.0,-1.0,,0.0-70.0,,0.0,1127.165,0.0,0.483677308,1.0,0.5904681070000001,0.0,0.402218411,0.0,0.35344697,True,,5d83b4c19358b400013494e8,,1722509,78,,evan-feature22,full_rf_a,,1
44,47431,79,,,,2,2,1.0,0.0,0.0,-1.0,,0.0-71.0,,0.0,3942.875,0.0,0.394210977,1.0,0.558925494,1.0,0.540052017,0.0,0.35182128700000004,True,,5d83b4c19358b400013494e8,,1736211,79,,evan-feature22,full_rf_a,,0
45,47432,80,,,,1,1,0.0,0.0,1.0,0.0,,0.0-72.0,,0.0,459.215,0.0,0.382300414,0.0,0.577670603,0.0,0.607608448,0.0,0.378261578,True,,5d83b4c19358b400013494e8,,1746428,80,,evan-feature22,full_rf_a,,1
46,47433,81,,,,1,1,0.0,1.0,1.0,0.0,,0.0-73.0,,0.0,404.24000010000003,0.0,0.357596762,1.0,0.5929076529999999,1.0,0.6579790010000001,0.0,0.401326777,True,,5d83b4c19358b400013494e8,,1756592,81,,evan-feature22,full_rf_a,,0
47,47434,82,,,,1,1,1.0,1.0,1.0,0.0,,0.0-74.0,,1.0,10.10999992,1.0,0.362033495,1.0,0.582308608,0.0,0.649195052,1.0,0.355158505,True,,5d83b4c19358b400013494e8,,1766362,82,,evan-feature22,full_rf_a,,0
48,47435,83,,,,1,1,0.0,1.0,1.0,0.0,,0.0-75.0,,0.0,427.18000010000003,0.0,0.369620635,1.0,0.669100864,1.0,0.706059111,0.0,0.362516241,True,,5d83b4c19358b400013494e8,,1776546,83,,evan-feature22,full_rf_a,,0
49,47436,84,,,,2,2,1.0,0.0,1.0,0.0,,0.0-76.0,,1.0,1186.71,1.0,0.41477751399999996,1.0,0.7284416779999999,1.0,0.7182656940000001,0.0,0.36228040899999997,True,,5d83b4c19358b400013494e8,,1787492,84,,evan-feature22,full_rf_a,,1
50,47437,85,,,,2,2,1.0,1.0,0.0,-1.0,,0.0-77.0,,-1.0,1483.65,0.0,0.37675460299999997,1.0,0.703250285,1.0,0.75,1.0,0.461979164,True,,5d83b4c19358b400013494e8,,1798734,85,,evan-feature22,full_rf_a,,0
51,47438,86,,,,1,1,1.0,1.0,0.0,-1.0,,0.0-78.0,,-1.0,417.78,1.0,0.398716075,1.0,0.6723864890000001,1.0,0.674153818,1.0,0.519029516,True,,5d83b4c19358b400013494e8,,1808912,86,,evan-feature22,full_rf_a,,1
52,47439,87,,,,1,1,0.0,1.0,1.0,0.0,,0.0-79.0,,0.0,545.4200001,0.0,0.34677856700000004,1.0,0.69057175,1.0,0.6822438540000001,1.0,0.477292237,True,,5d83b4c19358b400013494e8,,1819217,87,,evan-feature22,full_rf_a,,0
53,47440,88,,,,2,2,1.0,0.0,0.0,-1.0,,0.0-80.0,,0.0,350.655,0.0,0.28580469199999997,1.0,0.68408818,1.0,0.684207565,0.0,0.49780448299999996,True,,5d83b4c19358b400013494e8,,1829327,88,,evan-feature22,full_rf_a,,1
54,47442,90,,,,1,1,0.0,1.0,1.0,0.0,,0.0-82.0,,0.0,2039.245,0.0,0.25,1.0,0.7405808970000001,0.0,0.679614108,0.0,0.436436964,True,,5d83b4c19358b400013494e8,,1844859,90,,evan-feature22,full_rf_a,,1
55,47443,91,,,,2,2,0.0,1.0,0.0,-1.0,,0.0-83.0,,-1.0,973.855,0.0,0.29890393,1.0,0.730505706,0.0,0.7328203320000001,1.0,0.439256938,True,,5d83b4c19358b400013494e8,,1855593,91,,evan-feature22,full_rf_a,,1
56,47444,92,,,,1,1,0.0,0.0,1.0,0.0,,0.0-84.0,,0.0,508.345,0.0,0.326762398,0.0,0.7148059609999999,0.0,0.75,1.0,0.44389608799999997,True,,5d83b4c19358b400013494e8,,1865859,92,,evan-feature22,full_rf_a,,1
57,47445,93,,,,2,2,1.0,0.0,1.0,0.0,,0.0-85.0,,1.0,583.8550001,0.0,0.295168515,1.0,0.739760854,1.0,0.719947008,0.0,0.35277284600000003,True,,5d83b4c19358b400013494e8,,1876202,93,,evan-feature22,full_rf_a,,1
58,47446,94,,,,2,2,1.0,0.0,1.0,0.0,,0.0-86.0,,1.0,502.2749999,1.0,0.25,1.0,0.70781482,1.0,0.75,0.0,0.286095925,True,,5d83b4c19358b400013494e8,,1886463,94,,evan-feature22,full_rf_a,,0
59,47447,95,,,,SLOW,SLOW,,,0.0,-1.0,,0.0-87.0,,-3.0,,1.0,0.25638190899999996,0.0,0.704088163,0.0,0.75,1.0,0.26872601399999996,True,,5d83b4c19358b400013494e8,,1892267,95,,evan-feature22,full_rf_a,,1
60,47448,96,,,,2,2,1.0,0.0,0.0,-1.0,,0.0-88.0,,0.0,1501.4,0.0,0.271581126,1.0,0.669760107,1.0,0.733896663,0.0,0.273244572,True,,5d83b4c19358b400013494e8,,1903528,96,,evan-feature22,full_rf_a,,1
61,47449,97,,,,1,1,0.0,0.0,0.0,-1.0,,0.0-89.0,,0.0,774.8199999,0.0,0.257144401,0.0,0.600575706,1.0,0.74488122,0.0,0.25,True,,5d83b4c19358b400013494e8,,1914060,97,,evan-feature22,full_rf_a,,1
62,47450,98,,,,SLOW,SLOW,,,1.0,0.0,,0.0-90.0,,-3.0,,0.0,0.25,1.0,0.616870026,1.0,0.723610234,0.0,0.25,True,,5d83b4c19358b400013494e8,,1919864,98,,evan-feature22,full_rf_a,,1
63,47451,99,,,,2,2,1.0,0.0,0.0,-1.0,,0.0-91.0,,0.0,2587.315,1.0,0.25,1.0,0.583540187,1.0,0.7041042559999999,0.0,0.285961995,True,,5d83b4c19358b400013494e8,,1932213,99,,evan-feature22,full_rf_a,,1
64,47452,100,,,,1,1,1.0,0.0,1.0,0.0,,0.0-92.0,,1.0,778.7900001,1.0,0.27254536,0.0,0.53875765,1.0,0.693783448,0.0,0.284961652,True,,5d83b4c19358b400013494e8,,1942751,100,,evan-feature22,full_rf_a,,1
65,47453,101,,,,2,2,1.0,0.0,0.0,-1.0,,0.0-93.0,,0.0,1817.65,0.0,0.25,1.0,0.548431252,1.0,0.734221895,0.0,0.279445214,True,,5d83b4c19358b400013494e8,,1954327,101,,evan-feature22,full_rf_a,,1
66,47454,102,,,,1,1,0.0,0.0,1.0,0.0,,0.0-94.0,,0.0,2430.35,0.0,0.258640684,0.0,0.545878066,0.0,0.725245965,0.0,0.31487537,True,,5d83b4c19358b400013494e8,,1966515,102,,evan-feature22,full_rf_a,,1
67,47455,103,,,,2,2,1.0,0.0,1.0,0.0,,0.0-95.0,,1.0,896.5499999,0.0,0.251103711,0.0,0.5776290629999999,1.0,0.696320133,0.0,0.317831047,True,,5d83b4c19358b400013494e8,,1977170,103,,evan-feature22,full_rf_a,,1
68,47456,104,,,,2,2,1.0,1.0,1.0,0.0,,0.0-96.0,,1.0,626.29,0.0,0.276630292,0.0,0.617329858,1.0,0.73838088,1.0,0.261471582,True,,5d83b4c19358b400013494e8,,1987556,104,,evan-feature22,full_rf_a,,0
69,47457,105,,,,2,2,1.0,0.0,0.0,-1.0,,0.0-97.0,,0.0,569.5249999,0.0,0.297716424,0.0,0.618863717,1.0,0.7402358259999999,0.0,0.262600834,True,,5d83b4c19358b400013494e8,,1997884,105,,evan-feature22,full_rf_a,,0
70,47458,106,,,,1,1,0.0,1.0,1.0,0.0,,0.0-98.0,,0.0,557.5049999,0.0,0.290935512,1.0,0.695370945,0.0,0.706570507,0.0,0.280030553,True,,5d83b4c19358b400013494e8,,2008199,106,,evan-feature22,full_rf_a,,1
71,47459,107,,,,2,2,1.0,1.0,1.0,0.0,,0.0-99.0,,1.0,1161.71,0.0,0.25,1.0,0.6465277079999999,1.0,0.67766682,1.0,0.25,True,,5d83b4c19358b400013494e8,,2019122,107,,evan-feature22,full_rf_a,,1
72,47460,108,,,,2,2,1.0,1.0,1.0,0.0,,0.0-100.0,,1.0,634.8000001,0.0,0.26463816,1.0,0.636100213,1.0,0.646048507,1.0,0.265607101,True,,5d83b4c19358b400013494e8,,2029517,108,,evan-feature22,full_rf_a,,0
73,47461,109,,,,2,2,0.0,0.0,1.0,0.0,,0.0-101.0,,0.0,1275.38,0.0,0.314340707,1.0,0.667795927,0.0,0.613630805,0.0,0.25,True,,5d83b4c19358b400013494e8,,2040549,109,,evan-feature22,full_rf_a,,0
74,47462,110,,,,1,1,0.0,1.0,1.0,0.0,,0.0-102.0,,0.0,1161.265,0.0,0.28685784,1.0,0.6622549529999999,1.0,0.652154117,0.0,0.25,True,,5d83b4c19358b400013494e8,,2051469,110,,evan-feature22,full_rf_a,,1
75,47463,111,,,,2,2,1.0,0.0,0.0,-1.0,,0.0-103.0,,0.0,616.78,1.0,0.304106554,0.0,0.631289538,1.0,0.707041942,0.0,0.29314237,True,,5d83b4c19358b400013494e8,,2061844,111,,evan-feature22,full_rf_a,,1
76,47464,112,,,,1,1,1.0,1.0,0.0,-1.0,,0.0-104.0,,-1.0,1319.79,1.0,0.304806932,1.0,0.571167718,1.0,0.680472346,0.0,0.25,True,,5d83b4c19358b400013494e8,,2072925,112,,evan-feature22,full_rf_a,,1
77,47465,113,,,,2,2,1.0,0.0,0.0,-1.0,,0.0-105.0,,0.0,1076.76,1.0,0.37919861,0.0,0.5724849710000001,1.0,0.705638003,0.0,0.30179300600000003,True,,5d83b4c19358b400013494e8,,2083760,113,,evan-feature22,full_rf_a,,1
78,47466,114,,,,1,1,1.0,0.0,0.0,-1.0,,0.0-106.0,,0.0,2752.895,1.0,0.464277969,0.0,0.554034373,1.0,0.7372627340000001,0.0,0.264699741,True,,5d83b4c19358b400013494e8,,2096272,114,,evan-feature22,full_rf_a,,1
79,47467,115,,,,2,2,1.0,0.0,1.0,0.0,,0.0-107.0,,1.0,1905.865,0.0,0.465104323,0.0,0.530793115,1.0,0.75,0.0,0.31683071,True,,5d83b4c19358b400013494e8,,2107936,115,,evan-feature22,full_rf_a,,1
80,47468,116,,,,1,1,0.0,0.0,0.0,-1.0,,0.0-108.0,,0.0,1277.35,0.0,0.465104323,0.0,0.530793115,1.0,0.75,0.0,0.31683071,True,,5d83b4c19358b400013494e8,,2118970,116,,evan-feature22,full_rf_a,,1
81,47469,117,,,,2,2,1.0,0.0,0.0,-1.0,,0.0-109.0,,0.0,1251.45,0.0,0.46833986,0.0,0.570249239,1.0,0.7244472590000001,0.0,0.364114163,True,,5d83b4c19358b400013494e8,,2129982,117,,evan-feature22,full_rf_a,,1
82,47470,118,,,,1,1,0.0,1.0,0.0,-1.0,,0.0-110.0,,-1.0,1524.96,0.0,0.445444024,1.0,0.649673355,1.0,0.6845441290000001,0.0,0.300660449,True,,5d83b4c19358b400013494e8,,2141264,118,,evan-feature22,full_rf_a,,1
83,47471,119,,,,1,1,0.0,0.0,0.0,-1.0,,0.0-111.0,,0.0,1718.24,0.0,0.39909721299999995,0.0,0.6715179509999999,0.0,0.742310028,1.0,0.35496088299999995,True,,5d83b4c19358b400013494e8,,2152743,119,,evan-feature22,full_rf_a,,0
84,47472,120,,,,2,2,1.0,0.0,0.0,-1.0,,0.0-112.0,,0.0,390.5,0.0,0.37956104799999996,1.0,0.694725302,1.0,0.7181651309999999,0.0,0.38726906299999997,True,,5d83b4c19358b400013494e8,,2162891,120,,evan-feature22,full_rf_a,,1
85,47473,121,,,,2,2,0.0,0.0,0.0,-1.0,,0.0-113.0,,0.0,283.9899999,1.0,0.404995034,1.0,0.724375412,0.0,0.6910946859999999,0.0,0.387187347,True,,5d83b4c19358b400013494e8,,2172934,121,,evan-feature22,full_rf_a,,0
86,47474,122,,,,2,2,1.0,0.0,0.0,-1.0,,0.0-114.0,,0.0,405.7,1.0,0.461740803,0.0,0.75,1.0,0.75,0.0,0.34872038200000005,True,,5d83b4c19358b400013494e8,,2183095,122,,evan-feature22,full_rf_a,,0
87,47475,123,,,,2,2,0.0,0.0,1.0,0.0,,0.0-115.0,,0.0,1484.28,1.0,0.43821380600000004,1.0,0.738833273,0.0,0.728286963,0.0,0.399538128,True,,5d83b4c19358b400013494e8,,2194338,123,,evan-feature22,full_rf_a,,0
88,47476,124,,,,1,1,1.0,1.0,0.0,-1.0,,0.0-116.0,,-1.0,876.865,1.0,0.41709882,1.0,0.736666736,1.0,0.75,1.0,0.389095584,True,,5d83b4c19358b400013494e8,,2204974,124,,evan-feature22,full_rf_a,,1
89,47477,125,,,,2,2,1.0,1.0,0.0,-1.0,,0.0-117.0,,-1.0,321.6599999,0.0,0.39749009799999996,1.0,0.744320029,1.0,0.75,1.0,0.363848678,True,,5d83b4c19358b400013494e8,,2215055,125,,evan-feature22,full_rf_a,,1
90,47478,126,,,,SLOW,SLOW,,,1.0,0.0,,0.0-118.0,,-3.0,,0.0,0.392653706,1.0,0.75,1.0,0.75,1.0,0.384386976,True,,5d83b4c19358b400013494e8,,2220861,126,,evan-feature22,full_rf_a,,1
91,47479,127,,,,1,1,0.0,1.0,1.0,0.0,,0.0-119.0,,0.0,2548.005,0.0,0.31190902600000003,1.0,0.75,1.0,0.732413819,0.0,0.413082932,True,,5d83b4c19358b400013494e8,,2233182,127,,evan-feature22,full_rf_a,,1
92,47480,128,,,,2,2,0.0,0.0,0.0,-1.0,,0.0-120.0,,0.0,303.26,0.0,0.366917648,1.0,0.740073855,0.0,0.75,0.0,0.352861979,True,,5d83b4c19358b400013494e8,,2243257,128,,evan-feature22,full_rf_a,,1
93,47481,129,,,,1,1,1.0,1.0,0.0,-1.0,,0.0-121.0,,-1.0,1373.015,1.0,0.3645172,1.0,0.721770713,1.0,0.75,1.0,0.404074511,True,,5d83b4c19358b400013494e8,,2254408,129,,evan-feature22,full_rf_a,,1
94,47482,130,,,,2,2,1.0,0.0,0.0,-1.0,,0.0-122.0,,0.0,276.81,0.0,0.35205600299999995,1.0,0.68983859,1.0,0.739735447,0.0,0.366895945,True,,5d83b4c19358b400013494e8,,2264455,130,,evan-feature22,full_rf_a,,1
95,47483,131,,,,2,2,1.0,1.0,0.0,-1.0,,0.0-123.0,,-1.0,94.6099998,1.0,0.40998722600000004,1.0,0.720859127,1.0,0.673854955,1.0,0.368528541,True,,5d83b4c19358b400013494e8,,2274320,131,,evan-feature22,full_rf_a,,0
96,47484,132,,,,1,1,0.0,0.0,1.0,0.0,,0.0-124.0,,0.0,1741.595,0.0,0.353625316,0.0,0.75,0.0,0.695605473,1.0,0.38303674200000004,True,,5d83b4c19358b400013494e8,,2285837,132,,evan-feature22,full_rf_a,,1
97,47485,133,,,,1,1,0.0,1.0,0.0,-1.0,,0.0-125.0,,-1.0,434.845,0.0,0.359216989,1.0,0.75,1.0,0.6987915090000001,0.0,0.35169046200000004,True,,5d83b4c19358b400013494e8,,2296044,133,,evan-feature22,full_rf_a,,0
98,47486,134,,,,2,2,0.0,1.0,1.0,0.0,,0.0-126.0,,0.0,1335.915,1.0,0.35834496899999996,1.0,0.75,0.0,0.707067742,1.0,0.416763636,True,,5d83b4c19358b400013494e8,,2307154,134,,evan-feature22,full_rf_a,,1
99,47487,135,,,,1,1,0.0,1.0,1.0,0.0,,0.0-127.0,,0.0,441.2849999,0.0,0.38741613799999997,1.0,0.7177369570000001,0.0,0.734902455,0.0,0.49438664299999996,True,,5d83b4c19358b400013494e8,,2317368,135,,evan-feature22,full_rf_a,,1
100,47488,136,,,,2,2,1.0,1.0,0.0,-1.0,,0.0-128.0,,-1.0,157.015,1.0,0.405255252,1.0,0.7300466640000001,1.0,0.7027748070000001,1.0,0.504359668,True,,5d83b4c19358b400013494e8,,2327306,136,,evan-feature22,full_rf_a,,1
101,47489,137,,,,2,2,0.0,0.0,0.0,-1.0,,0.0-129.0,,0.0,3596.935,0.0,0.40697073,1.0,0.7260142190000001,0.0,0.724461982,0.0,0.522779179,True,,5d83b4c19358b400013494e8,,2340680,137,,evan-feature22,full_rf_a,,0
102,47490,138,,,,2,2,0.0,1.0,0.0,-1.0,,0.0-130.0,,-1.0,164.0250001,1.0,0.43906215299999996,1.0,0.7252802340000001,0.0,0.719079934,1.0,0.5712990579999999,True,,5d83b4c19358b400013494e8,,2350613,138,,evan-feature22,full_rf_a,,0
103,47491,139,,,,2,2,1.0,1.0,0.0,-1.0,,0.0-131.0,,-1.0,182.0,1.0,0.4076705,1.0,0.73280499,1.0,0.681313127,1.0,0.523891346,True,,5d83b4c19358b400013494e8,,2360570,139,,evan-feature22,full_rf_a,,0
104,47492,140,,,,2,2,1.0,0.0,0.0,-1.0,,0.0-132.0,,0.0,206.8350001,0.0,0.399102911,1.0,0.730498344,1.0,0.661080239,0.0,0.46742603,True,,5d83b4c19358b400013494e8,,2370556,140,,evan-feature22,full_rf_a,,0
105,47493,141,,,,2,2,1.0,0.0,1.0,0.0,,0.0-133.0,,1.0,98.46999985,1.0,0.356477282,1.0,0.712296395,1.0,0.641812684,0.0,0.44868414,True,,5d83b4c19358b400013494e8,,2380427,141,,evan-feature22,full_rf_a,,0
106,47494,142,,,,2,2,1.0,1.0,0.0,-1.0,,0.0-134.0,,-1.0,502.085,1.0,0.462760722,1.0,0.692349322,1.0,0.700947931,1.0,0.394680266,True,,5d83b4c19358b400013494e8,,2390709,142,,evan-feature22,full_rf_a,,0
107,47495,143,,,,SLOW,SLOW,,,0.0,-1.0,,0.0-135.0,,-3.0,,0.0,0.422306413,1.0,0.718375916,1.0,0.706340917,0.0,0.367787185,True,,5d83b4c19358b400013494e8,,2396520,143,,evan-feature22,full_rf_a,,1
108,47497,145,,,,SLOW,SLOW,,,0.0,-1.0,,0.0-137.0,,-3.0,,1.0,0.4582233,1.0,0.643834117,1.0,0.75,0.0,0.39615823299999997,True,,5d83b4c19358b400013494e8,,2408515,145,,evan-feature22,full_rf_a,,0
109,47498,146,,,,SLOW,SLOW,,,0.0,-1.0,,0.0-138.0,,-3.0,,1.0,0.43813437899999996,1.0,0.651283804,0.0,0.729674191,1.0,0.37711048,True,,5d83b4c19358b400013494e8,,2414318,146,,evan-feature22,full_rf_a,,0
110,47499,147,,,,2,2,1.0,0.0,0.0,-1.0,,0.0-139.0,,0.0,3610.195,1.0,0.471199094,1.0,0.6470010979999999,1.0,0.715008097,0.0,0.410656191,True,,5d83b4c19358b400013494e8,,2427689,147,,evan-feature22,full_rf_a,,1
111,47500,148,,,,2,2,0.0,1.0,1.0,0.0,,0.0-140.0,,0.0,532.08,1.0,0.42486406,1.0,0.629771829,0.0,0.6550939960000001,1.0,0.459093873,True,,5d83b4c19358b400013494e8,,2437980,148,,evan-feature22,full_rf_a,,0
112,47501,149,,,,1,1,0.0,1.0,1.0,0.0,,0.0-141.0,,0.0,257.3599999,0.0,0.4803197,1.0,0.645842715,1.0,0.6421749920000001,0.0,0.443092151,True,,5d83b4c19358b400013494e8,,2447996,149,,evan-feature22,full_rf_a,,1
113,47502,150,,,,2,2,1.0,1.0,1.0,0.0,,0.0-142.0,,1.0,24.87000008,1.0,0.521848997,1.0,0.735801074,1.0,0.6691348460000001,1.0,0.45259351600000003,True,,5d83b4c19358b400013494e8,,2457780,150,,evan-feature22,full_rf_a,,1
114,47503,151,,,,2,2,1.0,0.0,0.0,-1.0,,0.0-143.0,,0.0,874.395,0.0,0.49565621299999996,1.0,0.742400847,1.0,0.661512553,0.0,0.483110831,True,,5d83b4c19358b400013494e8,,2468411,151,,evan-feature22,full_rf_a,,0
115,47504,152,,,,1,1,0.0,0.0,1.0,0.0,,0.0-144.0,,0.0,1263.46,0.0,0.521564361,0.0,0.731078632,1.0,0.6774886809999999,1.0,0.483263956,True,,5d83b4c19358b400013494e8,,2479433,152,,evan-feature22,full_rf_a,,1
116,47505,153,,,,2,2,0.0,0.0,1.0,0.0,,0.0-145.0,,0.0,604.1949999,1.0,0.558893102,0.0,0.719810023,0.0,0.67461031,0.0,0.499349834,True,,5d83b4c19358b400013494e8,,2489793,153,,evan-feature22,full_rf_a,,1
117,47506,154,,,,1,1,1.0,1.0,0.0,-1.0,,0.0-146.0,,-1.0,1411.985,1.0,0.611031046,1.0,0.75,1.0,0.688072995,0.0,0.5321422729999999,True,,5d83b4c19358b400013494e8,,2500963,154,,evan-feature22,full_rf_a,,1
118,47507,155,,,,1,1,1.0,1.0,1.0,0.0,,0.0-147.0,,1.0,141.18,1.0,0.633223941,1.0,0.713567728,1.0,0.75,0.0,0.48185314700000004,True,,5d83b4c19358b400013494e8,,2510864,155,,evan-feature22,full_rf_a,,0
119,47508,156,,,,1,1,1.0,0.0,1.0,0.0,,0.0-148.0,,1.0,1558.195,1.0,0.664001694,0.0,0.705509768,1.0,0.75,1.0,0.500211065,True,,5d83b4c19358b400013494e8,,2522180,156,,evan-feature22,full_rf_a,,0
120,47509,157,,,,1,1,1.0,0.0,0.0,-1.0,,0.0-149.0,,0.0,116.32499979999999,1.0,0.664001694,0.0,0.705509768,1.0,0.75,1.0,0.500211065,True,,5d83b4c19358b400013494e8,,2532054,157,,evan-feature22,full_rf_a,,0
121,47510,158,,,,2,2,1.0,0.0,0.0,-1.0,,0.0-150.0,,0.0,3955.29,0.0,0.696508041,0.0,0.71066027,1.0,0.717028709,0.0,0.49792991,True,,5d83b4c19358b400013494e8,,2545769,158,,evan-feature22,full_rf_a,,1
122,47511,159,,,,1,1,1.0,0.0,1.0,0.0,,0.0-151.0,,1.0,26.24500007,1.0,0.699883272,0.0,0.75,1.0,0.713543895,0.0,0.496962643,True,,5d83b4c19358b400013494e8,,2555553,159,,evan-feature22,full_rf_a,,1
123,47512,160,,,,2,2,1.0,1.0,0.0,-1.0,,0.0-152.0,,-1.0,1211.735,1.0,0.741163419,1.0,0.75,1.0,0.64691024,1.0,0.513858197,True,,5d83b4c19358b400013494e8,,2566523,160,,evan-feature22,full_rf_a,,1
124,47513,161,,,,SLOW,SLOW,,,1.0,0.0,,0.0-153.0,,-3.0,,1.0,0.75,1.0,0.70816558,0.0,0.594499079,1.0,0.48502124,True,,5d83b4c19358b400013494e8,,2572328,161,,evan-feature22,full_rf_a,,1
125,47514,162,,,,SLOW,SLOW,,,0.0,-1.0,,0.0-154.0,,-3.0,,0.0,0.75,1.0,0.721848901,0.0,0.62197249,0.0,0.48263586399999997,True,,5d83b4c19358b400013494e8,,2578133,162,,evan-feature22,full_rf_a,,0
126,47515,163,,,,1,1,1.0,1.0,1.0,0.0,,0.0-155.0,,1.0,1531.985,1.0,0.75,1.0,0.74813071,1.0,0.584357161,1.0,0.411477782,True,,5d83b4c19358b400013494e8,,2589423,163,,evan-feature22,full_rf_a,,1
127,47516,164,,,,1,1,1.0,1.0,0.0,-1.0,,0.0-156.0,,-1.0,105.005,1.0,0.75,1.0,0.75,1.0,0.52287236,0.0,0.488290656,True,,5d83b4c19358b400013494e8,,2599288,164,,evan-feature22,full_rf_a,,0
128,47517,165,,,,2,2,1.0,0.0,0.0,-1.0,,0.0-157.0,,0.0,237.59999989999997,1.0,0.75,1.0,0.75,1.0,0.544321581,0.0,0.53143059,True,,5d83b4c19358b400013494e8,,2609282,165,,evan-feature22,full_rf_a,,1
129,47518,166,,,,2,2,0.0,1.0,0.0,-1.0,,0.0-158.0,,-1.0,731.135,1.0,0.726754564,0.0,0.75,0.0,0.5129306370000001,1.0,0.530592445,True,,5d83b4c19358b400013494e8,,2619773,166,,evan-feature22,full_rf_a,,0
130,47519,167,,,,2,2,0.0,0.0,1.0,0.0,,0.0-159.0,,0.0,851.795,1.0,0.75,1.0,0.7392590729999999,0.0,0.479875835,0.0,0.547007051,True,,5d83b4c19358b400013494e8,,2630383,167,,evan-feature22,full_rf_a,,0
131,47520,168,,,,1,1,1.0,0.0,1.0,0.0,,0.0-160.0,,1.0,1905.445,1.0,0.75,0.0,0.7393376979999999,1.0,0.546045419,1.0,0.541267353,True,,5d83b4c19358b400013494e8,,2642048,168,,evan-feature22,full_rf_a,,1
132,47521,169,,,,1,1,0.0,0.0,1.0,0.0,,0.0-161.0,,0.0,534.495,0.0,0.75,0.0,0.75,0.0,0.485725895,0.0,0.527625395,True,,5d83b4c19358b400013494e8,,2652339,169,,evan-feature22,full_rf_a,,0
133,47522,170,,,,2,2,0.0,1.0,0.0,-1.0,,0.0-162.0,,-1.0,1451.505,1.0,0.75,0.0,0.725087974,0.0,0.488603595,1.0,0.504019206,True,,5d83b4c19358b400013494e8,,2663548,170,,evan-feature22,full_rf_a,,1
134,47523,171,,,,1,1,1.0,0.0,0.0,-1.0,,0.0-163.0,,0.0,1303.595,1.0,0.745504295,0.0,0.75,0.0,0.452379914,1.0,0.50131194,True,,5d83b4c19358b400013494e8,,2674609,171,,evan-feature22,full_rf_a,,1
135,47524,172,,,,2,2,1.0,0.0,0.0,-1.0,,0.0-164.0,,0.0,3970.8,1.0,0.728513874,0.0,0.75,1.0,0.44125567200000004,0.0,0.531454591,True,,5d83b4c19358b400013494e8,,2688338,172,,evan-feature22,full_rf_a,,1
136,47525,173,,,,1,1,0.0,1.0,1.0,0.0,,0.0-165.0,,0.0,1784.4,0.0,0.73790804,1.0,0.75,0.0,0.413036656,1.0,0.524619035,True,,5d83b4c19358b400013494e8,,2699880,173,,evan-feature22,full_rf_a,,1
137,47526,174,,,,2,2,1.0,1.0,0.0,-1.0,,0.0-166.0,,-1.0,1824.475,1.0,0.7080961309999999,0.0,0.708666865,1.0,0.431915581,1.0,0.481819489,True,,5d83b4c19358b400013494e8,,2711463,174,,evan-feature22,full_rf_a,,1
138,47527,175,,,,1,1,1.0,1.0,0.0,-1.0,,0.0-167.0,,-1.0,45.30999996,1.0,0.721378003,1.0,0.71605913,0.0,0.36642387,1.0,0.5036739929999999,True,,5d83b4c19358b400013494e8,,2721269,175,,evan-feature22,full_rf_a,,1
139,47528,176,,,,2,2,1.0,0.0,0.0,-1.0,,0.0-168.0,,0.0,2591.28,1.0,0.7340618959999999,1.0,0.699323252,1.0,0.35298046299999997,0.0,0.511241692,True,,5d83b4c19358b400013494e8,,2733619,176,,evan-feature22,full_rf_a,,1
140,47529,177,,,,1,1,1.0,1.0,1.0,0.0,,0.0-169.0,,1.0,161.845,1.0,0.75,1.0,0.70412698,0.0,0.380734814,0.0,0.529580116,True,,5d83b4c19358b400013494e8,,2743540,177,,evan-feature22,full_rf_a,,1
141,47530,178,,,,1,1,0.0,1.0,0.0,-1.0,,0.0-170.0,,-1.0,468.70999989999996,0.0,0.7436654909999999,1.0,0.711182751,1.0,0.41125331,0.0,0.49554405,True,,5d83b4c19358b400013494e8,,2753767,178,,evan-feature22,full_rf_a,,0
142,47531,179,,,,1,1,1.0,1.0,0.0,-1.0,,0.0-171.0,,-1.0,842.3300001,1.0,0.731607915,1.0,0.651774583,0.0,0.35688023,0.0,0.45194491600000003,True,,5d83b4c19358b400013494e8,,2764367,179,,evan-feature22,full_rf_a,,0
143,47532,180,,,,2,2,0.0,1.0,1.0,0.0,,0.0-172.0,,0.0,422.18499979999996,0.0,0.75,1.0,0.75,0.0,0.283145374,1.0,0.528608005,True,,5d83b4c19358b400013494e8,,2774547,180,,evan-feature22,full_rf_a,,1
144,47533,181,,,,1,1,1.0,1.0,1.0,0.0,,0.0-173.0,,1.0,190.2099999,1.0,0.7491416890000001,1.0,0.7423785959999999,0.0,0.29135870399999997,0.0,0.498888318,True,,5d83b4c19358b400013494e8,,2784498,181,,evan-feature22,full_rf_a,,1
145,47534,182,,,,1,1,1.0,0.0,1.0,0.0,,0.0-174.0,,1.0,717.1,1.0,0.708569387,0.0,0.717682277,1.0,0.294421699,1.0,0.493838163,True,,5d83b4c19358b400013494e8,,2794972,182,,evan-feature22,full_rf_a,,0
146,47535,183,,,,2,2,1.0,0.0,0.0,-1.0,,0.0-175.0,,0.0,2133.645,1.0,0.75,1.0,0.7383382159999999,1.0,0.356098707,0.0,0.442533405,True,,5d83b4c19358b400013494e8,,2806862,183,,evan-feature22,full_rf_a,,1
147,47536,184,,,,1,1,1.0,1.0,0.0,-1.0,,0.0-176.0,,-1.0,1220.585,1.0,0.744527075,1.0,0.75,1.0,0.334127506,0.0,0.393165805,True,,5d83b4c19358b400013494e8,,2817842,184,,evan-feature22,full_rf_a,,1
148,47537,185,,,,2,2,0.0,0.0,0.0,-1.0,,0.0-177.0,,0.0,2132.095,1.0,0.75,0.0,0.75,0.0,0.33571021799999995,0.0,0.350393962,True,,5d83b4c19358b400013494e8,,2829733,185,,evan-feature22,full_rf_a,,1
149,47538,186,,,,SLOW,SLOW,,,0.0,-1.0,,0.0-178.0,,-3.0,,1.0,0.75,0.0,0.75,0.0,0.313628297,0.0,0.36349657399999996,True,,5d83b4c19358b400013494e8,,2835536,186,,evan-feature22,full_rf_a,,1
150,47539,187,,,,1,1,1.0,1.0,1.0,0.0,,0.0-179.0,,1.0,1031.46,1.0,0.75,1.0,0.734284182,0.0,0.262667667,0.0,0.380199119,True,,5d83b4c19358b400013494e8,,2846329,187,,evan-feature22,full_rf_a,,1
151,47540,188,,,,2,2,0.0,1.0,0.0,-1.0,,0.0-180.0,,-1.0,707.9400001,0.0,0.75,0.0,0.75,0.0,0.25,1.0,0.394494013,True,,5d83b4c19358b400013494e8,,2856798,188,,evan-feature22,full_rf_a,,1
152,47541,189,,,,1,1,1.0,0.0,1.0,0.0,,0.0-181.0,,1.0,912.3449998,1.0,0.722298145,0.0,0.7357822340000001,0.0,0.25,0.0,0.319142121,True,,5d83b4c19358b400013494e8,,2867468,189,,evan-feature22,full_rf_a,,1
153,47542,190,,,,1,1,1.0,0.0,1.0,0.0,,0.0-182.0,,1.0,551.4700001,1.0,0.73149275,0.0,0.724276446,0.0,0.305856907,1.0,0.281315057,True,,5d83b4c19358b400013494e8,,2877777,190,,evan-feature22,full_rf_a,,0
154,47543,191,,,,1,1,1.0,0.0,0.0,-1.0,,0.0-183.0,,0.0,799.8000002,1.0,0.7458732690000001,0.0,0.7336382459999999,0.0,0.272571964,1.0,0.266021999,True,,5d83b4c19358b400013494e8,,2888334,191,,evan-feature22,full_rf_a,,0
155,47544,192,,,,1,1,0.0,0.0,0.0,-1.0,,0.0-184.0,,0.0,97.92499989,0.0,0.705579037,0.0,0.720778292,0.0,0.320238144,1.0,0.30971744,True,,5d83b4c19358b400013494e8,,2898190,192,,evan-feature22,full_rf_a,,0
156,47545,193,,,,2,2,0.0,0.0,0.0,-1.0,,0.0-185.0,,0.0,524.7350002000001,0.0,0.700425648,1.0,0.7198784009999999,0.0,0.272590393,0.0,0.304182931,True,,5d83b4c19358b400013494e8,,2908471,193,,evan-feature22,full_rf_a,,1
157,47546,194,,,,1,1,0.0,1.0,0.0,-1.0,,0.0-186.0,,-1.0,1218.795,0.0,0.735590785,1.0,0.722714973,1.0,0.25,0.0,0.323421091,True,,5d83b4c19358b400013494e8,,2919448,194,,evan-feature22,full_rf_a,,1
158,47547,195,,,,2,2,0.0,1.0,0.0,-1.0,,0.0-187.0,,-1.0,797.765,1.0,0.724807662,0.0,0.63146213,0.0,0.36836492600000004,1.0,0.34592153299999995,True,,5d83b4c19358b400013494e8,,2930003,195,,evan-feature22,full_rf_a,,1
159,47548,196,,,,1,1,1.0,1.0,0.0,-1.0,,0.0-188.0,,-1.0,626.1849999,1.0,0.7352796909999999,1.0,0.555111392,1.0,0.36003922,0.0,0.31433779999999995,True,,5d83b4c19358b400013494e8,,2940390,196,,evan-feature22,full_rf_a,,1
160,47549,197,notice,,,,,,,,,,0.0-189.0,"{""Q0"":""yes""}",,28828.0,,,,,,,,,True,,5d83b4c19358b400013494e8,,2969219,197,Q,survey-text,full_rf_a,,1
161,47550,198,track1,,[1],,,,,,,,0.0-190.0,"{""Q0"":""no""}",,7294.0,,,,,,,,,True,,5d83b4c19358b400013494e8,,2976518,198,Q,evan-quiz,full_rf_a,,1
162,47551,199,track2,,[0],,,,,,,,0.0-191.0,"{""Q0"":""yes""}",,10593.0,,,,,,,,,True,,5d83b4c19358b400013494e8,,2987114,199,Q,evan-quiz,full_rf_a,,1
163,47552,200,strat,,,,,,,,,,0.0-192.0,"{""Q0"":""no""}",,10387.0,,,,,,,,,True,,5d83b4c19358b400013494e8,,2997504,200,Q,survey-text,full_rf_a,,1
