,index,Unnamed: 0,Q_name,button_pressed,choice_idxs,chosen_pos,chosen_state,chosen_state_f_1_outcome,chosen_state_f_2_outcome,f_1_reward,f_2_reward,incor_questions,internal_node_id,responses,reward_received,rt,s_1_f_1_outcome,s_1_f_1_prob,s_1_f_2_outcome,s_1_f_2_prob,s_2_f_1_outcome,s_2_f_1_prob,s_2_f_2_outcome,s_2_f_2_prob,safe_first,stimulus,subjectID,success,time_elapsed,trial_index,trial_num,trial_type,version,view_history,switching
0,7245,25,,,,1,1,1.0,1.0,-1.0,0.0,,0.0-27.0,,-1.0,1802.98,1.0,0.6,1.0,0.6,0.0,0.4,0.0,0.4,False,,5ec6c8ad6f911e0e87e58b1f,,507594,25,,evan-feature22,full_pf_b,,0
1,7246,26,,,,2,2,0.0,1.0,-1.0,0.0,,0.0-28.0,,0.0,1683.155,0.0,0.608053294,1.0,0.63424552,0.0,0.397152172,1.0,0.347069101,False,,5ec6c8ad6f911e0e87e58b1f,,519073,26,,evan-feature22,full_pf_b,,1
2,7247,27,,,,2,2,0.0,0.0,-1.0,0.0,,0.0-29.0,,0.0,1995.92,1.0,0.642237155,1.0,0.648566321,0.0,0.389407674,0.0,0.285525717,False,,5ec6c8ad6f911e0e87e58b1f,,530865,27,,evan-feature22,full_pf_b,,0
3,7248,28,,,,2,2,1.0,0.0,-1.0,0.0,,0.0-30.0,,-1.0,927.745,1.0,0.661086576,0.0,0.630492543,1.0,0.399058924,0.0,0.25,False,,5ec6c8ad6f911e0e87e58b1f,,541605,28,,evan-feature22,full_pf_b,,0
4,7249,29,,,,1,1,1.0,0.0,0.0,1.0,,0.0-31.0,,0.0,1906.88,1.0,0.631324137,0.0,0.6269842929999999,0.0,0.38734784299999997,1.0,0.25,False,,5ec6c8ad6f911e0e87e58b1f,,553316,29,,evan-feature22,full_pf_b,,1
5,7250,30,,,,2,2,1.0,0.0,0.0,1.0,,0.0-32.0,,0.0,1316.605,0.0,0.6381991370000001,0.0,0.68987999,1.0,0.384107265,0.0,0.271332943,False,,5ec6c8ad6f911e0e87e58b1f,,564437,30,,evan-feature22,full_pf_b,,1
6,7251,31,,,,2,2,0.0,1.0,-1.0,0.0,,0.0-33.0,,0.0,1124.76,1.0,0.66034901,1.0,0.742641349,0.0,0.360225629,1.0,0.25,False,,5ec6c8ad6f911e0e87e58b1f,,575374,31,,evan-feature22,full_pf_b,,0
7,7252,32,,,,1,1,0.0,1.0,-1.0,0.0,,0.0-34.0,,0.0,1520.955,0.0,0.638612418,1.0,0.75,1.0,0.367273939,0.0,0.25,False,,5ec6c8ad6f911e0e87e58b1f,,586710,32,,evan-feature22,full_pf_b,,1
8,7253,33,,,,2,2,1.0,0.0,0.0,1.0,,0.0-35.0,,0.0,2059.865,1.0,0.624340629,1.0,0.75,1.0,0.425829545,0.0,0.25,False,,5ec6c8ad6f911e0e87e58b1f,,598592,33,,evan-feature22,full_pf_b,,1
9,7254,34,,,,2,2,1.0,0.0,0.0,1.0,,0.0-36.0,,0.0,1306.845,1.0,0.621999804,1.0,0.75,1.0,0.368609357,0.0,0.25,False,,5ec6c8ad6f911e0e87e58b1f,,609712,34,,evan-feature22,full_pf_b,,0
10,7255,35,,,,1,1,0.0,1.0,-1.0,0.0,,0.0-37.0,,0.0,2458.905,0.0,0.62666403,1.0,0.75,0.0,0.311151498,0.0,0.25,False,,5ec6c8ad6f911e0e87e58b1f,,621983,35,,evan-feature22,full_pf_b,,1
11,7256,36,,,,1,1,1.0,1.0,0.0,1.0,,0.0-38.0,,1.0,2108.355,1.0,0.6819650009999999,1.0,0.75,0.0,0.310763048,0.0,0.25,False,,5ec6c8ad6f911e0e87e58b1f,,633903,36,,evan-feature22,full_pf_b,,0
12,7257,37,,,,2,2,1.0,1.0,-1.0,0.0,,0.0-39.0,,-1.0,1091.08,1.0,0.740626951,1.0,0.75,1.0,0.25,1.0,0.25,False,,5ec6c8ad6f911e0e87e58b1f,,644802,37,,evan-feature22,full_pf_b,,1
13,7258,38,,,,1,1,1.0,1.0,-1.0,0.0,,0.0-40.0,,-1.0,1851.54,1.0,0.739599242,1.0,0.742034978,0.0,0.25397114600000004,1.0,0.25,False,,5ec6c8ad6f911e0e87e58b1f,,656460,38,,evan-feature22,full_pf_b,,1
14,7259,39,,,,2,2,0.0,1.0,-1.0,0.0,,0.0-41.0,,0.0,2078.28,1.0,0.732341315,1.0,0.72735643,0.0,0.25,1.0,0.25,False,,5ec6c8ad6f911e0e87e58b1f,,668353,39,,evan-feature22,full_pf_b,,1
15,7260,40,,,,2,2,0.0,1.0,-1.0,0.0,,0.0-42.0,,0.0,1902.77,1.0,0.7062287770000001,0.0,0.75,0.0,0.29002151,1.0,0.288256649,False,,5ec6c8ad6f911e0e87e58b1f,,680084,40,,evan-feature22,full_pf_b,,0
16,7261,41,,,,2,2,1.0,0.0,-1.0,0.0,,0.0-43.0,,-1.0,2169.78,1.0,0.7086029209999999,1.0,0.75,1.0,0.274129113,0.0,0.262851608,False,,5ec6c8ad6f911e0e87e58b1f,,692067,41,,evan-feature22,full_pf_b,,0
17,7262,42,,,,2,2,1.0,1.0,-1.0,0.0,,0.0-44.0,,-1.0,1792.52,1.0,0.669189651,1.0,0.727614338,1.0,0.298444036,1.0,0.296944518,False,,5ec6c8ad6f911e0e87e58b1f,,703673,42,,evan-feature22,full_pf_b,,0
18,7263,43,,,,1,1,1.0,1.0,-1.0,0.0,,0.0-45.0,,-1.0,1183.315,1.0,0.6819912929999999,1.0,0.7179434290000001,0.0,0.265003961,0.0,0.28157921199999997,False,,5ec6c8ad6f911e0e87e58b1f,,714665,43,,evan-feature22,full_pf_b,,1
19,7264,44,,,,2,2,0.0,0.0,0.0,1.0,,0.0-46.0,,0.0,1379.085,0.0,0.665275002,0.0,0.723065271,0.0,0.260414971,0.0,0.30973870000000003,False,,5ec6c8ad6f911e0e87e58b1f,,725844,44,,evan-feature22,full_pf_b,,1
20,7265,45,,,,2,2,0.0,0.0,-1.0,0.0,,0.0-47.0,,0.0,1579.04,1.0,0.6660593260000001,1.0,0.728032907,0.0,0.30922817,0.0,0.338778608,False,,5ec6c8ad6f911e0e87e58b1f,,737220,45,,evan-feature22,full_pf_b,,0
21,7266,46,,,,2,2,1.0,0.0,-1.0,0.0,,0.0-48.0,,-1.0,697.1,0.0,0.702068785,1.0,0.6528750879999999,1.0,0.287329608,0.0,0.35789613200000003,False,,5ec6c8ad6f911e0e87e58b1f,,747725,46,,evan-feature22,full_pf_b,,0
22,7267,47,,,,2,2,1.0,0.0,-1.0,0.0,,0.0-49.0,,-1.0,1054.315,1.0,0.651939787,1.0,0.636725589,1.0,0.284834488,0.0,0.358563756,False,,5ec6c8ad6f911e0e87e58b1f,,758578,47,,evan-feature22,full_pf_b,,0
23,7268,48,,,,2,2,1.0,0.0,0.0,1.0,,0.0-50.0,,0.0,1164.04,0.0,0.67573929,1.0,0.612550049,1.0,0.37130387600000003,0.0,0.383542402,False,,5ec6c8ad6f911e0e87e58b1f,,769548,48,,evan-feature22,full_pf_b,,0
24,7269,49,,,,2,2,0.0,1.0,0.0,1.0,,0.0-51.0,,1.0,498.105,1.0,0.620753801,0.0,0.60513644,0.0,0.385529434,1.0,0.340361743,False,,5ec6c8ad6f911e0e87e58b1f,,779866,49,,evan-feature22,full_pf_b,,0
25,7270,50,,,,2,2,1.0,1.0,0.0,1.0,,0.0-52.0,,1.0,755.0550001,1.0,0.673564893,0.0,0.672437924,1.0,0.292955382,1.0,0.337633795,False,,5ec6c8ad6f911e0e87e58b1f,,790436,50,,evan-feature22,full_pf_b,,0
26,7271,51,,,,1,1,1.0,1.0,-1.0,0.0,,0.0-53.0,,-1.0,2049.575,1.0,0.6749427,1.0,0.724197502,1.0,0.32391132100000003,0.0,0.350995264,False,,5ec6c8ad6f911e0e87e58b1f,,802311,51,,evan-feature22,full_pf_b,,1
27,7272,52,,,,1,1,1.0,0.0,-1.0,0.0,,0.0-54.0,,-1.0,2296.655,1.0,0.6940159379999999,0.0,0.75,0.0,0.31710554399999996,1.0,0.413450341,False,,5ec6c8ad6f911e0e87e58b1f,,814400,52,,evan-feature22,full_pf_b,,0
28,7273,53,,,,1,1,1.0,1.0,-1.0,0.0,,0.0-55.0,,-1.0,949.165,1.0,0.6916018270000001,1.0,0.69001187,0.0,0.261817804,0.0,0.40038635,False,,5ec6c8ad6f911e0e87e58b1f,,825153,53,,evan-feature22,full_pf_b,,0
29,7274,54,,,,1,1,1.0,0.0,-1.0,0.0,,0.0-56.0,,-1.0,1188.245,1.0,0.641061544,0.0,0.71337992,0.0,0.277296461,1.0,0.47372791700000005,False,,5ec6c8ad6f911e0e87e58b1f,,836161,54,,evan-feature22,full_pf_b,,0
30,7275,55,,,,1,1,0.0,1.0,-1.0,0.0,,0.0-57.0,,0.0,1728.815,0.0,0.6082438520000001,1.0,0.708471106,0.0,0.28745137,0.0,0.564174476,False,,5ec6c8ad6f911e0e87e58b1f,,847690,55,,evan-feature22,full_pf_b,,0
31,7276,56,,,,1,1,1.0,1.0,-1.0,0.0,,0.0-58.0,,-1.0,1038.11,1.0,0.6051112120000001,1.0,0.7118147229999999,0.0,0.272390611,0.0,0.5595149939999999,False,,5ec6c8ad6f911e0e87e58b1f,,858535,56,,evan-feature22,full_pf_b,,0
32,7277,57,,,,2,2,0.0,1.0,-1.0,0.0,,0.0-59.0,,0.0,634.1499999,1.0,0.582420852,1.0,0.635867583,0.0,0.31089574,1.0,0.5227206520000001,False,,5ec6c8ad6f911e0e87e58b1f,,868960,57,,evan-feature22,full_pf_b,,1
33,7278,58,,,,1,1,1.0,1.0,0.0,1.0,,0.0-60.0,,1.0,2051.285,1.0,0.623195575,1.0,0.655026044,0.0,0.25,0.0,0.560387538,False,,5ec6c8ad6f911e0e87e58b1f,,880813,58,,evan-feature22,full_pf_b,,1
34,7279,59,,,,1,1,1.0,1.0,-1.0,0.0,,0.0-61.0,,-1.0,2837.875,1.0,0.601889598,1.0,0.678198724,0.0,0.25,1.0,0.559922936,False,,5ec6c8ad6f911e0e87e58b1f,,893470,59,,evan-feature22,full_pf_b,,0
35,7280,60,,,,2,2,0.0,1.0,-1.0,0.0,,0.0-62.0,,0.0,1273.68,1.0,0.601259914,1.0,0.704681482,0.0,0.33908969299999997,1.0,0.505003715,False,,5ec6c8ad6f911e0e87e58b1f,,904565,60,,evan-feature22,full_pf_b,,1
36,7281,61,,,,2,2,1.0,0.0,-1.0,0.0,,0.0-63.0,,-1.0,1081.4,1.0,0.59645454,1.0,0.710437172,1.0,0.327441879,0.0,0.391749613,False,,5ec6c8ad6f911e0e87e58b1f,,915458,61,,evan-feature22,full_pf_b,,0
37,7282,62,,,,2,2,0.0,0.0,-1.0,0.0,,0.0-64.0,,0.0,1597.29,0.0,0.529473,1.0,0.636758527,0.0,0.301338063,0.0,0.365661481,False,,5ec6c8ad6f911e0e87e58b1f,,926873,62,,evan-feature22,full_pf_b,,0
38,7283,63,,,,2,2,1.0,1.0,0.0,1.0,,0.0-65.0,,1.0,1273.415,1.0,0.541657162,0.0,0.634541962,1.0,0.343535366,1.0,0.371763742,False,,5ec6c8ad6f911e0e87e58b1f,,937954,63,,evan-feature22,full_pf_b,,0
39,7284,64,,,,2,2,0.0,0.0,-1.0,0.0,,0.0-66.0,,0.0,757.655,1.0,0.5707533260000001,0.0,0.589121171,0.0,0.326428396,0.0,0.43961622899999997,False,,5ec6c8ad6f911e0e87e58b1f,,948540,64,,evan-feature22,full_pf_b,,0
40,7285,65,,,,2,2,0.0,1.0,-1.0,0.0,,0.0-67.0,,0.0,1268.155,0.0,0.5707533260000001,1.0,0.589121171,0.0,0.326428396,1.0,0.43961622899999997,False,,5ec6c8ad6f911e0e87e58b1f,,959617,65,,evan-feature22,full_pf_b,,0
41,7286,66,,,,2,2,0.0,0.0,-1.0,0.0,,0.0-68.0,,0.0,934.04,0.0,0.506271295,1.0,0.641775594,0.0,0.37149690700000004,0.0,0.404330166,False,,5ec6c8ad6f911e0e87e58b1f,,970358,66,,evan-feature22,full_pf_b,,0
42,7287,67,,,,1,1,0.0,1.0,0.0,1.0,,0.0-69.0,,1.0,1065.2,0.0,0.455642565,1.0,0.623605825,0.0,0.358753011,0.0,0.346174041,False,,5ec6c8ad6f911e0e87e58b1f,,981235,67,,evan-feature22,full_pf_b,,1
43,7288,68,,,,1,1,0.0,1.0,0.0,1.0,,0.0-70.0,,1.0,694.6149998999999,0.0,0.483677308,1.0,0.5904681070000001,0.0,0.402218411,0.0,0.35344697,False,,5ec6c8ad6f911e0e87e58b1f,,991734,68,,evan-feature22,full_pf_b,,0
44,7289,69,,,,1,1,1.0,0.0,0.0,1.0,,0.0-71.0,,0.0,1254.65,1.0,0.394210977,0.0,0.558925494,0.0,0.540052017,1.0,0.35182128700000004,False,,5ec6c8ad6f911e0e87e58b1f,,1002786,69,,evan-feature22,full_pf_b,,0
45,7290,70,,,,2,2,1.0,0.0,-1.0,0.0,,0.0-72.0,,-1.0,784.295,0.0,0.382300414,1.0,0.577670603,1.0,0.607608448,0.0,0.378261578,False,,5ec6c8ad6f911e0e87e58b1f,,1013389,70,,evan-feature22,full_pf_b,,1
46,7291,71,,,,1,1,1.0,1.0,-1.0,0.0,,0.0-73.0,,-1.0,2058.825,1.0,0.357596762,1.0,0.5929076529999999,1.0,0.6579790010000001,1.0,0.401326777,False,,5ec6c8ad6f911e0e87e58b1f,,1025253,71,,evan-feature22,full_pf_b,,1
47,7292,72,,,,2,2,0.0,0.0,-1.0,0.0,,0.0-74.0,,0.0,1349.08,1.0,0.362033495,1.0,0.582308608,0.0,0.649195052,0.0,0.355158505,False,,5ec6c8ad6f911e0e87e58b1f,,1036395,72,,evan-feature22,full_pf_b,,1
48,7293,73,,,,2,2,1.0,0.0,-1.0,0.0,,0.0-75.0,,-1.0,1315.62,1.0,0.369620635,0.0,0.669100864,1.0,0.706059111,0.0,0.362516241,False,,5ec6c8ad6f911e0e87e58b1f,,1047526,73,,evan-feature22,full_pf_b,,0
49,7294,74,,,,1,1,0.0,1.0,-1.0,0.0,,0.0-76.0,,0.0,1260.4,0.0,0.41477751399999996,1.0,0.7284416779999999,1.0,0.7182656940000001,1.0,0.36228040899999997,False,,5ec6c8ad6f911e0e87e58b1f,,1058598,74,,evan-feature22,full_pf_b,,1
50,7295,75,,,,2,2,1.0,1.0,0.0,1.0,,0.0-77.0,,1.0,1429.265,1.0,0.37675460299999997,0.0,0.703250285,1.0,0.75,1.0,0.461979164,False,,5ec6c8ad6f911e0e87e58b1f,,1069837,75,,evan-feature22,full_pf_b,,1
51,7296,76,,,,2,2,1.0,0.0,0.0,1.0,,0.0-78.0,,0.0,1323.195,0.0,0.398716075,1.0,0.6723864890000001,1.0,0.674153818,0.0,0.519029516,False,,5ec6c8ad6f911e0e87e58b1f,,1080981,76,,evan-feature22,full_pf_b,,0
52,7297,77,,,,1,1,1.0,0.0,-1.0,0.0,,0.0-79.0,,-1.0,1843.63,1.0,0.34677856700000004,0.0,0.69057175,1.0,0.6822438540000001,1.0,0.477292237,False,,5ec6c8ad6f911e0e87e58b1f,,1092626,77,,evan-feature22,full_pf_b,,1
53,7298,78,,,,2,2,1.0,1.0,0.0,1.0,,0.0-80.0,,1.0,1113.525,1.0,0.28580469199999997,0.0,0.68408818,1.0,0.684207565,1.0,0.49780448299999996,False,,5ec6c8ad6f911e0e87e58b1f,,1103561,78,,evan-feature22,full_pf_b,,1
54,7300,80,,,,1,1,0.0,1.0,-1.0,0.0,,0.0-82.0,,0.0,1484.66,0.0,0.25,1.0,0.7405808970000001,1.0,0.679614108,0.0,0.436436964,False,,5ec6c8ad6f911e0e87e58b1f,,1118443,80,,evan-feature22,full_pf_b,,1
55,7301,81,,,,2,2,1.0,0.0,0.0,1.0,,0.0-83.0,,0.0,1231.3,0.0,0.29890393,1.0,0.730505706,1.0,0.7328203320000001,0.0,0.439256938,False,,5ec6c8ad6f911e0e87e58b1f,,1129479,81,,evan-feature22,full_pf_b,,1
56,7302,82,,,,2,2,1.0,0.0,-1.0,0.0,,0.0-84.0,,-1.0,1357.95,0.0,0.326762398,1.0,0.7148059609999999,1.0,0.75,0.0,0.44389608799999997,False,,5ec6c8ad6f911e0e87e58b1f,,1140644,82,,evan-feature22,full_pf_b,,0
57,7303,83,,,,1,1,0.0,1.0,-1.0,0.0,,0.0-85.0,,0.0,2120.255,0.0,0.295168515,1.0,0.739760854,1.0,0.719947008,1.0,0.35277284600000003,False,,5ec6c8ad6f911e0e87e58b1f,,1152586,83,,evan-feature22,full_pf_b,,1
58,7304,84,,,,2,2,1.0,1.0,-1.0,0.0,,0.0-86.0,,-1.0,3221.58,1.0,0.25,1.0,0.70781482,1.0,0.75,1.0,0.286095925,False,,5ec6c8ad6f911e0e87e58b1f,,1165615,84,,evan-feature22,full_pf_b,,1
59,7305,85,,,,2,2,1.0,0.0,0.0,1.0,,0.0-87.0,,0.0,2104.98,0.0,0.25638190899999996,1.0,0.704088163,1.0,0.75,0.0,0.26872601399999996,False,,5ec6c8ad6f911e0e87e58b1f,,1177533,85,,evan-feature22,full_pf_b,,0
60,7306,86,,,,1,1,0.0,0.0,0.0,1.0,,0.0-88.0,,0.0,1412.26,0.0,0.271581126,0.0,0.669760107,1.0,0.733896663,0.0,0.273244572,False,,5ec6c8ad6f911e0e87e58b1f,,1188751,86,,evan-feature22,full_pf_b,,1
61,7307,87,,,,2,2,1.0,0.0,0.0,1.0,,0.0-89.0,,0.0,1291.575,0.0,0.257144401,1.0,0.600575706,1.0,0.74488122,0.0,0.25,False,,5ec6c8ad6f911e0e87e58b1f,,1199865,87,,evan-feature22,full_pf_b,,1
62,7308,88,,,,2,2,1.0,0.0,-1.0,0.0,,0.0-90.0,,-1.0,1652.07,0.0,0.25,0.0,0.616870026,1.0,0.723610234,0.0,0.25,False,,5ec6c8ad6f911e0e87e58b1f,,1211328,88,,evan-feature22,full_pf_b,,0
63,7309,89,,,,2,2,1.0,0.0,0.0,1.0,,0.0-91.0,,0.0,1445.165,1.0,0.25,1.0,0.583540187,1.0,0.7041042559999999,0.0,0.285961995,False,,5ec6c8ad6f911e0e87e58b1f,,1222693,89,,evan-feature22,full_pf_b,,0
64,7310,90,,,,1,1,0.0,1.0,-1.0,0.0,,0.0-92.0,,0.0,2845.45,0.0,0.27254536,1.0,0.53875765,1.0,0.693783448,1.0,0.284961652,False,,5ec6c8ad6f911e0e87e58b1f,,1235354,90,,evan-feature22,full_pf_b,,1
65,7311,91,,,,2,2,0.0,1.0,0.0,1.0,,0.0-93.0,,1.0,921.145,0.0,0.25,1.0,0.548431252,0.0,0.734221895,1.0,0.279445214,False,,5ec6c8ad6f911e0e87e58b1f,,1246083,91,,evan-feature22,full_pf_b,,1
66,7312,92,,,,1,1,0.0,0.0,-1.0,0.0,,0.0-94.0,,0.0,1227.24,0.0,0.258640684,0.0,0.545878066,1.0,0.725245965,0.0,0.31487537,False,,5ec6c8ad6f911e0e87e58b1f,,1257116,92,,evan-feature22,full_pf_b,,1
67,7313,93,,,,1,1,1.0,0.0,-1.0,0.0,,0.0-95.0,,-1.0,1647.915,1.0,0.251103711,0.0,0.5776290629999999,1.0,0.696320133,0.0,0.317831047,False,,5ec6c8ad6f911e0e87e58b1f,,1268576,93,,evan-feature22,full_pf_b,,0
68,7314,94,,,,1,1,0.0,1.0,-1.0,0.0,,0.0-96.0,,0.0,1669.705,0.0,0.276630292,1.0,0.617329858,1.0,0.73838088,0.0,0.261471582,False,,5ec6c8ad6f911e0e87e58b1f,,1280074,94,,evan-feature22,full_pf_b,,0
69,7315,95,,,,2,2,1.0,0.0,0.0,1.0,,0.0-97.0,,0.0,3999.115,0.0,0.297716424,1.0,0.618863717,1.0,0.7402358259999999,0.0,0.262600834,False,,5ec6c8ad6f911e0e87e58b1f,,1293880,95,,evan-feature22,full_pf_b,,1
70,7316,96,,,,1,1,1.0,1.0,-1.0,0.0,,0.0-98.0,,-1.0,1356.015,1.0,0.290935512,1.0,0.695370945,1.0,0.706570507,0.0,0.280030553,False,,5ec6c8ad6f911e0e87e58b1f,,1305047,96,,evan-feature22,full_pf_b,,1
71,7317,97,,,,2,2,1.0,0.0,-1.0,0.0,,0.0-99.0,,-1.0,669.18,0.0,0.25,1.0,0.6465277079999999,1.0,0.67766682,0.0,0.25,False,,5ec6c8ad6f911e0e87e58b1f,,1315534,97,,evan-feature22,full_pf_b,,1
72,7318,98,,,,1,1,0.0,0.0,-1.0,0.0,,0.0-100.0,,0.0,1223.33,0.0,0.26463816,0.0,0.636100213,1.0,0.646048507,0.0,0.265607101,False,,5ec6c8ad6f911e0e87e58b1f,,1326579,98,,evan-feature22,full_pf_b,,1
73,7319,99,,,,1,1,1.0,1.0,-1.0,0.0,,0.0-101.0,,-1.0,2269.855,1.0,0.314340707,1.0,0.667795927,0.0,0.613630805,0.0,0.25,False,,5ec6c8ad6f911e0e87e58b1f,,1338663,99,,evan-feature22,full_pf_b,,0
74,7320,100,,,,1,1,0.0,0.0,-1.0,0.0,,0.0-102.0,,0.0,538.82,0.0,0.28685784,0.0,0.6622549529999999,1.0,0.652154117,0.0,0.25,False,,5ec6c8ad6f911e0e87e58b1f,,1349021,100,,evan-feature22,full_pf_b,,0
75,7321,101,,,,2,2,0.0,0.0,0.0,1.0,,0.0-103.0,,0.0,1723.39,1.0,0.304106554,0.0,0.631289538,0.0,0.707041942,0.0,0.29314237,False,,5ec6c8ad6f911e0e87e58b1f,,1360551,101,,evan-feature22,full_pf_b,,1
76,7322,102,,,,2,2,1.0,0.0,0.0,1.0,,0.0-104.0,,0.0,1059.335,0.0,0.304806932,0.0,0.571167718,1.0,0.680472346,0.0,0.25,False,,5ec6c8ad6f911e0e87e58b1f,,1371407,102,,evan-feature22,full_pf_b,,0
77,7323,103,,,,2,2,1.0,1.0,0.0,1.0,,0.0-105.0,,1.0,1344.735,0.0,0.37919861,1.0,0.5724849710000001,1.0,0.705638003,1.0,0.30179300600000003,False,,5ec6c8ad6f911e0e87e58b1f,,1382571,103,,evan-feature22,full_pf_b,,0
78,7324,104,,,,2,2,1.0,1.0,0.0,1.0,,0.0-106.0,,1.0,2086.57,0.0,0.464277969,1.0,0.554034373,1.0,0.7372627340000001,1.0,0.264699741,False,,5ec6c8ad6f911e0e87e58b1f,,1394488,104,,evan-feature22,full_pf_b,,0
79,7325,105,,,,1,1,0.0,0.0,-1.0,0.0,,0.0-107.0,,0.0,2598.66,0.0,0.465104323,0.0,0.530793115,1.0,0.75,0.0,0.31683071,False,,5ec6c8ad6f911e0e87e58b1f,,1406897,105,,evan-feature22,full_pf_b,,1
80,7326,106,,,,2,2,0.0,1.0,0.0,1.0,,0.0-108.0,,1.0,948.26,0.0,0.465104323,1.0,0.530793115,0.0,0.75,1.0,0.31683071,False,,5ec6c8ad6f911e0e87e58b1f,,1417667,106,,evan-feature22,full_pf_b,,1
81,7327,107,,,,2,2,0.0,0.0,0.0,1.0,,0.0-109.0,,0.0,706.6200001,0.0,0.46833986,1.0,0.570249239,0.0,0.7244472590000001,0.0,0.364114163,False,,5ec6c8ad6f911e0e87e58b1f,,1428171,107,,evan-feature22,full_pf_b,,0
82,7328,108,,,,2,2,1.0,0.0,0.0,1.0,,0.0-110.0,,0.0,741.925,0.0,0.445444024,1.0,0.649673355,1.0,0.6845441290000001,0.0,0.300660449,False,,5ec6c8ad6f911e0e87e58b1f,,1438842,108,,evan-feature22,full_pf_b,,0
83,7329,109,,,,1,1,1.0,1.0,0.0,1.0,,0.0-111.0,,1.0,978.785,1.0,0.39909721299999995,1.0,0.6715179509999999,1.0,0.742310028,0.0,0.35496088299999995,False,,5ec6c8ad6f911e0e87e58b1f,,1449648,109,,evan-feature22,full_pf_b,,1
84,7330,110,,,,2,2,1.0,1.0,0.0,1.0,,0.0-112.0,,1.0,1995.865,1.0,0.37956104799999996,0.0,0.694725302,1.0,0.7181651309999999,1.0,0.38726906299999997,False,,5ec6c8ad6f911e0e87e58b1f,,1461473,110,,evan-feature22,full_pf_b,,1
85,7331,111,,,,2,2,1.0,0.0,0.0,1.0,,0.0-113.0,,0.0,1203.825,0.0,0.404995034,1.0,0.724375412,1.0,0.6910946859999999,0.0,0.387187347,False,,5ec6c8ad6f911e0e87e58b1f,,1472487,111,,evan-feature22,full_pf_b,,0
86,7332,112,,,,2,2,1.0,1.0,0.0,1.0,,0.0-114.0,,1.0,2232.475,0.0,0.461740803,1.0,0.75,1.0,0.75,1.0,0.34872038200000005,False,,5ec6c8ad6f911e0e87e58b1f,,1484526,112,,evan-feature22,full_pf_b,,0
87,7333,113,,,,1,1,1.0,1.0,-1.0,0.0,,0.0-115.0,,-1.0,1842.24,1.0,0.43821380600000004,1.0,0.738833273,0.0,0.728286963,0.0,0.399538128,False,,5ec6c8ad6f911e0e87e58b1f,,1496200,113,,evan-feature22,full_pf_b,,1
88,7334,114,,,,SLOW,SLOW,,,0.0,1.0,,0.0-116.0,,-3.0,,0.0,0.41709882,1.0,0.736666736,1.0,0.75,0.0,0.389095584,False,,5ec6c8ad6f911e0e87e58b1f,,1502029,114,,evan-feature22,full_pf_b,,1
89,7335,115,,,,2,2,1.0,0.0,0.0,1.0,,0.0-117.0,,0.0,657.0349999,1.0,0.39749009799999996,1.0,0.744320029,1.0,0.75,0.0,0.363848678,False,,5ec6c8ad6f911e0e87e58b1f,,1512501,115,,evan-feature22,full_pf_b,,1
90,7336,116,,,,1,1,1.0,1.0,-1.0,0.0,,0.0-118.0,,-1.0,1489.765,1.0,0.392653706,1.0,0.75,1.0,0.75,0.0,0.384386976,False,,5ec6c8ad6f911e0e87e58b1f,,1523802,116,,evan-feature22,full_pf_b,,1
91,7337,117,,,,1,1,0.0,0.0,-1.0,0.0,,0.0-119.0,,0.0,1396.94,0.0,0.31190902600000003,0.0,0.75,1.0,0.732413819,0.0,0.413082932,False,,5ec6c8ad6f911e0e87e58b1f,,1535024,117,,evan-feature22,full_pf_b,,0
92,7338,118,,,,2,2,0.0,0.0,0.0,1.0,,0.0-120.0,,0.0,1456.97,0.0,0.366917648,1.0,0.740073855,0.0,0.75,0.0,0.352861979,False,,5ec6c8ad6f911e0e87e58b1f,,1546297,118,,evan-feature22,full_pf_b,,1
93,7339,119,,,,2,2,0.0,1.0,0.0,1.0,,0.0-121.0,,1.0,717.5199999,1.0,0.3645172,0.0,0.721770713,0.0,0.75,1.0,0.404074511,False,,5ec6c8ad6f911e0e87e58b1f,,1556820,119,,evan-feature22,full_pf_b,,0
94,7340,120,,,,2,2,1.0,0.0,0.0,1.0,,0.0-122.0,,0.0,923.8450001,0.0,0.35205600299999995,0.0,0.68983859,1.0,0.739735447,0.0,0.366895945,False,,5ec6c8ad6f911e0e87e58b1f,,1567568,120,,evan-feature22,full_pf_b,,0
95,7341,121,,,,2,2,1.0,0.0,0.0,1.0,,0.0-123.0,,0.0,1335.605,0.0,0.40998722600000004,1.0,0.720859127,1.0,0.673854955,0.0,0.368528541,False,,5ec6c8ad6f911e0e87e58b1f,,1578699,121,,evan-feature22,full_pf_b,,0
96,7342,122,,,,1,1,0.0,1.0,-1.0,0.0,,0.0-124.0,,0.0,2841.125,0.0,0.353625316,1.0,0.75,1.0,0.695605473,0.0,0.38303674200000004,False,,5ec6c8ad6f911e0e87e58b1f,,1591352,122,,evan-feature22,full_pf_b,,1
97,7343,123,,,,2,2,1.0,0.0,0.0,1.0,,0.0-125.0,,0.0,1093.1,0.0,0.359216989,1.0,0.75,1.0,0.6987915090000001,0.0,0.35169046200000004,False,,5ec6c8ad6f911e0e87e58b1f,,1602262,123,,evan-feature22,full_pf_b,,1
98,7344,124,,,,1,1,0.0,1.0,-1.0,0.0,,0.0-126.0,,0.0,1722.19,0.0,0.35834496899999996,1.0,0.75,1.0,0.707067742,1.0,0.416763636,False,,5ec6c8ad6f911e0e87e58b1f,,1613793,124,,evan-feature22,full_pf_b,,1
99,7345,125,,,,1,1,0.0,1.0,-1.0,0.0,,0.0-127.0,,0.0,2309.095,0.0,0.38741613799999997,1.0,0.7177369570000001,0.0,0.734902455,0.0,0.49438664299999996,False,,5ec6c8ad6f911e0e87e58b1f,,1625896,125,,evan-feature22,full_pf_b,,0
100,7346,126,,,,2,2,0.0,1.0,0.0,1.0,,0.0-128.0,,1.0,1023.595,1.0,0.405255252,1.0,0.7300466640000001,0.0,0.7027748070000001,1.0,0.504359668,False,,5ec6c8ad6f911e0e87e58b1f,,1636735,126,,evan-feature22,full_pf_b,,1
101,7347,127,,,,1,1,1.0,1.0,0.0,1.0,,0.0-129.0,,1.0,1585.11,1.0,0.40697073,1.0,0.7260142190000001,1.0,0.724461982,0.0,0.522779179,False,,5ec6c8ad6f911e0e87e58b1f,,1648136,127,,evan-feature22,full_pf_b,,1
102,7348,128,,,,2,2,0.0,1.0,0.0,1.0,,0.0-130.0,,1.0,2400.27,0.0,0.43906215299999996,1.0,0.7252802340000001,0.0,0.719079934,1.0,0.5712990579999999,False,,5ec6c8ad6f911e0e87e58b1f,,1660363,128,,evan-feature22,full_pf_b,,1
103,7349,129,,,,2,2,1.0,1.0,0.0,1.0,,0.0-131.0,,1.0,1103.9,0.0,0.4076705,1.0,0.73280499,1.0,0.681313127,1.0,0.523891346,False,,5ec6c8ad6f911e0e87e58b1f,,1671274,129,,evan-feature22,full_pf_b,,0
104,7350,130,,,,2,2,1.0,1.0,0.0,1.0,,0.0-132.0,,1.0,1387.905,0.0,0.399102911,1.0,0.730498344,1.0,0.661080239,1.0,0.46742603,False,,5ec6c8ad6f911e0e87e58b1f,,1682479,130,,evan-feature22,full_pf_b,,0
105,7351,131,,,,1,1,0.0,0.0,-1.0,0.0,,0.0-133.0,,0.0,1610.79,0.0,0.356477282,0.0,0.712296395,1.0,0.641812684,0.0,0.44868414,False,,5ec6c8ad6f911e0e87e58b1f,,1693913,131,,evan-feature22,full_pf_b,,1
106,7352,132,,,,2,2,1.0,1.0,0.0,1.0,,0.0-134.0,,1.0,1129.07,0.0,0.462760722,1.0,0.692349322,1.0,0.700947931,1.0,0.394680266,False,,5ec6c8ad6f911e0e87e58b1f,,1704835,132,,evan-feature22,full_pf_b,,1
107,7353,133,,,,2,2,0.0,1.0,0.0,1.0,,0.0-135.0,,1.0,1285.58,0.0,0.422306413,0.0,0.718375916,0.0,0.706340917,1.0,0.367787185,False,,5ec6c8ad6f911e0e87e58b1f,,1715923,133,,evan-feature22,full_pf_b,,0
108,7355,135,,,,2,2,1.0,0.0,0.0,1.0,,0.0-137.0,,0.0,1047.955,0.0,0.4582233,0.0,0.643834117,1.0,0.75,0.0,0.39615823299999997,False,,5ec6c8ad6f911e0e87e58b1f,,1734265,135,,evan-feature22,full_pf_b,,0
109,7356,136,,,,1,1,1.0,1.0,0.0,1.0,,0.0-138.0,,1.0,943.72,1.0,0.43813437899999996,1.0,0.651283804,1.0,0.729674191,0.0,0.37711048,False,,5ec6c8ad6f911e0e87e58b1f,,1745041,136,,evan-feature22,full_pf_b,,1
110,7357,137,,,,2,2,1.0,0.0,0.0,1.0,,0.0-139.0,,0.0,1451.11,1.0,0.471199094,0.0,0.6470010979999999,1.0,0.715008097,0.0,0.410656191,False,,5ec6c8ad6f911e0e87e58b1f,,1756285,137,,evan-feature22,full_pf_b,,1
111,7358,138,,,,1,1,1.0,0.0,-1.0,0.0,,0.0-140.0,,-1.0,1454.95,1.0,0.42486406,0.0,0.629771829,0.0,0.6550939960000001,1.0,0.459093873,False,,5ec6c8ad6f911e0e87e58b1f,,1767574,138,,evan-feature22,full_pf_b,,1
112,7359,139,,,,1,1,0.0,1.0,-1.0,0.0,,0.0-141.0,,0.0,1258.705,0.0,0.4803197,1.0,0.645842715,1.0,0.6421749920000001,1.0,0.443092151,False,,5ec6c8ad6f911e0e87e58b1f,,1778655,139,,evan-feature22,full_pf_b,,0
113,7360,140,,,,SLOW,SLOW,,,-1.0,0.0,,0.0-142.0,,-3.0,,1.0,0.521848997,0.0,0.735801074,1.0,0.6691348460000001,0.0,0.45259351600000003,False,,5ec6c8ad6f911e0e87e58b1f,,1784475,140,,evan-feature22,full_pf_b,,1
114,7361,141,,,,1,1,1.0,1.0,0.0,1.0,,0.0-143.0,,1.0,898.1349999,1.0,0.49565621299999996,1.0,0.742400847,1.0,0.661512553,0.0,0.483110831,False,,5ec6c8ad6f911e0e87e58b1f,,1795187,141,,evan-feature22,full_pf_b,,1
115,7362,142,,,,2,2,1.0,1.0,-1.0,0.0,,0.0-144.0,,-1.0,903.7049999,1.0,0.521564361,1.0,0.731078632,1.0,0.6774886809999999,1.0,0.483263956,False,,5ec6c8ad6f911e0e87e58b1f,,1805900,142,,evan-feature22,full_pf_b,,1
116,7363,143,,,,1,1,0.0,0.0,-1.0,0.0,,0.0-145.0,,0.0,728.7600001000001,0.0,0.558893102,0.0,0.719810023,1.0,0.67461031,1.0,0.499349834,False,,5ec6c8ad6f911e0e87e58b1f,,1816423,143,,evan-feature22,full_pf_b,,1
117,7364,144,,,,2,2,1.0,1.0,0.0,1.0,,0.0-146.0,,1.0,701.48,0.0,0.611031046,1.0,0.75,1.0,0.688072995,1.0,0.5321422729999999,False,,5ec6c8ad6f911e0e87e58b1f,,1826935,144,,evan-feature22,full_pf_b,,1
118,7365,145,,,,1,1,1.0,0.0,-1.0,0.0,,0.0-147.0,,-1.0,838.92,1.0,0.633223941,0.0,0.713567728,1.0,0.75,1.0,0.48185314700000004,False,,5ec6c8ad6f911e0e87e58b1f,,1837594,145,,evan-feature22,full_pf_b,,1
119,7366,146,,,,1,1,0.0,1.0,-1.0,0.0,,0.0-148.0,,0.0,1185.34,0.0,0.664001694,1.0,0.705509768,1.0,0.75,0.0,0.500211065,False,,5ec6c8ad6f911e0e87e58b1f,,1848591,146,,evan-feature22,full_pf_b,,0
120,7367,147,,,,2,2,0.0,0.0,0.0,1.0,,0.0-149.0,,0.0,1110.38,0.0,0.664001694,0.0,0.705509768,0.0,0.75,0.0,0.500211065,False,,5ec6c8ad6f911e0e87e58b1f,,1859523,147,,evan-feature22,full_pf_b,,1
121,7368,148,,,,2,2,1.0,0.0,0.0,1.0,,0.0-150.0,,0.0,1280.47,1.0,0.696508041,1.0,0.71066027,1.0,0.717028709,0.0,0.49792991,False,,5ec6c8ad6f911e0e87e58b1f,,1870609,148,,evan-feature22,full_pf_b,,0
122,7369,149,,,,1,1,1.0,0.0,-1.0,0.0,,0.0-151.0,,-1.0,1217.31,1.0,0.699883272,0.0,0.75,1.0,0.713543895,1.0,0.496962643,False,,5ec6c8ad6f911e0e87e58b1f,,1881657,149,,evan-feature22,full_pf_b,,1
123,7370,150,,,,2,2,1.0,1.0,0.0,1.0,,0.0-152.0,,1.0,1261.19,0.0,0.741163419,1.0,0.75,1.0,0.64691024,1.0,0.513858197,False,,5ec6c8ad6f911e0e87e58b1f,,1892734,150,,evan-feature22,full_pf_b,,1
124,7371,151,,,,1,1,1.0,1.0,-1.0,0.0,,0.0-153.0,,-1.0,1310.61,1.0,0.75,1.0,0.70816558,1.0,0.594499079,0.0,0.48502124,False,,5ec6c8ad6f911e0e87e58b1f,,1903873,151,,evan-feature22,full_pf_b,,1
125,7372,152,,,,2,2,1.0,0.0,0.0,1.0,,0.0-154.0,,0.0,689.06,1.0,0.75,0.0,0.721848901,1.0,0.62197249,0.0,0.48263586399999997,False,,5ec6c8ad6f911e0e87e58b1f,,1914376,152,,evan-feature22,full_pf_b,,1
126,7373,153,,,,1,1,1.0,1.0,-1.0,0.0,,0.0-155.0,,-1.0,2198.47,1.0,0.75,1.0,0.74813071,1.0,0.584357161,1.0,0.411477782,False,,5ec6c8ad6f911e0e87e58b1f,,1926379,153,,evan-feature22,full_pf_b,,1
127,7374,154,,,,2,2,0.0,1.0,0.0,1.0,,0.0-156.0,,1.0,768.22,1.0,0.75,1.0,0.75,0.0,0.52287236,1.0,0.488290656,False,,5ec6c8ad6f911e0e87e58b1f,,1936937,154,,evan-feature22,full_pf_b,,1
128,7375,155,,,,1,1,1.0,0.0,0.0,1.0,,0.0-157.0,,0.0,1615.665,1.0,0.75,0.0,0.75,1.0,0.544321581,1.0,0.53143059,False,,5ec6c8ad6f911e0e87e58b1f,,1948365,155,,evan-feature22,full_pf_b,,1
129,7376,156,,,,2,2,1.0,1.0,0.0,1.0,,0.0-158.0,,1.0,812.17,1.0,0.726754564,1.0,0.75,1.0,0.5129306370000001,1.0,0.530592445,False,,5ec6c8ad6f911e0e87e58b1f,,1958984,156,,evan-feature22,full_pf_b,,1
130,7377,157,,,,1,1,1.0,0.0,-1.0,0.0,,0.0-159.0,,-1.0,831.38,1.0,0.75,0.0,0.7392590729999999,0.0,0.479875835,0.0,0.547007051,False,,5ec6c8ad6f911e0e87e58b1f,,1969629,157,,evan-feature22,full_pf_b,,1
131,7378,158,,,,1,1,0.0,1.0,-1.0,0.0,,0.0-160.0,,0.0,752.7000001,0.0,0.75,1.0,0.7393376979999999,0.0,0.546045419,1.0,0.541267353,False,,5ec6c8ad6f911e0e87e58b1f,,1980182,158,,evan-feature22,full_pf_b,,0
132,7379,159,,,,1,1,1.0,0.0,-1.0,0.0,,0.0-161.0,,-1.0,899.2550001,1.0,0.75,0.0,0.75,0.0,0.485725895,1.0,0.527625395,False,,5ec6c8ad6f911e0e87e58b1f,,1990910,159,,evan-feature22,full_pf_b,,0
133,7380,160,,,,2,2,0.0,1.0,0.0,1.0,,0.0-162.0,,1.0,887.5449999,1.0,0.75,1.0,0.725087974,0.0,0.488603595,1.0,0.504019206,False,,5ec6c8ad6f911e0e87e58b1f,,2001614,160,,evan-feature22,full_pf_b,,1
134,7381,161,,,,1,1,0.0,1.0,0.0,1.0,,0.0-163.0,,1.0,1681.545,0.0,0.745504295,1.0,0.75,1.0,0.452379914,0.0,0.50131194,False,,5ec6c8ad6f911e0e87e58b1f,,2013118,161,,evan-feature22,full_pf_b,,1
135,7382,162,,,,2,2,0.0,1.0,0.0,1.0,,0.0-164.0,,1.0,1293.345,1.0,0.728513874,1.0,0.75,0.0,0.44125567200000004,1.0,0.531454591,False,,5ec6c8ad6f911e0e87e58b1f,,2024210,162,,evan-feature22,full_pf_b,,1
136,7383,163,,,,1,1,1.0,1.0,-1.0,0.0,,0.0-165.0,,-1.0,1129.495,1.0,0.73790804,1.0,0.75,0.0,0.413036656,0.0,0.524619035,False,,5ec6c8ad6f911e0e87e58b1f,,2035162,163,,evan-feature22,full_pf_b,,1
137,7384,164,,,,2,2,1.0,0.0,0.0,1.0,,0.0-166.0,,0.0,658.08,1.0,0.7080961309999999,1.0,0.708666865,1.0,0.431915581,0.0,0.481819489,False,,5ec6c8ad6f911e0e87e58b1f,,2045618,164,,evan-feature22,full_pf_b,,1
138,7385,165,,,,2,2,0.0,0.0,0.0,1.0,,0.0-167.0,,0.0,1225.775,0.0,0.721378003,0.0,0.71605913,0.0,0.36642387,0.0,0.5036739929999999,False,,5ec6c8ad6f911e0e87e58b1f,,2056663,165,,evan-feature22,full_pf_b,,0
139,7386,166,,,,1,1,1.0,1.0,0.0,1.0,,0.0-168.0,,1.0,1065.73,1.0,0.7340618959999999,1.0,0.699323252,1.0,0.35298046299999997,0.0,0.511241692,False,,5ec6c8ad6f911e0e87e58b1f,,2067520,166,,evan-feature22,full_pf_b,,1
140,7387,167,,,,1,1,1.0,0.0,-1.0,0.0,,0.0-169.0,,-1.0,1743.335,1.0,0.75,0.0,0.70412698,0.0,0.380734814,1.0,0.529580116,False,,5ec6c8ad6f911e0e87e58b1f,,2079080,167,,evan-feature22,full_pf_b,,0
141,7388,168,,,,2,2,0.0,1.0,0.0,1.0,,0.0-170.0,,1.0,849.44,0.0,0.7436654909999999,1.0,0.711182751,0.0,0.41125331,1.0,0.49554405,False,,5ec6c8ad6f911e0e87e58b1f,,2089758,168,,evan-feature22,full_pf_b,,1
142,7389,169,,,,2,2,1.0,0.0,0.0,1.0,,0.0-171.0,,0.0,809.285,1.0,0.731607915,1.0,0.651774583,1.0,0.35688023,0.0,0.45194491600000003,False,,5ec6c8ad6f911e0e87e58b1f,,2100384,169,,evan-feature22,full_pf_b,,0
143,7390,170,,,,1,1,1.0,1.0,-1.0,0.0,,0.0-172.0,,-1.0,1001.26,1.0,0.75,1.0,0.75,0.0,0.283145374,0.0,0.528608005,False,,5ec6c8ad6f911e0e87e58b1f,,2111178,170,,evan-feature22,full_pf_b,,1
144,7391,171,,,,1,1,1.0,0.0,-1.0,0.0,,0.0-173.0,,-1.0,1175.52,1.0,0.7491416890000001,0.0,0.7423785959999999,1.0,0.29135870399999997,0.0,0.498888318,False,,5ec6c8ad6f911e0e87e58b1f,,2122165,171,,evan-feature22,full_pf_b,,0
145,7392,172,,,,1,1,0.0,1.0,-1.0,0.0,,0.0-174.0,,0.0,1309.445,0.0,0.708569387,1.0,0.717682277,0.0,0.294421699,0.0,0.493838163,False,,5ec6c8ad6f911e0e87e58b1f,,2133287,172,,evan-feature22,full_pf_b,,0
146,7393,173,,,,2,2,0.0,1.0,0.0,1.0,,0.0-175.0,,1.0,1112.755,1.0,0.75,0.0,0.7383382159999999,0.0,0.356098707,1.0,0.442533405,False,,5ec6c8ad6f911e0e87e58b1f,,2144202,173,,evan-feature22,full_pf_b,,1
147,7394,174,,,,2,2,0.0,0.0,0.0,1.0,,0.0-176.0,,0.0,1098.065,0.0,0.744527075,1.0,0.75,0.0,0.334127506,0.0,0.393165805,False,,5ec6c8ad6f911e0e87e58b1f,,2155110,174,,evan-feature22,full_pf_b,,0
148,7395,175,,,,2,2,0.0,1.0,0.0,1.0,,0.0-177.0,,1.0,982.11,1.0,0.75,1.0,0.75,0.0,0.33571021799999995,1.0,0.350393962,False,,5ec6c8ad6f911e0e87e58b1f,,2165896,175,,evan-feature22,full_pf_b,,0
149,7396,176,,,,2,2,0.0,1.0,0.0,1.0,,0.0-178.0,,1.0,1745.925,1.0,0.75,1.0,0.75,0.0,0.313628297,1.0,0.36349657399999996,False,,5ec6c8ad6f911e0e87e58b1f,,2177463,176,,evan-feature22,full_pf_b,,0
150,7397,177,,,,2,2,1.0,1.0,-1.0,0.0,,0.0-179.0,,-1.0,1140.725,1.0,0.75,1.0,0.734284182,1.0,0.262667667,1.0,0.380199119,False,,5ec6c8ad6f911e0e87e58b1f,,2188429,177,,evan-feature22,full_pf_b,,0
151,7398,178,,,,1,1,1.0,1.0,0.0,1.0,,0.0-180.0,,1.0,820.3949999,1.0,0.75,1.0,0.75,0.0,0.25,0.0,0.394494013,False,,5ec6c8ad6f911e0e87e58b1f,,2199053,178,,evan-feature22,full_pf_b,,1
152,7399,179,,,,2,2,0.0,0.0,-1.0,0.0,,0.0-181.0,,0.0,849.6899999,0.0,0.722298145,1.0,0.7357822340000001,0.0,0.25,0.0,0.319142121,False,,5ec6c8ad6f911e0e87e58b1f,,2209724,179,,evan-feature22,full_pf_b,,1
153,7400,180,,,,2,2,1.0,1.0,-1.0,0.0,,0.0-182.0,,-1.0,729.13,0.0,0.73149275,1.0,0.724276446,1.0,0.305856907,1.0,0.281315057,False,,5ec6c8ad6f911e0e87e58b1f,,2220261,180,,evan-feature22,full_pf_b,,0
154,7401,181,,,,1,1,0.0,1.0,0.0,1.0,,0.0-183.0,,1.0,1132.555,0.0,0.7458732690000001,1.0,0.7336382459999999,0.0,0.272571964,0.0,0.266021999,False,,5ec6c8ad6f911e0e87e58b1f,,2231206,181,,evan-feature22,full_pf_b,,1
155,7402,182,,,,1,1,1.0,0.0,0.0,1.0,,0.0-184.0,,0.0,3118.135,1.0,0.705579037,0.0,0.720778292,0.0,0.320238144,1.0,0.30971744,False,,5ec6c8ad6f911e0e87e58b1f,,2244133,182,,evan-feature22,full_pf_b,,0
156,7403,183,,,,2,2,0.0,0.0,0.0,1.0,,0.0-185.0,,0.0,555.465,1.0,0.700425648,1.0,0.7198784009999999,0.0,0.272590393,0.0,0.304182931,False,,5ec6c8ad6f911e0e87e58b1f,,2254492,183,,evan-feature22,full_pf_b,,1
157,7404,184,,,,2,2,1.0,0.0,0.0,1.0,,0.0-186.0,,0.0,1067.01,1.0,0.735590785,1.0,0.722714973,1.0,0.25,0.0,0.323421091,False,,5ec6c8ad6f911e0e87e58b1f,,2265370,184,,evan-feature22,full_pf_b,,0
158,7405,185,,,,2,2,0.0,1.0,0.0,1.0,,0.0-187.0,,1.0,1719.41,0.0,0.724807662,0.0,0.63146213,0.0,0.36836492600000004,1.0,0.34592153299999995,False,,5ec6c8ad6f911e0e87e58b1f,,2276894,185,,evan-feature22,full_pf_b,,0
159,7406,186,,,,2,2,0.0,1.0,0.0,1.0,,0.0-188.0,,1.0,1636.645,1.0,0.7352796909999999,0.0,0.555111392,0.0,0.36003922,1.0,0.31433779999999995,False,,5ec6c8ad6f911e0e87e58b1f,,2288347,186,,evan-feature22,full_pf_b,,0
160,7407,187,notice,,,,,,,,,,0.0-189.0,"{""Q0"":""More chances to win points in the second half""}",,18502.0,,,,,,,,,False,,5ec6c8ad6f911e0e87e58b1f,,2306851,187,Q,survey-text,full_pf_b,,1
161,7408,188,track1,,[1],,,,,,,,0.0-190.0,"{""Q0"":""no""}",,3235.0,,,,,,,,,False,,5ec6c8ad6f911e0e87e58b1f,,2310092,188,Q,evan-quiz,full_pf_b,,1
162,7409,189,track2,,[1],,,,,,,,0.0-191.0,"{""Q0"":""no""}",,4463.0,,,,,,,,,False,,5ec6c8ad6f911e0e87e58b1f,,2314557,189,Q,evan-quiz,full_pf_b,,1
163,7410,190,strat,,,,,,,,,,0.0-192.0,"{""Q0"":""I just tried to remember patterns followed ""}",,20638.0,,,,,,,,,False,,5ec6c8ad6f911e0e87e58b1f,,2335199,190,Q,survey-text,full_pf_b,,1
