,index,Unnamed: 0,Q_name,button_pressed,choice_idxs,chosen_pos,chosen_state,chosen_state_f_1_outcome,chosen_state_f_2_outcome,f_1_reward,f_2_reward,incor_questions,internal_node_id,responses,reward_received,rt,s_1_f_1_outcome,s_1_f_1_prob,s_1_f_2_outcome,s_1_f_2_prob,s_2_f_1_outcome,s_2_f_1_prob,s_2_f_2_outcome,s_2_f_2_prob,safe_first,stimulus,subjectID,success,time_elapsed,trial_index,trial_num,trial_type,version,view_history,switching
0,46417,25,,,,2,2,1.0,0.0,-1.0,0.0,,0.0-27.0,,-1.0,1859.26,1.0,0.6,1.0,0.6,1.0,0.4,0.0,0.4,False,,5f343b0f19d95a30e188ee9f,,518197,25,,evan-feature22,full_pf_b,,0
1,46418,26,,,,1,1,0.0,1.0,-1.0,0.0,,0.0-28.0,,0.0,3140.025,0.0,0.608053294,1.0,0.63424552,0.0,0.397152172,1.0,0.347069101,False,,5f343b0f19d95a30e188ee9f,,531105,26,,evan-feature22,full_pf_b,,1
2,46419,27,,,,SLOW,SLOW,,,-1.0,0.0,,0.0-29.0,,-3.0,,0.0,0.642237155,1.0,0.648566321,0.0,0.389407674,0.0,0.285525717,False,,5f343b0f19d95a30e188ee9f,,536913,27,,evan-feature22,full_pf_b,,1
3,46420,28,,,,2,2,0.0,0.0,-1.0,0.0,,0.0-30.0,,0.0,1201.97,1.0,0.661086576,0.0,0.630492543,0.0,0.399058924,0.0,0.25,False,,5f343b0f19d95a30e188ee9f,,547876,28,,evan-feature22,full_pf_b,,1
4,46421,29,,,,2,2,1.0,0.0,0.0,1.0,,0.0-31.0,,0.0,1242.25,1.0,0.631324137,1.0,0.6269842929999999,1.0,0.38734784299999997,0.0,0.25,False,,5f343b0f19d95a30e188ee9f,,558884,29,,evan-feature22,full_pf_b,,0
5,46422,30,,,,1,1,1.0,1.0,0.0,1.0,,0.0-32.0,,1.0,1295.1,1.0,0.6381991370000001,1.0,0.68987999,0.0,0.384107265,1.0,0.271332943,False,,5f343b0f19d95a30e188ee9f,,569946,30,,evan-feature22,full_pf_b,,1
6,46423,31,,,,2,2,1.0,0.0,-1.0,0.0,,0.0-33.0,,-1.0,1196.29,1.0,0.66034901,1.0,0.742641349,1.0,0.360225629,0.0,0.25,False,,5f343b0f19d95a30e188ee9f,,580905,31,,evan-feature22,full_pf_b,,1
7,46424,32,,,,1,1,0.0,0.0,-1.0,0.0,,0.0-34.0,,0.0,869.365,0.0,0.638612418,0.0,0.75,1.0,0.367273939,0.0,0.25,False,,5f343b0f19d95a30e188ee9f,,591539,32,,evan-feature22,full_pf_b,,1
8,46425,33,,,,1,1,1.0,1.0,0.0,1.0,,0.0-35.0,,1.0,940.445,1.0,0.624340629,1.0,0.75,0.0,0.425829545,0.0,0.25,False,,5f343b0f19d95a30e188ee9f,,602241,33,,evan-feature22,full_pf_b,,0
9,46426,34,,,,1,1,1.0,1.0,0.0,1.0,,0.0-36.0,,1.0,815.41,1.0,0.621999804,1.0,0.75,0.0,0.368609357,0.0,0.25,False,,5f343b0f19d95a30e188ee9f,,612822,34,,evan-feature22,full_pf_b,,0
10,46427,35,,,,2,2,1.0,0.0,-1.0,0.0,,0.0-37.0,,-1.0,746.515,1.0,0.62666403,1.0,0.75,1.0,0.311151498,0.0,0.25,False,,5f343b0f19d95a30e188ee9f,,623331,35,,evan-feature22,full_pf_b,,1
11,46428,36,,,,1,1,1.0,0.0,0.0,1.0,,0.0-38.0,,0.0,693.19,1.0,0.6819650009999999,0.0,0.75,0.0,0.310763048,0.0,0.25,False,,5f343b0f19d95a30e188ee9f,,633788,36,,evan-feature22,full_pf_b,,1
12,46429,37,,,,1,1,1.0,1.0,-1.0,0.0,,0.0-39.0,,-1.0,856.84,1.0,0.740626951,1.0,0.75,0.0,0.25,0.0,0.25,False,,5f343b0f19d95a30e188ee9f,,644415,37,,evan-feature22,full_pf_b,,0
13,46430,38,,,,1,1,1.0,0.0,-1.0,0.0,,0.0-40.0,,-1.0,1009.755,1.0,0.739599242,0.0,0.742034978,0.0,0.25397114600000004,0.0,0.25,False,,5f343b0f19d95a30e188ee9f,,655189,38,,evan-feature22,full_pf_b,,0
14,46431,39,,,,1,1,1.0,1.0,-1.0,0.0,,0.0-41.0,,-1.0,1607.05,1.0,0.732341315,1.0,0.72735643,0.0,0.25,0.0,0.25,False,,5f343b0f19d95a30e188ee9f,,666562,39,,evan-feature22,full_pf_b,,0
15,46432,40,,,,2,2,0.0,0.0,-1.0,0.0,,0.0-42.0,,0.0,621.245,1.0,0.7062287770000001,1.0,0.75,0.0,0.29002151,0.0,0.288256649,False,,5f343b0f19d95a30e188ee9f,,676945,40,,evan-feature22,full_pf_b,,1
16,46433,41,,,,2,2,0.0,0.0,-1.0,0.0,,0.0-43.0,,0.0,568.82,0.0,0.7086029209999999,0.0,0.75,0.0,0.274129113,0.0,0.262851608,False,,5f343b0f19d95a30e188ee9f,,687279,41,,evan-feature22,full_pf_b,,0
17,46434,42,,,,2,2,0.0,1.0,-1.0,0.0,,0.0-44.0,,0.0,912.89,1.0,0.669189651,0.0,0.727614338,0.0,0.298444036,1.0,0.296944518,False,,5f343b0f19d95a30e188ee9f,,697956,42,,evan-feature22,full_pf_b,,0
18,46435,43,,,,2,2,0.0,0.0,-1.0,0.0,,0.0-45.0,,0.0,917.49,0.0,0.6819912929999999,1.0,0.7179434290000001,0.0,0.265003961,0.0,0.28157921199999997,False,,5f343b0f19d95a30e188ee9f,,708637,43,,evan-feature22,full_pf_b,,0
19,46436,44,,,,1,1,1.0,1.0,0.0,1.0,,0.0-46.0,,1.0,936.135,1.0,0.665275002,1.0,0.723065271,1.0,0.260414971,1.0,0.30973870000000003,False,,5f343b0f19d95a30e188ee9f,,719338,44,,evan-feature22,full_pf_b,,1
20,46437,45,,,,2,2,0.0,1.0,-1.0,0.0,,0.0-47.0,,0.0,805.26,0.0,0.6660593260000001,1.0,0.728032907,0.0,0.30922817,1.0,0.338778608,False,,5f343b0f19d95a30e188ee9f,,729911,45,,evan-feature22,full_pf_b,,1
21,46438,46,,,,1,1,1.0,0.0,-1.0,0.0,,0.0-48.0,,-1.0,797.595,1.0,0.702068785,0.0,0.6528750879999999,0.0,0.287329608,0.0,0.35789613200000003,False,,5f343b0f19d95a30e188ee9f,,740474,46,,evan-feature22,full_pf_b,,1
22,46439,47,,,,2,2,0.0,1.0,-1.0,0.0,,0.0-49.0,,0.0,696.855,1.0,0.651939787,0.0,0.636725589,0.0,0.284834488,1.0,0.358563756,False,,5f343b0f19d95a30e188ee9f,,750935,47,,evan-feature22,full_pf_b,,1
23,46440,48,,,,2,2,1.0,0.0,0.0,1.0,,0.0-50.0,,0.0,702.435,1.0,0.67573929,0.0,0.612550049,1.0,0.37130387600000003,0.0,0.383542402,False,,5f343b0f19d95a30e188ee9f,,761402,48,,evan-feature22,full_pf_b,,0
24,46441,49,,,,2,2,1.0,0.0,0.0,1.0,,0.0-51.0,,0.0,460.215,1.0,0.620753801,0.0,0.60513644,1.0,0.385529434,0.0,0.340361743,False,,5f343b0f19d95a30e188ee9f,,771627,49,,evan-feature22,full_pf_b,,0
25,46442,50,,,,2,2,0.0,0.0,0.0,1.0,,0.0-52.0,,0.0,773.72,1.0,0.673564893,0.0,0.672437924,0.0,0.292955382,0.0,0.337633795,False,,5f343b0f19d95a30e188ee9f,,782166,50,,evan-feature22,full_pf_b,,0
26,46443,51,,,,2,2,0.0,1.0,-1.0,0.0,,0.0-53.0,,0.0,1305.18,1.0,0.6749427,1.0,0.724197502,0.0,0.32391132100000003,1.0,0.350995264,False,,5f343b0f19d95a30e188ee9f,,793238,51,,evan-feature22,full_pf_b,,0
27,46444,52,,,,2,2,0.0,1.0,-1.0,0.0,,0.0-54.0,,0.0,782.79,0.0,0.6940159379999999,0.0,0.75,0.0,0.31710554399999996,1.0,0.413450341,False,,5f343b0f19d95a30e188ee9f,,803784,52,,evan-feature22,full_pf_b,,0
28,46445,53,,,,2,2,1.0,1.0,-1.0,0.0,,0.0-55.0,,-1.0,1565.645,1.0,0.6916018270000001,1.0,0.69001187,1.0,0.261817804,1.0,0.40038635,False,,5f343b0f19d95a30e188ee9f,,815114,53,,evan-feature22,full_pf_b,,0
29,46446,54,,,,2,2,0.0,1.0,-1.0,0.0,,0.0-56.0,,0.0,1165.78,1.0,0.641061544,1.0,0.71337992,0.0,0.277296461,1.0,0.47372791700000005,False,,5f343b0f19d95a30e188ee9f,,826040,54,,evan-feature22,full_pf_b,,0
30,46447,55,,,,2,2,0.0,1.0,-1.0,0.0,,0.0-57.0,,0.0,967.72,0.0,0.6082438520000001,1.0,0.708471106,0.0,0.28745137,1.0,0.564174476,False,,5f343b0f19d95a30e188ee9f,,836778,55,,evan-feature22,full_pf_b,,0
31,46448,56,,,,2,2,1.0,1.0,-1.0,0.0,,0.0-58.0,,-1.0,599.58,0.0,0.6051112120000001,1.0,0.7118147229999999,1.0,0.272390611,1.0,0.5595149939999999,False,,5f343b0f19d95a30e188ee9f,,847143,56,,evan-feature22,full_pf_b,,0
32,46449,57,,,,1,1,0.0,0.0,-1.0,0.0,,0.0-59.0,,0.0,734.765,0.0,0.582420852,0.0,0.635867583,0.0,0.31089574,1.0,0.5227206520000001,False,,5f343b0f19d95a30e188ee9f,,857639,57,,evan-feature22,full_pf_b,,1
33,46450,58,,,,1,1,1.0,1.0,0.0,1.0,,0.0-60.0,,1.0,869.445,1.0,0.623195575,1.0,0.655026044,0.0,0.25,1.0,0.560387538,False,,5f343b0f19d95a30e188ee9f,,868273,58,,evan-feature22,full_pf_b,,0
34,46451,59,,,,1,1,0.0,1.0,-1.0,0.0,,0.0-61.0,,0.0,742.05,0.0,0.601889598,1.0,0.678198724,1.0,0.25,0.0,0.559922936,False,,5f343b0f19d95a30e188ee9f,,878779,59,,evan-feature22,full_pf_b,,0
35,46452,60,,,,1,1,1.0,0.0,-1.0,0.0,,0.0-62.0,,-1.0,693.2,1.0,0.601259914,0.0,0.704681482,0.0,0.33908969299999997,0.0,0.505003715,False,,5f343b0f19d95a30e188ee9f,,889233,60,,evan-feature22,full_pf_b,,0
36,46453,61,,,,1,1,1.0,1.0,-1.0,0.0,,0.0-63.0,,-1.0,1130.39,1.0,0.59645454,1.0,0.710437172,1.0,0.327441879,0.0,0.391749613,False,,5f343b0f19d95a30e188ee9f,,900130,61,,evan-feature22,full_pf_b,,0
37,46454,62,,,,1,1,1.0,1.0,-1.0,0.0,,0.0-64.0,,-1.0,744.83,1.0,0.529473,1.0,0.636758527,0.0,0.301338063,0.0,0.365661481,False,,5f343b0f19d95a30e188ee9f,,910640,62,,evan-feature22,full_pf_b,,0
38,46455,63,,,,2,2,0.0,0.0,0.0,1.0,,0.0-65.0,,0.0,1077.74,0.0,0.541657162,1.0,0.634541962,0.0,0.343535366,0.0,0.371763742,False,,5f343b0f19d95a30e188ee9f,,921482,63,,evan-feature22,full_pf_b,,1
39,46456,64,,,,2,2,0.0,1.0,-1.0,0.0,,0.0-66.0,,0.0,657.375,1.0,0.5707533260000001,1.0,0.589121171,0.0,0.326428396,1.0,0.43961622899999997,False,,5f343b0f19d95a30e188ee9f,,931904,64,,evan-feature22,full_pf_b,,0
40,46457,65,,,,2,2,0.0,0.0,-1.0,0.0,,0.0-67.0,,0.0,577.355,0.0,0.5707533260000001,1.0,0.589121171,0.0,0.326428396,0.0,0.43961622899999997,False,,5f343b0f19d95a30e188ee9f,,942245,65,,evan-feature22,full_pf_b,,0
41,46458,66,,,,2,2,0.0,1.0,-1.0,0.0,,0.0-68.0,,0.0,515.055,1.0,0.506271295,1.0,0.641775594,0.0,0.37149690700000004,1.0,0.404330166,False,,5f343b0f19d95a30e188ee9f,,952521,66,,evan-feature22,full_pf_b,,0
42,46459,67,,,,2,2,0.0,1.0,0.0,1.0,,0.0-69.0,,1.0,798.335,1.0,0.455642565,0.0,0.623605825,0.0,0.358753011,1.0,0.346174041,False,,5f343b0f19d95a30e188ee9f,,963087,67,,evan-feature22,full_pf_b,,0
43,46460,68,,,,2,2,1.0,0.0,0.0,1.0,,0.0-70.0,,0.0,596.915,0.0,0.483677308,1.0,0.5904681070000001,1.0,0.402218411,0.0,0.35344697,False,,5f343b0f19d95a30e188ee9f,,973449,68,,evan-feature22,full_pf_b,,0
44,46461,69,,,,2,2,1.0,1.0,0.0,1.0,,0.0-71.0,,1.0,657.14,0.0,0.394210977,0.0,0.558925494,1.0,0.540052017,1.0,0.35182128700000004,False,,5f343b0f19d95a30e188ee9f,,983872,69,,evan-feature22,full_pf_b,,0
45,46462,70,,,,2,2,0.0,0.0,-1.0,0.0,,0.0-72.0,,0.0,875.375,0.0,0.382300414,0.0,0.577670603,0.0,0.607608448,0.0,0.378261578,False,,5f343b0f19d95a30e188ee9f,,994511,70,,evan-feature22,full_pf_b,,0
46,46463,71,,,,2,2,1.0,0.0,-1.0,0.0,,0.0-73.0,,-1.0,710.345,0.0,0.357596762,1.0,0.5929076529999999,1.0,0.6579790010000001,0.0,0.401326777,False,,5f343b0f19d95a30e188ee9f,,1004984,71,,evan-feature22,full_pf_b,,0
47,46464,72,,,,1,1,0.0,0.0,-1.0,0.0,,0.0-74.0,,0.0,879.935,0.0,0.362033495,0.0,0.582308608,1.0,0.649195052,1.0,0.355158505,False,,5f343b0f19d95a30e188ee9f,,1015627,72,,evan-feature22,full_pf_b,,1
48,46465,73,,,,1,1,0.0,1.0,-1.0,0.0,,0.0-75.0,,0.0,451.475,0.0,0.369620635,1.0,0.669100864,1.0,0.706059111,0.0,0.362516241,False,,5f343b0f19d95a30e188ee9f,,1025845,73,,evan-feature22,full_pf_b,,0
49,46466,74,,,,1,1,0.0,1.0,-1.0,0.0,,0.0-76.0,,0.0,552.32,0.0,0.41477751399999996,1.0,0.7284416779999999,1.0,0.7182656940000001,1.0,0.36228040899999997,False,,5f343b0f19d95a30e188ee9f,,1036165,74,,evan-feature22,full_pf_b,,0
50,46467,75,,,,1,1,0.0,1.0,0.0,1.0,,0.0-77.0,,1.0,1002.355,0.0,0.37675460299999997,1.0,0.703250285,1.0,0.75,0.0,0.461979164,False,,5f343b0f19d95a30e188ee9f,,1046929,75,,evan-feature22,full_pf_b,,0
51,46468,76,,,,1,1,0.0,1.0,0.0,1.0,,0.0-78.0,,1.0,462.38,0.0,0.398716075,1.0,0.6723864890000001,1.0,0.674153818,1.0,0.519029516,False,,5f343b0f19d95a30e188ee9f,,1057162,76,,evan-feature22,full_pf_b,,0
52,46469,77,,,,2,2,1.0,1.0,-1.0,0.0,,0.0-79.0,,-1.0,826.01,1.0,0.34677856700000004,1.0,0.69057175,1.0,0.6822438540000001,1.0,0.477292237,False,,5f343b0f19d95a30e188ee9f,,1067755,77,,evan-feature22,full_pf_b,,1
53,46470,78,,,,2,2,0.0,0.0,0.0,1.0,,0.0-80.0,,0.0,900.82,0.0,0.28580469199999997,1.0,0.68408818,0.0,0.684207565,0.0,0.49780448299999996,False,,5f343b0f19d95a30e188ee9f,,1078418,78,,evan-feature22,full_pf_b,,0
54,46472,80,,,,2,2,1.0,1.0,-1.0,0.0,,0.0-82.0,,-1.0,1126.865,0.0,0.25,1.0,0.7405808970000001,1.0,0.679614108,1.0,0.436436964,False,,5f343b0f19d95a30e188ee9f,,1090740,80,,evan-feature22,full_pf_b,,0
55,46473,81,,,,1,1,1.0,0.0,0.0,1.0,,0.0-83.0,,0.0,662.04,1.0,0.29890393,0.0,0.730505706,1.0,0.7328203320000001,0.0,0.439256938,False,,5f343b0f19d95a30e188ee9f,,1101167,81,,evan-feature22,full_pf_b,,1
56,46474,82,,,,2,2,1.0,1.0,-1.0,0.0,,0.0-84.0,,-1.0,1130.715,1.0,0.326762398,1.0,0.7148059609999999,1.0,0.75,1.0,0.44389608799999997,False,,5f343b0f19d95a30e188ee9f,,1112064,82,,evan-feature22,full_pf_b,,1
57,46475,83,,,,2,2,1.0,1.0,-1.0,0.0,,0.0-85.0,,-1.0,1012.07,0.0,0.295168515,0.0,0.739760854,1.0,0.719947008,1.0,0.35277284600000003,False,,5f343b0f19d95a30e188ee9f,,1122841,83,,evan-feature22,full_pf_b,,0
58,46476,84,,,,1,1,0.0,1.0,-1.0,0.0,,0.0-86.0,,0.0,468.805,0.0,0.25,1.0,0.70781482,0.0,0.75,0.0,0.286095925,False,,5f343b0f19d95a30e188ee9f,,1133074,84,,evan-feature22,full_pf_b,,1
59,46477,85,,,,1,1,0.0,1.0,0.0,1.0,,0.0-87.0,,1.0,832.64,0.0,0.25638190899999996,1.0,0.704088163,1.0,0.75,1.0,0.26872601399999996,False,,5f343b0f19d95a30e188ee9f,,1143669,85,,evan-feature22,full_pf_b,,0
60,46478,86,,,,1,1,1.0,1.0,0.0,1.0,,0.0-88.0,,1.0,446.015,1.0,0.271581126,1.0,0.669760107,1.0,0.733896663,1.0,0.273244572,False,,5f343b0f19d95a30e188ee9f,,1153882,86,,evan-feature22,full_pf_b,,0
61,46479,87,,,,1,1,0.0,1.0,0.0,1.0,,0.0-89.0,,1.0,731.01,0.0,0.257144401,1.0,0.600575706,1.0,0.74488122,1.0,0.25,False,,5f343b0f19d95a30e188ee9f,,1164384,87,,evan-feature22,full_pf_b,,0
62,46480,88,,,,2,2,0.0,0.0,-1.0,0.0,,0.0-90.0,,0.0,848.47,0.0,0.25,1.0,0.616870026,0.0,0.723610234,0.0,0.25,False,,5f343b0f19d95a30e188ee9f,,1174997,88,,evan-feature22,full_pf_b,,1
63,46481,89,,,,1,1,0.0,1.0,0.0,1.0,,0.0-91.0,,1.0,1292.99,0.0,0.25,1.0,0.583540187,1.0,0.7041042559999999,0.0,0.285961995,False,,5f343b0f19d95a30e188ee9f,,1186052,89,,evan-feature22,full_pf_b,,1
64,46482,90,,,,1,1,0.0,0.0,-1.0,0.0,,0.0-92.0,,0.0,831.445,0.0,0.27254536,0.0,0.53875765,1.0,0.693783448,1.0,0.284961652,False,,5f343b0f19d95a30e188ee9f,,1196650,90,,evan-feature22,full_pf_b,,0
65,46483,91,,,,1,1,0.0,1.0,0.0,1.0,,0.0-93.0,,1.0,834.28,0.0,0.25,1.0,0.548431252,1.0,0.734221895,0.0,0.279445214,False,,5f343b0f19d95a30e188ee9f,,1207246,91,,evan-feature22,full_pf_b,,0
66,46484,92,,,,1,1,1.0,1.0,-1.0,0.0,,0.0-94.0,,-1.0,838.07,1.0,0.258640684,1.0,0.545878066,1.0,0.725245965,1.0,0.31487537,False,,5f343b0f19d95a30e188ee9f,,1217849,92,,evan-feature22,full_pf_b,,0
67,46485,93,,,,1,1,0.0,1.0,-1.0,0.0,,0.0-95.0,,0.0,876.7,0.0,0.251103711,1.0,0.5776290629999999,1.0,0.696320133,0.0,0.317831047,False,,5f343b0f19d95a30e188ee9f,,1228491,93,,evan-feature22,full_pf_b,,0
68,46486,94,,,,1,1,0.0,1.0,-1.0,0.0,,0.0-96.0,,0.0,723.785,0.0,0.276630292,1.0,0.617329858,0.0,0.73838088,0.0,0.261471582,False,,5f343b0f19d95a30e188ee9f,,1238978,94,,evan-feature22,full_pf_b,,0
69,46487,95,,,,1,1,1.0,0.0,0.0,1.0,,0.0-97.0,,0.0,530.765,1.0,0.297716424,0.0,0.618863717,0.0,0.7402358259999999,0.0,0.262600834,False,,5f343b0f19d95a30e188ee9f,,1249272,95,,evan-feature22,full_pf_b,,0
70,46488,96,,,,1,1,0.0,1.0,-1.0,0.0,,0.0-98.0,,0.0,833.715,0.0,0.290935512,1.0,0.695370945,1.0,0.706570507,0.0,0.280030553,False,,5f343b0f19d95a30e188ee9f,,1259870,96,,evan-feature22,full_pf_b,,0
71,46489,97,,,,1,1,0.0,1.0,-1.0,0.0,,0.0-99.0,,0.0,816.39,0.0,0.25,1.0,0.6465277079999999,1.0,0.67766682,0.0,0.25,False,,5f343b0f19d95a30e188ee9f,,1270454,97,,evan-feature22,full_pf_b,,0
72,46490,98,,,,1,1,0.0,0.0,-1.0,0.0,,0.0-100.0,,0.0,561.15,0.0,0.26463816,0.0,0.636100213,1.0,0.646048507,0.0,0.265607101,False,,5f343b0f19d95a30e188ee9f,,1280777,98,,evan-feature22,full_pf_b,,0
73,46491,99,,,,1,1,0.0,0.0,-1.0,0.0,,0.0-101.0,,0.0,451.35,0.0,0.314340707,0.0,0.667795927,1.0,0.613630805,0.0,0.25,False,,5f343b0f19d95a30e188ee9f,,1290993,99,,evan-feature22,full_pf_b,,0
74,46492,100,,,,1,1,0.0,1.0,-1.0,0.0,,0.0-102.0,,0.0,425.19,0.0,0.28685784,1.0,0.6622549529999999,1.0,0.652154117,0.0,0.25,False,,5f343b0f19d95a30e188ee9f,,1301182,100,,evan-feature22,full_pf_b,,0
75,46493,101,,,,1,1,1.0,1.0,0.0,1.0,,0.0-103.0,,1.0,610.1,1.0,0.304106554,1.0,0.631289538,1.0,0.707041942,0.0,0.29314237,False,,5f343b0f19d95a30e188ee9f,,1311559,101,,evan-feature22,full_pf_b,,0
76,46494,102,,,,1,1,0.0,1.0,0.0,1.0,,0.0-104.0,,1.0,421.73,0.0,0.304806932,1.0,0.571167718,1.0,0.680472346,0.0,0.25,False,,5f343b0f19d95a30e188ee9f,,1321747,102,,evan-feature22,full_pf_b,,0
77,46495,103,,,,1,1,0.0,0.0,0.0,1.0,,0.0-105.0,,0.0,510.775,0.0,0.37919861,0.0,0.5724849710000001,1.0,0.705638003,1.0,0.30179300600000003,False,,5f343b0f19d95a30e188ee9f,,1332019,103,,evan-feature22,full_pf_b,,0
78,46496,104,,,,1,1,0.0,1.0,0.0,1.0,,0.0-106.0,,1.0,522.7,0.0,0.464277969,1.0,0.554034373,1.0,0.7372627340000001,0.0,0.264699741,False,,5f343b0f19d95a30e188ee9f,,1342301,104,,evan-feature22,full_pf_b,,0
79,46497,105,,,,1,1,0.0,1.0,-1.0,0.0,,0.0-107.0,,0.0,712.67,0.0,0.465104323,1.0,0.530793115,1.0,0.75,1.0,0.31683071,False,,5f343b0f19d95a30e188ee9f,,1352777,105,,evan-feature22,full_pf_b,,0
80,46498,106,,,,1,1,0.0,0.0,0.0,1.0,,0.0-108.0,,0.0,606.38,0.0,0.465104323,0.0,0.530793115,1.0,0.75,0.0,0.31683071,False,,5f343b0f19d95a30e188ee9f,,1363143,106,,evan-feature22,full_pf_b,,0
81,46499,107,,,,1,1,1.0,1.0,0.0,1.0,,0.0-109.0,,1.0,545.61,1.0,0.46833986,1.0,0.570249239,0.0,0.7244472590000001,1.0,0.364114163,False,,5f343b0f19d95a30e188ee9f,,1373457,107,,evan-feature22,full_pf_b,,0
82,46500,108,,,,1,1,1.0,0.0,0.0,1.0,,0.0-110.0,,0.0,578.7,1.0,0.445444024,0.0,0.649673355,1.0,0.6845441290000001,0.0,0.300660449,False,,5f343b0f19d95a30e188ee9f,,1383805,108,,evan-feature22,full_pf_b,,0
83,46501,109,,,,1,1,1.0,1.0,0.0,1.0,,0.0-111.0,,1.0,473.65,1.0,0.39909721299999995,1.0,0.6715179509999999,1.0,0.742310028,0.0,0.35496088299999995,False,,5f343b0f19d95a30e188ee9f,,1394043,109,,evan-feature22,full_pf_b,,0
84,46502,110,,,,1,1,0.0,1.0,0.0,1.0,,0.0-112.0,,1.0,459.745,0.0,0.37956104799999996,1.0,0.694725302,1.0,0.7181651309999999,1.0,0.38726906299999997,False,,5f343b0f19d95a30e188ee9f,,1404273,110,,evan-feature22,full_pf_b,,0
85,46503,111,,,,1,1,0.0,1.0,0.0,1.0,,0.0-113.0,,1.0,487.85,0.0,0.404995034,1.0,0.724375412,1.0,0.6910946859999999,0.0,0.387187347,False,,5f343b0f19d95a30e188ee9f,,1414527,111,,evan-feature22,full_pf_b,,0
86,46504,112,,,,1,1,0.0,1.0,0.0,1.0,,0.0-114.0,,1.0,412.065,0.0,0.461740803,1.0,0.75,1.0,0.75,1.0,0.34872038200000005,False,,5f343b0f19d95a30e188ee9f,,1424701,112,,evan-feature22,full_pf_b,,0
87,46505,113,,,,1,1,1.0,1.0,-1.0,0.0,,0.0-115.0,,-1.0,881.09,1.0,0.43821380600000004,1.0,0.738833273,1.0,0.728286963,0.0,0.399538128,False,,5f343b0f19d95a30e188ee9f,,1435348,113,,evan-feature22,full_pf_b,,0
88,46506,114,,,,1,1,0.0,1.0,0.0,1.0,,0.0-116.0,,1.0,508.005,0.0,0.41709882,1.0,0.736666736,1.0,0.75,0.0,0.389095584,False,,5f343b0f19d95a30e188ee9f,,1445620,114,,evan-feature22,full_pf_b,,0
89,46507,115,,,,1,1,1.0,1.0,0.0,1.0,,0.0-117.0,,1.0,439.645,1.0,0.39749009799999996,1.0,0.744320029,1.0,0.75,1.0,0.363848678,False,,5f343b0f19d95a30e188ee9f,,1455825,115,,evan-feature22,full_pf_b,,0
90,46508,116,,,,1,1,1.0,1.0,-1.0,0.0,,0.0-118.0,,-1.0,899.285,1.0,0.392653706,1.0,0.75,1.0,0.75,0.0,0.384386976,False,,5f343b0f19d95a30e188ee9f,,1466489,116,,evan-feature22,full_pf_b,,0
91,46509,117,,,,1,1,1.0,1.0,-1.0,0.0,,0.0-119.0,,-1.0,544.11,1.0,0.31190902600000003,1.0,0.75,0.0,0.732413819,1.0,0.413082932,False,,5f343b0f19d95a30e188ee9f,,1476799,117,,evan-feature22,full_pf_b,,0
92,46510,118,,,,2,2,0.0,0.0,0.0,1.0,,0.0-120.0,,0.0,878.14,0.0,0.366917648,1.0,0.740073855,0.0,0.75,0.0,0.352861979,False,,5f343b0f19d95a30e188ee9f,,1487439,118,,evan-feature22,full_pf_b,,1
93,46511,119,,,,2,2,0.0,0.0,0.0,1.0,,0.0-121.0,,0.0,560.07,0.0,0.3645172,0.0,0.721770713,0.0,0.75,0.0,0.404074511,False,,5f343b0f19d95a30e188ee9f,,1497761,119,,evan-feature22,full_pf_b,,0
94,46512,120,,,,2,2,1.0,0.0,0.0,1.0,,0.0-122.0,,0.0,548.375,0.0,0.35205600299999995,1.0,0.68983859,1.0,0.739735447,0.0,0.366895945,False,,5f343b0f19d95a30e188ee9f,,1508075,120,,evan-feature22,full_pf_b,,0
95,46513,121,,,,1,1,0.0,0.0,0.0,1.0,,0.0-123.0,,0.0,398.6,0.0,0.40998722600000004,0.0,0.720859127,0.0,0.673854955,0.0,0.368528541,False,,5f343b0f19d95a30e188ee9f,,1518237,121,,evan-feature22,full_pf_b,,1
96,46514,122,,,,1,1,0.0,1.0,-1.0,0.0,,0.0-124.0,,0.0,889.12,0.0,0.353625316,1.0,0.75,1.0,0.695605473,1.0,0.38303674200000004,False,,5f343b0f19d95a30e188ee9f,,1528890,122,,evan-feature22,full_pf_b,,0
97,46515,123,,,,1,1,0.0,1.0,0.0,1.0,,0.0-125.0,,1.0,664.785,0.0,0.359216989,1.0,0.75,1.0,0.6987915090000001,0.0,0.35169046200000004,False,,5f343b0f19d95a30e188ee9f,,1539321,123,,evan-feature22,full_pf_b,,0
98,46516,124,,,,1,1,0.0,1.0,-1.0,0.0,,0.0-126.0,,0.0,702.33,0.0,0.35834496899999996,1.0,0.75,0.0,0.707067742,1.0,0.416763636,False,,5f343b0f19d95a30e188ee9f,,1549783,124,,evan-feature22,full_pf_b,,0
99,46517,125,,,,1,1,0.0,0.0,-1.0,0.0,,0.0-127.0,,0.0,519.615,0.0,0.38741613799999997,0.0,0.7177369570000001,1.0,0.734902455,1.0,0.49438664299999996,False,,5f343b0f19d95a30e188ee9f,,1560066,125,,evan-feature22,full_pf_b,,0
100,46518,126,,,,1,1,0.0,1.0,0.0,1.0,,0.0-128.0,,1.0,616.9,0.0,0.405255252,1.0,0.7300466640000001,1.0,0.7027748070000001,0.0,0.504359668,False,,5f343b0f19d95a30e188ee9f,,1570447,126,,evan-feature22,full_pf_b,,0
101,46519,127,,,,1,1,0.0,0.0,0.0,1.0,,0.0-129.0,,0.0,376.16,0.0,0.40697073,0.0,0.7260142190000001,1.0,0.724461982,1.0,0.522779179,False,,5f343b0f19d95a30e188ee9f,,1580588,127,,evan-feature22,full_pf_b,,0
102,46520,128,,,,1,1,0.0,1.0,0.0,1.0,,0.0-130.0,,1.0,381.96,0.0,0.43906215299999996,1.0,0.7252802340000001,1.0,0.719079934,1.0,0.5712990579999999,False,,5f343b0f19d95a30e188ee9f,,1590733,128,,evan-feature22,full_pf_b,,0
103,46521,129,,,,1,1,1.0,1.0,0.0,1.0,,0.0-131.0,,1.0,529.41,1.0,0.4076705,1.0,0.73280499,1.0,0.681313127,0.0,0.523891346,False,,5f343b0f19d95a30e188ee9f,,1601025,129,,evan-feature22,full_pf_b,,0
104,46522,130,,,,1,1,0.0,0.0,0.0,1.0,,0.0-132.0,,0.0,491.125,0.0,0.399102911,0.0,0.730498344,0.0,0.661080239,0.0,0.46742603,False,,5f343b0f19d95a30e188ee9f,,1611278,130,,evan-feature22,full_pf_b,,0
105,46523,131,,,,1,1,1.0,1.0,-1.0,0.0,,0.0-133.0,,-1.0,852.805,1.0,0.356477282,1.0,0.712296395,1.0,0.641812684,1.0,0.44868414,False,,5f343b0f19d95a30e188ee9f,,1621897,131,,evan-feature22,full_pf_b,,0
106,46524,132,,,,1,1,1.0,0.0,0.0,1.0,,0.0-134.0,,0.0,412.48,1.0,0.462760722,0.0,0.692349322,1.0,0.700947931,1.0,0.394680266,False,,5f343b0f19d95a30e188ee9f,,1632073,132,,evan-feature22,full_pf_b,,0
107,46525,133,,,,2,2,1.0,0.0,0.0,1.0,,0.0-135.0,,0.0,533.145,0.0,0.422306413,1.0,0.718375916,1.0,0.706340917,0.0,0.367787185,False,,5f343b0f19d95a30e188ee9f,,1642367,133,,evan-feature22,full_pf_b,,1
108,46527,135,,,,1,1,0.0,0.0,0.0,1.0,,0.0-137.0,,0.0,1224.975,0.0,0.4582233,0.0,0.643834117,1.0,0.75,1.0,0.39615823299999997,False,,5f343b0f19d95a30e188ee9f,,1654807,135,,evan-feature22,full_pf_b,,1
109,46528,136,,,,2,2,1.0,0.0,0.0,1.0,,0.0-138.0,,0.0,765.48,0.0,0.43813437899999996,1.0,0.651283804,1.0,0.729674191,0.0,0.37711048,False,,5f343b0f19d95a30e188ee9f,,1665334,136,,evan-feature22,full_pf_b,,1
110,46529,137,,,,1,1,1.0,0.0,0.0,1.0,,0.0-139.0,,0.0,1228.475,1.0,0.471199094,0.0,0.6470010979999999,1.0,0.715008097,1.0,0.410656191,False,,5f343b0f19d95a30e188ee9f,,1676327,137,,evan-feature22,full_pf_b,,1
111,46530,138,,,,1,1,0.0,1.0,-1.0,0.0,,0.0-140.0,,0.0,1227.995,0.0,0.42486406,1.0,0.629771829,0.0,0.6550939960000001,0.0,0.459093873,False,,5f343b0f19d95a30e188ee9f,,1687324,138,,evan-feature22,full_pf_b,,0
112,46531,139,,,,1,1,0.0,0.0,-1.0,0.0,,0.0-141.0,,0.0,878.38,0.0,0.4803197,0.0,0.645842715,0.0,0.6421749920000001,0.0,0.443092151,False,,5f343b0f19d95a30e188ee9f,,1697967,139,,evan-feature22,full_pf_b,,0
113,46532,140,,,,1,1,0.0,1.0,-1.0,0.0,,0.0-142.0,,0.0,1022.035,0.0,0.521848997,1.0,0.735801074,1.0,0.6691348460000001,1.0,0.45259351600000003,False,,5f343b0f19d95a30e188ee9f,,1708752,140,,evan-feature22,full_pf_b,,0
114,46533,141,,,,1,1,1.0,1.0,0.0,1.0,,0.0-143.0,,1.0,586.12,1.0,0.49565621299999996,1.0,0.742400847,0.0,0.661512553,1.0,0.483110831,False,,5f343b0f19d95a30e188ee9f,,1719107,141,,evan-feature22,full_pf_b,,0
115,46534,142,,,,2,2,1.0,1.0,-1.0,0.0,,0.0-144.0,,-1.0,1510.525,1.0,0.521564361,1.0,0.731078632,1.0,0.6774886809999999,1.0,0.483263956,False,,5f343b0f19d95a30e188ee9f,,1730382,142,,evan-feature22,full_pf_b,,1
116,46535,143,,,,1,1,1.0,0.0,-1.0,0.0,,0.0-145.0,,-1.0,741.035,1.0,0.558893102,0.0,0.719810023,0.0,0.67461031,0.0,0.499349834,False,,5f343b0f19d95a30e188ee9f,,1740886,143,,evan-feature22,full_pf_b,,1
117,46536,144,,,,2,2,0.0,1.0,0.0,1.0,,0.0-146.0,,1.0,895.595,1.0,0.611031046,0.0,0.75,0.0,0.688072995,1.0,0.5321422729999999,False,,5f343b0f19d95a30e188ee9f,,1751550,144,,evan-feature22,full_pf_b,,1
118,46537,145,,,,2,2,1.0,1.0,-1.0,0.0,,0.0-147.0,,-1.0,835.03,0.0,0.633223941,0.0,0.713567728,1.0,0.75,1.0,0.48185314700000004,False,,5f343b0f19d95a30e188ee9f,,1762148,145,,evan-feature22,full_pf_b,,0
119,46538,146,,,,2,2,1.0,1.0,-1.0,0.0,,0.0-148.0,,-1.0,687.61,0.0,0.664001694,1.0,0.705509768,1.0,0.75,1.0,0.500211065,False,,5f343b0f19d95a30e188ee9f,,1772601,146,,evan-feature22,full_pf_b,,0
120,46539,147,,,,2,2,1.0,0.0,0.0,1.0,,0.0-149.0,,0.0,788.295,1.0,0.664001694,1.0,0.705509768,1.0,0.75,0.0,0.500211065,False,,5f343b0f19d95a30e188ee9f,,1783153,147,,evan-feature22,full_pf_b,,0
121,46540,148,,,,1,1,1.0,1.0,0.0,1.0,,0.0-150.0,,1.0,558.12,1.0,0.696508041,1.0,0.71066027,1.0,0.717028709,1.0,0.49792991,False,,5f343b0f19d95a30e188ee9f,,1793474,148,,evan-feature22,full_pf_b,,1
122,46541,149,,,,1,1,0.0,0.0,-1.0,0.0,,0.0-151.0,,0.0,700.425,0.0,0.699883272,0.0,0.75,0.0,0.713543895,0.0,0.496962643,False,,5f343b0f19d95a30e188ee9f,,1803939,149,,evan-feature22,full_pf_b,,0
123,46542,150,,,,1,1,1.0,1.0,0.0,1.0,,0.0-152.0,,1.0,599.31,1.0,0.741163419,1.0,0.75,1.0,0.64691024,1.0,0.513858197,False,,5f343b0f19d95a30e188ee9f,,1814305,150,,evan-feature22,full_pf_b,,0
124,46543,151,,,,1,1,1.0,1.0,-1.0,0.0,,0.0-153.0,,-1.0,895.06,1.0,0.75,1.0,0.70816558,1.0,0.594499079,1.0,0.48502124,False,,5f343b0f19d95a30e188ee9f,,1824970,151,,evan-feature22,full_pf_b,,0
125,46544,152,,,,2,2,0.0,1.0,0.0,1.0,,0.0-154.0,,1.0,861.075,1.0,0.75,1.0,0.721848901,0.0,0.62197249,1.0,0.48263586399999997,False,,5f343b0f19d95a30e188ee9f,,1835596,152,,evan-feature22,full_pf_b,,1
126,46545,153,,,,1,1,1.0,1.0,-1.0,0.0,,0.0-155.0,,-1.0,737.99,1.0,0.75,1.0,0.74813071,0.0,0.584357161,1.0,0.411477782,False,,5f343b0f19d95a30e188ee9f,,1846100,153,,evan-feature22,full_pf_b,,1
127,46546,154,,,,2,2,1.0,0.0,0.0,1.0,,0.0-156.0,,0.0,547.505,1.0,0.75,1.0,0.75,1.0,0.52287236,0.0,0.488290656,False,,5f343b0f19d95a30e188ee9f,,1856415,154,,evan-feature22,full_pf_b,,1
128,46547,155,,,,2,2,1.0,1.0,0.0,1.0,,0.0-157.0,,1.0,560.31,0.0,0.75,1.0,0.75,1.0,0.544321581,1.0,0.53143059,False,,5f343b0f19d95a30e188ee9f,,1866742,155,,evan-feature22,full_pf_b,,0
129,46548,156,,,,2,2,1.0,1.0,0.0,1.0,,0.0-158.0,,1.0,515.65,1.0,0.726754564,1.0,0.75,1.0,0.5129306370000001,1.0,0.530592445,False,,5f343b0f19d95a30e188ee9f,,1877026,156,,evan-feature22,full_pf_b,,0
130,46549,157,,,,1,1,1.0,1.0,-1.0,0.0,,0.0-159.0,,-1.0,814.945,1.0,0.75,1.0,0.7392590729999999,0.0,0.479875835,1.0,0.547007051,False,,5f343b0f19d95a30e188ee9f,,1887604,157,,evan-feature22,full_pf_b,,1
131,46550,158,,,,2,2,0.0,0.0,-1.0,0.0,,0.0-160.0,,0.0,917.41,0.0,0.75,1.0,0.7393376979999999,0.0,0.546045419,0.0,0.541267353,False,,5f343b0f19d95a30e188ee9f,,1898287,158,,evan-feature22,full_pf_b,,1
132,46551,159,,,,2,2,0.0,1.0,-1.0,0.0,,0.0-161.0,,0.0,827.34,1.0,0.75,1.0,0.75,0.0,0.485725895,1.0,0.527625395,False,,5f343b0f19d95a30e188ee9f,,1908879,159,,evan-feature22,full_pf_b,,0
133,46552,160,,,,2,2,0.0,0.0,0.0,1.0,,0.0-162.0,,0.0,994.205,1.0,0.75,1.0,0.725087974,0.0,0.488603595,0.0,0.504019206,False,,5f343b0f19d95a30e188ee9f,,1919636,160,,evan-feature22,full_pf_b,,0
134,46553,161,,,,1,1,1.0,1.0,0.0,1.0,,0.0-163.0,,1.0,443.605,1.0,0.745504295,1.0,0.75,0.0,0.452379914,0.0,0.50131194,False,,5f343b0f19d95a30e188ee9f,,1929845,161,,evan-feature22,full_pf_b,,1
135,46554,162,,,,1,1,1.0,1.0,0.0,1.0,,0.0-164.0,,1.0,647.055,1.0,0.728513874,1.0,0.75,0.0,0.44125567200000004,1.0,0.531454591,False,,5f343b0f19d95a30e188ee9f,,1940258,162,,evan-feature22,full_pf_b,,0
136,46555,163,,,,2,2,0.0,1.0,-1.0,0.0,,0.0-165.0,,0.0,850.525,1.0,0.73790804,1.0,0.75,0.0,0.413036656,1.0,0.524619035,False,,5f343b0f19d95a30e188ee9f,,1950872,163,,evan-feature22,full_pf_b,,1
137,46556,164,,,,2,2,0.0,1.0,0.0,1.0,,0.0-166.0,,1.0,862.065,1.0,0.7080961309999999,0.0,0.708666865,0.0,0.431915581,1.0,0.481819489,False,,5f343b0f19d95a30e188ee9f,,1961501,164,,evan-feature22,full_pf_b,,0
138,46557,165,,,,2,2,0.0,1.0,0.0,1.0,,0.0-167.0,,1.0,1155.495,1.0,0.721378003,1.0,0.71605913,0.0,0.36642387,1.0,0.5036739929999999,False,,5f343b0f19d95a30e188ee9f,,1972421,165,,evan-feature22,full_pf_b,,0
139,46558,166,,,,2,2,1.0,1.0,0.0,1.0,,0.0-168.0,,1.0,465.69,1.0,0.7340618959999999,1.0,0.699323252,1.0,0.35298046299999997,1.0,0.511241692,False,,5f343b0f19d95a30e188ee9f,,1982651,166,,evan-feature22,full_pf_b,,0
140,46559,167,,,,2,2,0.0,0.0,-1.0,0.0,,0.0-169.0,,0.0,751.955,1.0,0.75,1.0,0.70412698,0.0,0.380734814,0.0,0.529580116,False,,5f343b0f19d95a30e188ee9f,,1993168,167,,evan-feature22,full_pf_b,,0
141,46560,168,,,,2,2,0.0,1.0,0.0,1.0,,0.0-170.0,,1.0,575.705,0.0,0.7436654909999999,1.0,0.711182751,0.0,0.41125331,1.0,0.49554405,False,,5f343b0f19d95a30e188ee9f,,2003510,168,,evan-feature22,full_pf_b,,0
142,46561,169,,,,2,2,0.0,0.0,0.0,1.0,,0.0-171.0,,0.0,1209.07,1.0,0.731607915,1.0,0.651774583,0.0,0.35688023,0.0,0.45194491600000003,False,,5f343b0f19d95a30e188ee9f,,2014483,169,,evan-feature22,full_pf_b,,0
143,46562,170,,,,2,2,0.0,1.0,-1.0,0.0,,0.0-172.0,,0.0,1036.065,1.0,0.75,1.0,0.75,0.0,0.283145374,1.0,0.528608005,False,,5f343b0f19d95a30e188ee9f,,2025285,170,,evan-feature22,full_pf_b,,0
144,46563,171,,,,2,2,0.0,1.0,-1.0,0.0,,0.0-173.0,,0.0,414.96,1.0,0.7491416890000001,1.0,0.7423785959999999,0.0,0.29135870399999997,1.0,0.498888318,False,,5f343b0f19d95a30e188ee9f,,2035465,171,,evan-feature22,full_pf_b,,0
145,46564,172,,,,2,2,0.0,0.0,-1.0,0.0,,0.0-174.0,,0.0,697.645,1.0,0.708569387,1.0,0.717682277,0.0,0.294421699,0.0,0.493838163,False,,5f343b0f19d95a30e188ee9f,,2045928,172,,evan-feature22,full_pf_b,,0
146,46565,173,,,,2,2,0.0,1.0,0.0,1.0,,0.0-175.0,,1.0,1018.88,0.0,0.75,1.0,0.7383382159999999,0.0,0.356098707,1.0,0.442533405,False,,5f343b0f19d95a30e188ee9f,,2056715,173,,evan-feature22,full_pf_b,,0
147,46566,174,,,,2,2,0.0,1.0,0.0,1.0,,0.0-176.0,,1.0,845.36,1.0,0.744527075,1.0,0.75,0.0,0.334127506,1.0,0.393165805,False,,5f343b0f19d95a30e188ee9f,,2067326,174,,evan-feature22,full_pf_b,,0
148,46567,175,,,,2,2,1.0,0.0,0.0,1.0,,0.0-177.0,,0.0,395.465,1.0,0.75,1.0,0.75,1.0,0.33571021799999995,0.0,0.350393962,False,,5f343b0f19d95a30e188ee9f,,2077487,175,,evan-feature22,full_pf_b,,0
149,46568,176,,,,1,1,1.0,1.0,0.0,1.0,,0.0-178.0,,1.0,489.9,1.0,0.75,1.0,0.75,0.0,0.313628297,0.0,0.36349657399999996,False,,5f343b0f19d95a30e188ee9f,,2087741,176,,evan-feature22,full_pf_b,,1
150,46569,177,,,,2,2,0.0,0.0,-1.0,0.0,,0.0-179.0,,0.0,798.125,0.0,0.75,1.0,0.734284182,0.0,0.262667667,0.0,0.380199119,False,,5f343b0f19d95a30e188ee9f,,2098307,177,,evan-feature22,full_pf_b,,1
151,46570,178,,,,2,2,0.0,0.0,0.0,1.0,,0.0-180.0,,0.0,717.87,0.0,0.75,1.0,0.75,0.0,0.25,0.0,0.394494013,False,,5f343b0f19d95a30e188ee9f,,2108790,178,,evan-feature22,full_pf_b,,0
152,46571,179,,,,2,2,0.0,0.0,-1.0,0.0,,0.0-181.0,,0.0,909.48,1.0,0.722298145,1.0,0.7357822340000001,0.0,0.25,0.0,0.319142121,False,,5f343b0f19d95a30e188ee9f,,2119463,179,,evan-feature22,full_pf_b,,0
153,46572,180,,,,2,2,0.0,0.0,-1.0,0.0,,0.0-182.0,,0.0,634.86,1.0,0.73149275,1.0,0.724276446,0.0,0.305856907,0.0,0.281315057,False,,5f343b0f19d95a30e188ee9f,,2129865,180,,evan-feature22,full_pf_b,,0
154,46573,181,,,,2,2,1.0,0.0,0.0,1.0,,0.0-183.0,,0.0,929.625,1.0,0.7458732690000001,1.0,0.7336382459999999,1.0,0.272571964,0.0,0.266021999,False,,5f343b0f19d95a30e188ee9f,,2140559,181,,evan-feature22,full_pf_b,,0
155,46574,182,,,,1,1,1.0,1.0,0.0,1.0,,0.0-184.0,,1.0,578.905,1.0,0.705579037,1.0,0.720778292,0.0,0.320238144,0.0,0.30971744,False,,5f343b0f19d95a30e188ee9f,,2150904,182,,evan-feature22,full_pf_b,,1
156,46575,183,,,,1,1,1.0,1.0,0.0,1.0,,0.0-185.0,,1.0,521.085,1.0,0.700425648,1.0,0.7198784009999999,1.0,0.272590393,0.0,0.304182931,False,,5f343b0f19d95a30e188ee9f,,2161194,183,,evan-feature22,full_pf_b,,0
157,46576,184,,,,1,1,1.0,1.0,0.0,1.0,,0.0-186.0,,1.0,744.16,1.0,0.735590785,1.0,0.722714973,0.0,0.25,1.0,0.323421091,False,,5f343b0f19d95a30e188ee9f,,2171707,184,,evan-feature22,full_pf_b,,0
158,46577,185,,,,1,1,1.0,1.0,0.0,1.0,,0.0-187.0,,1.0,448.16,1.0,0.724807662,1.0,0.63146213,0.0,0.36836492600000004,0.0,0.34592153299999995,False,,5f343b0f19d95a30e188ee9f,,2181918,185,,evan-feature22,full_pf_b,,0
159,46578,186,,,,1,1,1.0,1.0,0.0,1.0,,0.0-188.0,,1.0,1419.215,1.0,0.7352796909999999,1.0,0.555111392,1.0,0.36003922,0.0,0.31433779999999995,False,,5f343b0f19d95a30e188ee9f,,2193104,186,,evan-feature22,full_pf_b,,0
160,46579,187,notice,,,,,,,,,,0.0-189.0,"{""Q0"":""more with yellow and black in same block i guess""}",,22853.0,,,,,,,,,False,,5f343b0f19d95a30e188ee9f,,2215959,187,Q,survey-text,full_pf_b,,1
161,46580,188,track1,,[0],,,,,,,,0.0-190.0,"{""Q0"":""yes""}",,3721.0,,,,,,,,,False,,5f343b0f19d95a30e188ee9f,,2219691,188,Q,evan-quiz,full_pf_b,,1
162,46581,189,track2,,[0],,,,,,,,0.0-191.0,"{""Q0"":""yes""}",,5827.0,,,,,,,,,False,,5f343b0f19d95a30e188ee9f,,2225521,189,Q,evan-quiz,full_pf_b,,1
163,46582,190,strat,,,,,,,,,,0.0-192.0,"{""Q0"":""Looked at common appearances of both, and if plus one then go for the door where both were likely present.""}",,32475.0,,,,,,,,,False,,5f343b0f19d95a30e188ee9f,,2258001,190,Q,survey-text,full_pf_b,,1
