,index,Unnamed: 0,Q_name,button_pressed,choice_idxs,chosen_pos,chosen_state,chosen_state_f_1_outcome,chosen_state_f_2_outcome,f_1_reward,f_2_reward,incor_questions,internal_node_id,responses,reward_received,rt,s_1_f_1_outcome,s_1_f_1_prob,s_1_f_2_outcome,s_1_f_2_prob,s_2_f_1_outcome,s_2_f_1_prob,s_2_f_2_outcome,s_2_f_2_prob,safe_first,stimulus,subjectID,success,time_elapsed,trial_index,trial_num,trial_type,version,view_history,switching
0,28485,35,,,,2,2,0.0,1.0,0.0,-1.0,,0.0-27.0,,-1.0,2631.65,1.0,0.6,0.0,0.6,0.0,0.4,1.0,0.4,False,,5eb6b8d41cf74d5bbc04cc26,,661184,35,,evan-feature22,full_pf_a,,0
1,28486,36,,,,2,2,0.0,1.0,0.0,-1.0,,0.0-28.0,,-1.0,1483.09,1.0,0.608053294,1.0,0.63424552,0.0,0.397152172,1.0,0.347069101,False,,5eb6b8d41cf74d5bbc04cc26,,672451,36,,evan-feature22,full_pf_a,,0
2,28487,37,,,,1,1,1.0,0.0,0.0,-1.0,,0.0-29.0,,0.0,1168.37,1.0,0.642237155,0.0,0.648566321,1.0,0.389407674,0.0,0.285525717,False,,5eb6b8d41cf74d5bbc04cc26,,683403,37,,evan-feature22,full_pf_a,,1
3,28488,38,,,,2,2,0.0,1.0,0.0,-1.0,,0.0-30.0,,-1.0,1218.695,0.0,0.661086576,0.0,0.630492543,0.0,0.399058924,1.0,0.25,False,,5eb6b8d41cf74d5bbc04cc26,,694393,38,,evan-feature22,full_pf_a,,1
4,28489,39,,,,1,1,1.0,1.0,0.0,-1.0,,0.0-31.0,,-1.0,975.395,1.0,0.631324137,1.0,0.6269842929999999,1.0,0.38734784299999997,0.0,0.25,False,,5eb6b8d41cf74d5bbc04cc26,,705150,39,,evan-feature22,full_pf_a,,1
5,28490,40,,,,1,1,1.0,1.0,0.0,-1.0,,0.0-32.0,,-1.0,1270.71,1.0,0.6381991370000001,1.0,0.68987999,1.0,0.384107265,1.0,0.271332943,False,,5eb6b8d41cf74d5bbc04cc26,,716200,40,,evan-feature22,full_pf_a,,0
6,28491,41,,,,1,1,1.0,1.0,0.0,-1.0,,0.0-33.0,,-1.0,589.04,1.0,0.66034901,1.0,0.742641349,0.0,0.360225629,0.0,0.25,False,,5eb6b8d41cf74d5bbc04cc26,,726575,41,,evan-feature22,full_pf_a,,0
7,28492,42,,,,1,1,1.0,1.0,1.0,0.0,,0.0-34.0,,1.0,1668.015,1.0,0.638612418,1.0,0.75,0.0,0.367273939,0.0,0.25,False,,5eb6b8d41cf74d5bbc04cc26,,738024,42,,evan-feature22,full_pf_a,,0
8,28493,43,,,,1,1,0.0,1.0,0.0,-1.0,,0.0-35.0,,-1.0,2651.18,0.0,0.624340629,1.0,0.75,1.0,0.425829545,0.0,0.25,False,,5eb6b8d41cf74d5bbc04cc26,,750461,43,,evan-feature22,full_pf_a,,0
9,28494,44,,,,1,1,1.0,1.0,0.0,-1.0,,0.0-36.0,,-1.0,1837.53,1.0,0.621999804,1.0,0.75,0.0,0.368609357,0.0,0.25,False,,5eb6b8d41cf74d5bbc04cc26,,762085,44,,evan-feature22,full_pf_a,,0
10,28495,45,,,,2,2,1.0,1.0,1.0,0.0,,0.0-37.0,,1.0,2728.71,0.0,0.62666403,1.0,0.75,1.0,0.311151498,1.0,0.25,False,,5eb6b8d41cf74d5bbc04cc26,,774590,45,,evan-feature22,full_pf_a,,1
11,28496,46,,,,2,2,0.0,0.0,1.0,0.0,,0.0-38.0,,0.0,2261.225,1.0,0.6819650009999999,0.0,0.75,0.0,0.310763048,0.0,0.25,False,,5eb6b8d41cf74d5bbc04cc26,,786626,46,,evan-feature22,full_pf_a,,0
12,28497,47,,,,2,2,0.0,1.0,0.0,-1.0,,0.0-39.0,,-1.0,2354.335,1.0,0.740626951,1.0,0.75,0.0,0.25,1.0,0.25,False,,5eb6b8d41cf74d5bbc04cc26,,798762,47,,evan-feature22,full_pf_a,,0
13,28498,48,,,,2,2,0.0,0.0,0.0,-1.0,,0.0-40.0,,0.0,3266.195,1.0,0.739599242,0.0,0.742034978,0.0,0.25397114600000004,0.0,0.25,False,,5eb6b8d41cf74d5bbc04cc26,,811801,48,,evan-feature22,full_pf_a,,0
14,28499,49,,,,1,1,1.0,1.0,0.0,-1.0,,0.0-41.0,,-1.0,1267.245,1.0,0.732341315,1.0,0.72735643,0.0,0.25,0.0,0.25,False,,5eb6b8d41cf74d5bbc04cc26,,822845,49,,evan-feature22,full_pf_a,,1
15,28500,50,,,,2,2,1.0,0.0,0.0,-1.0,,0.0-42.0,,0.0,1524.695,0.0,0.7062287770000001,1.0,0.75,1.0,0.29002151,0.0,0.288256649,False,,5eb6b8d41cf74d5bbc04cc26,,834149,50,,evan-feature22,full_pf_a,,1
16,28501,51,,,,1,1,1.0,0.0,1.0,0.0,,0.0-43.0,,1.0,1141.215,1.0,0.7086029209999999,0.0,0.75,0.0,0.274129113,0.0,0.262851608,False,,5eb6b8d41cf74d5bbc04cc26,,845062,51,,evan-feature22,full_pf_a,,1
17,28502,52,,,,SLOW,SLOW,,,0.0,-1.0,,0.0-44.0,,-3.0,,1.0,0.669189651,1.0,0.727614338,1.0,0.298444036,0.0,0.296944518,False,,5eb6b8d41cf74d5bbc04cc26,,850880,52,,evan-feature22,full_pf_a,,1
18,28503,53,,,,1,1,1.0,1.0,1.0,0.0,,0.0-45.0,,1.0,977.17,1.0,0.6819912929999999,1.0,0.7179434290000001,1.0,0.265003961,1.0,0.28157921199999997,False,,5eb6b8d41cf74d5bbc04cc26,,861641,53,,evan-feature22,full_pf_a,,1
19,28504,54,,,,1,1,0.0,0.0,1.0,0.0,,0.0-46.0,,0.0,952.2,0.0,0.665275002,0.0,0.723065271,0.0,0.260414971,1.0,0.30973870000000003,False,,5eb6b8d41cf74d5bbc04cc26,,872379,54,,evan-feature22,full_pf_a,,0
20,28505,55,,,,2,2,0.0,1.0,0.0,-1.0,,0.0-47.0,,-1.0,1920.915,0.0,0.6660593260000001,1.0,0.728032907,0.0,0.30922817,1.0,0.338778608,False,,5eb6b8d41cf74d5bbc04cc26,,884078,55,,evan-feature22,full_pf_a,,1
21,28506,56,,,,2,2,0.0,0.0,0.0,-1.0,,0.0-48.0,,0.0,1946.995,1.0,0.702068785,1.0,0.6528750879999999,0.0,0.287329608,0.0,0.35789613200000003,False,,5eb6b8d41cf74d5bbc04cc26,,895812,56,,evan-feature22,full_pf_a,,0
22,28507,57,,,,2,2,0.0,0.0,0.0,-1.0,,0.0-49.0,,0.0,2245.085,0.0,0.651939787,0.0,0.636725589,0.0,0.284834488,0.0,0.358563756,False,,5eb6b8d41cf74d5bbc04cc26,,907836,57,,evan-feature22,full_pf_a,,0
23,28508,58,,,,2,2,0.0,1.0,0.0,-1.0,,0.0-50.0,,-1.0,894.79,1.0,0.67573929,0.0,0.612550049,0.0,0.37130387600000003,1.0,0.383542402,False,,5eb6b8d41cf74d5bbc04cc26,,918512,58,,evan-feature22,full_pf_a,,0
24,28509,59,,,,1,1,1.0,1.0,0.0,-1.0,,0.0-51.0,,-1.0,1376.405,1.0,0.620753801,1.0,0.60513644,0.0,0.385529434,1.0,0.340361743,False,,5eb6b8d41cf74d5bbc04cc26,,929668,59,,evan-feature22,full_pf_a,,1
25,28510,60,,,,1,1,1.0,1.0,1.0,0.0,,0.0-52.0,,1.0,2960.86,1.0,0.673564893,1.0,0.672437924,0.0,0.292955382,1.0,0.337633795,False,,5eb6b8d41cf74d5bbc04cc26,,942397,60,,evan-feature22,full_pf_a,,0
26,28511,61,,,,1,1,1.0,1.0,0.0,-1.0,,0.0-53.0,,-1.0,3083.185,1.0,0.6749427,1.0,0.724197502,0.0,0.32391132100000003,0.0,0.350995264,False,,5eb6b8d41cf74d5bbc04cc26,,955259,61,,evan-feature22,full_pf_a,,0
27,28512,62,,,,1,1,1.0,1.0,0.0,-1.0,,0.0-54.0,,-1.0,1318.185,1.0,0.6940159379999999,1.0,0.75,1.0,0.31710554399999996,1.0,0.413450341,False,,5eb6b8d41cf74d5bbc04cc26,,966360,62,,evan-feature22,full_pf_a,,0
28,28513,63,,,,2,2,1.0,0.0,0.0,-1.0,,0.0-55.0,,0.0,746.52,1.0,0.6916018270000001,1.0,0.69001187,1.0,0.261817804,0.0,0.40038635,False,,5eb6b8d41cf74d5bbc04cc26,,976885,63,,evan-feature22,full_pf_a,,1
29,28514,64,,,,2,2,0.0,0.0,0.0,-1.0,,0.0-56.0,,0.0,1602.69,1.0,0.641061544,1.0,0.71337992,0.0,0.277296461,0.0,0.47372791700000005,False,,5eb6b8d41cf74d5bbc04cc26,,988269,64,,evan-feature22,full_pf_a,,0
30,28515,65,,,,SLOW,SLOW,,,0.0,-1.0,,0.0-57.0,,-3.0,,0.0,0.6082438520000001,1.0,0.708471106,0.0,0.28745137,0.0,0.564174476,False,,5eb6b8d41cf74d5bbc04cc26,,994086,65,,evan-feature22,full_pf_a,,1
31,28516,66,,,,1,1,1.0,0.0,1.0,0.0,,0.0-58.0,,1.0,1808.745,1.0,0.6051112120000001,0.0,0.7118147229999999,1.0,0.272390611,1.0,0.5595149939999999,False,,5eb6b8d41cf74d5bbc04cc26,,1005674,66,,evan-feature22,full_pf_a,,1
32,28517,67,,,,1,1,1.0,1.0,1.0,0.0,,0.0-59.0,,1.0,1833.115,1.0,0.582420852,1.0,0.635867583,1.0,0.31089574,0.0,0.5227206520000001,False,,5eb6b8d41cf74d5bbc04cc26,,1017291,67,,evan-feature22,full_pf_a,,0
33,28518,68,,,,1,1,0.0,0.0,1.0,0.0,,0.0-60.0,,0.0,2524.24,0.0,0.623195575,0.0,0.655026044,1.0,0.25,1.0,0.560387538,False,,5eb6b8d41cf74d5bbc04cc26,,1029588,68,,evan-feature22,full_pf_a,,0
34,28519,69,,,,1,1,1.0,1.0,0.0,-1.0,,0.0-61.0,,-1.0,2019.105,1.0,0.601889598,1.0,0.678198724,0.0,0.25,0.0,0.559922936,False,,5eb6b8d41cf74d5bbc04cc26,,1041393,69,,evan-feature22,full_pf_a,,0
35,28520,70,,,,1,1,0.0,1.0,1.0,0.0,,0.0-62.0,,0.0,1777.105,0.0,0.601259914,1.0,0.704681482,0.0,0.33908969299999997,0.0,0.505003715,False,,5eb6b8d41cf74d5bbc04cc26,,1052942,70,,evan-feature22,full_pf_a,,0
36,28521,71,,,,1,1,1.0,1.0,1.0,0.0,,0.0-63.0,,1.0,1737.655,1.0,0.59645454,1.0,0.710437172,0.0,0.327441879,0.0,0.391749613,False,,5eb6b8d41cf74d5bbc04cc26,,1064466,71,,evan-feature22,full_pf_a,,0
37,28522,72,,,,2,2,0.0,1.0,0.0,-1.0,,0.0-64.0,,-1.0,2741.075,1.0,0.529473,1.0,0.636758527,0.0,0.301338063,1.0,0.365661481,False,,5eb6b8d41cf74d5bbc04cc26,,1076986,72,,evan-feature22,full_pf_a,,1
38,28523,73,,,,SLOW,SLOW,,,1.0,0.0,,0.0-65.0,,-3.0,,1.0,0.541657162,1.0,0.634541962,0.0,0.343535366,0.0,0.371763742,False,,5eb6b8d41cf74d5bbc04cc26,,1082801,73,,evan-feature22,full_pf_a,,1
39,28524,74,,,,1,1,0.0,1.0,1.0,0.0,,0.0-66.0,,0.0,1053.095,0.0,0.5707533260000001,1.0,0.589121171,0.0,0.326428396,0.0,0.43961622899999997,False,,5eb6b8d41cf74d5bbc04cc26,,1093636,74,,evan-feature22,full_pf_a,,1
40,28525,75,,,,2,2,1.0,0.0,0.0,-1.0,,0.0-67.0,,0.0,3322.88,1.0,0.5707533260000001,1.0,0.589121171,1.0,0.326428396,0.0,0.43961622899999997,False,,5eb6b8d41cf74d5bbc04cc26,,1106738,75,,evan-feature22,full_pf_a,,1
41,28526,76,,,,2,2,0.0,1.0,0.0,-1.0,,0.0-68.0,,-1.0,1299.71,0.0,0.506271295,1.0,0.641775594,0.0,0.37149690700000004,1.0,0.404330166,False,,5eb6b8d41cf74d5bbc04cc26,,1117819,76,,evan-feature22,full_pf_a,,0
42,28527,77,,,,1,1,0.0,1.0,1.0,0.0,,0.0-69.0,,0.0,1675.11,0.0,0.455642565,1.0,0.623605825,1.0,0.358753011,0.0,0.346174041,False,,5eb6b8d41cf74d5bbc04cc26,,1129276,77,,evan-feature22,full_pf_a,,1
43,28528,78,,,,2,2,0.0,1.0,0.0,-1.0,,0.0-70.0,,-1.0,1187.12,1.0,0.483677308,1.0,0.5904681070000001,0.0,0.402218411,1.0,0.35344697,False,,5eb6b8d41cf74d5bbc04cc26,,1140240,78,,evan-feature22,full_pf_a,,1
44,28529,79,,,,1,1,0.0,0.0,1.0,0.0,,0.0-71.0,,0.0,2056.725,0.0,0.394210977,0.0,0.558925494,0.0,0.540052017,1.0,0.35182128700000004,False,,5eb6b8d41cf74d5bbc04cc26,,1152075,79,,evan-feature22,full_pf_a,,1
45,28530,80,,,,1,1,1.0,1.0,0.0,-1.0,,0.0-72.0,,-1.0,3042.97,1.0,0.382300414,1.0,0.577670603,0.0,0.607608448,1.0,0.378261578,False,,5eb6b8d41cf74d5bbc04cc26,,1164895,80,,evan-feature22,full_pf_a,,0
46,28531,81,,,,1,1,0.0,1.0,1.0,0.0,,0.0-73.0,,0.0,2875.61,0.0,0.357596762,1.0,0.5929076529999999,0.0,0.6579790010000001,0.0,0.401326777,False,,5eb6b8d41cf74d5bbc04cc26,,1177553,81,,evan-feature22,full_pf_a,,0
47,28532,82,,,,1,1,0.0,1.0,0.0,-1.0,,0.0-74.0,,-1.0,3417.425,0.0,0.362033495,1.0,0.582308608,1.0,0.649195052,0.0,0.355158505,False,,5eb6b8d41cf74d5bbc04cc26,,1190750,82,,evan-feature22,full_pf_a,,0
48,28533,83,,,,2,2,0.0,0.0,0.0,-1.0,,0.0-75.0,,0.0,2313.835,0.0,0.369620635,1.0,0.669100864,0.0,0.706059111,0.0,0.362516241,False,,5eb6b8d41cf74d5bbc04cc26,,1202846,83,,evan-feature22,full_pf_a,,1
49,28534,84,,,,SLOW,SLOW,,,0.0,-1.0,,0.0-76.0,,-3.0,,1.0,0.41477751399999996,1.0,0.7284416779999999,1.0,0.7182656940000001,0.0,0.36228040899999997,False,,5eb6b8d41cf74d5bbc04cc26,,1208658,84,,evan-feature22,full_pf_a,,1
50,28535,85,,,,1,1,1.0,1.0,1.0,0.0,,0.0-77.0,,1.0,3074.94,1.0,0.37675460299999997,1.0,0.703250285,1.0,0.75,0.0,0.461979164,False,,5eb6b8d41cf74d5bbc04cc26,,1221514,85,,evan-feature22,full_pf_a,,1
51,28536,86,,,,1,1,0.0,1.0,1.0,0.0,,0.0-78.0,,0.0,2012.685,0.0,0.398716075,1.0,0.6723864890000001,1.0,0.674153818,0.0,0.519029516,False,,5eb6b8d41cf74d5bbc04cc26,,1233298,86,,evan-feature22,full_pf_a,,0
52,28537,87,,,,1,1,0.0,1.0,1.0,0.0,,0.0-79.0,,0.0,1571.095,0.0,0.34677856700000004,1.0,0.69057175,1.0,0.6822438540000001,1.0,0.477292237,False,,5eb6b8d41cf74d5bbc04cc26,,1244653,87,,evan-feature22,full_pf_a,,0
53,28538,88,,,,2,2,0.0,1.0,0.0,-1.0,,0.0-80.0,,-1.0,1425.72,1.0,0.28580469199999997,1.0,0.68408818,0.0,0.684207565,1.0,0.49780448299999996,False,,5eb6b8d41cf74d5bbc04cc26,,1255863,88,,evan-feature22,full_pf_a,,1
54,28540,90,,,,1,1,0.0,1.0,0.0,-1.0,,0.0-82.0,,-1.0,1701.795,0.0,0.25,1.0,0.7405808970000001,0.0,0.679614108,1.0,0.436436964,False,,5eb6b8d41cf74d5bbc04cc26,,1271108,90,,evan-feature22,full_pf_a,,1
55,28541,91,,,,1,1,1.0,1.0,0.0,-1.0,,0.0-83.0,,-1.0,1456.96,1.0,0.29890393,1.0,0.730505706,1.0,0.7328203320000001,1.0,0.439256938,False,,5eb6b8d41cf74d5bbc04cc26,,1282345,91,,evan-feature22,full_pf_a,,0
56,28542,92,,,,1,1,0.0,1.0,1.0,0.0,,0.0-84.0,,0.0,115.38,0.0,0.326762398,1.0,0.7148059609999999,1.0,0.75,0.0,0.44389608799999997,False,,5eb6b8d41cf74d5bbc04cc26,,1292234,92,,evan-feature22,full_pf_a,,0
57,28543,93,,,,1,1,0.0,1.0,0.0,-1.0,,0.0-85.0,,-1.0,18.815,0.0,0.295168515,1.0,0.739760854,1.0,0.719947008,0.0,0.35277284600000003,False,,5eb6b8d41cf74d5bbc04cc26,,1302032,93,,evan-feature22,full_pf_a,,0
58,28544,94,,,,2,2,1.0,0.0,0.0,-1.0,,0.0-86.0,,0.0,315.465,0.0,0.25,1.0,0.70781482,1.0,0.75,0.0,0.286095925,False,,5eb6b8d41cf74d5bbc04cc26,,1312127,94,,evan-feature22,full_pf_a,,1
59,28545,95,,,,2,2,1.0,1.0,0.0,-1.0,,0.0-87.0,,-1.0,17.235,0.0,0.25638190899999996,1.0,0.704088163,1.0,0.75,1.0,0.26872601399999996,False,,5eb6b8d41cf74d5bbc04cc26,,1321924,95,,evan-feature22,full_pf_a,,0
60,28546,96,,,,1,1,0.0,1.0,1.0,0.0,,0.0-88.0,,0.0,303.54,0.0,0.271581126,1.0,0.669760107,1.0,0.733896663,1.0,0.273244572,False,,5eb6b8d41cf74d5bbc04cc26,,1332010,96,,evan-feature22,full_pf_a,,1
61,28547,97,,,,2,2,0.0,1.0,0.0,-1.0,,0.0-89.0,,-1.0,360.695,0.0,0.257144401,1.0,0.600575706,0.0,0.74488122,1.0,0.25,False,,5eb6b8d41cf74d5bbc04cc26,,1342158,97,,evan-feature22,full_pf_a,,1
62,28548,98,,,,SLOW,SLOW,,,0.0,-1.0,,0.0-90.0,,-3.0,,0.0,0.25,0.0,0.616870026,1.0,0.723610234,0.0,0.25,False,,5eb6b8d41cf74d5bbc04cc26,,1347969,98,,evan-feature22,full_pf_a,,1
63,28549,99,,,,2,2,0.0,1.0,1.0,0.0,,0.0-91.0,,0.0,1502.6,0.0,0.25,1.0,0.583540187,0.0,0.7041042559999999,1.0,0.285961995,False,,5eb6b8d41cf74d5bbc04cc26,,1359249,99,,evan-feature22,full_pf_a,,1
64,28550,100,,,,2,2,1.0,1.0,1.0,0.0,,0.0-92.0,,1.0,226.735,0.0,0.27254536,1.0,0.53875765,1.0,0.693783448,1.0,0.284961652,False,,5eb6b8d41cf74d5bbc04cc26,,1369257,100,,evan-feature22,full_pf_a,,0
65,28551,101,,,,2,2,1.0,1.0,1.0,0.0,,0.0-93.0,,1.0,30.4,0.0,0.25,0.0,0.548431252,1.0,0.734221895,1.0,0.279445214,False,,5eb6b8d41cf74d5bbc04cc26,,1379062,101,,evan-feature22,full_pf_a,,0
66,28552,102,,,,2,2,0.0,1.0,0.0,-1.0,,0.0-94.0,,-1.0,61.42,1.0,0.258640684,0.0,0.545878066,0.0,0.725245965,1.0,0.31487537,False,,5eb6b8d41cf74d5bbc04cc26,,1388897,102,,evan-feature22,full_pf_a,,0
67,28553,103,,,,2,2,1.0,0.0,0.0,-1.0,,0.0-95.0,,0.0,180.48,0.0,0.251103711,0.0,0.5776290629999999,1.0,0.696320133,0.0,0.317831047,False,,5eb6b8d41cf74d5bbc04cc26,,1398852,103,,evan-feature22,full_pf_a,,0
68,28554,104,,,,1,1,0.0,1.0,0.0,-1.0,,0.0-96.0,,-1.0,441.4,0.0,0.276630292,1.0,0.617329858,1.0,0.73838088,0.0,0.261471582,False,,5eb6b8d41cf74d5bbc04cc26,,1409072,104,,evan-feature22,full_pf_a,,1
69,28555,105,,,,2,2,0.0,0.0,0.0,-1.0,,0.0-97.0,,0.0,530.5,0.0,0.297716424,1.0,0.618863717,0.0,0.7402358259999999,0.0,0.262600834,False,,5eb6b8d41cf74d5bbc04cc26,,1419384,105,,evan-feature22,full_pf_a,,1
70,28556,106,,,,2,2,1.0,0.0,1.0,0.0,,0.0-98.0,,1.0,267.585,1.0,0.290935512,1.0,0.695370945,1.0,0.706570507,0.0,0.280030553,False,,5eb6b8d41cf74d5bbc04cc26,,1429430,106,,evan-feature22,full_pf_a,,0
71,28557,107,,,,2,2,0.0,0.0,0.0,-1.0,,0.0-99.0,,0.0,492.11,0.0,0.25,1.0,0.6465277079999999,0.0,0.67766682,0.0,0.25,False,,5eb6b8d41cf74d5bbc04cc26,,1439709,107,,evan-feature22,full_pf_a,,0
72,28558,108,,,,2,2,0.0,0.0,1.0,0.0,,0.0-100.0,,0.0,301.045,0.0,0.26463816,0.0,0.636100213,0.0,0.646048507,0.0,0.265607101,False,,5eb6b8d41cf74d5bbc04cc26,,1449791,108,,evan-feature22,full_pf_a,,0
73,28559,109,,,,2,2,1.0,1.0,1.0,0.0,,0.0-101.0,,1.0,184.495,1.0,0.314340707,1.0,0.667795927,1.0,0.613630805,1.0,0.25,False,,5eb6b8d41cf74d5bbc04cc26,,1459750,109,,evan-feature22,full_pf_a,,0
74,28560,110,,,,1,1,1.0,1.0,0.0,-1.0,,0.0-102.0,,-1.0,92.005,1.0,0.28685784,1.0,0.6622549529999999,0.0,0.652154117,1.0,0.25,False,,5eb6b8d41cf74d5bbc04cc26,,1469618,110,,evan-feature22,full_pf_a,,1
75,28561,111,,,,2,2,1.0,0.0,0.0,-1.0,,0.0-103.0,,0.0,87.945,1.0,0.304106554,1.0,0.631289538,1.0,0.707041942,0.0,0.29314237,False,,5eb6b8d41cf74d5bbc04cc26,,1479485,111,,evan-feature22,full_pf_a,,1
76,28562,112,,,,1,1,0.0,1.0,0.0,-1.0,,0.0-104.0,,-1.0,231.525,0.0,0.304806932,1.0,0.571167718,1.0,0.680472346,0.0,0.25,False,,5eb6b8d41cf74d5bbc04cc26,,1489495,112,,evan-feature22,full_pf_a,,1
77,28563,113,,,,2,2,1.0,0.0,0.0,-1.0,,0.0-105.0,,0.0,197.685,0.0,0.37919861,0.0,0.5724849710000001,1.0,0.705638003,0.0,0.30179300600000003,False,,5eb6b8d41cf74d5bbc04cc26,,1499463,113,,evan-feature22,full_pf_a,,1
78,28564,114,,,,1,1,1.0,1.0,0.0,-1.0,,0.0-106.0,,-1.0,250.53,1.0,0.464277969,1.0,0.554034373,1.0,0.7372627340000001,0.0,0.264699741,False,,5eb6b8d41cf74d5bbc04cc26,,1509501,114,,evan-feature22,full_pf_a,,1
79,28565,115,,,,2,2,1.0,1.0,0.0,-1.0,,0.0-107.0,,-1.0,221.165,1.0,0.465104323,1.0,0.530793115,1.0,0.75,1.0,0.31683071,False,,5eb6b8d41cf74d5bbc04cc26,,1519504,115,,evan-feature22,full_pf_a,,1
80,28566,116,,,,1,1,1.0,1.0,1.0,0.0,,0.0-108.0,,1.0,1980.415,1.0,0.465104323,1.0,0.530793115,1.0,0.75,1.0,0.31683071,False,,5eb6b8d41cf74d5bbc04cc26,,1531269,116,,evan-feature22,full_pf_a,,1
81,28567,117,,,,1,1,0.0,0.0,1.0,0.0,,0.0-109.0,,0.0,3.79,0.0,0.46833986,0.0,0.570249239,1.0,0.7244472590000001,1.0,0.364114163,False,,5eb6b8d41cf74d5bbc04cc26,,1541059,117,,evan-feature22,full_pf_a,,0
82,28568,118,,,,1,1,0.0,0.0,1.0,0.0,,0.0-110.0,,0.0,2983.225,0.0,0.445444024,0.0,0.649673355,1.0,0.6845441290000001,1.0,0.300660449,False,,5eb6b8d41cf74d5bbc04cc26,,1553820,118,,evan-feature22,full_pf_a,,0
83,28569,119,,,,1,1,1.0,1.0,1.0,0.0,,0.0-111.0,,1.0,304.64,1.0,0.39909721299999995,1.0,0.6715179509999999,1.0,0.742310028,0.0,0.35496088299999995,False,,5eb6b8d41cf74d5bbc04cc26,,1563914,119,,evan-feature22,full_pf_a,,0
84,28570,120,,,,2,2,1.0,1.0,0.0,-1.0,,0.0-112.0,,-1.0,69.74,0.0,0.37956104799999996,1.0,0.694725302,1.0,0.7181651309999999,1.0,0.38726906299999997,False,,5eb6b8d41cf74d5bbc04cc26,,1573765,120,,evan-feature22,full_pf_a,,1
85,28571,121,,,,1,1,0.0,1.0,0.0,-1.0,,0.0-113.0,,-1.0,238.185,0.0,0.404995034,1.0,0.724375412,1.0,0.6910946859999999,1.0,0.387187347,False,,5eb6b8d41cf74d5bbc04cc26,,1583785,121,,evan-feature22,full_pf_a,,1
86,28572,122,,,,SLOW,SLOW,,,1.0,0.0,,0.0-114.0,,-3.0,,1.0,0.461740803,1.0,0.75,1.0,0.75,1.0,0.34872038200000005,False,,5eb6b8d41cf74d5bbc04cc26,,1589596,122,,evan-feature22,full_pf_a,,1
87,28573,123,,,,1,1,0.0,1.0,1.0,0.0,,0.0-115.0,,0.0,1016.305,0.0,0.43821380600000004,1.0,0.738833273,1.0,0.728286963,1.0,0.399538128,False,,5eb6b8d41cf74d5bbc04cc26,,1600386,123,,evan-feature22,full_pf_a,,1
88,28574,124,,,,2,2,0.0,0.0,0.0,-1.0,,0.0-116.0,,0.0,42.725,1.0,0.41709882,0.0,0.736666736,0.0,0.75,0.0,0.389095584,False,,5eb6b8d41cf74d5bbc04cc26,,1610207,124,,evan-feature22,full_pf_a,,1
89,28575,125,,,,1,1,1.0,1.0,0.0,-1.0,,0.0-117.0,,-1.0,508.51,1.0,0.39749009799999996,1.0,0.744320029,1.0,0.75,0.0,0.363848678,False,,5eb6b8d41cf74d5bbc04cc26,,1620488,125,,evan-feature22,full_pf_a,,1
90,28576,126,,,,1,1,0.0,1.0,1.0,0.0,,0.0-118.0,,0.0,984.895,0.0,0.392653706,1.0,0.75,1.0,0.75,0.0,0.384386976,False,,5eb6b8d41cf74d5bbc04cc26,,1631248,126,,evan-feature22,full_pf_a,,0
91,28577,127,,,,1,1,0.0,0.0,0.0,-1.0,,0.0-119.0,,0.0,105.415,0.0,0.31190902600000003,0.0,0.75,1.0,0.732413819,1.0,0.413082932,False,,5eb6b8d41cf74d5bbc04cc26,,1641123,127,,evan-feature22,full_pf_a,,0
92,28578,128,,,,1,1,0.0,1.0,1.0,0.0,,0.0-120.0,,0.0,48.87,0.0,0.366917648,1.0,0.740073855,1.0,0.75,0.0,0.352861979,False,,5eb6b8d41cf74d5bbc04cc26,,1650952,128,,evan-feature22,full_pf_a,,0
93,28579,129,,,,2,2,0.0,0.0,1.0,0.0,,0.0-121.0,,0.0,864.02,0.0,0.3645172,0.0,0.721770713,0.0,0.75,0.0,0.404074511,False,,5eb6b8d41cf74d5bbc04cc26,,1661589,129,,evan-feature22,full_pf_a,,1
94,28580,130,,,,1,1,0.0,0.0,1.0,0.0,,0.0-122.0,,0.0,3309.11,0.0,0.35205600299999995,0.0,0.68983859,1.0,0.739735447,1.0,0.366895945,False,,5eb6b8d41cf74d5bbc04cc26,,1674679,130,,evan-feature22,full_pf_a,,1
95,28581,131,,,,2,2,1.0,1.0,1.0,0.0,,0.0-123.0,,1.0,80.985,1.0,0.40998722600000004,1.0,0.720859127,1.0,0.673854955,1.0,0.368528541,False,,5eb6b8d41cf74d5bbc04cc26,,1684538,131,,evan-feature22,full_pf_a,,1
96,28582,132,,,,1,1,0.0,1.0,1.0,0.0,,0.0-124.0,,0.0,293.57,0.0,0.353625316,1.0,0.75,0.0,0.695605473,0.0,0.38303674200000004,False,,5eb6b8d41cf74d5bbc04cc26,,1694613,132,,evan-feature22,full_pf_a,,1
97,28583,133,,,,1,1,0.0,1.0,1.0,0.0,,0.0-125.0,,0.0,314.32,0.0,0.359216989,1.0,0.75,1.0,0.6987915090000001,1.0,0.35169046200000004,False,,5eb6b8d41cf74d5bbc04cc26,,1704701,133,,evan-feature22,full_pf_a,,0
98,28584,134,,,,2,2,1.0,1.0,1.0,0.0,,0.0-126.0,,1.0,58.965,0.0,0.35834496899999996,0.0,0.75,1.0,0.707067742,1.0,0.416763636,False,,5eb6b8d41cf74d5bbc04cc26,,1714538,134,,evan-feature22,full_pf_a,,1
99,28585,135,,,,2,2,1.0,0.0,0.0,-1.0,,0.0-127.0,,0.0,117.515,1.0,0.38741613799999997,1.0,0.7177369570000001,1.0,0.734902455,0.0,0.49438664299999996,False,,5eb6b8d41cf74d5bbc04cc26,,1724430,135,,evan-feature22,full_pf_a,,0
100,28586,136,,,,SLOW,SLOW,,,1.0,0.0,,0.0-128.0,,-3.0,,0.0,0.405255252,1.0,0.7300466640000001,1.0,0.7027748070000001,1.0,0.504359668,False,,5eb6b8d41cf74d5bbc04cc26,,1730241,136,,evan-feature22,full_pf_a,,1
101,28587,137,,,,2,2,0.0,1.0,1.0,0.0,,0.0-129.0,,0.0,798.06,1.0,0.40697073,1.0,0.7260142190000001,0.0,0.724461982,1.0,0.522779179,False,,5eb6b8d41cf74d5bbc04cc26,,1740810,137,,evan-feature22,full_pf_a,,1
102,28588,138,,,,1,1,0.0,1.0,1.0,0.0,,0.0-130.0,,0.0,22.235,0.0,0.43906215299999996,1.0,0.7252802340000001,1.0,0.719079934,1.0,0.5712990579999999,False,,5eb6b8d41cf74d5bbc04cc26,,1750608,138,,evan-feature22,full_pf_a,,1
103,28589,139,,,,1,1,0.0,1.0,0.0,-1.0,,0.0-131.0,,-1.0,339.27,0.0,0.4076705,1.0,0.73280499,1.0,0.681313127,0.0,0.523891346,False,,5eb6b8d41cf74d5bbc04cc26,,1760730,139,,evan-feature22,full_pf_a,,0
104,28590,140,,,,1,1,0.0,1.0,0.0,-1.0,,0.0-132.0,,-1.0,221.285,0.0,0.399102911,1.0,0.730498344,1.0,0.661080239,1.0,0.46742603,False,,5eb6b8d41cf74d5bbc04cc26,,1770732,140,,evan-feature22,full_pf_a,,0
105,28591,141,,,,1,1,1.0,1.0,0.0,-1.0,,0.0-133.0,,-1.0,171.76,1.0,0.356477282,1.0,0.712296395,1.0,0.641812684,1.0,0.44868414,False,,5eb6b8d41cf74d5bbc04cc26,,1780676,141,,evan-feature22,full_pf_a,,0
106,28592,142,,,,2,2,1.0,1.0,1.0,0.0,,0.0-134.0,,1.0,2506.455,1.0,0.462760722,1.0,0.692349322,1.0,0.700947931,1.0,0.394680266,False,,5eb6b8d41cf74d5bbc04cc26,,1792957,142,,evan-feature22,full_pf_a,,1
107,28593,143,,,,1,1,1.0,1.0,1.0,0.0,,0.0-135.0,,1.0,102.61,1.0,0.422306413,1.0,0.718375916,0.0,0.706340917,0.0,0.367787185,False,,5eb6b8d41cf74d5bbc04cc26,,1802836,143,,evan-feature22,full_pf_a,,1
108,28595,145,,,,2,2,1.0,0.0,1.0,0.0,,0.0-137.0,,1.0,2169.12,0.0,0.4582233,1.0,0.643834117,1.0,0.75,0.0,0.39615823299999997,False,,5eb6b8d41cf74d5bbc04cc26,,1818475,145,,evan-feature22,full_pf_a,,1
109,28596,146,,,,1,1,0.0,0.0,1.0,0.0,,0.0-138.0,,0.0,125.31,0.0,0.43813437899999996,0.0,0.651283804,1.0,0.729674191,1.0,0.37711048,False,,5eb6b8d41cf74d5bbc04cc26,,1828379,146,,evan-feature22,full_pf_a,,1
110,28597,147,,,,2,2,0.0,0.0,1.0,0.0,,0.0-139.0,,0.0,114.735,1.0,0.471199094,0.0,0.6470010979999999,0.0,0.715008097,0.0,0.410656191,False,,5eb6b8d41cf74d5bbc04cc26,,1838274,147,,evan-feature22,full_pf_a,,1
111,28598,148,,,,1,1,1.0,0.0,1.0,0.0,,0.0-140.0,,1.0,204.045,1.0,0.42486406,0.0,0.629771829,0.0,0.6550939960000001,1.0,0.459093873,False,,5eb6b8d41cf74d5bbc04cc26,,1848263,148,,evan-feature22,full_pf_a,,1
112,28599,149,,,,2,2,1.0,1.0,1.0,0.0,,0.0-141.0,,1.0,303.455,1.0,0.4803197,1.0,0.645842715,1.0,0.6421749920000001,1.0,0.443092151,False,,5eb6b8d41cf74d5bbc04cc26,,1858339,149,,evan-feature22,full_pf_a,,1
113,28600,150,,,,1,1,0.0,1.0,0.0,-1.0,,0.0-142.0,,-1.0,100.44,0.0,0.521848997,1.0,0.735801074,1.0,0.6691348460000001,0.0,0.45259351600000003,False,,5eb6b8d41cf74d5bbc04cc26,,1868210,150,,evan-feature22,full_pf_a,,1
114,28601,151,,,,2,2,1.0,0.0,1.0,0.0,,0.0-143.0,,1.0,189.02,0.0,0.49565621299999996,1.0,0.742400847,1.0,0.661512553,0.0,0.483110831,False,,5eb6b8d41cf74d5bbc04cc26,,1878180,151,,evan-feature22,full_pf_a,,1
115,28602,152,,,,1,1,0.0,1.0,1.0,0.0,,0.0-144.0,,0.0,179.05,0.0,0.521564361,1.0,0.731078632,0.0,0.6774886809999999,0.0,0.483263956,False,,5eb6b8d41cf74d5bbc04cc26,,1888130,152,,evan-feature22,full_pf_a,,1
116,28603,153,,,,1,1,1.0,1.0,1.0,0.0,,0.0-145.0,,1.0,259.995,1.0,0.558893102,1.0,0.719810023,0.0,0.67461031,0.0,0.499349834,False,,5eb6b8d41cf74d5bbc04cc26,,1898165,153,,evan-feature22,full_pf_a,,0
117,28604,154,,,,2,2,0.0,1.0,1.0,0.0,,0.0-146.0,,0.0,13.355,1.0,0.611031046,1.0,0.75,0.0,0.688072995,1.0,0.5321422729999999,False,,5eb6b8d41cf74d5bbc04cc26,,1907954,154,,evan-feature22,full_pf_a,,1
118,28605,155,,,,2,2,1.0,0.0,0.0,-1.0,,0.0-147.0,,0.0,27.54,0.0,0.633223941,1.0,0.713567728,1.0,0.75,0.0,0.48185314700000004,False,,5eb6b8d41cf74d5bbc04cc26,,1917760,155,,evan-feature22,full_pf_a,,0
119,28606,156,,,,2,2,0.0,0.0,1.0,0.0,,0.0-148.0,,0.0,32.995,0.0,0.664001694,0.0,0.705509768,0.0,0.75,0.0,0.500211065,False,,5eb6b8d41cf74d5bbc04cc26,,1927564,156,,evan-feature22,full_pf_a,,0
120,28607,157,,,,1,1,1.0,0.0,1.0,0.0,,0.0-149.0,,1.0,54.32,1.0,0.664001694,0.0,0.705509768,1.0,0.75,1.0,0.500211065,False,,5eb6b8d41cf74d5bbc04cc26,,1937391,157,,evan-feature22,full_pf_a,,1
121,28608,158,,,,1,1,1.0,1.0,1.0,0.0,,0.0-150.0,,1.0,140.41,1.0,0.696508041,1.0,0.71066027,1.0,0.717028709,0.0,0.49792991,False,,5eb6b8d41cf74d5bbc04cc26,,1947316,158,,evan-feature22,full_pf_a,,0
122,28609,159,,,,1,1,1.0,0.0,0.0,-1.0,,0.0-151.0,,0.0,129.37,1.0,0.699883272,0.0,0.75,0.0,0.713543895,1.0,0.496962643,False,,5eb6b8d41cf74d5bbc04cc26,,1957218,159,,evan-feature22,full_pf_a,,0
123,28610,160,,,,2,2,1.0,0.0,0.0,-1.0,,0.0-152.0,,0.0,402.89,0.0,0.741163419,1.0,0.75,1.0,0.64691024,0.0,0.513858197,False,,5eb6b8d41cf74d5bbc04cc26,,1967394,160,,evan-feature22,full_pf_a,,1
124,28611,161,,,,1,1,1.0,1.0,0.0,-1.0,,0.0-153.0,,-1.0,54.065,1.0,0.75,1.0,0.70816558,0.0,0.594499079,1.0,0.48502124,False,,5eb6b8d41cf74d5bbc04cc26,,1977227,161,,evan-feature22,full_pf_a,,1
125,28612,162,,,,1,1,0.0,1.0,1.0,0.0,,0.0-154.0,,0.0,308.975,0.0,0.75,1.0,0.721848901,1.0,0.62197249,1.0,0.48263586399999997,False,,5eb6b8d41cf74d5bbc04cc26,,1987321,162,,evan-feature22,full_pf_a,,0
126,28613,163,,,,1,1,1.0,0.0,1.0,0.0,,0.0-155.0,,1.0,128.84,1.0,0.75,0.0,0.74813071,1.0,0.584357161,0.0,0.411477782,False,,5eb6b8d41cf74d5bbc04cc26,,1997217,163,,evan-feature22,full_pf_a,,0
127,28614,164,,,,1,1,0.0,1.0,1.0,0.0,,0.0-156.0,,0.0,240.92,0.0,0.75,1.0,0.75,0.0,0.52287236,1.0,0.488290656,False,,5eb6b8d41cf74d5bbc04cc26,,2007232,164,,evan-feature22,full_pf_a,,0
128,28615,165,,,,1,1,1.0,1.0,1.0,0.0,,0.0-157.0,,1.0,116.71,1.0,0.75,1.0,0.75,0.0,0.544321581,1.0,0.53143059,False,,5eb6b8d41cf74d5bbc04cc26,,2017131,165,,evan-feature22,full_pf_a,,0
129,28616,166,,,,1,1,1.0,1.0,1.0,0.0,,0.0-158.0,,1.0,202.29,1.0,0.726754564,1.0,0.75,1.0,0.5129306370000001,1.0,0.530592445,False,,5eb6b8d41cf74d5bbc04cc26,,2027112,166,,evan-feature22,full_pf_a,,0
130,28617,167,,,,1,1,1.0,0.0,0.0,-1.0,,0.0-159.0,,0.0,140.125,1.0,0.75,0.0,0.7392590729999999,0.0,0.479875835,1.0,0.547007051,False,,5eb6b8d41cf74d5bbc04cc26,,2037041,167,,evan-feature22,full_pf_a,,0
131,28618,168,,,,1,1,1.0,1.0,0.0,-1.0,,0.0-160.0,,-1.0,124.29,1.0,0.75,1.0,0.7393376979999999,0.0,0.546045419,1.0,0.541267353,False,,5eb6b8d41cf74d5bbc04cc26,,2046938,168,,evan-feature22,full_pf_a,,0
132,28619,169,,,,1,1,1.0,0.0,1.0,0.0,,0.0-161.0,,1.0,228.53,1.0,0.75,0.0,0.75,1.0,0.485725895,0.0,0.527625395,False,,5eb6b8d41cf74d5bbc04cc26,,2056951,169,,evan-feature22,full_pf_a,,0
133,28620,170,,,,1,1,1.0,1.0,0.0,-1.0,,0.0-162.0,,-1.0,56.62,1.0,0.75,1.0,0.725087974,0.0,0.488603595,0.0,0.504019206,False,,5eb6b8d41cf74d5bbc04cc26,,2066781,170,,evan-feature22,full_pf_a,,0
134,28621,171,,,,2,2,0.0,1.0,1.0,0.0,,0.0-163.0,,0.0,833.785,0.0,0.745504295,1.0,0.75,0.0,0.452379914,1.0,0.50131194,False,,5eb6b8d41cf74d5bbc04cc26,,2077387,171,,evan-feature22,full_pf_a,,1
135,28622,172,,,,1,1,0.0,1.0,0.0,-1.0,,0.0-164.0,,-1.0,60.475,0.0,0.728513874,1.0,0.75,1.0,0.44125567200000004,0.0,0.531454591,False,,5eb6b8d41cf74d5bbc04cc26,,2087223,172,,evan-feature22,full_pf_a,,1
136,28623,173,,,,1,1,1.0,0.0,1.0,0.0,,0.0-165.0,,1.0,0.64,1.0,0.73790804,0.0,0.75,1.0,0.413036656,1.0,0.524619035,False,,5eb6b8d41cf74d5bbc04cc26,,2097001,173,,evan-feature22,full_pf_a,,0
137,28624,174,,,,1,1,0.0,1.0,1.0,0.0,,0.0-166.0,,0.0,138.52,0.0,0.7080961309999999,1.0,0.708666865,1.0,0.431915581,0.0,0.481819489,False,,5eb6b8d41cf74d5bbc04cc26,,2106913,174,,evan-feature22,full_pf_a,,0
138,28625,175,,,,1,1,1.0,0.0,1.0,0.0,,0.0-167.0,,1.0,765.85,1.0,0.721378003,0.0,0.71605913,0.0,0.36642387,0.0,0.5036739929999999,False,,5eb6b8d41cf74d5bbc04cc26,,2117454,175,,evan-feature22,full_pf_a,,0
139,28626,176,,,,2,2,1.0,0.0,0.0,-1.0,,0.0-168.0,,0.0,1917.935,1.0,0.7340618959999999,0.0,0.699323252,1.0,0.35298046299999997,0.0,0.511241692,False,,5eb6b8d41cf74d5bbc04cc26,,2129144,176,,evan-feature22,full_pf_a,,1
140,28627,177,,,,1,1,1.0,1.0,0.0,-1.0,,0.0-169.0,,-1.0,266.52,1.0,0.75,1.0,0.70412698,1.0,0.380734814,0.0,0.529580116,False,,5eb6b8d41cf74d5bbc04cc26,,2139191,177,,evan-feature22,full_pf_a,,1
141,28628,178,,,,2,2,0.0,1.0,0.0,-1.0,,0.0-170.0,,-1.0,192.16,1.0,0.7436654909999999,0.0,0.711182751,0.0,0.41125331,1.0,0.49554405,False,,5eb6b8d41cf74d5bbc04cc26,,2149160,178,,evan-feature22,full_pf_a,,1
142,28629,179,,,,2,2,0.0,0.0,1.0,0.0,,0.0-171.0,,0.0,734.905,1.0,0.731607915,0.0,0.651774583,0.0,0.35688023,0.0,0.45194491600000003,False,,5eb6b8d41cf74d5bbc04cc26,,2159668,179,,evan-feature22,full_pf_a,,0
143,28630,180,,,,1,1,1.0,1.0,0.0,-1.0,,0.0-172.0,,-1.0,96.99,1.0,0.75,1.0,0.75,0.0,0.283145374,0.0,0.528608005,False,,5eb6b8d41cf74d5bbc04cc26,,2169544,180,,evan-feature22,full_pf_a,,1
144,28631,181,,,,1,1,1.0,1.0,1.0,0.0,,0.0-173.0,,1.0,58.205,1.0,0.7491416890000001,1.0,0.7423785959999999,0.0,0.29135870399999997,1.0,0.498888318,False,,5eb6b8d41cf74d5bbc04cc26,,2179376,181,,evan-feature22,full_pf_a,,0
145,28632,182,,,,1,1,1.0,1.0,0.0,-1.0,,0.0-174.0,,-1.0,693.855,1.0,0.708569387,1.0,0.717682277,0.0,0.294421699,1.0,0.493838163,False,,5eb6b8d41cf74d5bbc04cc26,,2189854,182,,evan-feature22,full_pf_a,,0
146,28633,183,,,,1,1,1.0,1.0,1.0,0.0,,0.0-175.0,,1.0,352.325,1.0,0.75,1.0,0.7383382159999999,0.0,0.356098707,1.0,0.442533405,False,,5eb6b8d41cf74d5bbc04cc26,,2199982,183,,evan-feature22,full_pf_a,,0
147,28634,184,,,,2,2,1.0,0.0,1.0,0.0,,0.0-176.0,,1.0,740.515,1.0,0.744527075,1.0,0.75,1.0,0.334127506,0.0,0.393165805,False,,5eb6b8d41cf74d5bbc04cc26,,2210503,184,,evan-feature22,full_pf_a,,1
148,28635,185,,,,2,2,1.0,0.0,1.0,0.0,,0.0-177.0,,1.0,75.49,1.0,0.75,1.0,0.75,1.0,0.33571021799999995,0.0,0.350393962,False,,5eb6b8d41cf74d5bbc04cc26,,2220359,185,,evan-feature22,full_pf_a,,0
149,28636,186,,,,1,1,0.0,0.0,0.0,-1.0,,0.0-178.0,,0.0,114.9,0.0,0.75,0.0,0.75,1.0,0.313628297,0.0,0.36349657399999996,False,,5eb6b8d41cf74d5bbc04cc26,,2230247,186,,evan-feature22,full_pf_a,,1
150,28637,187,,,,2,2,1.0,0.0,1.0,0.0,,0.0-179.0,,1.0,243.12,1.0,0.75,1.0,0.734284182,1.0,0.262667667,0.0,0.380199119,False,,5eb6b8d41cf74d5bbc04cc26,,2240261,187,,evan-feature22,full_pf_a,,1
151,28638,188,,,,2,2,0.0,0.0,1.0,0.0,,0.0-180.0,,0.0,78.27,1.0,0.75,0.0,0.75,0.0,0.25,0.0,0.394494013,False,,5eb6b8d41cf74d5bbc04cc26,,2250116,188,,evan-feature22,full_pf_a,,0
152,28639,189,,,,1,1,1.0,1.0,1.0,0.0,,0.0-181.0,,1.0,144.695,1.0,0.722298145,1.0,0.7357822340000001,0.0,0.25,0.0,0.319142121,False,,5eb6b8d41cf74d5bbc04cc26,,2260035,189,,evan-feature22,full_pf_a,,1
153,28640,190,,,,1,1,0.0,0.0,1.0,0.0,,0.0-182.0,,0.0,302.42,0.0,0.73149275,0.0,0.724276446,0.0,0.305856907,0.0,0.281315057,False,,5eb6b8d41cf74d5bbc04cc26,,2270124,190,,evan-feature22,full_pf_a,,0
154,28641,191,,,,1,1,0.0,1.0,1.0,0.0,,0.0-183.0,,0.0,45.505,0.0,0.7458732690000001,1.0,0.7336382459999999,0.0,0.272571964,0.0,0.266021999,False,,5eb6b8d41cf74d5bbc04cc26,,2279943,191,,evan-feature22,full_pf_a,,0
155,28642,192,,,,2,2,0.0,0.0,0.0,-1.0,,0.0-184.0,,0.0,154.705,0.0,0.705579037,1.0,0.720778292,0.0,0.320238144,0.0,0.30971744,False,,5eb6b8d41cf74d5bbc04cc26,,2289881,192,,evan-feature22,full_pf_a,,1
156,28643,193,,,,1,1,0.0,1.0,0.0,-1.0,,0.0-185.0,,-1.0,208.93,0.0,0.700425648,1.0,0.7198784009999999,0.0,0.272590393,0.0,0.304182931,False,,5eb6b8d41cf74d5bbc04cc26,,2299871,193,,evan-feature22,full_pf_a,,1
157,28644,194,,,,1,1,1.0,1.0,0.0,-1.0,,0.0-186.0,,-1.0,50.965,1.0,0.735590785,1.0,0.722714973,1.0,0.25,0.0,0.323421091,False,,5eb6b8d41cf74d5bbc04cc26,,2309700,194,,evan-feature22,full_pf_a,,0
158,28645,195,,,,2,2,0.0,0.0,0.0,-1.0,,0.0-187.0,,0.0,101.795,1.0,0.724807662,0.0,0.63146213,0.0,0.36836492600000004,0.0,0.34592153299999995,False,,5eb6b8d41cf74d5bbc04cc26,,2319582,195,,evan-feature22,full_pf_a,,1
159,28646,196,,,,1,1,0.0,1.0,1.0,0.0,,0.0-188.0,,0.0,14.23,0.0,0.7352796909999999,1.0,0.555111392,0.0,0.36003922,0.0,0.31433779999999995,False,,5eb6b8d41cf74d5bbc04cc26,,2329376,196,,evan-feature22,full_pf_a,,1
160,28647,197,notice,,,,,,,,,,0.0-189.0,"{""Q0"":""no""}",,13234.0,,,,,,,,,False,,5eb6b8d41cf74d5bbc04cc26,,2342611,197,Q,survey-text,full_pf_a,,1
161,28648,198,track1,,[1],,,,,,,,0.0-190.0,"{""Q0"":""no""}",,6189.0,,,,,,,,,False,,5eb6b8d41cf74d5bbc04cc26,,2348803,198,Q,evan-quiz,full_pf_a,,1
162,28649,199,track2,,[0],,,,,,,,0.0-191.0,"{""Q0"":""yes""}",,6829.0,,,,,,,,,False,,5eb6b8d41cf74d5bbc04cc26,,2355635,199,Q,evan-quiz,full_pf_a,,1
163,28650,200,strat,,,,,,,,,,0.0-192.0,"{""Q0"":""i tried to stay on the yellow alien so i can get more points""}",,24557.0,,,,,,,,,False,,5eb6b8d41cf74d5bbc04cc26,,2380194,200,Q,survey-text,full_pf_a,,1
