,index,Unnamed: 0,Q_name,button_pressed,choice_idxs,chosen_pos,chosen_state,chosen_state_f_1_outcome,chosen_state_f_2_outcome,f_1_reward,f_2_reward,incor_questions,internal_node_id,responses,reward_received,rt,s_1_f_1_outcome,s_1_f_1_prob,s_1_f_2_outcome,s_1_f_2_prob,s_2_f_1_outcome,s_2_f_1_prob,s_2_f_2_outcome,s_2_f_2_prob,safe_first,stimulus,subjectID,success,time_elapsed,trial_index,trial_num,trial_type,version,view_history,switching
0,41306,30,,,,2,2,1.0,1.0,-1.0,0.0,,0.0-27.0,,-1.0,1814.0,1.0,0.6,0.0,0.6,1.0,0.4,1.0,0.4,False,,5ebb10a81635db0ce24f187a,,723079,30,,evan-feature22,full_pf_b,,0
1,41307,31,,,,1,1,1.0,0.0,-1.0,0.0,,0.0-28.0,,-1.0,395.0,1.0,0.608053294,0.0,0.63424552,0.0,0.397152172,0.0,0.347069101,False,,5ebb10a81635db0ce24f187a,,733238,31,,evan-feature22,full_pf_b,,1
2,41308,32,,,,1,1,1.0,1.0,-1.0,0.0,,0.0-29.0,,-1.0,259.0,1.0,0.642237155,1.0,0.648566321,1.0,0.389407674,0.0,0.285525717,False,,5ebb10a81635db0ce24f187a,,743261,32,,evan-feature22,full_pf_b,,0
3,41309,33,,,,2,2,0.0,0.0,-1.0,0.0,,0.0-30.0,,0.0,1191.0,1.0,0.661086576,0.0,0.630492543,0.0,0.399058924,0.0,0.25,False,,5ebb10a81635db0ce24f187a,,754215,33,,evan-feature22,full_pf_b,,1
4,41310,34,,,,2,2,0.0,0.0,0.0,1.0,,0.0-31.0,,0.0,309.0,0.0,0.631324137,0.0,0.6269842929999999,0.0,0.38734784299999997,0.0,0.25,False,,5ebb10a81635db0ce24f187a,,764286,34,,evan-feature22,full_pf_b,,0
5,41311,35,,,,2,2,0.0,0.0,0.0,1.0,,0.0-32.0,,0.0,274.0,0.0,0.6381991370000001,1.0,0.68987999,0.0,0.384107265,0.0,0.271332943,False,,5ebb10a81635db0ce24f187a,,774320,35,,evan-feature22,full_pf_b,,0
6,41312,36,,,,2,2,0.0,0.0,-1.0,0.0,,0.0-33.0,,0.0,544.0,1.0,0.66034901,1.0,0.742641349,0.0,0.360225629,0.0,0.25,False,,5ebb10a81635db0ce24f187a,,784626,36,,evan-feature22,full_pf_b,,0
7,41313,37,,,,1,1,0.0,1.0,-1.0,0.0,,0.0-34.0,,0.0,390.0,0.0,0.638612418,1.0,0.75,1.0,0.367273939,0.0,0.25,False,,5ebb10a81635db0ce24f187a,,794778,37,,evan-feature22,full_pf_b,,1
8,41314,38,,,,1,1,0.0,0.0,0.0,1.0,,0.0-35.0,,0.0,63.0,0.0,0.624340629,0.0,0.75,0.0,0.425829545,0.0,0.25,False,,5ebb10a81635db0ce24f187a,,804602,38,,evan-feature22,full_pf_b,,0
9,41315,39,,,,1,1,0.0,1.0,0.0,1.0,,0.0-36.0,,1.0,355.0,0.0,0.621999804,1.0,0.75,0.0,0.368609357,1.0,0.25,False,,5ebb10a81635db0ce24f187a,,814719,39,,evan-feature22,full_pf_b,,0
10,41316,40,,,,1,1,0.0,1.0,-1.0,0.0,,0.0-37.0,,0.0,689.0,0.0,0.62666403,1.0,0.75,1.0,0.311151498,1.0,0.25,False,,5ebb10a81635db0ce24f187a,,825170,40,,evan-feature22,full_pf_b,,0
11,41317,41,,,,2,2,0.0,0.0,0.0,1.0,,0.0-38.0,,0.0,590.0,1.0,0.6819650009999999,1.0,0.75,0.0,0.310763048,0.0,0.25,False,,5ebb10a81635db0ce24f187a,,835521,41,,evan-feature22,full_pf_b,,1
12,41318,42,,,,2,2,0.0,0.0,-1.0,0.0,,0.0-39.0,,0.0,56.0,1.0,0.740626951,1.0,0.75,0.0,0.25,0.0,0.25,False,,5ebb10a81635db0ce24f187a,,845341,42,,evan-feature22,full_pf_b,,0
13,41319,43,,,,1,1,1.0,1.0,-1.0,0.0,,0.0-40.0,,-1.0,411.0,1.0,0.739599242,1.0,0.742034978,0.0,0.25397114600000004,0.0,0.25,False,,5ebb10a81635db0ce24f187a,,855515,43,,evan-feature22,full_pf_b,,1
14,41320,44,,,,1,1,1.0,1.0,-1.0,0.0,,0.0-41.0,,-1.0,362.0,1.0,0.732341315,1.0,0.72735643,0.0,0.25,0.0,0.25,False,,5ebb10a81635db0ce24f187a,,865639,44,,evan-feature22,full_pf_b,,0
15,41321,45,,,,2,2,0.0,0.0,-1.0,0.0,,0.0-42.0,,0.0,337.0,1.0,0.7062287770000001,1.0,0.75,0.0,0.29002151,0.0,0.288256649,False,,5ebb10a81635db0ce24f187a,,875736,45,,evan-feature22,full_pf_b,,1
16,41322,46,,,,2,2,0.0,0.0,-1.0,0.0,,0.0-43.0,,0.0,618.0,0.0,0.7086029209999999,1.0,0.75,0.0,0.274129113,0.0,0.262851608,False,,5ebb10a81635db0ce24f187a,,886115,46,,evan-feature22,full_pf_b,,0
17,41323,47,,,,1,1,1.0,1.0,-1.0,0.0,,0.0-44.0,,-1.0,401.0,1.0,0.669189651,1.0,0.727614338,0.0,0.298444036,0.0,0.296944518,False,,5ebb10a81635db0ce24f187a,,896278,47,,evan-feature22,full_pf_b,,1
18,41324,48,,,,2,2,0.0,0.0,-1.0,0.0,,0.0-45.0,,0.0,581.0,1.0,0.6819912929999999,1.0,0.7179434290000001,0.0,0.265003961,0.0,0.28157921199999997,False,,5ebb10a81635db0ce24f187a,,906622,48,,evan-feature22,full_pf_b,,1
19,41325,49,,,,1,1,1.0,1.0,0.0,1.0,,0.0-46.0,,1.0,746.0,1.0,0.665275002,1.0,0.723065271,1.0,0.260414971,0.0,0.30973870000000003,False,,5ebb10a81635db0ce24f187a,,917130,49,,evan-feature22,full_pf_b,,1
20,41326,50,,,,1,1,1.0,1.0,-1.0,0.0,,0.0-47.0,,-1.0,658.0,1.0,0.6660593260000001,1.0,0.728032907,0.0,0.30922817,0.0,0.338778608,False,,5ebb10a81635db0ce24f187a,,927550,50,,evan-feature22,full_pf_b,,0
21,41327,51,,,,2,2,0.0,0.0,-1.0,0.0,,0.0-48.0,,0.0,356.0,0.0,0.702068785,0.0,0.6528750879999999,0.0,0.287329608,0.0,0.35789613200000003,False,,5ebb10a81635db0ce24f187a,,937668,51,,evan-feature22,full_pf_b,,1
22,41328,52,,,,1,1,1.0,0.0,-1.0,0.0,,0.0-49.0,,-1.0,557.0,1.0,0.651939787,0.0,0.636725589,0.0,0.284834488,1.0,0.358563756,False,,5ebb10a81635db0ce24f187a,,947988,52,,evan-feature22,full_pf_b,,1
23,41329,53,,,,1,1,0.0,0.0,0.0,1.0,,0.0-50.0,,0.0,2592.0,0.0,0.67573929,0.0,0.612550049,1.0,0.37130387600000003,1.0,0.383542402,False,,5ebb10a81635db0ce24f187a,,960342,53,,evan-feature22,full_pf_b,,0
24,41330,54,,,,2,2,1.0,0.0,0.0,1.0,,0.0-51.0,,0.0,1382.0,1.0,0.620753801,0.0,0.60513644,1.0,0.385529434,0.0,0.340361743,False,,5ebb10a81635db0ce24f187a,,971487,54,,evan-feature22,full_pf_b,,1
25,41331,55,,,,2,2,0.0,0.0,0.0,1.0,,0.0-52.0,,0.0,1162.0,1.0,0.673564893,1.0,0.672437924,0.0,0.292955382,0.0,0.337633795,False,,5ebb10a81635db0ce24f187a,,982410,55,,evan-feature22,full_pf_b,,0
26,41332,56,,,,1,1,0.0,1.0,-1.0,0.0,,0.0-53.0,,0.0,897.0,0.0,0.6749427,1.0,0.724197502,0.0,0.32391132100000003,1.0,0.350995264,False,,5ebb10a81635db0ce24f187a,,993070,56,,evan-feature22,full_pf_b,,1
27,41333,57,,,,1,1,1.0,0.0,-1.0,0.0,,0.0-54.0,,-1.0,594.0,1.0,0.6940159379999999,0.0,0.75,0.0,0.31710554399999996,1.0,0.413450341,False,,5ebb10a81635db0ce24f187a,,1003427,57,,evan-feature22,full_pf_b,,0
28,41334,58,,,,SLOW,SLOW,,,-1.0,0.0,,0.0-55.0,,-3.0,,1.0,0.6916018270000001,1.0,0.69001187,1.0,0.261817804,0.0,0.40038635,False,,5ebb10a81635db0ce24f187a,,1009233,58,,evan-feature22,full_pf_b,,1
29,41335,59,,,,1,1,1.0,1.0,-1.0,0.0,,0.0-56.0,,-1.0,360.0,1.0,0.641061544,1.0,0.71337992,0.0,0.277296461,1.0,0.47372791700000005,False,,5ebb10a81635db0ce24f187a,,1019355,59,,evan-feature22,full_pf_b,,1
30,41336,60,,,,1,1,1.0,1.0,-1.0,0.0,,0.0-57.0,,-1.0,1695.0,1.0,0.6082438520000001,1.0,0.708471106,0.0,0.28745137,0.0,0.564174476,False,,5ebb10a81635db0ce24f187a,,1030813,60,,evan-feature22,full_pf_b,,0
31,41337,61,,,,2,2,0.0,0.0,-1.0,0.0,,0.0-58.0,,0.0,607.0,1.0,0.6051112120000001,1.0,0.7118147229999999,0.0,0.272390611,0.0,0.5595149939999999,False,,5ebb10a81635db0ce24f187a,,1041183,61,,evan-feature22,full_pf_b,,1
32,41338,62,,,,1,1,0.0,1.0,-1.0,0.0,,0.0-59.0,,0.0,1021.0,0.0,0.582420852,1.0,0.635867583,1.0,0.31089574,0.0,0.5227206520000001,False,,5ebb10a81635db0ce24f187a,,1051981,62,,evan-feature22,full_pf_b,,1
33,41339,63,,,,1,1,0.0,1.0,0.0,1.0,,0.0-60.0,,1.0,423.0,0.0,0.623195575,1.0,0.655026044,1.0,0.25,0.0,0.560387538,False,,5ebb10a81635db0ce24f187a,,1062167,63,,evan-feature22,full_pf_b,,0
34,41340,64,,,,1,1,0.0,1.0,-1.0,0.0,,0.0-61.0,,0.0,600.0,0.0,0.601889598,1.0,0.678198724,0.0,0.25,1.0,0.559922936,False,,5ebb10a81635db0ce24f187a,,1072528,64,,evan-feature22,full_pf_b,,0
35,41341,65,,,,1,1,1.0,1.0,-1.0,0.0,,0.0-62.0,,-1.0,756.0,1.0,0.601259914,1.0,0.704681482,0.0,0.33908969299999997,1.0,0.505003715,False,,5ebb10a81635db0ce24f187a,,1083046,65,,evan-feature22,full_pf_b,,0
36,41342,66,,,,1,1,1.0,1.0,-1.0,0.0,,0.0-63.0,,-1.0,327.0,1.0,0.59645454,1.0,0.710437172,1.0,0.327441879,1.0,0.391749613,False,,5ebb10a81635db0ce24f187a,,1093136,66,,evan-feature22,full_pf_b,,0
37,41343,67,,,,2,2,0.0,0.0,-1.0,0.0,,0.0-64.0,,0.0,522.0,0.0,0.529473,1.0,0.636758527,0.0,0.301338063,0.0,0.365661481,False,,5ebb10a81635db0ce24f187a,,1103420,67,,evan-feature22,full_pf_b,,1
38,41344,68,,,,1,1,1.0,0.0,0.0,1.0,,0.0-65.0,,0.0,903.0,1.0,0.541657162,0.0,0.634541962,0.0,0.343535366,1.0,0.371763742,False,,5ebb10a81635db0ce24f187a,,1114085,68,,evan-feature22,full_pf_b,,1
39,41345,69,,,,1,1,1.0,0.0,-1.0,0.0,,0.0-66.0,,-1.0,558.0,1.0,0.5707533260000001,0.0,0.589121171,1.0,0.326428396,1.0,0.43961622899999997,False,,5ebb10a81635db0ce24f187a,,1124405,69,,evan-feature22,full_pf_b,,0
40,41346,70,,,,1,1,0.0,0.0,-1.0,0.0,,0.0-67.0,,0.0,480.0,0.0,0.5707533260000001,0.0,0.589121171,0.0,0.326428396,0.0,0.43961622899999997,False,,5ebb10a81635db0ce24f187a,,1134647,70,,evan-feature22,full_pf_b,,0
41,41347,71,,,,1,1,1.0,1.0,-1.0,0.0,,0.0-68.0,,-1.0,615.0,1.0,0.506271295,1.0,0.641775594,1.0,0.37149690700000004,1.0,0.404330166,False,,5ebb10a81635db0ce24f187a,,1145025,71,,evan-feature22,full_pf_b,,0
42,41348,72,,,,2,2,1.0,0.0,0.0,1.0,,0.0-69.0,,0.0,348.0,1.0,0.455642565,1.0,0.623605825,1.0,0.358753011,0.0,0.346174041,False,,5ebb10a81635db0ce24f187a,,1155136,72,,evan-feature22,full_pf_b,,1
43,41349,73,,,,2,2,0.0,1.0,0.0,1.0,,0.0-70.0,,1.0,1648.0,0.0,0.483677308,1.0,0.5904681070000001,0.0,0.402218411,1.0,0.35344697,False,,5ebb10a81635db0ce24f187a,,1166546,73,,evan-feature22,full_pf_b,,0
44,41350,74,,,,2,2,1.0,0.0,0.0,1.0,,0.0-71.0,,0.0,755.0,0.0,0.394210977,1.0,0.558925494,1.0,0.540052017,0.0,0.35182128700000004,False,,5ebb10a81635db0ce24f187a,,1177063,74,,evan-feature22,full_pf_b,,0
45,41351,75,,,,2,2,1.0,0.0,-1.0,0.0,,0.0-72.0,,-1.0,745.0,0.0,0.382300414,0.0,0.577670603,1.0,0.607608448,0.0,0.378261578,False,,5ebb10a81635db0ce24f187a,,1187571,75,,evan-feature22,full_pf_b,,0
46,41352,76,,,,SLOW,SLOW,,,-1.0,0.0,,0.0-73.0,,-3.0,,1.0,0.357596762,1.0,0.5929076529999999,1.0,0.6579790010000001,0.0,0.401326777,False,,5ebb10a81635db0ce24f187a,,1193377,76,,evan-feature22,full_pf_b,,1
47,41353,77,,,,1,1,1.0,1.0,-1.0,0.0,,0.0-74.0,,-1.0,410.0,1.0,0.362033495,1.0,0.582308608,1.0,0.649195052,1.0,0.355158505,False,,5ebb10a81635db0ce24f187a,,1203549,77,,evan-feature22,full_pf_b,,1
48,41354,78,,,,2,2,0.0,0.0,-1.0,0.0,,0.0-75.0,,0.0,316.0,0.0,0.369620635,0.0,0.669100864,0.0,0.706059111,0.0,0.362516241,False,,5ebb10a81635db0ce24f187a,,1213627,78,,evan-feature22,full_pf_b,,1
49,41355,79,,,,2,2,1.0,1.0,-1.0,0.0,,0.0-76.0,,-1.0,674.0,1.0,0.41477751399999996,1.0,0.7284416779999999,1.0,0.7182656940000001,1.0,0.36228040899999997,False,,5ebb10a81635db0ce24f187a,,1224065,79,,evan-feature22,full_pf_b,,0
50,41356,80,,,,2,2,1.0,1.0,0.0,1.0,,0.0-77.0,,1.0,1369.0,1.0,0.37675460299999997,1.0,0.703250285,1.0,0.75,1.0,0.461979164,False,,5ebb10a81635db0ce24f187a,,1235198,80,,evan-feature22,full_pf_b,,0
51,41357,81,,,,2,2,1.0,1.0,0.0,1.0,,0.0-78.0,,1.0,772.0,0.0,0.398716075,1.0,0.6723864890000001,1.0,0.674153818,1.0,0.519029516,False,,5ebb10a81635db0ce24f187a,,1245732,81,,evan-feature22,full_pf_b,,0
52,41358,82,,,,2,2,1.0,0.0,-1.0,0.0,,0.0-79.0,,-1.0,662.0,0.0,0.34677856700000004,1.0,0.69057175,1.0,0.6822438540000001,0.0,0.477292237,False,,5ebb10a81635db0ce24f187a,,1256156,82,,evan-feature22,full_pf_b,,0
53,41359,83,,,,2,2,1.0,1.0,0.0,1.0,,0.0-80.0,,1.0,1733.0,0.0,0.28580469199999997,1.0,0.68408818,1.0,0.684207565,1.0,0.49780448299999996,False,,5ebb10a81635db0ce24f187a,,1267651,83,,evan-feature22,full_pf_b,,0
54,41361,85,,,,SLOW,SLOW,,,-1.0,0.0,,0.0-82.0,,-3.0,,1.0,0.25,1.0,0.7405808970000001,1.0,0.679614108,1.0,0.436436964,False,,5ebb10a81635db0ce24f187a,,1338261,85,,evan-feature22,full_pf_b,,1
55,41362,86,,,,SLOW,SLOW,,,0.0,1.0,,0.0-83.0,,-3.0,,0.0,0.29890393,1.0,0.730505706,1.0,0.7328203320000001,1.0,0.439256938,False,,5ebb10a81635db0ce24f187a,,1344068,86,,evan-feature22,full_pf_b,,0
56,41363,87,,,,2,2,1.0,0.0,-1.0,0.0,,0.0-84.0,,-1.0,346.0,0.0,0.326762398,0.0,0.7148059609999999,1.0,0.75,0.0,0.44389608799999997,False,,5ebb10a81635db0ce24f187a,,1354174,87,,evan-feature22,full_pf_b,,1
57,41364,88,,,,2,2,1.0,0.0,-1.0,0.0,,0.0-85.0,,-1.0,897.0,1.0,0.295168515,0.0,0.739760854,1.0,0.719947008,0.0,0.35277284600000003,False,,5ebb10a81635db0ce24f187a,,1364834,88,,evan-feature22,full_pf_b,,0
58,41365,89,,,,1,1,0.0,1.0,-1.0,0.0,,0.0-86.0,,0.0,1035.0,0.0,0.25,1.0,0.70781482,1.0,0.75,0.0,0.286095925,False,,5ebb10a81635db0ce24f187a,,1375630,89,,evan-feature22,full_pf_b,,1
59,41366,90,,,,1,1,0.0,0.0,0.0,1.0,,0.0-87.0,,0.0,194.0,0.0,0.25638190899999996,0.0,0.704088163,1.0,0.75,0.0,0.26872601399999996,False,,5ebb10a81635db0ce24f187a,,1385585,90,,evan-feature22,full_pf_b,,0
60,41367,91,,,,1,1,0.0,1.0,0.0,1.0,,0.0-88.0,,1.0,377.0,0.0,0.271581126,1.0,0.669760107,1.0,0.733896663,0.0,0.273244572,False,,5ebb10a81635db0ce24f187a,,1395724,91,,evan-feature22,full_pf_b,,0
61,41368,92,,,,1,1,1.0,1.0,0.0,1.0,,0.0-89.0,,1.0,699.0,1.0,0.257144401,1.0,0.600575706,1.0,0.74488122,0.0,0.25,False,,5ebb10a81635db0ce24f187a,,1406183,92,,evan-feature22,full_pf_b,,0
62,41369,93,,,,1,1,0.0,1.0,-1.0,0.0,,0.0-90.0,,0.0,375.0,0.0,0.25,1.0,0.616870026,1.0,0.723610234,0.0,0.25,False,,5ebb10a81635db0ce24f187a,,1416317,93,,evan-feature22,full_pf_b,,0
63,41370,94,,,,1,1,0.0,1.0,0.0,1.0,,0.0-91.0,,1.0,1102.0,0.0,0.25,1.0,0.583540187,0.0,0.7041042559999999,0.0,0.285961995,False,,5ebb10a81635db0ce24f187a,,1427181,94,,evan-feature22,full_pf_b,,0
64,41371,95,,,,1,1,1.0,1.0,-1.0,0.0,,0.0-92.0,,-1.0,557.0,1.0,0.27254536,1.0,0.53875765,1.0,0.693783448,1.0,0.284961652,False,,5ebb10a81635db0ce24f187a,,1437500,95,,evan-feature22,full_pf_b,,0
65,41372,96,,,,2,2,1.0,0.0,0.0,1.0,,0.0-93.0,,0.0,333.0,0.0,0.25,0.0,0.548431252,1.0,0.734221895,0.0,0.279445214,False,,5ebb10a81635db0ce24f187a,,1447595,96,,evan-feature22,full_pf_b,,1
66,41373,97,,,,1,1,0.0,1.0,-1.0,0.0,,0.0-94.0,,0.0,275.0,0.0,0.258640684,1.0,0.545878066,1.0,0.725245965,1.0,0.31487537,False,,5ebb10a81635db0ce24f187a,,1457633,97,,evan-feature22,full_pf_b,,1
67,41374,98,,,,2,2,1.0,0.0,-1.0,0.0,,0.0-95.0,,-1.0,1185.0,0.0,0.251103711,1.0,0.5776290629999999,1.0,0.696320133,0.0,0.317831047,False,,5ebb10a81635db0ce24f187a,,1468579,98,,evan-feature22,full_pf_b,,1
68,41375,99,,,,1,1,0.0,1.0,-1.0,0.0,,0.0-96.0,,0.0,647.0,0.0,0.276630292,1.0,0.617329858,1.0,0.73838088,0.0,0.261471582,False,,5ebb10a81635db0ce24f187a,,1478989,99,,evan-feature22,full_pf_b,,1
69,41376,100,,,,2,2,0.0,1.0,0.0,1.0,,0.0-97.0,,1.0,735.0,1.0,0.297716424,1.0,0.618863717,0.0,0.7402358259999999,1.0,0.262600834,False,,5ebb10a81635db0ce24f187a,,1489487,100,,evan-feature22,full_pf_b,,1
70,41377,101,,,,1,1,0.0,1.0,-1.0,0.0,,0.0-98.0,,0.0,1768.0,0.0,0.290935512,1.0,0.695370945,0.0,0.706570507,0.0,0.280030553,False,,5ebb10a81635db0ce24f187a,,1501018,101,,evan-feature22,full_pf_b,,1
71,41378,102,,,,1,1,1.0,1.0,-1.0,0.0,,0.0-99.0,,-1.0,321.0,1.0,0.25,1.0,0.6465277079999999,0.0,0.67766682,1.0,0.25,False,,5ebb10a81635db0ce24f187a,,1511102,102,,evan-feature22,full_pf_b,,0
72,41379,103,,,,2,2,0.0,1.0,-1.0,0.0,,0.0-100.0,,0.0,531.0,0.0,0.26463816,1.0,0.636100213,0.0,0.646048507,1.0,0.265607101,False,,5ebb10a81635db0ce24f187a,,1521396,103,,evan-feature22,full_pf_b,,1
73,41380,104,,,,2,2,0.0,0.0,-1.0,0.0,,0.0-101.0,,0.0,1340.0,0.0,0.314340707,1.0,0.667795927,0.0,0.613630805,0.0,0.25,False,,5ebb10a81635db0ce24f187a,,1532498,104,,evan-feature22,full_pf_b,,0
74,41381,105,,,,1,1,0.0,1.0,-1.0,0.0,,0.0-102.0,,0.0,1269.0,0.0,0.28685784,1.0,0.6622549529999999,0.0,0.652154117,0.0,0.25,False,,5ebb10a81635db0ce24f187a,,1543529,105,,evan-feature22,full_pf_b,,1
75,41382,106,,,,2,2,1.0,1.0,0.0,1.0,,0.0-103.0,,1.0,427.0,0.0,0.304106554,1.0,0.631289538,1.0,0.707041942,1.0,0.29314237,False,,5ebb10a81635db0ce24f187a,,1553718,106,,evan-feature22,full_pf_b,,1
76,41383,107,,,,2,2,0.0,0.0,0.0,1.0,,0.0-104.0,,0.0,347.0,0.0,0.304806932,1.0,0.571167718,0.0,0.680472346,0.0,0.25,False,,5ebb10a81635db0ce24f187a,,1563825,107,,evan-feature22,full_pf_b,,0
77,41384,108,,,,2,2,1.0,1.0,0.0,1.0,,0.0-105.0,,1.0,1368.0,0.0,0.37919861,1.0,0.5724849710000001,1.0,0.705638003,1.0,0.30179300600000003,False,,5ebb10a81635db0ce24f187a,,1574956,108,,evan-feature22,full_pf_b,,0
78,41385,109,,,,2,2,1.0,0.0,0.0,1.0,,0.0-106.0,,0.0,325.0,0.0,0.464277969,0.0,0.554034373,1.0,0.7372627340000001,0.0,0.264699741,False,,5ebb10a81635db0ce24f187a,,1585042,109,,evan-feature22,full_pf_b,,0
79,41386,110,,,,2,2,1.0,1.0,-1.0,0.0,,0.0-107.0,,-1.0,638.0,0.0,0.465104323,1.0,0.530793115,1.0,0.75,1.0,0.31683071,False,,5ebb10a81635db0ce24f187a,,1595442,110,,evan-feature22,full_pf_b,,0
80,41387,111,,,,2,2,0.0,1.0,0.0,1.0,,0.0-108.0,,1.0,624.0,0.0,0.465104323,1.0,0.530793115,0.0,0.75,1.0,0.31683071,False,,5ebb10a81635db0ce24f187a,,1605827,111,,evan-feature22,full_pf_b,,0
81,41388,112,,,,1,1,0.0,0.0,0.0,1.0,,0.0-109.0,,0.0,1456.0,0.0,0.46833986,0.0,0.570249239,1.0,0.7244472590000001,1.0,0.364114163,False,,5ebb10a81635db0ce24f187a,,1617046,112,,evan-feature22,full_pf_b,,1
82,41389,113,,,,2,2,1.0,0.0,0.0,1.0,,0.0-110.0,,0.0,915.0,0.0,0.445444024,1.0,0.649673355,1.0,0.6845441290000001,0.0,0.300660449,False,,5ebb10a81635db0ce24f187a,,1627724,113,,evan-feature22,full_pf_b,,1
83,41390,114,,,,1,1,1.0,1.0,0.0,1.0,,0.0-111.0,,1.0,214.0,1.0,0.39909721299999995,1.0,0.6715179509999999,0.0,0.742310028,0.0,0.35496088299999995,False,,5ebb10a81635db0ce24f187a,,1637701,114,,evan-feature22,full_pf_b,,1
84,41391,115,,,,2,2,0.0,1.0,0.0,1.0,,0.0-112.0,,1.0,853.0,0.0,0.37956104799999996,0.0,0.694725302,0.0,0.7181651309999999,1.0,0.38726906299999997,False,,5ebb10a81635db0ce24f187a,,1648313,115,,evan-feature22,full_pf_b,,1
85,41392,116,,,,2,2,1.0,1.0,0.0,1.0,,0.0-113.0,,1.0,505.0,0.0,0.404995034,0.0,0.724375412,1.0,0.6910946859999999,1.0,0.387187347,False,,5ebb10a81635db0ce24f187a,,1658582,116,,evan-feature22,full_pf_b,,0
86,41393,117,,,,1,1,1.0,0.0,0.0,1.0,,0.0-114.0,,0.0,300.0,1.0,0.461740803,0.0,0.75,1.0,0.75,0.0,0.34872038200000005,False,,5ebb10a81635db0ce24f187a,,1668643,117,,evan-feature22,full_pf_b,,1
87,41394,118,,,,2,2,1.0,0.0,-1.0,0.0,,0.0-115.0,,-1.0,3965.0,0.0,0.43821380600000004,1.0,0.738833273,1.0,0.728286963,0.0,0.399538128,False,,5ebb10a81635db0ce24f187a,,1682368,118,,evan-feature22,full_pf_b,,1
88,41395,119,,,,1,1,1.0,0.0,0.0,1.0,,0.0-116.0,,0.0,3.0,1.0,0.41709882,0.0,0.736666736,1.0,0.75,0.0,0.389095584,False,,5ebb10a81635db0ce24f187a,,1692133,119,,evan-feature22,full_pf_b,,1
89,41396,120,,,,2,2,1.0,0.0,0.0,1.0,,0.0-117.0,,0.0,1102.0,0.0,0.39749009799999996,1.0,0.744320029,1.0,0.75,0.0,0.363848678,False,,5ebb10a81635db0ce24f187a,,1702999,120,,evan-feature22,full_pf_b,,1
90,41397,121,,,,1,1,0.0,0.0,-1.0,0.0,,0.0-118.0,,0.0,1776.0,0.0,0.392653706,0.0,0.75,1.0,0.75,1.0,0.384386976,False,,5ebb10a81635db0ce24f187a,,1714537,121,,evan-feature22,full_pf_b,,1
91,41398,122,,,,2,2,1.0,0.0,-1.0,0.0,,0.0-119.0,,-1.0,1476.0,1.0,0.31190902600000003,0.0,0.75,1.0,0.732413819,0.0,0.413082932,False,,5ebb10a81635db0ce24f187a,,1725776,122,,evan-feature22,full_pf_b,,1
92,41399,123,,,,1,1,1.0,1.0,0.0,1.0,,0.0-120.0,,1.0,430.0,1.0,0.366917648,1.0,0.740073855,0.0,0.75,0.0,0.352861979,False,,5ebb10a81635db0ce24f187a,,1735968,123,,evan-feature22,full_pf_b,,1
93,41400,124,,,,1,1,1.0,1.0,0.0,1.0,,0.0-121.0,,1.0,1089.0,1.0,0.3645172,1.0,0.721770713,1.0,0.75,1.0,0.404074511,False,,5ebb10a81635db0ce24f187a,,1746821,124,,evan-feature22,full_pf_b,,0
94,41401,125,,,,2,2,1.0,0.0,0.0,1.0,,0.0-122.0,,0.0,1254.0,0.0,0.35205600299999995,1.0,0.68983859,1.0,0.739735447,0.0,0.366895945,False,,5ebb10a81635db0ce24f187a,,1757838,125,,evan-feature22,full_pf_b,,1
95,41402,126,,,,1,1,1.0,1.0,0.0,1.0,,0.0-123.0,,1.0,2537.0,1.0,0.40998722600000004,1.0,0.720859127,1.0,0.673854955,0.0,0.368528541,False,,5ebb10a81635db0ce24f187a,,1770137,126,,evan-feature22,full_pf_b,,1
96,41403,127,,,,1,1,0.0,0.0,-1.0,0.0,,0.0-124.0,,0.0,251.0,0.0,0.353625316,0.0,0.75,0.0,0.695605473,0.0,0.38303674200000004,False,,5ebb10a81635db0ce24f187a,,1780148,127,,evan-feature22,full_pf_b,,0
97,41404,128,,,,1,1,0.0,0.0,0.0,1.0,,0.0-125.0,,0.0,2475.0,0.0,0.359216989,0.0,0.75,0.0,0.6987915090000001,1.0,0.35169046200000004,False,,5ebb10a81635db0ce24f187a,,1792384,128,,evan-feature22,full_pf_b,,0
98,41405,129,,,,2,2,0.0,1.0,-1.0,0.0,,0.0-126.0,,0.0,483.0,0.0,0.35834496899999996,1.0,0.75,0.0,0.707067742,1.0,0.416763636,False,,5ebb10a81635db0ce24f187a,,1802631,129,,evan-feature22,full_pf_b,,1
99,41406,130,,,,1,1,0.0,1.0,-1.0,0.0,,0.0-127.0,,0.0,446.0,0.0,0.38741613799999997,1.0,0.7177369570000001,1.0,0.734902455,1.0,0.49438664299999996,False,,5ebb10a81635db0ce24f187a,,1812839,130,,evan-feature22,full_pf_b,,1
100,41407,131,,,,1,1,0.0,0.0,0.0,1.0,,0.0-128.0,,0.0,2187.0,0.0,0.405255252,0.0,0.7300466640000001,0.0,0.7027748070000001,1.0,0.504359668,False,,5ebb10a81635db0ce24f187a,,1824788,131,,evan-feature22,full_pf_b,,0
101,41408,132,,,,2,2,1.0,0.0,0.0,1.0,,0.0-129.0,,0.0,90.0,0.0,0.40697073,1.0,0.7260142190000001,1.0,0.724461982,0.0,0.522779179,False,,5ebb10a81635db0ce24f187a,,1834643,132,,evan-feature22,full_pf_b,,1
102,41409,133,,,,2,2,0.0,1.0,0.0,1.0,,0.0-130.0,,1.0,813.0,0.0,0.43906215299999996,0.0,0.7252802340000001,0.0,0.719079934,1.0,0.5712990579999999,False,,5ebb10a81635db0ce24f187a,,1845220,133,,evan-feature22,full_pf_b,,0
103,41410,134,,,,2,2,1.0,0.0,0.0,1.0,,0.0-131.0,,0.0,569.0,0.0,0.4076705,0.0,0.73280499,1.0,0.681313127,0.0,0.523891346,False,,5ebb10a81635db0ce24f187a,,1855551,134,,evan-feature22,full_pf_b,,0
104,41411,135,,,,1,1,0.0,0.0,0.0,1.0,,0.0-132.0,,0.0,310.0,0.0,0.399102911,0.0,0.730498344,1.0,0.661080239,0.0,0.46742603,False,,5ebb10a81635db0ce24f187a,,1865623,135,,evan-feature22,full_pf_b,,1
105,41412,136,,,,2,2,1.0,0.0,-1.0,0.0,,0.0-133.0,,-1.0,722.0,0.0,0.356477282,0.0,0.712296395,1.0,0.641812684,0.0,0.44868414,False,,5ebb10a81635db0ce24f187a,,1876106,136,,evan-feature22,full_pf_b,,1
106,41413,137,,,,1,1,0.0,1.0,0.0,1.0,,0.0-134.0,,1.0,366.0,0.0,0.462760722,1.0,0.692349322,0.0,0.700947931,0.0,0.394680266,False,,5ebb10a81635db0ce24f187a,,1886236,137,,evan-feature22,full_pf_b,,1
107,41414,138,,,,2,2,1.0,0.0,0.0,1.0,,0.0-135.0,,0.0,729.0,0.0,0.422306413,0.0,0.718375916,1.0,0.706340917,0.0,0.367787185,False,,5ebb10a81635db0ce24f187a,,1896730,138,,evan-feature22,full_pf_b,,1
108,41416,140,,,,2,2,1.0,1.0,0.0,1.0,,0.0-137.0,,1.0,342.0,0.0,0.4582233,1.0,0.643834117,1.0,0.75,1.0,0.39615823299999997,False,,5ebb10a81635db0ce24f187a,,1909804,140,,evan-feature22,full_pf_b,,0
109,41417,141,,,,2,2,1.0,0.0,0.0,1.0,,0.0-138.0,,0.0,491.0,0.0,0.43813437899999996,1.0,0.651283804,1.0,0.729674191,0.0,0.37711048,False,,5ebb10a81635db0ce24f187a,,1920054,141,,evan-feature22,full_pf_b,,0
110,41418,142,,,,2,2,1.0,0.0,0.0,1.0,,0.0-139.0,,0.0,854.0,0.0,0.471199094,1.0,0.6470010979999999,1.0,0.715008097,0.0,0.410656191,False,,5ebb10a81635db0ce24f187a,,1930676,142,,evan-feature22,full_pf_b,,0
111,41419,143,,,,2,2,0.0,1.0,-1.0,0.0,,0.0-140.0,,0.0,693.0,1.0,0.42486406,1.0,0.629771829,0.0,0.6550939960000001,1.0,0.459093873,False,,5ebb10a81635db0ce24f187a,,1941132,143,,evan-feature22,full_pf_b,,0
112,41420,144,,,,2,2,1.0,1.0,-1.0,0.0,,0.0-141.0,,-1.0,355.0,1.0,0.4803197,1.0,0.645842715,1.0,0.6421749920000001,1.0,0.443092151,False,,5ebb10a81635db0ce24f187a,,1951250,144,,evan-feature22,full_pf_b,,0
113,41421,145,,,,1,1,0.0,1.0,-1.0,0.0,,0.0-142.0,,0.0,515.0,0.0,0.521848997,1.0,0.735801074,1.0,0.6691348460000001,1.0,0.45259351600000003,False,,5ebb10a81635db0ce24f187a,,1961530,145,,evan-feature22,full_pf_b,,1
114,41422,146,,,,1,1,1.0,1.0,0.0,1.0,,0.0-143.0,,1.0,646.0,1.0,0.49565621299999996,1.0,0.742400847,1.0,0.661512553,1.0,0.483110831,False,,5ebb10a81635db0ce24f187a,,1971939,146,,evan-feature22,full_pf_b,,0
115,41423,147,,,,1,1,0.0,1.0,-1.0,0.0,,0.0-144.0,,0.0,982.0,0.0,0.521564361,1.0,0.731078632,1.0,0.6774886809999999,1.0,0.483263956,False,,5ebb10a81635db0ce24f187a,,1982685,147,,evan-feature22,full_pf_b,,0
116,41424,148,,,,1,1,1.0,1.0,-1.0,0.0,,0.0-145.0,,-1.0,874.0,1.0,0.558893102,1.0,0.719810023,1.0,0.67461031,0.0,0.499349834,False,,5ebb10a81635db0ce24f187a,,1993319,148,,evan-feature22,full_pf_b,,0
117,41425,149,,,,2,2,1.0,1.0,0.0,1.0,,0.0-146.0,,1.0,431.0,1.0,0.611031046,1.0,0.75,1.0,0.688072995,1.0,0.5321422729999999,False,,5ebb10a81635db0ce24f187a,,2003509,149,,evan-feature22,full_pf_b,,1
118,41426,150,,,,2,2,1.0,1.0,-1.0,0.0,,0.0-147.0,,-1.0,1702.0,1.0,0.633223941,1.0,0.713567728,1.0,0.75,1.0,0.48185314700000004,False,,5ebb10a81635db0ce24f187a,,2014974,150,,evan-feature22,full_pf_b,,0
119,41427,151,,,,2,2,1.0,1.0,-1.0,0.0,,0.0-148.0,,-1.0,2086.0,0.0,0.664001694,1.0,0.705509768,1.0,0.75,1.0,0.500211065,False,,5ebb10a81635db0ce24f187a,,2026823,151,,evan-feature22,full_pf_b,,0
120,41428,152,,,,2,2,1.0,1.0,0.0,1.0,,0.0-149.0,,1.0,100.0,1.0,0.664001694,0.0,0.705509768,1.0,0.75,1.0,0.500211065,False,,5ebb10a81635db0ce24f187a,,2036690,152,,evan-feature22,full_pf_b,,0
121,41429,153,,,,2,2,1.0,1.0,0.0,1.0,,0.0-150.0,,1.0,387.0,0.0,0.696508041,1.0,0.71066027,1.0,0.717028709,1.0,0.49792991,False,,5ebb10a81635db0ce24f187a,,2046843,153,,evan-feature22,full_pf_b,,0
122,41430,154,,,,2,2,1.0,0.0,-1.0,0.0,,0.0-151.0,,-1.0,367.0,0.0,0.699883272,1.0,0.75,1.0,0.713543895,0.0,0.496962643,False,,5ebb10a81635db0ce24f187a,,2056971,154,,evan-feature22,full_pf_b,,0
123,41431,155,,,,2,2,1.0,0.0,0.0,1.0,,0.0-152.0,,0.0,496.0,1.0,0.741163419,1.0,0.75,1.0,0.64691024,0.0,0.513858197,False,,5ebb10a81635db0ce24f187a,,2067230,155,,evan-feature22,full_pf_b,,0
124,41432,156,,,,1,1,0.0,1.0,-1.0,0.0,,0.0-153.0,,0.0,857.0,0.0,0.75,1.0,0.70816558,0.0,0.594499079,1.0,0.48502124,False,,5ebb10a81635db0ce24f187a,,2077850,156,,evan-feature22,full_pf_b,,1
125,41433,157,,,,1,1,1.0,1.0,0.0,1.0,,0.0-154.0,,1.0,281.0,1.0,0.75,1.0,0.721848901,0.0,0.62197249,0.0,0.48263586399999997,False,,5ebb10a81635db0ce24f187a,,2087893,157,,evan-feature22,full_pf_b,,0
126,41434,158,,,,1,1,1.0,0.0,-1.0,0.0,,0.0-155.0,,-1.0,348.0,1.0,0.75,0.0,0.74813071,0.0,0.584357161,1.0,0.411477782,False,,5ebb10a81635db0ce24f187a,,2098005,158,,evan-feature22,full_pf_b,,0
127,41435,159,,,,1,1,1.0,1.0,0.0,1.0,,0.0-156.0,,1.0,506.0,1.0,0.75,1.0,0.75,1.0,0.52287236,0.0,0.488290656,False,,5ebb10a81635db0ce24f187a,,2108274,159,,evan-feature22,full_pf_b,,0
128,41436,160,,,,2,2,0.0,1.0,0.0,1.0,,0.0-157.0,,1.0,245.0,0.0,0.75,1.0,0.75,0.0,0.544321581,1.0,0.53143059,False,,5ebb10a81635db0ce24f187a,,2118282,160,,evan-feature22,full_pf_b,,1
129,41437,161,,,,1,1,1.0,1.0,0.0,1.0,,0.0-158.0,,1.0,234.0,1.0,0.726754564,1.0,0.75,0.0,0.5129306370000001,0.0,0.530592445,False,,5ebb10a81635db0ce24f187a,,2128278,161,,evan-feature22,full_pf_b,,1
130,41438,162,,,,2,2,0.0,1.0,-1.0,0.0,,0.0-159.0,,0.0,399.0,1.0,0.75,1.0,0.7392590729999999,0.0,0.479875835,1.0,0.547007051,False,,5ebb10a81635db0ce24f187a,,2138440,162,,evan-feature22,full_pf_b,,1
131,41439,163,,,,1,1,1.0,1.0,-1.0,0.0,,0.0-160.0,,-1.0,782.0,1.0,0.75,1.0,0.7393376979999999,0.0,0.546045419,1.0,0.541267353,False,,5ebb10a81635db0ce24f187a,,2148986,163,,evan-feature22,full_pf_b,,1
132,41440,164,,,,2,2,0.0,1.0,-1.0,0.0,,0.0-161.0,,0.0,475.0,1.0,0.75,1.0,0.75,0.0,0.485725895,1.0,0.527625395,False,,5ebb10a81635db0ce24f187a,,2159228,164,,evan-feature22,full_pf_b,,1
133,41441,165,,,,1,1,1.0,1.0,0.0,1.0,,0.0-162.0,,1.0,466.0,1.0,0.75,1.0,0.725087974,1.0,0.488603595,1.0,0.504019206,False,,5ebb10a81635db0ce24f187a,,2169457,165,,evan-feature22,full_pf_b,,1
134,41442,166,,,,1,1,1.0,1.0,0.0,1.0,,0.0-163.0,,1.0,832.0,1.0,0.745504295,1.0,0.75,1.0,0.452379914,1.0,0.50131194,False,,5ebb10a81635db0ce24f187a,,2180051,166,,evan-feature22,full_pf_b,,0
135,41443,167,,,,1,1,1.0,1.0,0.0,1.0,,0.0-164.0,,1.0,694.0,1.0,0.728513874,1.0,0.75,0.0,0.44125567200000004,0.0,0.531454591,False,,5ebb10a81635db0ce24f187a,,2190508,167,,evan-feature22,full_pf_b,,0
136,41444,168,,,,1,1,1.0,1.0,-1.0,0.0,,0.0-165.0,,-1.0,625.0,1.0,0.73790804,1.0,0.75,0.0,0.413036656,0.0,0.524619035,False,,5ebb10a81635db0ce24f187a,,2200896,168,,evan-feature22,full_pf_b,,0
137,41445,169,,,,1,1,0.0,1.0,0.0,1.0,,0.0-166.0,,1.0,861.0,0.0,0.7080961309999999,1.0,0.708666865,0.0,0.431915581,1.0,0.481819489,False,,5ebb10a81635db0ce24f187a,,2211519,169,,evan-feature22,full_pf_b,,0
138,41446,170,,,,1,1,0.0,0.0,0.0,1.0,,0.0-167.0,,0.0,2747.0,0.0,0.721378003,0.0,0.71605913,0.0,0.36642387,0.0,0.5036739929999999,False,,5ebb10a81635db0ce24f187a,,2224030,170,,evan-feature22,full_pf_b,,0
139,41447,171,,,,1,1,1.0,1.0,0.0,1.0,,0.0-168.0,,1.0,342.0,1.0,0.7340618959999999,1.0,0.699323252,1.0,0.35298046299999997,0.0,0.511241692,False,,5ebb10a81635db0ce24f187a,,2234134,171,,evan-feature22,full_pf_b,,0
140,41448,172,,,,1,1,0.0,1.0,-1.0,0.0,,0.0-169.0,,0.0,339.0,0.0,0.75,1.0,0.70412698,1.0,0.380734814,1.0,0.529580116,False,,5ebb10a81635db0ce24f187a,,2244237,172,,evan-feature22,full_pf_b,,0
141,41449,173,,,,1,1,0.0,1.0,0.0,1.0,,0.0-170.0,,1.0,1212.0,0.0,0.7436654909999999,1.0,0.711182751,0.0,0.41125331,1.0,0.49554405,False,,5ebb10a81635db0ce24f187a,,2255215,173,,evan-feature22,full_pf_b,,0
142,41450,174,,,,SLOW,SLOW,,,0.0,1.0,,0.0-171.0,,-3.0,,1.0,0.731607915,1.0,0.651774583,0.0,0.35688023,0.0,0.45194491600000003,False,,5ebb10a81635db0ce24f187a,,2261021,174,,evan-feature22,full_pf_b,,1
143,41451,175,,,,1,1,1.0,1.0,-1.0,0.0,,0.0-172.0,,-1.0,3500.0,1.0,0.75,1.0,0.75,0.0,0.283145374,1.0,0.528608005,False,,5ebb10a81635db0ce24f187a,,2274285,175,,evan-feature22,full_pf_b,,1
144,41452,176,,,,1,1,1.0,1.0,-1.0,0.0,,0.0-173.0,,-1.0,2459.0,1.0,0.7491416890000001,1.0,0.7423785959999999,0.0,0.29135870399999997,1.0,0.498888318,False,,5ebb10a81635db0ce24f187a,,2286508,176,,evan-feature22,full_pf_b,,0
145,41453,177,,,,1,1,0.0,1.0,-1.0,0.0,,0.0-174.0,,0.0,1737.0,0.0,0.708569387,1.0,0.717682277,0.0,0.294421699,0.0,0.493838163,False,,5ebb10a81635db0ce24f187a,,2298007,177,,evan-feature22,full_pf_b,,0
146,41454,178,,,,2,2,0.0,0.0,0.0,1.0,,0.0-175.0,,0.0,1045.0,1.0,0.75,1.0,0.7383382159999999,0.0,0.356098707,0.0,0.442533405,False,,5ebb10a81635db0ce24f187a,,2308813,178,,evan-feature22,full_pf_b,,1
147,41455,179,,,,1,1,1.0,1.0,0.0,1.0,,0.0-176.0,,1.0,531.0,1.0,0.744527075,1.0,0.75,1.0,0.334127506,1.0,0.393165805,False,,5ebb10a81635db0ce24f187a,,2319111,179,,evan-feature22,full_pf_b,,1
148,41456,180,,,,1,1,1.0,1.0,0.0,1.0,,0.0-177.0,,1.0,344.0,1.0,0.75,1.0,0.75,1.0,0.33571021799999995,1.0,0.350393962,False,,5ebb10a81635db0ce24f187a,,2329217,180,,evan-feature22,full_pf_b,,0
149,41457,181,,,,1,1,1.0,1.0,0.0,1.0,,0.0-178.0,,1.0,570.0,1.0,0.75,1.0,0.75,0.0,0.313628297,1.0,0.36349657399999996,False,,5ebb10a81635db0ce24f187a,,2339549,181,,evan-feature22,full_pf_b,,0
150,41458,182,,,,1,1,1.0,0.0,-1.0,0.0,,0.0-179.0,,-1.0,1571.0,1.0,0.75,0.0,0.734284182,1.0,0.262667667,0.0,0.380199119,False,,5ebb10a81635db0ce24f187a,,2350883,182,,evan-feature22,full_pf_b,,0
151,41459,183,,,,1,1,1.0,1.0,0.0,1.0,,0.0-180.0,,1.0,1456.0,1.0,0.75,1.0,0.75,0.0,0.25,0.0,0.394494013,False,,5ebb10a81635db0ce24f187a,,2362103,183,,evan-feature22,full_pf_b,,0
152,41460,184,,,,1,1,1.0,1.0,-1.0,0.0,,0.0-181.0,,-1.0,1361.0,1.0,0.722298145,1.0,0.7357822340000001,1.0,0.25,1.0,0.319142121,False,,5ebb10a81635db0ce24f187a,,2373228,184,,evan-feature22,full_pf_b,,0
153,41461,185,,,,SLOW,SLOW,,,-1.0,0.0,,0.0-182.0,,-3.0,,1.0,0.73149275,1.0,0.724276446,0.0,0.305856907,1.0,0.281315057,False,,5ebb10a81635db0ce24f187a,,2379034,185,,evan-feature22,full_pf_b,,1
154,41462,186,,,,1,1,0.0,1.0,0.0,1.0,,0.0-183.0,,1.0,1389.0,0.0,0.7458732690000001,1.0,0.7336382459999999,1.0,0.272571964,1.0,0.266021999,False,,5ebb10a81635db0ce24f187a,,2390185,186,,evan-feature22,full_pf_b,,1
155,41463,187,,,,1,1,1.0,1.0,0.0,1.0,,0.0-184.0,,1.0,335.0,1.0,0.705579037,1.0,0.720778292,1.0,0.320238144,0.0,0.30971744,False,,5ebb10a81635db0ce24f187a,,2400286,187,,evan-feature22,full_pf_b,,0
156,41464,188,,,,1,1,0.0,0.0,0.0,1.0,,0.0-185.0,,0.0,1217.0,0.0,0.700425648,0.0,0.7198784009999999,0.0,0.272590393,0.0,0.304182931,False,,5ebb10a81635db0ce24f187a,,2411266,188,,evan-feature22,full_pf_b,,0
157,41465,189,,,,1,1,0.0,0.0,0.0,1.0,,0.0-186.0,,0.0,563.0,0.0,0.735590785,0.0,0.722714973,0.0,0.25,0.0,0.323421091,False,,5ebb10a81635db0ce24f187a,,2421590,189,,evan-feature22,full_pf_b,,0
158,41466,190,,,,1,1,1.0,0.0,0.0,1.0,,0.0-187.0,,0.0,1150.0,1.0,0.724807662,0.0,0.63146213,1.0,0.36836492600000004,0.0,0.34592153299999995,False,,5ebb10a81635db0ce24f187a,,2432503,190,,evan-feature22,full_pf_b,,0
159,41467,191,,,,1,1,0.0,1.0,0.0,1.0,,0.0-188.0,,1.0,703.0,0.0,0.7352796909999999,1.0,0.555111392,0.0,0.36003922,1.0,0.31433779999999995,False,,5ebb10a81635db0ce24f187a,,2442971,191,,evan-feature22,full_pf_b,,0
160,41468,192,notice,,,,,,,,,,0.0-189.0,"{""Q0"":""G seemed to win more than J in the second half""}",,42931.0,,,,,,,,,False,,5ebb10a81635db0ce24f187a,,2485904,192,Q,survey-text,full_pf_b,,1
161,41469,193,track1,,[0],,,,,,,,0.0-190.0,"{""Q0"":""yes""}",,7069.0,,,,,,,,,False,,5ebb10a81635db0ce24f187a,,2492978,193,Q,evan-quiz,full_pf_b,,1
162,41470,194,track2,,[2],,,,,,,,0.0-191.0,"{""Q0"":""N/A""}",,7404.0,,,,,,,,,False,,5ebb10a81635db0ce24f187a,,2500384,194,Q,evan-quiz,full_pf_b,,1
163,41471,195,strat,,,,,,,,,,0.0-192.0,"{""Q0"":""I based it off of the most ailens""}",,24533.0,,,,,,,,,False,,5ebb10a81635db0ce24f187a,,2524922,195,Q,survey-text,full_pf_b,,1
