,index,Unnamed: 0,Q_name,button_pressed,choice_idxs,chosen_pos,chosen_state,chosen_state_f_1_outcome,chosen_state_f_2_outcome,f_1_reward,f_2_reward,incor_questions,internal_node_id,responses,reward_received,rt,s_1_f_1_outcome,s_1_f_1_prob,s_1_f_2_outcome,s_1_f_2_prob,s_2_f_1_outcome,s_2_f_1_prob,s_2_f_2_outcome,s_2_f_2_prob,safe_first,stimulus,subjectID,success,time_elapsed,trial_index,trial_num,trial_type,version,view_history,switching
0,31086,30,,,,1,1,1.0,0.0,0.0,1.0,,0.0-27.0,,0.0,962.56,1.0,0.6,0.0,0.6,0.0,0.4,0.0,0.4,True,,5ecef7476b4f691684117924,,470142,30,,evan-feature22,full_rf_b,,0
1,31087,31,,,,2,2,0.0,0.0,0.0,1.0,,0.0-28.0,,0.0,520.05,1.0,0.608053294,1.0,0.63424552,0.0,0.397152172,0.0,0.347069101,True,,5ecef7476b4f691684117924,,480447,31,,evan-feature22,full_rf_b,,1
2,31088,32,,,,1,1,1.0,0.0,0.0,1.0,,0.0-29.0,,0.0,1458.295,1.0,0.642237155,0.0,0.648566321,0.0,0.389407674,0.0,0.285525717,True,,5ecef7476b4f691684117924,,491692,32,,evan-feature22,full_rf_b,,1
3,31089,33,,,,1,1,1.0,1.0,0.0,1.0,,0.0-30.0,,1.0,506.34,1.0,0.661086576,1.0,0.630492543,0.0,0.399058924,0.0,0.25,True,,5ecef7476b4f691684117924,,501979,33,,evan-feature22,full_rf_b,,0
4,31090,34,,,,1,1,0.0,1.0,0.0,1.0,,0.0-31.0,,1.0,1703.875,0.0,0.631324137,1.0,0.6269842929999999,1.0,0.38734784299999997,0.0,0.25,True,,5ecef7476b4f691684117924,,513470,34,,evan-feature22,full_rf_b,,0
5,31091,35,,,,1,1,0.0,1.0,0.0,1.0,,0.0-32.0,,1.0,796.63,0.0,0.6381991370000001,1.0,0.68987999,0.0,0.384107265,0.0,0.271332943,True,,5ecef7476b4f691684117924,,524038,35,,evan-feature22,full_rf_b,,0
6,31092,36,,,,1,1,1.0,0.0,0.0,1.0,,0.0-33.0,,0.0,195.38,1.0,0.66034901,0.0,0.742641349,0.0,0.360225629,0.0,0.25,True,,5ecef7476b4f691684117924,,533999,36,,evan-feature22,full_rf_b,,0
7,31093,37,,,,2,2,0.0,0.0,-1.0,0.0,,0.0-34.0,,0.0,1239.98,1.0,0.638612418,1.0,0.75,0.0,0.367273939,0.0,0.25,True,,5ecef7476b4f691684117924,,545013,37,,evan-feature22,full_rf_b,,1
8,31094,38,,,,2,2,0.0,0.0,0.0,1.0,,0.0-35.0,,0.0,463.035,0.0,0.624340629,0.0,0.75,0.0,0.425829545,0.0,0.25,True,,5ecef7476b4f691684117924,,555243,38,,evan-feature22,full_rf_b,,0
9,31095,39,,,,2,2,0.0,0.0,0.0,1.0,,0.0-36.0,,0.0,562.155,1.0,0.621999804,0.0,0.75,0.0,0.368609357,0.0,0.25,True,,5ecef7476b4f691684117924,,565587,39,,evan-feature22,full_rf_b,,0
10,31096,40,,,,2,2,0.0,0.0,-1.0,0.0,,0.0-37.0,,0.0,1524.28,0.0,0.62666403,1.0,0.75,0.0,0.311151498,0.0,0.25,True,,5ecef7476b4f691684117924,,576895,40,,evan-feature22,full_rf_b,,0
11,31097,41,,,,2,2,0.0,0.0,-1.0,0.0,,0.0-38.0,,0.0,1811.66,0.0,0.6819650009999999,1.0,0.75,0.0,0.310763048,0.0,0.25,True,,5ecef7476b4f691684117924,,588489,41,,evan-feature22,full_rf_b,,0
12,31098,42,,,,2,2,0.0,0.0,0.0,1.0,,0.0-39.0,,0.0,1099.045,1.0,0.740626951,1.0,0.75,0.0,0.25,0.0,0.25,True,,5ecef7476b4f691684117924,,599375,42,,evan-feature22,full_rf_b,,0
13,31099,43,,,,1,1,1.0,1.0,0.0,1.0,,0.0-40.0,,1.0,1793.85,1.0,0.739599242,1.0,0.742034978,0.0,0.25397114600000004,0.0,0.25,True,,5ecef7476b4f691684117924,,610949,43,,evan-feature22,full_rf_b,,1
14,31100,44,,,,1,1,0.0,1.0,0.0,1.0,,0.0-41.0,,1.0,875.875,0.0,0.732341315,1.0,0.72735643,1.0,0.25,0.0,0.25,True,,5ecef7476b4f691684117924,,621612,44,,evan-feature22,full_rf_b,,0
15,31101,45,,,,1,1,1.0,1.0,0.0,1.0,,0.0-42.0,,1.0,705.29,1.0,0.7062287770000001,1.0,0.75,0.0,0.29002151,1.0,0.288256649,True,,5ecef7476b4f691684117924,,632095,45,,evan-feature22,full_rf_b,,0
16,31102,46,,,,2,2,0.0,0.0,-1.0,0.0,,0.0-43.0,,0.0,1346.445,1.0,0.7086029209999999,1.0,0.75,0.0,0.274129113,0.0,0.262851608,True,,5ecef7476b4f691684117924,,643229,46,,evan-feature22,full_rf_b,,1
17,31103,47,,,,2,2,0.0,1.0,0.0,1.0,,0.0-44.0,,1.0,377.96,0.0,0.669189651,1.0,0.727614338,0.0,0.298444036,1.0,0.296944518,True,,5ecef7476b4f691684117924,,653394,47,,evan-feature22,full_rf_b,,0
18,31104,48,,,,2,2,1.0,1.0,-1.0,0.0,,0.0-45.0,,-1.0,786.985,0.0,0.6819912929999999,0.0,0.7179434290000001,1.0,0.265003961,1.0,0.28157921199999997,True,,5ecef7476b4f691684117924,,663963,48,,evan-feature22,full_rf_b,,0
19,31105,49,,,,1,1,0.0,1.0,-1.0,0.0,,0.0-46.0,,0.0,658.525,0.0,0.665275002,1.0,0.723065271,0.0,0.260414971,0.0,0.30973870000000003,True,,5ecef7476b4f691684117924,,674407,49,,evan-feature22,full_rf_b,,1
20,31106,50,,,,1,1,1.0,1.0,0.0,1.0,,0.0-47.0,,1.0,1565.96,1.0,0.6660593260000001,1.0,0.728032907,0.0,0.30922817,0.0,0.338778608,True,,5ecef7476b4f691684117924,,685759,50,,evan-feature22,full_rf_b,,0
21,31107,51,,,,1,1,1.0,0.0,0.0,1.0,,0.0-48.0,,0.0,307.415,1.0,0.702068785,0.0,0.6528750879999999,0.0,0.287329608,1.0,0.35789613200000003,True,,5ecef7476b4f691684117924,,695850,51,,evan-feature22,full_rf_b,,0
22,31108,52,,,,1,1,0.0,0.0,0.0,1.0,,0.0-49.0,,0.0,416.605,0.0,0.651939787,0.0,0.636725589,0.0,0.284834488,0.0,0.358563756,True,,5ecef7476b4f691684117924,,706054,52,,evan-feature22,full_rf_b,,0
23,31109,53,,,,2,2,1.0,1.0,0.0,1.0,,0.0-50.0,,1.0,1645.325,1.0,0.67573929,0.0,0.612550049,1.0,0.37130387600000003,1.0,0.383542402,True,,5ecef7476b4f691684117924,,717488,53,,evan-feature22,full_rf_b,,1
24,31110,54,,,,2,2,1.0,1.0,0.0,1.0,,0.0-51.0,,1.0,47.28,1.0,0.620753801,1.0,0.60513644,1.0,0.385529434,1.0,0.340361743,True,,5ecef7476b4f691684117924,,727316,54,,evan-feature22,full_rf_b,,0
25,31111,55,,,,1,1,1.0,0.0,-1.0,0.0,,0.0-52.0,,-1.0,264.635,1.0,0.673564893,0.0,0.672437924,0.0,0.292955382,0.0,0.337633795,True,,5ecef7476b4f691684117924,,737352,55,,evan-feature22,full_rf_b,,1
26,31112,56,,,,2,2,0.0,1.0,0.0,1.0,,0.0-53.0,,1.0,704.435,0.0,0.6749427,0.0,0.724197502,0.0,0.32391132100000003,1.0,0.350995264,True,,5ecef7476b4f691684117924,,747924,56,,evan-feature22,full_rf_b,,1
27,31113,57,,,,2,2,1.0,1.0,0.0,1.0,,0.0-54.0,,1.0,727.64,1.0,0.6940159379999999,1.0,0.75,1.0,0.31710554399999996,1.0,0.413450341,True,,5ecef7476b4f691684117924,,758437,57,,evan-feature22,full_rf_b,,0
28,31114,58,,,,2,2,0.0,1.0,0.0,1.0,,0.0-55.0,,1.0,659.44,1.0,0.6916018270000001,1.0,0.69001187,0.0,0.261817804,1.0,0.40038635,True,,5ecef7476b4f691684117924,,768885,58,,evan-feature22,full_rf_b,,0
29,31115,59,,,,1,1,1.0,1.0,0.0,1.0,,0.0-56.0,,1.0,906.475,1.0,0.641061544,1.0,0.71337992,1.0,0.277296461,1.0,0.47372791700000005,True,,5ecef7476b4f691684117924,,779581,59,,evan-feature22,full_rf_b,,1
30,31116,60,,,,1,1,0.0,0.0,0.0,1.0,,0.0-57.0,,0.0,1495.565,0.0,0.6082438520000001,0.0,0.708471106,0.0,0.28745137,1.0,0.564174476,True,,5ecef7476b4f691684117924,,790857,60,,evan-feature22,full_rf_b,,0
31,31117,61,,,,2,2,1.0,0.0,-1.0,0.0,,0.0-58.0,,-1.0,1947.135,0.0,0.6051112120000001,1.0,0.7118147229999999,1.0,0.272390611,0.0,0.5595149939999999,True,,5ecef7476b4f691684117924,,802589,61,,evan-feature22,full_rf_b,,1
32,31118,62,,,,1,1,1.0,0.0,-1.0,0.0,,0.0-59.0,,-1.0,694.32,1.0,0.582420852,0.0,0.635867583,0.0,0.31089574,0.0,0.5227206520000001,True,,5ecef7476b4f691684117924,,813071,62,,evan-feature22,full_rf_b,,1
33,31119,63,,,,2,2,0.0,1.0,-1.0,0.0,,0.0-60.0,,0.0,419.71,1.0,0.623195575,1.0,0.655026044,0.0,0.25,1.0,0.560387538,True,,5ecef7476b4f691684117924,,823268,63,,evan-feature22,full_rf_b,,1
34,31120,64,,,,2,2,0.0,1.0,0.0,1.0,,0.0-61.0,,1.0,3134.65,0.0,0.601889598,1.0,0.678198724,0.0,0.25,1.0,0.559922936,True,,5ecef7476b4f691684117924,,836190,64,,evan-feature22,full_rf_b,,0
35,31121,65,,,,2,2,1.0,0.0,-1.0,0.0,,0.0-62.0,,-1.0,1176.1,1.0,0.601259914,0.0,0.704681482,1.0,0.33908969299999997,0.0,0.505003715,True,,5ecef7476b4f691684117924,,847153,65,,evan-feature22,full_rf_b,,0
36,31122,66,,,,1,1,0.0,1.0,-1.0,0.0,,0.0-63.0,,0.0,1462.035,0.0,0.59645454,1.0,0.710437172,1.0,0.327441879,0.0,0.391749613,True,,5ecef7476b4f691684117924,,858404,66,,evan-feature22,full_rf_b,,1
37,31123,67,,,,1,1,0.0,1.0,0.0,1.0,,0.0-64.0,,1.0,823.075,0.0,0.529473,1.0,0.636758527,0.0,0.301338063,0.0,0.365661481,True,,5ecef7476b4f691684117924,,869014,67,,evan-feature22,full_rf_b,,0
38,31124,68,,,,2,2,1.0,0.0,-1.0,0.0,,0.0-65.0,,-1.0,1093.02,1.0,0.541657162,1.0,0.634541962,1.0,0.343535366,0.0,0.371763742,True,,5ecef7476b4f691684117924,,879895,68,,evan-feature22,full_rf_b,,1
39,31125,69,,,,2,2,0.0,0.0,-1.0,0.0,,0.0-66.0,,0.0,523.965,1.0,0.5707533260000001,1.0,0.589121171,0.0,0.326428396,0.0,0.43961622899999997,True,,5ecef7476b4f691684117924,,890208,69,,evan-feature22,full_rf_b,,0
40,31126,70,,,,2,2,0.0,1.0,0.0,1.0,,0.0-67.0,,1.0,727.29,0.0,0.5707533260000001,0.0,0.589121171,0.0,0.326428396,1.0,0.43961622899999997,True,,5ecef7476b4f691684117924,,900718,70,,evan-feature22,full_rf_b,,0
41,31127,71,,,,2,2,1.0,1.0,0.0,1.0,,0.0-68.0,,1.0,539.4,1.0,0.506271295,1.0,0.641775594,1.0,0.37149690700000004,1.0,0.404330166,True,,5ecef7476b4f691684117924,,911048,71,,evan-feature22,full_rf_b,,0
42,31128,72,,,,2,2,0.0,1.0,-1.0,0.0,,0.0-69.0,,0.0,1006.675,1.0,0.455642565,0.0,0.623605825,0.0,0.358753011,1.0,0.346174041,True,,5ecef7476b4f691684117924,,921843,72,,evan-feature22,full_rf_b,,0
43,31129,73,,,,2,2,0.0,0.0,0.0,1.0,,0.0-70.0,,0.0,716.655,0.0,0.483677308,1.0,0.5904681070000001,0.0,0.402218411,0.0,0.35344697,True,,5ecef7476b4f691684117924,,932344,73,,evan-feature22,full_rf_b,,0
44,31130,74,,,,2,2,1.0,0.0,-1.0,0.0,,0.0-71.0,,-1.0,621.095,1.0,0.394210977,0.0,0.558925494,1.0,0.540052017,0.0,0.35182128700000004,True,,5ecef7476b4f691684117924,,942749,74,,evan-feature22,full_rf_b,,0
45,31131,75,,,,1,1,0.0,1.0,0.0,1.0,,0.0-72.0,,1.0,903.55,0.0,0.382300414,1.0,0.577670603,1.0,0.607608448,0.0,0.378261578,True,,5ecef7476b4f691684117924,,953433,75,,evan-feature22,full_rf_b,,1
46,31132,76,,,,1,1,0.0,1.0,-1.0,0.0,,0.0-73.0,,0.0,917.08,0.0,0.357596762,1.0,0.5929076529999999,0.0,0.6579790010000001,0.0,0.401326777,True,,5ecef7476b4f691684117924,,964139,76,,evan-feature22,full_rf_b,,0
47,31133,77,,,,1,1,0.0,1.0,0.0,1.0,,0.0-74.0,,1.0,920.185,0.0,0.362033495,1.0,0.582308608,1.0,0.649195052,1.0,0.355158505,True,,5ecef7476b4f691684117924,,974839,77,,evan-feature22,full_rf_b,,0
48,31134,78,,,,1,1,0.0,1.0,0.0,1.0,,0.0-75.0,,1.0,632.745,0.0,0.369620635,1.0,0.669100864,1.0,0.706059111,1.0,0.362516241,True,,5ecef7476b4f691684117924,,985261,78,,evan-feature22,full_rf_b,,0
49,31135,79,,,,1,1,1.0,1.0,0.0,1.0,,0.0-76.0,,1.0,565.795,1.0,0.41477751399999996,1.0,0.7284416779999999,1.0,0.7182656940000001,0.0,0.36228040899999997,True,,5ecef7476b4f691684117924,,995606,79,,evan-feature22,full_rf_b,,0
50,31136,80,,,,1,1,1.0,1.0,-1.0,0.0,,0.0-77.0,,-1.0,547.805,1.0,0.37675460299999997,1.0,0.703250285,1.0,0.75,0.0,0.461979164,True,,5ecef7476b4f691684117924,,1005938,80,,evan-feature22,full_rf_b,,0
51,31137,81,,,,2,2,1.0,0.0,-1.0,0.0,,0.0-78.0,,-1.0,1087.18,1.0,0.398716075,1.0,0.6723864890000001,1.0,0.674153818,0.0,0.519029516,True,,5ecef7476b4f691684117924,,1016811,81,,evan-feature22,full_rf_b,,1
52,31138,82,,,,1,1,0.0,0.0,-1.0,0.0,,0.0-79.0,,0.0,1074.47,0.0,0.34677856700000004,0.0,0.69057175,0.0,0.6822438540000001,0.0,0.477292237,True,,5ecef7476b4f691684117924,,1027674,82,,evan-feature22,full_rf_b,,1
53,31139,83,,,,1,1,0.0,1.0,0.0,1.0,,0.0-80.0,,1.0,865.29,0.0,0.28580469199999997,1.0,0.68408818,0.0,0.684207565,1.0,0.49780448299999996,True,,5ecef7476b4f691684117924,,1038326,83,,evan-feature22,full_rf_b,,0
54,31141,85,,,,1,1,0.0,0.0,0.0,1.0,,0.0-82.0,,0.0,632.01,0.0,0.25,0.0,0.7405808970000001,1.0,0.679614108,1.0,0.436436964,True,,5ecef7476b4f691684117924,,1051640,85,,evan-feature22,full_rf_b,,0
55,31142,86,,,,1,1,0.0,0.0,0.0,1.0,,0.0-83.0,,0.0,20.525,0.0,0.29890393,0.0,0.730505706,1.0,0.7328203320000001,0.0,0.439256938,True,,5ecef7476b4f691684117924,,1061445,86,,evan-feature22,full_rf_b,,0
56,31143,87,,,,2,2,1.0,0.0,-1.0,0.0,,0.0-84.0,,-1.0,968.025,0.0,0.326762398,1.0,0.7148059609999999,1.0,0.75,0.0,0.44389608799999997,True,,5ecef7476b4f691684117924,,1072196,87,,evan-feature22,full_rf_b,,1
57,31144,88,,,,1,1,0.0,1.0,0.0,1.0,,0.0-85.0,,1.0,815.41,0.0,0.295168515,1.0,0.739760854,1.0,0.719947008,1.0,0.35277284600000003,True,,5ecef7476b4f691684117924,,1082796,88,,evan-feature22,full_rf_b,,1
58,31145,89,,,,1,1,0.0,0.0,0.0,1.0,,0.0-86.0,,0.0,631.98,0.0,0.25,0.0,0.70781482,1.0,0.75,1.0,0.286095925,True,,5ecef7476b4f691684117924,,1093210,89,,evan-feature22,full_rf_b,,0
59,31146,90,,,,2,2,0.0,0.0,0.0,1.0,,0.0-87.0,,0.0,852.29,1.0,0.25638190899999996,0.0,0.704088163,0.0,0.75,0.0,0.26872601399999996,True,,5ecef7476b4f691684117924,,1103841,90,,evan-feature22,full_rf_b,,1
60,31147,91,,,,2,2,1.0,0.0,-1.0,0.0,,0.0-88.0,,-1.0,1103.6,0.0,0.271581126,1.0,0.669760107,1.0,0.733896663,0.0,0.273244572,True,,5ecef7476b4f691684117924,,1114730,91,,evan-feature22,full_rf_b,,0
61,31148,92,,,,1,1,0.0,1.0,0.0,1.0,,0.0-89.0,,1.0,745.435,0.0,0.257144401,1.0,0.600575706,1.0,0.74488122,0.0,0.25,True,,5ecef7476b4f691684117924,,1125254,92,,evan-feature22,full_rf_b,,1
62,31149,93,,,,2,2,1.0,0.0,0.0,1.0,,0.0-90.0,,0.0,530.58,1.0,0.25,1.0,0.616870026,1.0,0.723610234,0.0,0.25,True,,5ecef7476b4f691684117924,,1135568,93,,evan-feature22,full_rf_b,,1
63,31150,94,,,,2,2,0.0,0.0,-1.0,0.0,,0.0-91.0,,0.0,1218.625,1.0,0.25,0.0,0.583540187,0.0,0.7041042559999999,0.0,0.285961995,True,,5ecef7476b4f691684117924,,1146571,94,,evan-feature22,full_rf_b,,0
64,31151,95,,,,1,1,0.0,1.0,-1.0,0.0,,0.0-92.0,,0.0,559.585,0.0,0.27254536,1.0,0.53875765,1.0,0.693783448,0.0,0.284961652,True,,5ecef7476b4f691684117924,,1156917,95,,evan-feature22,full_rf_b,,1
65,31152,96,,,,2,2,1.0,0.0,-1.0,0.0,,0.0-93.0,,-1.0,576.475,0.0,0.25,0.0,0.548431252,1.0,0.734221895,0.0,0.279445214,True,,5ecef7476b4f691684117924,,1167281,96,,evan-feature22,full_rf_b,,1
66,31153,97,,,,1,1,0.0,1.0,0.0,1.0,,0.0-94.0,,1.0,567.41,0.0,0.258640684,1.0,0.545878066,1.0,0.725245965,0.0,0.31487537,True,,5ecef7476b4f691684117924,,1177639,97,,evan-feature22,full_rf_b,,1
67,31154,98,,,,2,2,1.0,0.0,0.0,1.0,,0.0-95.0,,0.0,564.245,0.0,0.251103711,0.0,0.5776290629999999,1.0,0.696320133,0.0,0.317831047,True,,5ecef7476b4f691684117924,,1187989,98,,evan-feature22,full_rf_b,,1
68,31155,99,,,,1,1,0.0,0.0,0.0,1.0,,0.0-96.0,,0.0,385.325,0.0,0.276630292,0.0,0.617329858,1.0,0.73838088,0.0,0.261471582,True,,5ecef7476b4f691684117924,,1198164,99,,evan-feature22,full_rf_b,,1
69,31156,100,,,,1,1,1.0,1.0,0.0,1.0,,0.0-97.0,,1.0,397.175,1.0,0.297716424,1.0,0.618863717,0.0,0.7402358259999999,1.0,0.262600834,True,,5ecef7476b4f691684117924,,1208341,100,,evan-feature22,full_rf_b,,0
70,31157,101,,,,2,2,1.0,0.0,-1.0,0.0,,0.0-98.0,,-1.0,528.3,0.0,0.290935512,1.0,0.695370945,1.0,0.706570507,0.0,0.280030553,True,,5ecef7476b4f691684117924,,1218649,101,,evan-feature22,full_rf_b,,1
71,31158,102,,,,2,2,1.0,0.0,0.0,1.0,,0.0-99.0,,0.0,499.195,0.0,0.25,1.0,0.6465277079999999,1.0,0.67766682,0.0,0.25,True,,5ecef7476b4f691684117924,,1228935,102,,evan-feature22,full_rf_b,,0
72,31159,103,,,,1,1,0.0,1.0,-1.0,0.0,,0.0-100.0,,0.0,360.105,0.0,0.26463816,1.0,0.636100213,0.0,0.646048507,1.0,0.265607101,True,,5ecef7476b4f691684117924,,1239085,103,,evan-feature22,full_rf_b,,1
73,31160,104,,,,2,2,1.0,0.0,-1.0,0.0,,0.0-101.0,,-1.0,449.335,0.0,0.314340707,0.0,0.667795927,1.0,0.613630805,0.0,0.25,True,,5ecef7476b4f691684117924,,1249316,104,,evan-feature22,full_rf_b,,1
74,31161,105,,,,1,1,0.0,1.0,0.0,1.0,,0.0-102.0,,1.0,327.77,0.0,0.28685784,1.0,0.6622549529999999,1.0,0.652154117,0.0,0.25,True,,5ecef7476b4f691684117924,,1259427,105,,evan-feature22,full_rf_b,,1
75,31162,106,,,,1,1,0.0,1.0,0.0,1.0,,0.0-103.0,,1.0,490.285,0.0,0.304106554,1.0,0.631289538,1.0,0.707041942,0.0,0.29314237,True,,5ecef7476b4f691684117924,,1269699,106,,evan-feature22,full_rf_b,,0
76,31163,107,,,,2,2,1.0,0.0,0.0,1.0,,0.0-104.0,,0.0,517.565,0.0,0.304806932,1.0,0.571167718,1.0,0.680472346,0.0,0.25,True,,5ecef7476b4f691684117924,,1280000,107,,evan-feature22,full_rf_b,,1
77,31164,108,,,,1,1,0.0,1.0,0.0,1.0,,0.0-105.0,,1.0,895.755,0.0,0.37919861,1.0,0.5724849710000001,1.0,0.705638003,0.0,0.30179300600000003,True,,5ecef7476b4f691684117924,,1290684,108,,evan-feature22,full_rf_b,,1
78,31165,109,,,,2,2,1.0,1.0,0.0,1.0,,0.0-106.0,,1.0,450.11,0.0,0.464277969,0.0,0.554034373,1.0,0.7372627340000001,1.0,0.264699741,True,,5ecef7476b4f691684117924,,1300922,109,,evan-feature22,full_rf_b,,1
79,31166,110,,,,1,1,0.0,0.0,0.0,1.0,,0.0-107.0,,0.0,516.24,0.0,0.465104323,0.0,0.530793115,0.0,0.75,0.0,0.31683071,True,,5ecef7476b4f691684117924,,1311218,110,,evan-feature22,full_rf_b,,1
80,31167,111,,,,2,2,1.0,1.0,-1.0,0.0,,0.0-108.0,,-1.0,782.005,0.0,0.465104323,0.0,0.530793115,1.0,0.75,1.0,0.31683071,True,,5ecef7476b4f691684117924,,1321784,111,,evan-feature22,full_rf_b,,1
81,31168,112,,,,2,2,1.0,0.0,-1.0,0.0,,0.0-109.0,,-1.0,522.025,0.0,0.46833986,1.0,0.570249239,1.0,0.7244472590000001,0.0,0.364114163,True,,5ecef7476b4f691684117924,,1332089,112,,evan-feature22,full_rf_b,,0
82,31169,113,,,,1,1,1.0,1.0,-1.0,0.0,,0.0-110.0,,-1.0,730.865,1.0,0.445444024,1.0,0.649673355,1.0,0.6845441290000001,1.0,0.300660449,True,,5ecef7476b4f691684117924,,1342604,113,,evan-feature22,full_rf_b,,1
83,31170,114,,,,2,2,0.0,0.0,-1.0,0.0,,0.0-111.0,,0.0,813.475,1.0,0.39909721299999995,1.0,0.6715179509999999,0.0,0.742310028,0.0,0.35496088299999995,True,,5ecef7476b4f691684117924,,1353207,114,,evan-feature22,full_rf_b,,1
84,31171,115,,,,1,1,0.0,0.0,0.0,1.0,,0.0-112.0,,0.0,489.325,0.0,0.37956104799999996,0.0,0.694725302,0.0,0.7181651309999999,1.0,0.38726906299999997,True,,5ecef7476b4f691684117924,,1363483,115,,evan-feature22,full_rf_b,,1
85,31172,116,,,,1,1,0.0,0.0,0.0,1.0,,0.0-113.0,,0.0,513.18,0.0,0.404995034,0.0,0.724375412,0.0,0.6910946859999999,1.0,0.387187347,True,,5ecef7476b4f691684117924,,1373777,116,,evan-feature22,full_rf_b,,0
86,31173,117,,,,2,2,1.0,1.0,-1.0,0.0,,0.0-114.0,,-1.0,2678.95,0.0,0.461740803,0.0,0.75,1.0,0.75,1.0,0.34872038200000005,True,,5ecef7476b4f691684117924,,1386243,117,,evan-feature22,full_rf_b,,1
87,31174,118,,,,2,2,0.0,1.0,-1.0,0.0,,0.0-115.0,,0.0,414.3,0.0,0.43821380600000004,0.0,0.738833273,0.0,0.728286963,1.0,0.399538128,True,,5ecef7476b4f691684117924,,1396440,118,,evan-feature22,full_rf_b,,0
88,31175,119,,,,1,1,1.0,1.0,0.0,1.0,,0.0-116.0,,1.0,443.885,1.0,0.41709882,1.0,0.736666736,1.0,0.75,0.0,0.389095584,True,,5ecef7476b4f691684117924,,1406674,119,,evan-feature22,full_rf_b,,1
89,31176,120,,,,1,1,0.0,1.0,0.0,1.0,,0.0-117.0,,1.0,446.03,0.0,0.39749009799999996,1.0,0.744320029,1.0,0.75,0.0,0.363848678,True,,5ecef7476b4f691684117924,,1416907,120,,evan-feature22,full_rf_b,,0
90,31177,121,,,,2,2,1.0,1.0,-1.0,0.0,,0.0-118.0,,-1.0,432.685,0.0,0.392653706,1.0,0.75,1.0,0.75,1.0,0.384386976,True,,5ecef7476b4f691684117924,,1427123,121,,evan-feature22,full_rf_b,,1
91,31178,122,,,,2,2,0.0,1.0,0.0,1.0,,0.0-119.0,,1.0,402.495,0.0,0.31190902600000003,0.0,0.75,0.0,0.732413819,1.0,0.413082932,True,,5ecef7476b4f691684117924,,1437316,122,,evan-feature22,full_rf_b,,0
92,31179,123,,,,1,1,1.0,0.0,-1.0,0.0,,0.0-120.0,,-1.0,415.095,1.0,0.366917648,0.0,0.740073855,1.0,0.75,0.0,0.352861979,True,,5ecef7476b4f691684117924,,1447513,123,,evan-feature22,full_rf_b,,1
93,31180,124,,,,1,1,1.0,0.0,-1.0,0.0,,0.0-121.0,,-1.0,438.61,1.0,0.3645172,0.0,0.721770713,1.0,0.75,1.0,0.404074511,True,,5ecef7476b4f691684117924,,1457735,124,,evan-feature22,full_rf_b,,0
94,31181,125,,,,2,2,1.0,0.0,-1.0,0.0,,0.0-122.0,,-1.0,834.37,1.0,0.35205600299999995,0.0,0.68983859,1.0,0.739735447,0.0,0.366895945,True,,5ecef7476b4f691684117924,,1468352,125,,evan-feature22,full_rf_b,,1
95,31182,126,,,,1,1,0.0,1.0,-1.0,0.0,,0.0-123.0,,0.0,747.33,0.0,0.40998722600000004,1.0,0.720859127,1.0,0.673854955,0.0,0.368528541,True,,5ecef7476b4f691684117924,,1478875,126,,evan-feature22,full_rf_b,,1
96,31183,127,,,,1,1,1.0,1.0,-1.0,0.0,,0.0-124.0,,-1.0,411.005,1.0,0.353625316,1.0,0.75,1.0,0.695605473,1.0,0.38303674200000004,True,,5ecef7476b4f691684117924,,1489071,127,,evan-feature22,full_rf_b,,0
97,31184,128,,,,2,2,1.0,0.0,-1.0,0.0,,0.0-125.0,,-1.0,391.905,0.0,0.359216989,1.0,0.75,1.0,0.6987915090000001,0.0,0.35169046200000004,True,,5ecef7476b4f691684117924,,1499244,128,,evan-feature22,full_rf_b,,1
98,31185,129,,,,2,2,0.0,1.0,-1.0,0.0,,0.0-126.0,,0.0,402.675,0.0,0.35834496899999996,1.0,0.75,0.0,0.707067742,1.0,0.416763636,True,,5ecef7476b4f691684117924,,1509428,129,,evan-feature22,full_rf_b,,0
99,31186,130,,,,1,1,0.0,1.0,0.0,1.0,,0.0-127.0,,1.0,386.93,0.0,0.38741613799999997,1.0,0.7177369570000001,1.0,0.734902455,1.0,0.49438664299999996,True,,5ecef7476b4f691684117924,,1519602,130,,evan-feature22,full_rf_b,,1
100,31187,131,,,,2,2,0.0,1.0,-1.0,0.0,,0.0-128.0,,0.0,361.355,0.0,0.405255252,1.0,0.7300466640000001,0.0,0.7027748070000001,1.0,0.504359668,True,,5ecef7476b4f691684117924,,1529736,131,,evan-feature22,full_rf_b,,1
101,31188,132,,,,2,2,0.0,1.0,-1.0,0.0,,0.0-129.0,,0.0,399.97,1.0,0.40697073,1.0,0.7260142190000001,0.0,0.724461982,1.0,0.522779179,True,,5ecef7476b4f691684117924,,1539919,132,,evan-feature22,full_rf_b,,0
102,31189,133,,,,1,1,1.0,0.0,-1.0,0.0,,0.0-130.0,,-1.0,365.3,1.0,0.43906215299999996,0.0,0.7252802340000001,0.0,0.719079934,1.0,0.5712990579999999,True,,5ecef7476b4f691684117924,,1550065,133,,evan-feature22,full_rf_b,,1
103,31190,134,,,,1,1,0.0,0.0,0.0,1.0,,0.0-131.0,,0.0,394.755,0.0,0.4076705,0.0,0.73280499,1.0,0.681313127,0.0,0.523891346,True,,5ecef7476b4f691684117924,,1560248,134,,evan-feature22,full_rf_b,,0
104,31191,135,,,,2,2,1.0,1.0,0.0,1.0,,0.0-132.0,,1.0,397.67,1.0,0.399102911,1.0,0.730498344,1.0,0.661080239,1.0,0.46742603,True,,5ecef7476b4f691684117924,,1570435,135,,evan-feature22,full_rf_b,,1
105,31192,136,,,,1,1,1.0,0.0,0.0,1.0,,0.0-133.0,,0.0,470.915,1.0,0.356477282,0.0,0.712296395,1.0,0.641812684,0.0,0.44868414,True,,5ecef7476b4f691684117924,,1580679,136,,evan-feature22,full_rf_b,,1
106,31193,137,,,,2,2,1.0,0.0,-1.0,0.0,,0.0-134.0,,-1.0,372.62,1.0,0.462760722,1.0,0.692349322,1.0,0.700947931,0.0,0.394680266,True,,5ecef7476b4f691684117924,,1590839,137,,evan-feature22,full_rf_b,,1
107,31194,138,,,,1,1,0.0,0.0,-1.0,0.0,,0.0-135.0,,0.0,407.09,0.0,0.422306413,0.0,0.718375916,0.0,0.706340917,1.0,0.367787185,True,,5ecef7476b4f691684117924,,1601026,138,,evan-feature22,full_rf_b,,1
108,31196,140,,,,1,1,1.0,1.0,-1.0,0.0,,0.0-137.0,,-1.0,881.635,1.0,0.4582233,1.0,0.643834117,1.0,0.75,1.0,0.39615823299999997,True,,5ecef7476b4f691684117924,,1613696,140,,evan-feature22,full_rf_b,,0
109,31197,141,,,,2,2,0.0,0.0,-1.0,0.0,,0.0-138.0,,0.0,379.09,0.0,0.43813437899999996,1.0,0.651283804,0.0,0.729674191,0.0,0.37711048,True,,5ecef7476b4f691684117924,,1623863,141,,evan-feature22,full_rf_b,,1
110,31198,142,,,,2,2,1.0,1.0,-1.0,0.0,,0.0-139.0,,-1.0,1117.21,1.0,0.471199094,1.0,0.6470010979999999,1.0,0.715008097,1.0,0.410656191,True,,5ecef7476b4f691684117924,,1634765,142,,evan-feature22,full_rf_b,,0
111,31199,143,,,,2,2,0.0,1.0,-1.0,0.0,,0.0-140.0,,0.0,940.05,1.0,0.42486406,1.0,0.629771829,0.0,0.6550939960000001,1.0,0.459093873,True,,5ecef7476b4f691684117924,,1645495,143,,evan-feature22,full_rf_b,,0
112,31200,144,,,,2,2,1.0,0.0,-1.0,0.0,,0.0-141.0,,-1.0,1283.7,1.0,0.4803197,1.0,0.645842715,1.0,0.6421749920000001,0.0,0.443092151,True,,5ecef7476b4f691684117924,,1656560,144,,evan-feature22,full_rf_b,,0
113,31201,145,,,,1,1,0.0,1.0,0.0,1.0,,0.0-142.0,,1.0,476.975,0.0,0.521848997,1.0,0.735801074,1.0,0.6691348460000001,1.0,0.45259351600000003,True,,5ecef7476b4f691684117924,,1666819,145,,evan-feature22,full_rf_b,,1
114,31202,146,,,,1,1,0.0,1.0,-1.0,0.0,,0.0-143.0,,0.0,1880.76,0.0,0.49565621299999996,1.0,0.742400847,1.0,0.661512553,1.0,0.483110831,True,,5ecef7476b4f691684117924,,1678488,146,,evan-feature22,full_rf_b,,0
115,31203,147,,,,1,1,1.0,1.0,-1.0,0.0,,0.0-144.0,,-1.0,420.185,1.0,0.521564361,1.0,0.731078632,1.0,0.6774886809999999,0.0,0.483263956,True,,5ecef7476b4f691684117924,,1688685,147,,evan-feature22,full_rf_b,,0
116,31204,148,,,,2,2,1.0,0.0,-1.0,0.0,,0.0-145.0,,-1.0,641.01,1.0,0.558893102,1.0,0.719810023,1.0,0.67461031,0.0,0.499349834,True,,5ecef7476b4f691684117924,,1699113,148,,evan-feature22,full_rf_b,,1
117,31205,149,,,,2,2,1.0,1.0,-1.0,0.0,,0.0-146.0,,-1.0,1077.695,1.0,0.611031046,1.0,0.75,1.0,0.688072995,1.0,0.5321422729999999,True,,5ecef7476b4f691684117924,,1709975,149,,evan-feature22,full_rf_b,,0
118,31206,150,,,,2,2,1.0,1.0,0.0,1.0,,0.0-147.0,,1.0,876.4,0.0,0.633223941,1.0,0.713567728,1.0,0.75,1.0,0.48185314700000004,True,,5ecef7476b4f691684117924,,1720639,150,,evan-feature22,full_rf_b,,0
119,31207,151,,,,2,2,1.0,0.0,-1.0,0.0,,0.0-148.0,,-1.0,614.065,1.0,0.664001694,1.0,0.705509768,1.0,0.75,0.0,0.500211065,True,,5ecef7476b4f691684117924,,1731042,151,,evan-feature22,full_rf_b,,0
120,31208,152,,,,1,1,1.0,0.0,-1.0,0.0,,0.0-149.0,,-1.0,795.54,1.0,0.664001694,0.0,0.705509768,1.0,0.75,1.0,0.500211065,True,,5ecef7476b4f691684117924,,1741622,152,,evan-feature22,full_rf_b,,1
121,31209,153,,,,1,1,1.0,1.0,-1.0,0.0,,0.0-150.0,,-1.0,418.175,1.0,0.696508041,1.0,0.71066027,0.0,0.717028709,0.0,0.49792991,True,,5ecef7476b4f691684117924,,1751826,153,,evan-feature22,full_rf_b,,0
122,31210,154,,,,2,2,0.0,0.0,0.0,1.0,,0.0-151.0,,0.0,440.75,1.0,0.699883272,1.0,0.75,0.0,0.713543895,0.0,0.496962643,True,,5ecef7476b4f691684117924,,1762046,154,,evan-feature22,full_rf_b,,1
123,31211,155,,,,2,2,1.0,0.0,0.0,1.0,,0.0-152.0,,0.0,572.76,1.0,0.741163419,1.0,0.75,1.0,0.64691024,0.0,0.513858197,True,,5ecef7476b4f691684117924,,1772406,155,,evan-feature22,full_rf_b,,0
124,31212,156,,,,1,1,1.0,0.0,0.0,1.0,,0.0-153.0,,0.0,723.695,1.0,0.75,0.0,0.70816558,1.0,0.594499079,0.0,0.48502124,True,,5ecef7476b4f691684117924,,1782915,156,,evan-feature22,full_rf_b,,1
125,31213,157,,,,1,1,1.0,1.0,-1.0,0.0,,0.0-154.0,,-1.0,550.14,1.0,0.75,1.0,0.721848901,1.0,0.62197249,1.0,0.48263586399999997,True,,5ecef7476b4f691684117924,,1793254,157,,evan-feature22,full_rf_b,,0
126,31214,158,,,,2,2,0.0,0.0,-1.0,0.0,,0.0-155.0,,0.0,1219.215,1.0,0.75,0.0,0.74813071,0.0,0.584357161,0.0,0.411477782,True,,5ecef7476b4f691684117924,,1804260,158,,evan-feature22,full_rf_b,,1
127,31215,159,,,,2,2,0.0,1.0,-1.0,0.0,,0.0-156.0,,0.0,528.52,1.0,0.75,1.0,0.75,0.0,0.52287236,1.0,0.488290656,True,,5ecef7476b4f691684117924,,1814571,159,,evan-feature22,full_rf_b,,0
128,31216,160,,,,2,2,1.0,0.0,-1.0,0.0,,0.0-157.0,,-1.0,375.165,1.0,0.75,1.0,0.75,1.0,0.544321581,0.0,0.53143059,True,,5ecef7476b4f691684117924,,1824732,160,,evan-feature22,full_rf_b,,0
129,31217,161,,,,1,1,1.0,1.0,-1.0,0.0,,0.0-158.0,,-1.0,42.38,1.0,0.726754564,1.0,0.75,1.0,0.5129306370000001,0.0,0.530592445,True,,5ecef7476b4f691684117924,,1834560,161,,evan-feature22,full_rf_b,,1
130,31218,162,,,,1,1,1.0,1.0,0.0,1.0,,0.0-159.0,,1.0,405.995,1.0,0.75,1.0,0.7392590729999999,0.0,0.479875835,0.0,0.547007051,True,,5ecef7476b4f691684117924,,1844753,162,,evan-feature22,full_rf_b,,0
131,31219,163,,,,1,1,1.0,1.0,0.0,1.0,,0.0-160.0,,1.0,972.845,1.0,0.75,1.0,0.7393376979999999,1.0,0.546045419,0.0,0.541267353,True,,5ecef7476b4f691684117924,,1855508,163,,evan-feature22,full_rf_b,,0
132,31220,164,,,,1,1,1.0,0.0,-1.0,0.0,,0.0-161.0,,-1.0,425.785,1.0,0.75,0.0,0.75,0.0,0.485725895,1.0,0.527625395,True,,5ecef7476b4f691684117924,,1865723,164,,evan-feature22,full_rf_b,,0
133,31221,165,,,,2,2,1.0,1.0,0.0,1.0,,0.0-162.0,,1.0,1112.725,1.0,0.75,1.0,0.725087974,1.0,0.488603595,1.0,0.504019206,True,,5ecef7476b4f691684117924,,1876621,165,,evan-feature22,full_rf_b,,1
134,31222,166,,,,2,2,1.0,0.0,-1.0,0.0,,0.0-163.0,,-1.0,1169.895,1.0,0.745504295,1.0,0.75,1.0,0.452379914,0.0,0.50131194,True,,5ecef7476b4f691684117924,,1887578,166,,evan-feature22,full_rf_b,,0
135,31223,167,,,,1,1,1.0,1.0,0.0,1.0,,0.0-164.0,,1.0,836.305,1.0,0.728513874,1.0,0.75,0.0,0.44125567200000004,1.0,0.531454591,True,,5ecef7476b4f691684117924,,1898204,167,,evan-feature22,full_rf_b,,1
136,31224,168,,,,1,1,1.0,1.0,-1.0,0.0,,0.0-165.0,,-1.0,797.645,1.0,0.73790804,1.0,0.75,0.0,0.413036656,0.0,0.524619035,True,,5ecef7476b4f691684117924,,1908791,168,,evan-feature22,full_rf_b,,0
137,31225,169,,,,2,2,1.0,0.0,-1.0,0.0,,0.0-166.0,,-1.0,729.965,1.0,0.7080961309999999,1.0,0.708666865,1.0,0.431915581,0.0,0.481819489,True,,5ecef7476b4f691684117924,,1919308,169,,evan-feature22,full_rf_b,,1
138,31226,170,,,,2,2,0.0,0.0,-1.0,0.0,,0.0-167.0,,0.0,651.765,1.0,0.721378003,0.0,0.71605913,0.0,0.36642387,0.0,0.5036739929999999,True,,5ecef7476b4f691684117924,,1929745,170,,evan-feature22,full_rf_b,,0
139,31227,171,,,,1,1,1.0,1.0,0.0,1.0,,0.0-168.0,,1.0,736.33,1.0,0.7340618959999999,1.0,0.699323252,1.0,0.35298046299999997,0.0,0.511241692,True,,5ecef7476b4f691684117924,,1940262,171,,evan-feature22,full_rf_b,,1
140,31228,172,,,,1,1,1.0,1.0,0.0,1.0,,0.0-169.0,,1.0,959.04,1.0,0.75,1.0,0.70412698,0.0,0.380734814,0.0,0.529580116,True,,5ecef7476b4f691684117924,,1951010,172,,evan-feature22,full_rf_b,,0
141,31229,173,,,,1,1,0.0,1.0,0.0,1.0,,0.0-170.0,,1.0,1088.07,0.0,0.7436654909999999,1.0,0.711182751,0.0,0.41125331,1.0,0.49554405,True,,5ecef7476b4f691684117924,,1961888,173,,evan-feature22,full_rf_b,,0
142,31230,174,,,,1,1,1.0,0.0,-1.0,0.0,,0.0-171.0,,-1.0,3367.665,1.0,0.731607915,0.0,0.651774583,0.0,0.35688023,0.0,0.45194491600000003,True,,5ecef7476b4f691684117924,,1975030,174,,evan-feature22,full_rf_b,,0
143,31231,175,,,,2,2,1.0,1.0,0.0,1.0,,0.0-172.0,,1.0,658.8,1.0,0.75,1.0,0.75,1.0,0.283145374,1.0,0.528608005,True,,5ecef7476b4f691684117924,,1985461,175,,evan-feature22,full_rf_b,,1
144,31232,176,,,,1,1,0.0,1.0,-1.0,0.0,,0.0-173.0,,0.0,740.94,0.0,0.7491416890000001,1.0,0.7423785959999999,1.0,0.29135870399999997,1.0,0.498888318,True,,5ecef7476b4f691684117924,,1995979,176,,evan-feature22,full_rf_b,,1
145,31233,177,,,,2,2,0.0,1.0,0.0,1.0,,0.0-174.0,,1.0,487.135,1.0,0.708569387,1.0,0.717682277,0.0,0.294421699,1.0,0.493838163,True,,5ecef7476b4f691684117924,,2006235,177,,evan-feature22,full_rf_b,,1
146,31234,178,,,,1,1,1.0,1.0,-1.0,0.0,,0.0-175.0,,-1.0,379.44,1.0,0.75,1.0,0.7383382159999999,0.0,0.356098707,1.0,0.442533405,True,,5ecef7476b4f691684117924,,2016377,178,,evan-feature22,full_rf_b,,1
147,31235,179,,,,1,1,1.0,0.0,-1.0,0.0,,0.0-176.0,,-1.0,364.315,1.0,0.744527075,0.0,0.75,0.0,0.334127506,1.0,0.393165805,True,,5ecef7476b4f691684117924,,2026516,179,,evan-feature22,full_rf_b,,0
148,31236,180,,,,2,2,1.0,0.0,-1.0,0.0,,0.0-177.0,,-1.0,355.345,0.0,0.75,1.0,0.75,1.0,0.33571021799999995,0.0,0.350393962,True,,5ecef7476b4f691684117924,,2036645,180,,evan-feature22,full_rf_b,,1
149,31237,181,,,,2,2,0.0,0.0,0.0,1.0,,0.0-178.0,,0.0,349.495,0.0,0.75,1.0,0.75,0.0,0.313628297,0.0,0.36349657399999996,True,,5ecef7476b4f691684117924,,2046770,181,,evan-feature22,full_rf_b,,0
150,31238,182,,,,1,1,1.0,1.0,-1.0,0.0,,0.0-179.0,,-1.0,851.81,1.0,0.75,1.0,0.734284182,1.0,0.262667667,1.0,0.380199119,True,,5ecef7476b4f691684117924,,2057403,182,,evan-feature22,full_rf_b,,1
151,31239,183,,,,1,1,1.0,1.0,-1.0,0.0,,0.0-180.0,,-1.0,377.355,1.0,0.75,1.0,0.75,0.0,0.25,0.0,0.394494013,True,,5ecef7476b4f691684117924,,2067561,183,,evan-feature22,full_rf_b,,0
152,31240,184,,,,2,2,0.0,0.0,-1.0,0.0,,0.0-181.0,,0.0,367.265,1.0,0.722298145,1.0,0.7357822340000001,0.0,0.25,0.0,0.319142121,True,,5ecef7476b4f691684117924,,2077715,184,,evan-feature22,full_rf_b,,1
153,31241,185,,,,2,2,0.0,0.0,-1.0,0.0,,0.0-182.0,,0.0,565.47,1.0,0.73149275,0.0,0.724276446,0.0,0.305856907,0.0,0.281315057,True,,5ecef7476b4f691684117924,,2088065,185,,evan-feature22,full_rf_b,,0
154,31242,186,,,,1,1,1.0,1.0,-1.0,0.0,,0.0-183.0,,-1.0,375.725,1.0,0.7458732690000001,1.0,0.7336382459999999,0.0,0.272571964,0.0,0.266021999,True,,5ecef7476b4f691684117924,,2098229,186,,evan-feature22,full_rf_b,,1
155,31243,187,,,,1,1,1.0,1.0,0.0,1.0,,0.0-184.0,,1.0,353.575,1.0,0.705579037,1.0,0.720778292,1.0,0.320238144,0.0,0.30971744,True,,5ecef7476b4f691684117924,,2108369,187,,evan-feature22,full_rf_b,,0
156,31244,188,,,,2,2,0.0,1.0,0.0,1.0,,0.0-185.0,,1.0,338.595,0.0,0.700425648,1.0,0.7198784009999999,0.0,0.272590393,1.0,0.304182931,True,,5ecef7476b4f691684117924,,2118495,188,,evan-feature22,full_rf_b,,1
157,31245,189,,,,1,1,0.0,0.0,0.0,1.0,,0.0-186.0,,0.0,403.74,0.0,0.735590785,0.0,0.722714973,1.0,0.25,1.0,0.323421091,True,,5ecef7476b4f691684117924,,2128679,189,,evan-feature22,full_rf_b,,1
158,31246,190,,,,1,1,1.0,1.0,0.0,1.0,,0.0-187.0,,1.0,348.49,1.0,0.724807662,1.0,0.63146213,1.0,0.36836492600000004,0.0,0.34592153299999995,True,,5ecef7476b4f691684117924,,2138813,190,,evan-feature22,full_rf_b,,0
159,31247,191,,,,2,2,1.0,1.0,-1.0,0.0,,0.0-188.0,,-1.0,356.495,1.0,0.7352796909999999,0.0,0.555111392,1.0,0.36003922,1.0,0.31433779999999995,True,,5ecef7476b4f691684117924,,2148950,191,,evan-feature22,full_rf_b,,1
160,31248,192,notice,,,,,,,,,,0.0-189.0,"{""Q0"":""No""}",,8694.0,,,,,,,,,True,,5ecef7476b4f691684117924,,2157645,192,Q,survey-text,full_rf_b,,1
161,31249,193,track1,,[1],,,,,,,,0.0-190.0,"{""Q0"":""no""}",,4245.0,,,,,,,,,True,,5ecef7476b4f691684117924,,2161894,193,Q,evan-quiz,full_rf_b,,1
162,31250,194,track2,,[0],,,,,,,,0.0-191.0,"{""Q0"":""yes""}",,5755.0,,,,,,,,,True,,5ecef7476b4f691684117924,,2167654,194,Q,evan-quiz,full_rf_b,,1
163,31251,195,strat,,,,,,,,,,0.0-192.0,"{""Q0"":""Random selection""}",,8386.0,,,,,,,,,True,,5ecef7476b4f691684117924,,2176044,195,Q,survey-text,full_rf_b,,1
