,index,Unnamed: 0,Q_name,button_pressed,choice_idxs,chosen_pos,chosen_state,chosen_state_f_1_outcome,chosen_state_f_2_outcome,f_1_reward,f_2_reward,incor_questions,internal_node_id,responses,reward_received,rt,s_1_f_1_outcome,s_1_f_1_prob,s_1_f_2_outcome,s_1_f_2_prob,s_2_f_1_outcome,s_2_f_1_prob,s_2_f_2_outcome,s_2_f_2_prob,safe_first,stimulus,subjectID,success,time_elapsed,trial_index,trial_num,trial_type,version,view_history,switching
0,27324,25,,,,1,1,1.0,1.0,-1.0,0.0,,0.0-27.0,,-1.0,235.3950001,1.0,0.6,1.0,0.6,1.0,0.4,1.0,0.4,False,,5c7458b0d094c900013c3bf0,,787657,25,,evan-feature22,full_pf_b,,0
1,27325,26,,,,2,2,1.0,0.0,-1.0,0.0,,0.0-28.0,,-1.0,1560.33,1.0,0.608053294,0.0,0.63424552,1.0,0.397152172,0.0,0.347069101,False,,5c7458b0d094c900013c3bf0,,798983,26,,evan-feature22,full_pf_b,,1
2,27326,27,,,,1,1,1.0,0.0,-1.0,0.0,,0.0-29.0,,-1.0,284.7199999,1.0,0.642237155,0.0,0.648566321,0.0,0.389407674,1.0,0.285525717,False,,5c7458b0d094c900013c3bf0,,809033,27,,evan-feature22,full_pf_b,,1
3,27327,28,,,,2,2,1.0,0.0,-1.0,0.0,,0.0-30.0,,-1.0,57.26000015,0.0,0.661086576,0.0,0.630492543,1.0,0.399058924,0.0,0.25,False,,5c7458b0d094c900013c3bf0,,818852,28,,evan-feature22,full_pf_b,,1
4,27328,29,,,,1,1,1.0,1.0,0.0,1.0,,0.0-31.0,,1.0,208.81,1.0,0.631324137,1.0,0.6269842929999999,0.0,0.38734784299999997,1.0,0.25,False,,5c7458b0d094c900013c3bf0,,828823,29,,evan-feature22,full_pf_b,,1
5,27329,30,,,,1,1,0.0,1.0,0.0,1.0,,0.0-32.0,,1.0,925.4700001,0.0,0.6381991370000001,1.0,0.68987999,0.0,0.384107265,0.0,0.271332943,False,,5c7458b0d094c900013c3bf0,,839511,30,,evan-feature22,full_pf_b,,0
6,27330,31,,,,1,1,1.0,1.0,-1.0,0.0,,0.0-33.0,,-1.0,3180.995,1.0,0.66034901,1.0,0.742641349,0.0,0.360225629,1.0,0.25,False,,5c7458b0d094c900013c3bf0,,852455,31,,evan-feature22,full_pf_b,,0
7,27331,32,,,,2,2,0.0,1.0,-1.0,0.0,,0.0-34.0,,0.0,718.355,0.0,0.638612418,1.0,0.75,0.0,0.367273939,1.0,0.25,False,,5c7458b0d094c900013c3bf0,,862936,32,,evan-feature22,full_pf_b,,1
8,27332,33,,,,2,2,1.0,0.0,0.0,1.0,,0.0-35.0,,0.0,716.065,1.0,0.624340629,1.0,0.75,1.0,0.425829545,0.0,0.25,False,,5c7458b0d094c900013c3bf0,,873414,33,,evan-feature22,full_pf_b,,0
9,27333,34,,,,1,1,1.0,1.0,0.0,1.0,,0.0-36.0,,1.0,545.1450001000001,1.0,0.621999804,1.0,0.75,0.0,0.368609357,1.0,0.25,False,,5c7458b0d094c900013c3bf0,,883721,34,,evan-feature22,full_pf_b,,1
10,27334,35,,,,1,1,1.0,1.0,-1.0,0.0,,0.0-37.0,,-1.0,664.4899998999999,1.0,0.62666403,1.0,0.75,1.0,0.311151498,0.0,0.25,False,,5c7458b0d094c900013c3bf0,,894149,35,,evan-feature22,full_pf_b,,0
11,27335,36,,,,2,2,0.0,0.0,0.0,1.0,,0.0-38.0,,0.0,797.9600001,1.0,0.6819650009999999,1.0,0.75,0.0,0.310763048,0.0,0.25,False,,5c7458b0d094c900013c3bf0,,904712,36,,evan-feature22,full_pf_b,,1
12,27336,37,,,,2,2,0.0,1.0,-1.0,0.0,,0.0-39.0,,0.0,667.385,1.0,0.740626951,1.0,0.75,0.0,0.25,1.0,0.25,False,,5c7458b0d094c900013c3bf0,,915147,37,,evan-feature22,full_pf_b,,0
13,27337,38,,,,2,2,1.0,1.0,-1.0,0.0,,0.0-40.0,,-1.0,727.375,1.0,0.739599242,1.0,0.742034978,1.0,0.25397114600000004,1.0,0.25,False,,5c7458b0d094c900013c3bf0,,925639,38,,evan-feature22,full_pf_b,,0
14,27338,39,,,,1,1,1.0,1.0,-1.0,0.0,,0.0-41.0,,-1.0,1168.89,1.0,0.732341315,1.0,0.72735643,0.0,0.25,0.0,0.25,False,,5c7458b0d094c900013c3bf0,,936570,39,,evan-feature22,full_pf_b,,1
15,27339,40,,,,2,2,0.0,1.0,-1.0,0.0,,0.0-42.0,,0.0,715.4899998999999,1.0,0.7062287770000001,1.0,0.75,0.0,0.29002151,1.0,0.288256649,False,,5c7458b0d094c900013c3bf0,,947048,40,,evan-feature22,full_pf_b,,1
16,27340,41,,,,2,2,0.0,0.0,-1.0,0.0,,0.0-43.0,,0.0,701.1150001,1.0,0.7086029209999999,0.0,0.75,0.0,0.274129113,0.0,0.262851608,False,,5c7458b0d094c900013c3bf0,,957511,41,,evan-feature22,full_pf_b,,0
17,27341,42,,,,2,2,0.0,0.0,-1.0,0.0,,0.0-44.0,,0.0,796.5150001000001,1.0,0.669189651,0.0,0.727614338,0.0,0.298444036,0.0,0.296944518,False,,5c7458b0d094c900013c3bf0,,968073,42,,evan-feature22,full_pf_b,,0
18,27342,43,,,,1,1,1.0,1.0,-1.0,0.0,,0.0-45.0,,-1.0,490.585,1.0,0.6819912929999999,1.0,0.7179434290000001,0.0,0.265003961,0.0,0.28157921199999997,False,,5c7458b0d094c900013c3bf0,,978327,43,,evan-feature22,full_pf_b,,1
19,27343,44,,,,1,1,1.0,1.0,0.0,1.0,,0.0-46.0,,1.0,463.45000020000003,1.0,0.665275002,1.0,0.723065271,0.0,0.260414971,0.0,0.30973870000000003,False,,5c7458b0d094c900013c3bf0,,988552,44,,evan-feature22,full_pf_b,,0
20,27344,45,,,,1,1,1.0,1.0,-1.0,0.0,,0.0-47.0,,-1.0,475.4349999,1.0,0.6660593260000001,1.0,0.728032907,0.0,0.30922817,0.0,0.338778608,False,,5c7458b0d094c900013c3bf0,,998791,45,,evan-feature22,full_pf_b,,0
21,27345,46,,,,1,1,1.0,1.0,-1.0,0.0,,0.0-48.0,,-1.0,620.1150001,1.0,0.702068785,1.0,0.6528750879999999,0.0,0.287329608,1.0,0.35789613200000003,False,,5c7458b0d094c900013c3bf0,,1009175,46,,evan-feature22,full_pf_b,,0
22,27346,47,,,,1,1,1.0,1.0,-1.0,0.0,,0.0-49.0,,-1.0,1182.42,1.0,0.651939787,1.0,0.636725589,0.0,0.284834488,0.0,0.358563756,False,,5c7458b0d094c900013c3bf0,,1020120,47,,evan-feature22,full_pf_b,,0
23,27347,48,,,,1,1,1.0,1.0,0.0,1.0,,0.0-50.0,,1.0,1276.675,1.0,0.67573929,1.0,0.612550049,0.0,0.37130387600000003,0.0,0.383542402,False,,5c7458b0d094c900013c3bf0,,1031158,48,,evan-feature22,full_pf_b,,0
24,27348,49,,,,1,1,1.0,1.0,0.0,1.0,,0.0-51.0,,1.0,1051.635,1.0,0.620753801,1.0,0.60513644,0.0,0.385529434,0.0,0.340361743,False,,5c7458b0d094c900013c3bf0,,1041971,49,,evan-feature22,full_pf_b,,0
25,27349,50,,,,1,1,1.0,0.0,0.0,1.0,,0.0-52.0,,0.0,783.1300001,1.0,0.673564893,0.0,0.672437924,0.0,0.292955382,0.0,0.337633795,False,,5c7458b0d094c900013c3bf0,,1052518,50,,evan-feature22,full_pf_b,,0
26,27350,51,,,,1,1,0.0,1.0,-1.0,0.0,,0.0-53.0,,0.0,895.0400001,0.0,0.6749427,1.0,0.724197502,0.0,0.32391132100000003,1.0,0.350995264,False,,5c7458b0d094c900013c3bf0,,1063177,51,,evan-feature22,full_pf_b,,0
27,27351,52,,,,1,1,1.0,1.0,-1.0,0.0,,0.0-54.0,,-1.0,3147.65,1.0,0.6940159379999999,1.0,0.75,0.0,0.31710554399999996,1.0,0.413450341,False,,5c7458b0d094c900013c3bf0,,1076088,52,,evan-feature22,full_pf_b,,0
28,27352,53,,,,1,1,1.0,1.0,-1.0,0.0,,0.0-55.0,,-1.0,1594.83,1.0,0.6916018270000001,1.0,0.69001187,0.0,0.261817804,0.0,0.40038635,False,,5c7458b0d094c900013c3bf0,,1087447,53,,evan-feature22,full_pf_b,,0
29,27353,54,,,,1,1,1.0,1.0,-1.0,0.0,,0.0-56.0,,-1.0,2174.525,1.0,0.641061544,1.0,0.71337992,0.0,0.277296461,0.0,0.47372791700000005,False,,5c7458b0d094c900013c3bf0,,1099383,54,,evan-feature22,full_pf_b,,0
30,27354,55,,,,1,1,1.0,1.0,-1.0,0.0,,0.0-57.0,,-1.0,767.0699998,1.0,0.6082438520000001,1.0,0.708471106,0.0,0.28745137,0.0,0.564174476,False,,5c7458b0d094c900013c3bf0,,1109913,55,,evan-feature22,full_pf_b,,0
31,27355,56,,,,2,2,0.0,1.0,-1.0,0.0,,0.0-58.0,,0.0,492.3750001,1.0,0.6051112120000001,1.0,0.7118147229999999,0.0,0.272390611,1.0,0.5595149939999999,False,,5c7458b0d094c900013c3bf0,,1120169,56,,evan-feature22,full_pf_b,,1
32,27356,57,,,,2,2,0.0,1.0,-1.0,0.0,,0.0-59.0,,0.0,506.145,1.0,0.582420852,0.0,0.635867583,0.0,0.31089574,1.0,0.5227206520000001,False,,5c7458b0d094c900013c3bf0,,1130436,57,,evan-feature22,full_pf_b,,0
33,27357,58,,,,SLOW,SLOW,,,0.0,1.0,,0.0-60.0,,-3.0,,1.0,0.623195575,0.0,0.655026044,0.0,0.25,0.0,0.560387538,False,,5c7458b0d094c900013c3bf0,,1136242,58,,evan-feature22,full_pf_b,,1
34,27358,59,,,,2,2,0.0,0.0,-1.0,0.0,,0.0-61.0,,0.0,1954.66,1.0,0.601889598,0.0,0.678198724,0.0,0.25,0.0,0.559922936,False,,5c7458b0d094c900013c3bf0,,1147959,59,,evan-feature22,full_pf_b,,1
35,27359,60,,,,2,2,0.0,1.0,-1.0,0.0,,0.0-62.0,,0.0,634.995,0.0,0.601259914,0.0,0.704681482,0.0,0.33908969299999997,1.0,0.505003715,False,,5c7458b0d094c900013c3bf0,,1158358,60,,evan-feature22,full_pf_b,,0
36,27360,61,,,,2,2,1.0,0.0,-1.0,0.0,,0.0-63.0,,-1.0,621.2250001,0.0,0.59645454,1.0,0.710437172,1.0,0.327441879,0.0,0.391749613,False,,5c7458b0d094c900013c3bf0,,1168743,61,,evan-feature22,full_pf_b,,0
37,27361,62,,,,1,1,1.0,1.0,-1.0,0.0,,0.0-64.0,,-1.0,765.6349998,1.0,0.529473,1.0,0.636758527,0.0,0.301338063,1.0,0.365661481,False,,5c7458b0d094c900013c3bf0,,1179273,62,,evan-feature22,full_pf_b,,1
38,27362,63,,,,2,2,0.0,0.0,0.0,1.0,,0.0-65.0,,0.0,1244.095,0.0,0.541657162,1.0,0.634541962,0.0,0.343535366,0.0,0.371763742,False,,5c7458b0d094c900013c3bf0,,1190281,63,,evan-feature22,full_pf_b,,1
39,27363,64,,,,2,2,0.0,0.0,-1.0,0.0,,0.0-66.0,,0.0,1593.835,1.0,0.5707533260000001,1.0,0.589121171,0.0,0.326428396,0.0,0.43961622899999997,False,,5c7458b0d094c900013c3bf0,,1201635,64,,evan-feature22,full_pf_b,,0
40,27364,65,,,,2,2,0.0,1.0,-1.0,0.0,,0.0-67.0,,0.0,976.9550001,1.0,0.5707533260000001,1.0,0.589121171,0.0,0.326428396,1.0,0.43961622899999997,False,,5c7458b0d094c900013c3bf0,,1212372,65,,evan-feature22,full_pf_b,,0
41,27365,66,,,,2,2,0.0,0.0,-1.0,0.0,,0.0-68.0,,0.0,831.21,0.0,0.506271295,0.0,0.641775594,0.0,0.37149690700000004,0.0,0.404330166,False,,5c7458b0d094c900013c3bf0,,1222966,66,,evan-feature22,full_pf_b,,0
42,27366,67,,,,2,2,0.0,1.0,0.0,1.0,,0.0-69.0,,1.0,1229.85,1.0,0.455642565,1.0,0.623605825,0.0,0.358753011,1.0,0.346174041,False,,5c7458b0d094c900013c3bf0,,1233958,67,,evan-feature22,full_pf_b,,0
43,27367,68,,,,2,2,1.0,0.0,0.0,1.0,,0.0-70.0,,0.0,1244.785,0.0,0.483677308,1.0,0.5904681070000001,1.0,0.402218411,0.0,0.35344697,False,,5c7458b0d094c900013c3bf0,,1244965,68,,evan-feature22,full_pf_b,,0
44,27368,69,,,,1,1,1.0,1.0,0.0,1.0,,0.0-71.0,,1.0,1900.225,1.0,0.394210977,1.0,0.558925494,1.0,0.540052017,0.0,0.35182128700000004,False,,5c7458b0d094c900013c3bf0,,1256628,69,,evan-feature22,full_pf_b,,1
45,27369,70,,,,1,1,0.0,1.0,-1.0,0.0,,0.0-72.0,,0.0,624.8650001,0.0,0.382300414,1.0,0.577670603,1.0,0.607608448,0.0,0.378261578,False,,5c7458b0d094c900013c3bf0,,1267017,70,,evan-feature22,full_pf_b,,0
46,27370,71,,,,1,1,0.0,0.0,-1.0,0.0,,0.0-73.0,,0.0,873.0649999,0.0,0.357596762,0.0,0.5929076529999999,1.0,0.6579790010000001,1.0,0.401326777,False,,5c7458b0d094c900013c3bf0,,1277656,71,,evan-feature22,full_pf_b,,0
47,27371,72,,,,1,1,0.0,1.0,-1.0,0.0,,0.0-74.0,,0.0,1100.585,0.0,0.362033495,1.0,0.582308608,1.0,0.649195052,1.0,0.355158505,False,,5c7458b0d094c900013c3bf0,,1288520,72,,evan-feature22,full_pf_b,,0
48,27372,73,,,,1,1,1.0,1.0,-1.0,0.0,,0.0-75.0,,-1.0,379.7650002,1.0,0.369620635,1.0,0.669100864,1.0,0.706059111,1.0,0.362516241,False,,5c7458b0d094c900013c3bf0,,1298661,73,,evan-feature22,full_pf_b,,0
49,27373,74,,,,2,2,1.0,0.0,-1.0,0.0,,0.0-76.0,,-1.0,591.9349999,1.0,0.41477751399999996,1.0,0.7284416779999999,1.0,0.7182656940000001,0.0,0.36228040899999997,False,,5c7458b0d094c900013c3bf0,,1309019,74,,evan-feature22,full_pf_b,,1
50,27374,75,,,,1,1,1.0,1.0,0.0,1.0,,0.0-77.0,,1.0,1991.575,1.0,0.37675460299999997,1.0,0.703250285,0.0,0.75,0.0,0.461979164,False,,5c7458b0d094c900013c3bf0,,1320777,75,,evan-feature22,full_pf_b,,1
51,27375,76,,,,1,1,0.0,0.0,0.0,1.0,,0.0-78.0,,0.0,504.3850001,0.0,0.398716075,0.0,0.6723864890000001,1.0,0.674153818,1.0,0.519029516,False,,5c7458b0d094c900013c3bf0,,1331046,76,,evan-feature22,full_pf_b,,0
52,27376,77,,,,1,1,1.0,1.0,-1.0,0.0,,0.0-79.0,,-1.0,1103.145,1.0,0.34677856700000004,1.0,0.69057175,0.0,0.6822438540000001,1.0,0.477292237,False,,5c7458b0d094c900013c3bf0,,1341911,77,,evan-feature22,full_pf_b,,0
53,27377,78,,,,1,1,0.0,1.0,0.0,1.0,,0.0-80.0,,1.0,479.545,0.0,0.28580469199999997,1.0,0.68408818,1.0,0.684207565,1.0,0.49780448299999996,False,,5c7458b0d094c900013c3bf0,,1352150,78,,evan-feature22,full_pf_b,,0
54,27379,80,,,,1,1,0.0,1.0,-1.0,0.0,,0.0-82.0,,0.0,1105.09,0.0,0.25,1.0,0.7405808970000001,0.0,0.679614108,0.0,0.436436964,False,,5c7458b0d094c900013c3bf0,,1365607,80,,evan-feature22,full_pf_b,,0
55,27380,81,,,,1,1,0.0,1.0,0.0,1.0,,0.0-83.0,,1.0,1259.465,0.0,0.29890393,1.0,0.730505706,1.0,0.7328203320000001,0.0,0.439256938,False,,5c7458b0d094c900013c3bf0,,1376629,81,,evan-feature22,full_pf_b,,0
56,27381,82,,,,1,1,1.0,1.0,-1.0,0.0,,0.0-84.0,,-1.0,382.6599999,1.0,0.326762398,1.0,0.7148059609999999,1.0,0.75,0.0,0.44389608799999997,False,,5c7458b0d094c900013c3bf0,,1386775,82,,evan-feature22,full_pf_b,,0
57,27382,83,,,,1,1,0.0,1.0,-1.0,0.0,,0.0-85.0,,0.0,1579.64,0.0,0.295168515,1.0,0.739760854,1.0,0.719947008,1.0,0.35277284600000003,False,,5c7458b0d094c900013c3bf0,,1398116,83,,evan-feature22,full_pf_b,,0
58,27383,84,,,,1,1,0.0,1.0,-1.0,0.0,,0.0-86.0,,0.0,461.93999979999995,0.0,0.25,1.0,0.70781482,1.0,0.75,0.0,0.286095925,False,,5c7458b0d094c900013c3bf0,,1408340,84,,evan-feature22,full_pf_b,,0
59,27384,85,,,,1,1,0.0,0.0,0.0,1.0,,0.0-87.0,,0.0,3186.51,0.0,0.25638190899999996,0.0,0.704088163,1.0,0.75,1.0,0.26872601399999996,False,,5c7458b0d094c900013c3bf0,,1421288,85,,evan-feature22,full_pf_b,,0
60,27385,86,,,,1,1,0.0,0.0,0.0,1.0,,0.0-88.0,,0.0,3149.265,0.0,0.271581126,0.0,0.669760107,0.0,0.733896663,0.0,0.273244572,False,,5c7458b0d094c900013c3bf0,,1434197,86,,evan-feature22,full_pf_b,,0
61,27386,87,,,,1,1,0.0,1.0,0.0,1.0,,0.0-89.0,,1.0,653.77,0.0,0.257144401,1.0,0.600575706,0.0,0.74488122,0.0,0.25,False,,5c7458b0d094c900013c3bf0,,1444615,87,,evan-feature22,full_pf_b,,0
62,27387,88,,,,1,1,0.0,1.0,-1.0,0.0,,0.0-90.0,,0.0,715.7749999,0.0,0.25,1.0,0.616870026,1.0,0.723610234,1.0,0.25,False,,5c7458b0d094c900013c3bf0,,1455095,88,,evan-feature22,full_pf_b,,0
63,27388,89,,,,1,1,0.0,1.0,0.0,1.0,,0.0-91.0,,1.0,1818.295,0.0,0.25,1.0,0.583540187,1.0,0.7041042559999999,0.0,0.285961995,False,,5c7458b0d094c900013c3bf0,,1466680,89,,evan-feature22,full_pf_b,,0
64,27389,90,,,,1,1,0.0,0.0,-1.0,0.0,,0.0-92.0,,0.0,380.67000010000004,0.0,0.27254536,0.0,0.53875765,0.0,0.693783448,1.0,0.284961652,False,,5c7458b0d094c900013c3bf0,,1476822,90,,evan-feature22,full_pf_b,,0
65,27390,91,,,,1,1,1.0,0.0,0.0,1.0,,0.0-93.0,,0.0,736.39,1.0,0.25,0.0,0.548431252,1.0,0.734221895,0.0,0.279445214,False,,5c7458b0d094c900013c3bf0,,1487322,91,,evan-feature22,full_pf_b,,0
66,27391,92,,,,2,2,0.0,0.0,-1.0,0.0,,0.0-94.0,,0.0,1913.835,0.0,0.258640684,0.0,0.545878066,0.0,0.725245965,0.0,0.31487537,False,,5c7458b0d094c900013c3bf0,,1498999,92,,evan-feature22,full_pf_b,,1
67,27392,93,,,,1,1,0.0,0.0,-1.0,0.0,,0.0-95.0,,0.0,1580.51,0.0,0.251103711,0.0,0.5776290629999999,0.0,0.696320133,0.0,0.317831047,False,,5c7458b0d094c900013c3bf0,,1510343,93,,evan-feature22,full_pf_b,,1
68,27393,94,,,,1,1,1.0,0.0,-1.0,0.0,,0.0-96.0,,-1.0,524.37,1.0,0.276630292,0.0,0.617329858,1.0,0.73838088,0.0,0.261471582,False,,5c7458b0d094c900013c3bf0,,1520632,94,,evan-feature22,full_pf_b,,0
69,27394,95,,,,2,2,0.0,0.0,0.0,1.0,,0.0-97.0,,0.0,555.4500001,1.0,0.297716424,1.0,0.618863717,0.0,0.7402358259999999,0.0,0.262600834,False,,5c7458b0d094c900013c3bf0,,1530949,95,,evan-feature22,full_pf_b,,1
70,27395,96,,,,1,1,0.0,1.0,-1.0,0.0,,0.0-98.0,,0.0,957.7899999,0.0,0.290935512,1.0,0.695370945,0.0,0.706570507,0.0,0.280030553,False,,5c7458b0d094c900013c3bf0,,1541669,96,,evan-feature22,full_pf_b,,1
71,27396,97,,,,1,1,0.0,1.0,-1.0,0.0,,0.0-99.0,,0.0,651.27,0.0,0.25,1.0,0.6465277079999999,1.0,0.67766682,0.0,0.25,False,,5c7458b0d094c900013c3bf0,,1552086,97,,evan-feature22,full_pf_b,,0
72,27397,98,,,,1,1,1.0,0.0,-1.0,0.0,,0.0-100.0,,-1.0,1007.03,1.0,0.26463816,0.0,0.636100213,1.0,0.646048507,0.0,0.265607101,False,,5c7458b0d094c900013c3bf0,,1562855,98,,evan-feature22,full_pf_b,,0
73,27398,99,,,,1,1,1.0,0.0,-1.0,0.0,,0.0-101.0,,-1.0,683.895,1.0,0.314340707,0.0,0.667795927,1.0,0.613630805,0.0,0.25,False,,5c7458b0d094c900013c3bf0,,1573304,99,,evan-feature22,full_pf_b,,0
74,27399,100,,,,2,2,1.0,0.0,-1.0,0.0,,0.0-102.0,,-1.0,636.99,0.0,0.28685784,1.0,0.6622549529999999,1.0,0.652154117,0.0,0.25,False,,5c7458b0d094c900013c3bf0,,1583703,100,,evan-feature22,full_pf_b,,1
75,27400,101,,,,1,1,0.0,1.0,0.0,1.0,,0.0-103.0,,1.0,604.3099998,0.0,0.304106554,1.0,0.631289538,0.0,0.707041942,0.0,0.29314237,False,,5c7458b0d094c900013c3bf0,,1594069,101,,evan-feature22,full_pf_b,,1
76,27401,102,,,,2,2,1.0,0.0,0.0,1.0,,0.0-104.0,,0.0,764.49,0.0,0.304806932,1.0,0.571167718,1.0,0.680472346,0.0,0.25,False,,5c7458b0d094c900013c3bf0,,1604598,102,,evan-feature22,full_pf_b,,1
77,27402,103,,,,2,2,1.0,0.0,0.0,1.0,,0.0-105.0,,0.0,782.195,1.0,0.37919861,1.0,0.5724849710000001,1.0,0.705638003,0.0,0.30179300600000003,False,,5c7458b0d094c900013c3bf0,,1615144,103,,evan-feature22,full_pf_b,,0
78,27403,104,,,,1,1,0.0,1.0,0.0,1.0,,0.0-106.0,,1.0,874.6550002,0.0,0.464277969,1.0,0.554034373,1.0,0.7372627340000001,1.0,0.264699741,False,,5c7458b0d094c900013c3bf0,,1625784,104,,evan-feature22,full_pf_b,,1
79,27404,105,,,,2,2,1.0,0.0,-1.0,0.0,,0.0-107.0,,-1.0,620.3999999,1.0,0.465104323,1.0,0.530793115,1.0,0.75,0.0,0.31683071,False,,5c7458b0d094c900013c3bf0,,1636167,105,,evan-feature22,full_pf_b,,1
80,27405,106,,,,1,1,0.0,1.0,0.0,1.0,,0.0-108.0,,1.0,715.415,0.0,0.465104323,1.0,0.530793115,1.0,0.75,1.0,0.31683071,False,,5c7458b0d094c900013c3bf0,,1646650,106,,evan-feature22,full_pf_b,,1
81,27406,107,,,,2,2,1.0,0.0,0.0,1.0,,0.0-109.0,,0.0,1878.91,1.0,0.46833986,1.0,0.570249239,1.0,0.7244472590000001,0.0,0.364114163,False,,5c7458b0d094c900013c3bf0,,1658294,107,,evan-feature22,full_pf_b,,1
82,27407,108,,,,2,2,1.0,0.0,0.0,1.0,,0.0-110.0,,0.0,798.62,1.0,0.445444024,1.0,0.649673355,1.0,0.6845441290000001,0.0,0.300660449,False,,5c7458b0d094c900013c3bf0,,1668856,108,,evan-feature22,full_pf_b,,0
83,27408,109,,,,1,1,0.0,0.0,0.0,1.0,,0.0-111.0,,0.0,710.58,0.0,0.39909721299999995,0.0,0.6715179509999999,1.0,0.742310028,0.0,0.35496088299999995,False,,5c7458b0d094c900013c3bf0,,1679336,109,,evan-feature22,full_pf_b,,1
84,27409,110,,,,2,2,1.0,0.0,0.0,1.0,,0.0-112.0,,0.0,508.70499989999996,0.0,0.37956104799999996,1.0,0.694725302,1.0,0.7181651309999999,0.0,0.38726906299999997,False,,5c7458b0d094c900013c3bf0,,1689608,110,,evan-feature22,full_pf_b,,1
85,27410,111,,,,1,1,1.0,0.0,0.0,1.0,,0.0-113.0,,0.0,408.635,1.0,0.404995034,0.0,0.724375412,0.0,0.6910946859999999,0.0,0.387187347,False,,5c7458b0d094c900013c3bf0,,1699784,111,,evan-feature22,full_pf_b,,1
86,27411,112,,,,2,2,1.0,1.0,0.0,1.0,,0.0-114.0,,1.0,475.2200001,1.0,0.461740803,1.0,0.75,1.0,0.75,1.0,0.34872038200000005,False,,5c7458b0d094c900013c3bf0,,1710023,112,,evan-feature22,full_pf_b,,1
87,27412,113,,,,2,2,1.0,1.0,-1.0,0.0,,0.0-115.0,,-1.0,555.9400001,0.0,0.43821380600000004,1.0,0.738833273,1.0,0.728286963,1.0,0.399538128,False,,5c7458b0d094c900013c3bf0,,1720344,113,,evan-feature22,full_pf_b,,0
88,27413,114,,,,1,1,1.0,1.0,0.0,1.0,,0.0-116.0,,1.0,601.39,1.0,0.41709882,1.0,0.736666736,1.0,0.75,1.0,0.389095584,False,,5c7458b0d094c900013c3bf0,,1730710,114,,evan-feature22,full_pf_b,,1
89,27414,115,,,,2,2,1.0,0.0,0.0,1.0,,0.0-117.0,,0.0,1054.105,0.0,0.39749009799999996,0.0,0.744320029,1.0,0.75,0.0,0.363848678,False,,5c7458b0d094c900013c3bf0,,1741528,115,,evan-feature22,full_pf_b,,1
90,27415,116,,,,1,1,0.0,1.0,-1.0,0.0,,0.0-118.0,,0.0,572.1500001,0.0,0.392653706,1.0,0.75,1.0,0.75,1.0,0.384386976,False,,5c7458b0d094c900013c3bf0,,1751862,116,,evan-feature22,full_pf_b,,1
91,27416,117,,,,2,2,1.0,1.0,-1.0,0.0,,0.0-119.0,,-1.0,857.02,1.0,0.31190902600000003,1.0,0.75,1.0,0.732413819,1.0,0.413082932,False,,5c7458b0d094c900013c3bf0,,1762486,117,,evan-feature22,full_pf_b,,1
92,27417,118,,,,2,2,0.0,0.0,0.0,1.0,,0.0-120.0,,0.0,1451.54,1.0,0.366917648,0.0,0.740073855,0.0,0.75,0.0,0.352861979,False,,5c7458b0d094c900013c3bf0,,1773700,118,,evan-feature22,full_pf_b,,0
93,27418,119,,,,2,2,1.0,0.0,0.0,1.0,,0.0-121.0,,0.0,976.98,0.0,0.3645172,1.0,0.721770713,1.0,0.75,0.0,0.404074511,False,,5c7458b0d094c900013c3bf0,,1784436,119,,evan-feature22,full_pf_b,,0
94,27419,120,,,,1,1,0.0,1.0,0.0,1.0,,0.0-122.0,,1.0,528.93,0.0,0.35205600299999995,1.0,0.68983859,0.0,0.739735447,0.0,0.366895945,False,,5c7458b0d094c900013c3bf0,,1794727,120,,evan-feature22,full_pf_b,,1
95,27420,121,,,,2,2,1.0,0.0,0.0,1.0,,0.0-123.0,,0.0,429.26499989999996,0.0,0.40998722600000004,0.0,0.720859127,1.0,0.673854955,0.0,0.368528541,False,,5c7458b0d094c900013c3bf0,,1804917,121,,evan-feature22,full_pf_b,,1
96,27421,122,,,,2,2,1.0,1.0,-1.0,0.0,,0.0-124.0,,-1.0,1327.235,1.0,0.353625316,1.0,0.75,1.0,0.695605473,1.0,0.38303674200000004,False,,5c7458b0d094c900013c3bf0,,1816006,122,,evan-feature22,full_pf_b,,0
97,27422,123,,,,2,2,1.0,0.0,0.0,1.0,,0.0-125.0,,0.0,399.7150001,0.0,0.359216989,1.0,0.75,1.0,0.6987915090000001,0.0,0.35169046200000004,False,,5c7458b0d094c900013c3bf0,,1826169,123,,evan-feature22,full_pf_b,,0
98,27423,124,,,,1,1,1.0,0.0,-1.0,0.0,,0.0-126.0,,-1.0,2637.81,1.0,0.35834496899999996,0.0,0.75,1.0,0.707067742,0.0,0.416763636,False,,5c7458b0d094c900013c3bf0,,1838567,124,,evan-feature22,full_pf_b,,1
99,27424,125,,,,1,1,1.0,0.0,-1.0,0.0,,0.0-127.0,,-1.0,859.4000002,1.0,0.38741613799999997,0.0,0.7177369570000001,1.0,0.734902455,1.0,0.49438664299999996,False,,5c7458b0d094c900013c3bf0,,1849189,125,,evan-feature22,full_pf_b,,0
100,27425,126,,,,2,2,1.0,1.0,0.0,1.0,,0.0-128.0,,1.0,2622.435,0.0,0.405255252,0.0,0.7300466640000001,1.0,0.7027748070000001,1.0,0.504359668,False,,5c7458b0d094c900013c3bf0,,1861575,126,,evan-feature22,full_pf_b,,1
101,27426,127,,,,1,1,0.0,1.0,0.0,1.0,,0.0-129.0,,1.0,1382.46,0.0,0.40697073,1.0,0.7260142190000001,1.0,0.724461982,0.0,0.522779179,False,,5c7458b0d094c900013c3bf0,,1872727,127,,evan-feature22,full_pf_b,,1
102,27427,128,,,,2,2,1.0,0.0,0.0,1.0,,0.0-130.0,,0.0,556.81,1.0,0.43906215299999996,1.0,0.7252802340000001,1.0,0.719079934,0.0,0.5712990579999999,False,,5c7458b0d094c900013c3bf0,,1883048,128,,evan-feature22,full_pf_b,,1
103,27428,129,,,,1,1,0.0,1.0,0.0,1.0,,0.0-131.0,,1.0,2507.805,0.0,0.4076705,1.0,0.73280499,1.0,0.681313127,0.0,0.523891346,False,,5c7458b0d094c900013c3bf0,,1895319,129,,evan-feature22,full_pf_b,,1
104,27429,130,,,,2,2,0.0,1.0,0.0,1.0,,0.0-132.0,,1.0,2650.835,0.0,0.399102911,0.0,0.730498344,0.0,0.661080239,1.0,0.46742603,False,,5c7458b0d094c900013c3bf0,,1907732,130,,evan-feature22,full_pf_b,,1
105,27430,131,,,,1,1,0.0,1.0,-1.0,0.0,,0.0-133.0,,0.0,782.6449999,0.0,0.356477282,1.0,0.712296395,1.0,0.641812684,0.0,0.44868414,False,,5c7458b0d094c900013c3bf0,,1918280,131,,evan-feature22,full_pf_b,,1
106,27431,132,,,,2,2,1.0,0.0,0.0,1.0,,0.0-134.0,,0.0,1050.78,1.0,0.462760722,1.0,0.692349322,1.0,0.700947931,0.0,0.394680266,False,,5c7458b0d094c900013c3bf0,,1929095,132,,evan-feature22,full_pf_b,,1
107,27432,133,,,,1,1,0.0,1.0,0.0,1.0,,0.0-135.0,,1.0,525.1750001,0.0,0.422306413,1.0,0.718375916,1.0,0.706340917,0.0,0.367787185,False,,5c7458b0d094c900013c3bf0,,1939382,133,,evan-feature22,full_pf_b,,1
108,27434,135,,,,2,2,0.0,0.0,0.0,1.0,,0.0-137.0,,0.0,644.505,1.0,0.4582233,1.0,0.643834117,0.0,0.75,0.0,0.39615823299999997,False,,5c7458b0d094c900013c3bf0,,1952806,135,,evan-feature22,full_pf_b,,1
109,27435,136,,,,1,1,1.0,0.0,0.0,1.0,,0.0-138.0,,0.0,1868.75,1.0,0.43813437899999996,0.0,0.651283804,1.0,0.729674191,0.0,0.37711048,False,,5c7458b0d094c900013c3bf0,,1964439,136,,evan-feature22,full_pf_b,,1
110,27436,137,,,,1,1,0.0,0.0,0.0,1.0,,0.0-139.0,,0.0,684.23,0.0,0.471199094,0.0,0.6470010979999999,0.0,0.715008097,1.0,0.410656191,False,,5c7458b0d094c900013c3bf0,,1974886,137,,evan-feature22,full_pf_b,,0
111,27437,138,,,,2,2,1.0,1.0,-1.0,0.0,,0.0-140.0,,-1.0,683.4199999,1.0,0.42486406,0.0,0.629771829,1.0,0.6550939960000001,1.0,0.459093873,False,,5c7458b0d094c900013c3bf0,,1985333,138,,evan-feature22,full_pf_b,,1
112,27438,139,,,,1,1,1.0,1.0,-1.0,0.0,,0.0-141.0,,-1.0,768.16,1.0,0.4803197,1.0,0.645842715,0.0,0.6421749920000001,0.0,0.443092151,False,,5c7458b0d094c900013c3bf0,,1995864,139,,evan-feature22,full_pf_b,,1
113,27439,140,,,,2,2,1.0,0.0,-1.0,0.0,,0.0-142.0,,-1.0,591.0400001,0.0,0.521848997,1.0,0.735801074,1.0,0.6691348460000001,0.0,0.45259351600000003,False,,5c7458b0d094c900013c3bf0,,2006216,140,,evan-feature22,full_pf_b,,1
114,27440,141,,,,1,1,1.0,1.0,0.0,1.0,,0.0-143.0,,1.0,1563.98,1.0,0.49565621299999996,1.0,0.742400847,1.0,0.661512553,0.0,0.483110831,False,,5c7458b0d094c900013c3bf0,,2017543,141,,evan-feature22,full_pf_b,,1
115,27441,142,,,,1,1,1.0,1.0,-1.0,0.0,,0.0-144.0,,-1.0,492.9199999,1.0,0.521564361,1.0,0.731078632,0.0,0.6774886809999999,1.0,0.483263956,False,,5c7458b0d094c900013c3bf0,,2027799,142,,evan-feature22,full_pf_b,,0
116,27442,143,,,,1,1,1.0,1.0,-1.0,0.0,,0.0-145.0,,-1.0,829.0349999,1.0,0.558893102,1.0,0.719810023,1.0,0.67461031,1.0,0.499349834,False,,5c7458b0d094c900013c3bf0,,2038390,143,,evan-feature22,full_pf_b,,0
117,27443,144,,,,2,2,1.0,0.0,0.0,1.0,,0.0-146.0,,0.0,432.2550001,0.0,0.611031046,1.0,0.75,1.0,0.688072995,0.0,0.5321422729999999,False,,5c7458b0d094c900013c3bf0,,2048585,144,,evan-feature22,full_pf_b,,1
118,27444,145,,,,2,2,0.0,1.0,-1.0,0.0,,0.0-147.0,,0.0,729.9899998999999,1.0,0.633223941,1.0,0.713567728,0.0,0.75,1.0,0.48185314700000004,False,,5c7458b0d094c900013c3bf0,,2059082,145,,evan-feature22,full_pf_b,,0
119,27445,146,,,,2,2,1.0,0.0,-1.0,0.0,,0.0-148.0,,-1.0,843.0949999,1.0,0.664001694,0.0,0.705509768,1.0,0.75,0.0,0.500211065,False,,5c7458b0d094c900013c3bf0,,2069690,146,,evan-feature22,full_pf_b,,0
120,27446,147,,,,1,1,1.0,1.0,0.0,1.0,,0.0-149.0,,1.0,1081.36,1.0,0.664001694,1.0,0.705509768,1.0,0.75,1.0,0.500211065,False,,5c7458b0d094c900013c3bf0,,2080536,147,,evan-feature22,full_pf_b,,1
121,27447,148,,,,1,1,1.0,1.0,0.0,1.0,,0.0-150.0,,1.0,1352.095,1.0,0.696508041,1.0,0.71066027,1.0,0.717028709,1.0,0.49792991,False,,5c7458b0d094c900013c3bf0,,2091657,148,,evan-feature22,full_pf_b,,0
122,27448,149,,,,1,1,1.0,1.0,-1.0,0.0,,0.0-151.0,,-1.0,762.145,1.0,0.699883272,1.0,0.75,1.0,0.713543895,0.0,0.496962643,False,,5c7458b0d094c900013c3bf0,,2102187,149,,evan-feature22,full_pf_b,,0
123,27449,150,,,,1,1,1.0,1.0,0.0,1.0,,0.0-152.0,,1.0,665.6849999,1.0,0.741163419,1.0,0.75,1.0,0.64691024,0.0,0.513858197,False,,5c7458b0d094c900013c3bf0,,2112616,150,,evan-feature22,full_pf_b,,0
124,27450,151,,,,1,1,1.0,1.0,-1.0,0.0,,0.0-153.0,,-1.0,1035.48,1.0,0.75,1.0,0.70816558,1.0,0.594499079,1.0,0.48502124,False,,5c7458b0d094c900013c3bf0,,2123415,151,,evan-feature22,full_pf_b,,0
125,27451,152,,,,1,1,1.0,0.0,0.0,1.0,,0.0-154.0,,0.0,524.6550001,1.0,0.75,0.0,0.721848901,1.0,0.62197249,1.0,0.48263586399999997,False,,5c7458b0d094c900013c3bf0,,2133703,152,,evan-feature22,full_pf_b,,0
126,27452,153,,,,2,2,1.0,1.0,-1.0,0.0,,0.0-155.0,,-1.0,477.3300001,1.0,0.75,1.0,0.74813071,1.0,0.584357161,1.0,0.411477782,False,,5c7458b0d094c900013c3bf0,,2143940,153,,evan-feature22,full_pf_b,,1
127,27453,154,,,,1,1,0.0,1.0,0.0,1.0,,0.0-156.0,,1.0,783.265,0.0,0.75,1.0,0.75,0.0,0.52287236,1.0,0.488290656,False,,5c7458b0d094c900013c3bf0,,2154488,154,,evan-feature22,full_pf_b,,1
128,27454,155,,,,1,1,0.0,1.0,0.0,1.0,,0.0-157.0,,1.0,1500.61,0.0,0.75,1.0,0.75,1.0,0.544321581,0.0,0.53143059,False,,5c7458b0d094c900013c3bf0,,2165750,155,,evan-feature22,full_pf_b,,0
129,27455,156,,,,1,1,1.0,0.0,0.0,1.0,,0.0-158.0,,0.0,509.875,1.0,0.726754564,0.0,0.75,0.0,0.5129306370000001,1.0,0.530592445,False,,5c7458b0d094c900013c3bf0,,2176024,156,,evan-feature22,full_pf_b,,0
130,27456,157,,,,1,1,1.0,0.0,-1.0,0.0,,0.0-159.0,,-1.0,717.285,1.0,0.75,0.0,0.7392590729999999,1.0,0.479875835,1.0,0.547007051,False,,5c7458b0d094c900013c3bf0,,2186506,157,,evan-feature22,full_pf_b,,0
131,27457,158,,,,1,1,1.0,1.0,-1.0,0.0,,0.0-160.0,,-1.0,500.68000010000003,1.0,0.75,1.0,0.7393376979999999,1.0,0.546045419,0.0,0.541267353,False,,5c7458b0d094c900013c3bf0,,2196773,158,,evan-feature22,full_pf_b,,0
132,27458,159,,,,1,1,1.0,1.0,-1.0,0.0,,0.0-161.0,,-1.0,767.0100001000001,1.0,0.75,1.0,0.75,1.0,0.485725895,1.0,0.527625395,False,,5c7458b0d094c900013c3bf0,,2207300,159,,evan-feature22,full_pf_b,,0
133,27459,160,,,,1,1,0.0,0.0,0.0,1.0,,0.0-162.0,,0.0,866.6149998999999,0.0,0.75,0.0,0.725087974,1.0,0.488603595,0.0,0.504019206,False,,5c7458b0d094c900013c3bf0,,2217929,160,,evan-feature22,full_pf_b,,0
134,27460,161,,,,1,1,1.0,1.0,0.0,1.0,,0.0-163.0,,1.0,987.1,1.0,0.745504295,1.0,0.75,0.0,0.452379914,0.0,0.50131194,False,,5c7458b0d094c900013c3bf0,,2228680,161,,evan-feature22,full_pf_b,,0
135,27461,162,,,,1,1,1.0,0.0,0.0,1.0,,0.0-164.0,,0.0,3019.095,1.0,0.728513874,0.0,0.75,0.0,0.44125567200000004,0.0,0.531454591,False,,5c7458b0d094c900013c3bf0,,2241462,162,,evan-feature22,full_pf_b,,0
136,27462,163,,,,1,1,0.0,1.0,-1.0,0.0,,0.0-165.0,,0.0,670.28,0.0,0.73790804,1.0,0.75,1.0,0.413036656,1.0,0.524619035,False,,5c7458b0d094c900013c3bf0,,2251895,163,,evan-feature22,full_pf_b,,0
137,27463,164,,,,1,1,1.0,1.0,0.0,1.0,,0.0-166.0,,1.0,554.6649999,1.0,0.7080961309999999,1.0,0.708666865,0.0,0.431915581,0.0,0.481819489,False,,5c7458b0d094c900013c3bf0,,2262214,164,,evan-feature22,full_pf_b,,0
138,27464,165,,,,1,1,1.0,1.0,0.0,1.0,,0.0-167.0,,1.0,621.3749999,1.0,0.721378003,1.0,0.71605913,0.0,0.36642387,0.0,0.5036739929999999,False,,5c7458b0d094c900013c3bf0,,2272599,165,,evan-feature22,full_pf_b,,0
139,27465,166,,,,1,1,1.0,1.0,0.0,1.0,,0.0-168.0,,1.0,716.2300001,1.0,0.7340618959999999,1.0,0.699323252,1.0,0.35298046299999997,1.0,0.511241692,False,,5c7458b0d094c900013c3bf0,,2283074,166,,evan-feature22,full_pf_b,,0
140,27466,167,,,,1,1,1.0,1.0,-1.0,0.0,,0.0-169.0,,-1.0,577.395,1.0,0.75,1.0,0.70412698,1.0,0.380734814,1.0,0.529580116,False,,5c7458b0d094c900013c3bf0,,2293417,167,,evan-feature22,full_pf_b,,0
141,27467,168,,,,1,1,0.0,1.0,0.0,1.0,,0.0-170.0,,1.0,471.96,0.0,0.7436654909999999,1.0,0.711182751,1.0,0.41125331,1.0,0.49554405,False,,5c7458b0d094c900013c3bf0,,2303657,168,,evan-feature22,full_pf_b,,0
142,27468,169,,,,1,1,1.0,1.0,0.0,1.0,,0.0-171.0,,1.0,872.9999999,1.0,0.731607915,1.0,0.651774583,0.0,0.35688023,0.0,0.45194491600000003,False,,5c7458b0d094c900013c3bf0,,2314294,169,,evan-feature22,full_pf_b,,0
143,27469,170,,,,1,1,0.0,1.0,-1.0,0.0,,0.0-172.0,,0.0,1084.285,0.0,0.75,1.0,0.75,0.0,0.283145374,0.0,0.528608005,False,,5c7458b0d094c900013c3bf0,,2325141,170,,evan-feature22,full_pf_b,,0
144,27470,171,,,,1,1,0.0,1.0,-1.0,0.0,,0.0-173.0,,0.0,1741.895,0.0,0.7491416890000001,1.0,0.7423785959999999,0.0,0.29135870399999997,0.0,0.498888318,False,,5c7458b0d094c900013c3bf0,,2336647,171,,evan-feature22,full_pf_b,,0
145,27471,172,,,,1,1,1.0,1.0,-1.0,0.0,,0.0-174.0,,-1.0,827.295,1.0,0.708569387,1.0,0.717682277,1.0,0.294421699,1.0,0.493838163,False,,5c7458b0d094c900013c3bf0,,2347243,172,,evan-feature22,full_pf_b,,0
146,27472,173,,,,1,1,0.0,1.0,0.0,1.0,,0.0-175.0,,1.0,552.285,0.0,0.75,1.0,0.7383382159999999,1.0,0.356098707,1.0,0.442533405,False,,5c7458b0d094c900013c3bf0,,2357557,173,,evan-feature22,full_pf_b,,0
147,27473,174,,,,1,1,1.0,1.0,0.0,1.0,,0.0-176.0,,1.0,463.28,1.0,0.744527075,1.0,0.75,1.0,0.334127506,0.0,0.393165805,False,,5c7458b0d094c900013c3bf0,,2367784,174,,evan-feature22,full_pf_b,,0
148,27474,175,,,,1,1,0.0,0.0,0.0,1.0,,0.0-177.0,,0.0,396.3500001,0.0,0.75,0.0,0.75,0.0,0.33571021799999995,0.0,0.350393962,False,,5c7458b0d094c900013c3bf0,,2377943,175,,evan-feature22,full_pf_b,,0
149,27475,176,,,,1,1,1.0,1.0,0.0,1.0,,0.0-178.0,,1.0,490.70499979999994,1.0,0.75,1.0,0.75,0.0,0.313628297,1.0,0.36349657399999996,False,,5c7458b0d094c900013c3bf0,,2388197,176,,evan-feature22,full_pf_b,,0
150,27476,177,,,,2,2,0.0,1.0,-1.0,0.0,,0.0-179.0,,0.0,3565.705,1.0,0.75,0.0,0.734284182,0.0,0.262667667,1.0,0.380199119,False,,5c7458b0d094c900013c3bf0,,2401527,177,,evan-feature22,full_pf_b,,1
151,27477,178,,,,2,2,1.0,1.0,0.0,1.0,,0.0-180.0,,1.0,473.7849999,1.0,0.75,1.0,0.75,1.0,0.25,1.0,0.394494013,False,,5c7458b0d094c900013c3bf0,,2411771,178,,evan-feature22,full_pf_b,,0
152,27478,179,,,,2,2,0.0,0.0,-1.0,0.0,,0.0-181.0,,0.0,421.9450001,1.0,0.722298145,0.0,0.7357822340000001,0.0,0.25,0.0,0.319142121,False,,5c7458b0d094c900013c3bf0,,2421955,179,,evan-feature22,full_pf_b,,0
153,27479,180,,,,2,2,0.0,0.0,-1.0,0.0,,0.0-182.0,,0.0,464.49500020000005,1.0,0.73149275,1.0,0.724276446,0.0,0.305856907,0.0,0.281315057,False,,5c7458b0d094c900013c3bf0,,2432180,180,,evan-feature22,full_pf_b,,0
154,27480,181,,,,2,2,0.0,0.0,0.0,1.0,,0.0-183.0,,0.0,594.7349998,1.0,0.7458732690000001,1.0,0.7336382459999999,0.0,0.272571964,0.0,0.266021999,False,,5c7458b0d094c900013c3bf0,,2442535,181,,evan-feature22,full_pf_b,,0
155,27481,182,,,,2,2,1.0,0.0,0.0,1.0,,0.0-184.0,,0.0,795.535,1.0,0.705579037,0.0,0.720778292,1.0,0.320238144,0.0,0.30971744,False,,5c7458b0d094c900013c3bf0,,2453096,182,,evan-feature22,full_pf_b,,0
156,27482,183,,,,2,2,0.0,1.0,0.0,1.0,,0.0-185.0,,1.0,540.8100002,0.0,0.700425648,1.0,0.7198784009999999,0.0,0.272590393,1.0,0.304182931,False,,5c7458b0d094c900013c3bf0,,2463399,183,,evan-feature22,full_pf_b,,0
157,27483,184,,,,SLOW,SLOW,,,0.0,1.0,,0.0-186.0,,-3.0,,1.0,0.735590785,0.0,0.722714973,1.0,0.25,0.0,0.323421091,False,,5c7458b0d094c900013c3bf0,,2469207,184,,evan-feature22,full_pf_b,,1
158,27484,185,,,,2,2,0.0,1.0,0.0,1.0,,0.0-187.0,,1.0,1133.72,1.0,0.724807662,1.0,0.63146213,0.0,0.36836492600000004,1.0,0.34592153299999995,False,,5c7458b0d094c900013c3bf0,,2480103,185,,evan-feature22,full_pf_b,,1
159,27485,186,,,,2,2,1.0,0.0,0.0,1.0,,0.0-188.0,,0.0,397.9450001,1.0,0.7352796909999999,1.0,0.555111392,1.0,0.36003922,0.0,0.31433779999999995,False,,5c7458b0d094c900013c3bf0,,2490264,186,,evan-feature22,full_pf_b,,0
160,27486,187,notice,,,,,,,,,,0.0-189.0,"{""Q0"":""No""}",,13700.0,,,,,,,,,False,,5c7458b0d094c900013c3bf0,,2503966,187,Q,survey-text,full_pf_b,,1
161,27487,188,track1,,[1],,,,,,,,0.0-190.0,"{""Q0"":""no""}",,4542.0,,,,,,,,,False,,5c7458b0d094c900013c3bf0,,2508511,188,Q,evan-quiz,full_pf_b,,1
162,27488,189,track2,,[0],,,,,,,,0.0-191.0,"{""Q0"":""yes""}",,7837.0,,,,,,,,,False,,5c7458b0d094c900013c3bf0,,2516351,189,Q,evan-quiz,full_pf_b,,1
163,27489,190,strat,,,,,,,,,,0.0-192.0,"{""Q0"":""I realised the black gave or didn't take any minerals and the gold gave none or took away, but beyond that couldn't really keep track. Once I got a good result I stuck with that side until it changed but it didn't always work.""}",,79771.0,,,,,,,,,False,,5c7458b0d094c900013c3bf0,,2596126,190,Q,survey-text,full_pf_b,,1
