,index,Unnamed: 0,Q_name,button_pressed,choice_idxs,chosen_pos,chosen_state,chosen_state_f_1_outcome,chosen_state_f_2_outcome,f_1_reward,f_2_reward,incor_questions,internal_node_id,responses,reward_received,rt,s_1_f_1_outcome,s_1_f_1_prob,s_1_f_2_outcome,s_1_f_2_prob,s_2_f_1_outcome,s_2_f_1_prob,s_2_f_2_outcome,s_2_f_2_prob,safe_first,stimulus,subjectID,success,time_elapsed,trial_index,trial_num,trial_type,version,view_history,switching
0,46035,30,,,,1,1,1.0,0.0,0.0,-1.0,,0.0-27.0,,0.0,598.73,1.0,0.6,0.0,0.6,0.0,0.4,0.0,0.4,False,,5de54842a7cb240cb3c34933,,1628753,30,,evan-feature22,full_pf_a,,0
1,46036,31,,,,1,1,1.0,1.0,0.0,-1.0,,0.0-28.0,,-1.0,1241.87,1.0,0.608053294,1.0,0.63424552,0.0,0.397152172,0.0,0.347069101,False,,5de54842a7cb240cb3c34933,,1639761,31,,evan-feature22,full_pf_a,,0
2,46037,32,,,,1,1,1.0,0.0,0.0,-1.0,,0.0-29.0,,0.0,997.585,1.0,0.642237155,0.0,0.648566321,0.0,0.389407674,0.0,0.285525717,False,,5de54842a7cb240cb3c34933,,1650523,32,,evan-feature22,full_pf_a,,0
3,46038,33,,,,2,2,1.0,0.0,0.0,-1.0,,0.0-30.0,,0.0,613.265,1.0,0.661086576,1.0,0.630492543,1.0,0.399058924,0.0,0.25,False,,5de54842a7cb240cb3c34933,,1660901,33,,evan-feature22,full_pf_a,,1
4,46039,34,,,,2,2,1.0,0.0,0.0,-1.0,,0.0-31.0,,0.0,1905.53,1.0,0.631324137,0.0,0.6269842929999999,1.0,0.38734784299999997,0.0,0.25,False,,5de54842a7cb240cb3c34933,,1672571,34,,evan-feature22,full_pf_a,,0
5,46040,35,,,,1,1,1.0,1.0,0.0,-1.0,,0.0-32.0,,-1.0,436.26,1.0,0.6381991370000001,1.0,0.68987999,1.0,0.384107265,1.0,0.271332943,False,,5de54842a7cb240cb3c34933,,1682772,35,,evan-feature22,full_pf_a,,1
6,46041,36,,,,1,1,1.0,1.0,0.0,-1.0,,0.0-33.0,,-1.0,593.41,1.0,0.66034901,1.0,0.742641349,0.0,0.360225629,0.0,0.25,False,,5de54842a7cb240cb3c34933,,1693131,36,,evan-feature22,full_pf_a,,0
7,46042,37,,,,2,2,0.0,0.0,1.0,0.0,,0.0-34.0,,0.0,370.865,1.0,0.638612418,0.0,0.75,0.0,0.367273939,0.0,0.25,False,,5de54842a7cb240cb3c34933,,1703266,37,,evan-feature22,full_pf_a,,1
8,46043,38,,,,2,2,0.0,0.0,0.0,-1.0,,0.0-35.0,,0.0,406.08,1.0,0.624340629,1.0,0.75,0.0,0.425829545,0.0,0.25,False,,5de54842a7cb240cb3c34933,,1713432,38,,evan-feature22,full_pf_a,,0
9,46044,39,,,,2,2,0.0,1.0,0.0,-1.0,,0.0-36.0,,-1.0,361.54,1.0,0.621999804,1.0,0.75,0.0,0.368609357,1.0,0.25,False,,5de54842a7cb240cb3c34933,,1723562,39,,evan-feature22,full_pf_a,,0
10,46045,40,,,,1,1,1.0,1.0,1.0,0.0,,0.0-37.0,,1.0,418.545,1.0,0.62666403,1.0,0.75,0.0,0.311151498,0.0,0.25,False,,5de54842a7cb240cb3c34933,,1733744,40,,evan-feature22,full_pf_a,,1
11,46046,41,,,,1,1,1.0,1.0,1.0,0.0,,0.0-38.0,,1.0,1011.405,1.0,0.6819650009999999,1.0,0.75,0.0,0.310763048,1.0,0.25,False,,5de54842a7cb240cb3c34933,,1744524,41,,evan-feature22,full_pf_a,,0
12,46047,42,,,,1,1,0.0,1.0,0.0,-1.0,,0.0-39.0,,-1.0,1652.74,0.0,0.740626951,1.0,0.75,1.0,0.25,0.0,0.25,False,,5de54842a7cb240cb3c34933,,1755938,42,,evan-feature22,full_pf_a,,0
13,46048,43,,,,2,2,0.0,1.0,0.0,-1.0,,0.0-40.0,,-1.0,367.585,1.0,0.739599242,1.0,0.742034978,0.0,0.25397114600000004,1.0,0.25,False,,5de54842a7cb240cb3c34933,,1766069,43,,evan-feature22,full_pf_a,,1
14,46049,44,,,,1,1,1.0,1.0,0.0,-1.0,,0.0-41.0,,-1.0,572.395,1.0,0.732341315,1.0,0.72735643,0.0,0.25,0.0,0.25,False,,5de54842a7cb240cb3c34933,,1776406,44,,evan-feature22,full_pf_a,,1
15,46050,45,,,,2,2,1.0,0.0,0.0,-1.0,,0.0-42.0,,0.0,485.51,0.0,0.7062287770000001,1.0,0.75,1.0,0.29002151,0.0,0.288256649,False,,5de54842a7cb240cb3c34933,,1786652,45,,evan-feature22,full_pf_a,,1
16,46051,46,,,,1,1,1.0,1.0,1.0,0.0,,0.0-43.0,,1.0,553.67,1.0,0.7086029209999999,1.0,0.75,0.0,0.274129113,0.0,0.262851608,False,,5de54842a7cb240cb3c34933,,1796972,46,,evan-feature22,full_pf_a,,1
17,46052,47,,,,2,2,0.0,0.0,0.0,-1.0,,0.0-44.0,,0.0,338.62,1.0,0.669189651,1.0,0.727614338,0.0,0.298444036,0.0,0.296944518,False,,5de54842a7cb240cb3c34933,,1807075,47,,evan-feature22,full_pf_a,,1
18,46053,48,,,,2,2,0.0,0.0,1.0,0.0,,0.0-45.0,,0.0,414.495,1.0,0.6819912929999999,0.0,0.7179434290000001,0.0,0.265003961,0.0,0.28157921199999997,False,,5de54842a7cb240cb3c34933,,1817252,48,,evan-feature22,full_pf_a,,0
19,46054,49,,,,1,1,0.0,1.0,1.0,0.0,,0.0-46.0,,0.0,331.71,0.0,0.665275002,1.0,0.723065271,0.0,0.260414971,0.0,0.30973870000000003,False,,5de54842a7cb240cb3c34933,,1827347,49,,evan-feature22,full_pf_a,,1
20,46055,50,,,,2,2,1.0,1.0,0.0,-1.0,,0.0-47.0,,-1.0,740.805,1.0,0.6660593260000001,1.0,0.728032907,1.0,0.30922817,1.0,0.338778608,False,,5de54842a7cb240cb3c34933,,1837855,50,,evan-feature22,full_pf_a,,1
21,46056,51,,,,2,2,0.0,0.0,0.0,-1.0,,0.0-48.0,,0.0,2705.43,1.0,0.702068785,1.0,0.6528750879999999,0.0,0.287329608,0.0,0.35789613200000003,False,,5de54842a7cb240cb3c34933,,1850327,51,,evan-feature22,full_pf_a,,0
22,46057,52,,,,2,2,0.0,1.0,0.0,-1.0,,0.0-49.0,,-1.0,2767.18,1.0,0.651939787,0.0,0.636725589,0.0,0.284834488,1.0,0.358563756,False,,5de54842a7cb240cb3c34933,,1862862,52,,evan-feature22,full_pf_a,,0
23,46058,53,,,,1,1,0.0,0.0,0.0,-1.0,,0.0-50.0,,0.0,1144.705,0.0,0.67573929,0.0,0.612550049,0.0,0.37130387600000003,1.0,0.383542402,False,,5de54842a7cb240cb3c34933,,1873772,53,,evan-feature22,full_pf_a,,1
24,46059,54,,,,2,2,1.0,0.0,0.0,-1.0,,0.0-51.0,,0.0,836.58,1.0,0.620753801,0.0,0.60513644,1.0,0.385529434,0.0,0.340361743,False,,5de54842a7cb240cb3c34933,,1884375,54,,evan-feature22,full_pf_a,,1
25,46060,55,,,,2,2,0.0,1.0,1.0,0.0,,0.0-52.0,,0.0,512.44,0.0,0.673564893,1.0,0.672437924,0.0,0.292955382,1.0,0.337633795,False,,5de54842a7cb240cb3c34933,,1894647,55,,evan-feature22,full_pf_a,,0
26,46061,56,,,,2,2,0.0,1.0,0.0,-1.0,,0.0-53.0,,-1.0,2017.58,1.0,0.6749427,0.0,0.724197502,0.0,0.32391132100000003,1.0,0.350995264,False,,5de54842a7cb240cb3c34933,,1906429,56,,evan-feature22,full_pf_a,,0
27,46062,57,,,,1,1,0.0,0.0,0.0,-1.0,,0.0-54.0,,0.0,451.87,0.0,0.6940159379999999,0.0,0.75,0.0,0.31710554399999996,1.0,0.413450341,False,,5de54842a7cb240cb3c34933,,1916641,57,,evan-feature22,full_pf_a,,1
28,46063,58,,,,2,2,0.0,1.0,0.0,-1.0,,0.0-55.0,,-1.0,852.995,1.0,0.6916018270000001,1.0,0.69001187,0.0,0.261817804,1.0,0.40038635,False,,5de54842a7cb240cb3c34933,,1927258,58,,evan-feature22,full_pf_a,,1
29,46064,59,,,,1,1,1.0,1.0,0.0,-1.0,,0.0-56.0,,-1.0,503.605,1.0,0.641061544,1.0,0.71337992,0.0,0.277296461,1.0,0.47372791700000005,False,,5de54842a7cb240cb3c34933,,1937534,59,,evan-feature22,full_pf_a,,1
30,46065,60,,,,2,2,0.0,1.0,0.0,-1.0,,0.0-57.0,,-1.0,580.325,0.0,0.6082438520000001,1.0,0.708471106,0.0,0.28745137,1.0,0.564174476,False,,5de54842a7cb240cb3c34933,,1947875,60,,evan-feature22,full_pf_a,,1
31,46066,61,,,,2,2,0.0,0.0,1.0,0.0,,0.0-58.0,,0.0,566.715,0.0,0.6051112120000001,1.0,0.7118147229999999,0.0,0.272390611,0.0,0.5595149939999999,False,,5de54842a7cb240cb3c34933,,1958207,61,,evan-feature22,full_pf_a,,0
32,46067,62,,,,2,2,0.0,1.0,1.0,0.0,,0.0-59.0,,0.0,699.255,1.0,0.582420852,1.0,0.635867583,0.0,0.31089574,1.0,0.5227206520000001,False,,5de54842a7cb240cb3c34933,,1968682,62,,evan-feature22,full_pf_a,,0
33,46068,63,,,,1,1,0.0,1.0,1.0,0.0,,0.0-60.0,,0.0,393.735,0.0,0.623195575,1.0,0.655026044,0.0,0.25,1.0,0.560387538,False,,5de54842a7cb240cb3c34933,,1978838,63,,evan-feature22,full_pf_a,,1
34,46069,64,,,,1,1,1.0,1.0,0.0,-1.0,,0.0-61.0,,-1.0,706.47,1.0,0.601889598,1.0,0.678198724,1.0,0.25,1.0,0.559922936,False,,5de54842a7cb240cb3c34933,,1989312,64,,evan-feature22,full_pf_a,,0
35,46070,65,,,,2,2,0.0,1.0,1.0,0.0,,0.0-62.0,,0.0,555.105,0.0,0.601259914,0.0,0.704681482,0.0,0.33908969299999997,1.0,0.505003715,False,,5de54842a7cb240cb3c34933,,1999630,65,,evan-feature22,full_pf_a,,1
36,46071,66,,,,2,2,0.0,0.0,1.0,0.0,,0.0-63.0,,0.0,509.565,0.0,0.59645454,0.0,0.710437172,0.0,0.327441879,0.0,0.391749613,False,,5de54842a7cb240cb3c34933,,2009899,66,,evan-feature22,full_pf_a,,0
37,46072,67,,,,1,1,1.0,0.0,0.0,-1.0,,0.0-64.0,,0.0,376.16,1.0,0.529473,0.0,0.636758527,0.0,0.301338063,0.0,0.365661481,False,,5de54842a7cb240cb3c34933,,2020036,67,,evan-feature22,full_pf_a,,1
38,46073,68,,,,1,1,0.0,0.0,1.0,0.0,,0.0-65.0,,0.0,552.035,0.0,0.541657162,0.0,0.634541962,1.0,0.343535366,0.0,0.371763742,False,,5de54842a7cb240cb3c34933,,2030350,68,,evan-feature22,full_pf_a,,0
39,46074,69,,,,1,1,0.0,1.0,1.0,0.0,,0.0-66.0,,0.0,852.265,0.0,0.5707533260000001,1.0,0.589121171,0.0,0.326428396,0.0,0.43961622899999997,False,,5de54842a7cb240cb3c34933,,2040967,69,,evan-feature22,full_pf_a,,0
40,46075,70,,,,1,1,0.0,1.0,0.0,-1.0,,0.0-67.0,,-1.0,622.025,0.0,0.5707533260000001,1.0,0.589121171,0.0,0.326428396,0.0,0.43961622899999997,False,,5de54842a7cb240cb3c34933,,2051354,70,,evan-feature22,full_pf_a,,0
41,46076,71,,,,2,2,0.0,0.0,0.0,-1.0,,0.0-68.0,,0.0,852.815,0.0,0.506271295,0.0,0.641775594,0.0,0.37149690700000004,0.0,0.404330166,False,,5de54842a7cb240cb3c34933,,2061984,71,,evan-feature22,full_pf_a,,1
42,46077,72,,,,2,2,0.0,1.0,1.0,0.0,,0.0-69.0,,0.0,666.25,0.0,0.455642565,1.0,0.623605825,0.0,0.358753011,1.0,0.346174041,False,,5de54842a7cb240cb3c34933,,2072418,72,,evan-feature22,full_pf_a,,0
43,46078,73,,,,2,2,0.0,0.0,0.0,-1.0,,0.0-70.0,,0.0,848.465,1.0,0.483677308,1.0,0.5904681070000001,0.0,0.402218411,0.0,0.35344697,False,,5de54842a7cb240cb3c34933,,2083028,73,,evan-feature22,full_pf_a,,0
44,46079,74,,,,1,1,1.0,0.0,1.0,0.0,,0.0-71.0,,1.0,681.45,1.0,0.394210977,0.0,0.558925494,0.0,0.540052017,0.0,0.35182128700000004,False,,5de54842a7cb240cb3c34933,,2093471,74,,evan-feature22,full_pf_a,,1
45,46080,75,,,,2,2,1.0,0.0,0.0,-1.0,,0.0-72.0,,0.0,953.215,0.0,0.382300414,1.0,0.577670603,1.0,0.607608448,0.0,0.378261578,False,,5de54842a7cb240cb3c34933,,2104186,75,,evan-feature22,full_pf_a,,1
46,46081,76,,,,2,2,1.0,0.0,1.0,0.0,,0.0-73.0,,1.0,887.345,0.0,0.357596762,1.0,0.5929076529999999,1.0,0.6579790010000001,0.0,0.401326777,False,,5de54842a7cb240cb3c34933,,2114836,76,,evan-feature22,full_pf_a,,0
47,46082,77,,,,2,2,1.0,0.0,0.0,-1.0,,0.0-74.0,,0.0,1733.33,1.0,0.362033495,1.0,0.582308608,1.0,0.649195052,0.0,0.355158505,False,,5de54842a7cb240cb3c34933,,2126333,77,,evan-feature22,full_pf_a,,0
48,46083,78,,,,1,1,0.0,1.0,0.0,-1.0,,0.0-75.0,,-1.0,1756.925,0.0,0.369620635,1.0,0.669100864,1.0,0.706059111,0.0,0.362516241,False,,5de54842a7cb240cb3c34933,,2137852,78,,evan-feature22,full_pf_a,,1
49,46084,79,,,,2,2,1.0,0.0,0.0,-1.0,,0.0-76.0,,0.0,555.395,0.0,0.41477751399999996,1.0,0.7284416779999999,1.0,0.7182656940000001,0.0,0.36228040899999997,False,,5de54842a7cb240cb3c34933,,2148171,79,,evan-feature22,full_pf_a,,1
50,46085,80,,,,2,2,0.0,0.0,1.0,0.0,,0.0-77.0,,0.0,598.915,1.0,0.37675460299999997,1.0,0.703250285,0.0,0.75,0.0,0.461979164,False,,5de54842a7cb240cb3c34933,,2158535,80,,evan-feature22,full_pf_a,,0
51,46086,81,,,,1,1,1.0,0.0,1.0,0.0,,0.0-78.0,,1.0,1051.46,1.0,0.398716075,0.0,0.6723864890000001,1.0,0.674153818,1.0,0.519029516,False,,5de54842a7cb240cb3c34933,,2169351,81,,evan-feature22,full_pf_a,,1
52,46087,82,,,,SLOW,SLOW,,,1.0,0.0,,0.0-79.0,,-3.0,,0.0,0.34677856700000004,1.0,0.69057175,0.0,0.6822438540000001,0.0,0.477292237,False,,5de54842a7cb240cb3c34933,,2175157,82,,evan-feature22,full_pf_a,,1
53,46088,83,,,,2,2,1.0,0.0,0.0,-1.0,,0.0-80.0,,0.0,473.115,0.0,0.28580469199999997,1.0,0.68408818,1.0,0.684207565,0.0,0.49780448299999996,False,,5de54842a7cb240cb3c34933,,2185393,83,,evan-feature22,full_pf_a,,1
54,46090,85,,,,2,2,1.0,0.0,0.0,-1.0,,0.0-82.0,,0.0,1162.93,1.0,0.25,0.0,0.7405808970000001,1.0,0.679614108,0.0,0.436436964,False,,5de54842a7cb240cb3c34933,,2198604,85,,evan-feature22,full_pf_a,,0
55,46091,86,,,,1,1,1.0,1.0,0.0,-1.0,,0.0-83.0,,-1.0,1328.03,1.0,0.29890393,1.0,0.730505706,0.0,0.7328203320000001,0.0,0.439256938,False,,5de54842a7cb240cb3c34933,,2209695,86,,evan-feature22,full_pf_a,,1
56,46092,87,,,,1,1,0.0,1.0,1.0,0.0,,0.0-84.0,,0.0,1212.22,0.0,0.326762398,1.0,0.7148059609999999,0.0,0.75,1.0,0.44389608799999997,False,,5de54842a7cb240cb3c34933,,2220671,87,,evan-feature22,full_pf_a,,0
57,46093,88,,,,2,2,1.0,0.0,0.0,-1.0,,0.0-85.0,,0.0,1184.575,1.0,0.295168515,1.0,0.739760854,1.0,0.719947008,0.0,0.35277284600000003,False,,5de54842a7cb240cb3c34933,,2231617,88,,evan-feature22,full_pf_a,,1
58,46094,89,,,,2,2,1.0,0.0,0.0,-1.0,,0.0-86.0,,0.0,1335.02,0.0,0.25,0.0,0.70781482,1.0,0.75,0.0,0.286095925,False,,5de54842a7cb240cb3c34933,,2242718,89,,evan-feature22,full_pf_a,,0
59,46095,90,,,,2,2,1.0,1.0,0.0,-1.0,,0.0-87.0,,-1.0,1030.515,0.0,0.25638190899999996,1.0,0.704088163,1.0,0.75,1.0,0.26872601399999996,False,,5de54842a7cb240cb3c34933,,2253514,90,,evan-feature22,full_pf_a,,0
60,46096,91,,,,1,1,0.0,1.0,1.0,0.0,,0.0-88.0,,0.0,925.825,0.0,0.271581126,1.0,0.669760107,1.0,0.733896663,0.0,0.273244572,False,,5de54842a7cb240cb3c34933,,2264201,91,,evan-feature22,full_pf_a,,1
61,46097,92,,,,2,2,1.0,1.0,0.0,-1.0,,0.0-89.0,,-1.0,1129.665,0.0,0.257144401,0.0,0.600575706,1.0,0.74488122,1.0,0.25,False,,5de54842a7cb240cb3c34933,,2275100,92,,evan-feature22,full_pf_a,,1
62,46098,93,,,,1,1,0.0,1.0,0.0,-1.0,,0.0-90.0,,-1.0,441.06,0.0,0.25,1.0,0.616870026,1.0,0.723610234,0.0,0.25,False,,5de54842a7cb240cb3c34933,,2285302,93,,evan-feature22,full_pf_a,,1
63,46099,94,,,,2,2,1.0,0.0,1.0,0.0,,0.0-91.0,,1.0,882.475,1.0,0.25,0.0,0.583540187,1.0,0.7041042559999999,0.0,0.285961995,False,,5de54842a7cb240cb3c34933,,2295946,94,,evan-feature22,full_pf_a,,1
64,46100,95,,,,2,2,1.0,0.0,1.0,0.0,,0.0-92.0,,1.0,947.65,0.0,0.27254536,0.0,0.53875765,1.0,0.693783448,0.0,0.284961652,False,,5de54842a7cb240cb3c34933,,2306656,95,,evan-feature22,full_pf_a,,0
65,46101,96,,,,1,1,0.0,0.0,1.0,0.0,,0.0-93.0,,0.0,1182.665,0.0,0.25,0.0,0.548431252,1.0,0.734221895,0.0,0.279445214,False,,5de54842a7cb240cb3c34933,,2317601,96,,evan-feature22,full_pf_a,,1
66,46102,97,,,,2,2,1.0,1.0,0.0,-1.0,,0.0-94.0,,-1.0,1219.13,1.0,0.258640684,1.0,0.545878066,1.0,0.725245965,1.0,0.31487537,False,,5de54842a7cb240cb3c34933,,2328584,97,,evan-feature22,full_pf_a,,1
67,46103,98,,,,1,1,1.0,1.0,0.0,-1.0,,0.0-95.0,,-1.0,1579.085,1.0,0.251103711,1.0,0.5776290629999999,1.0,0.696320133,1.0,0.317831047,False,,5de54842a7cb240cb3c34933,,2339927,98,,evan-feature22,full_pf_a,,1
68,46104,99,,,,1,1,1.0,1.0,0.0,-1.0,,0.0-96.0,,-1.0,1102.005,1.0,0.276630292,1.0,0.617329858,1.0,0.73838088,1.0,0.261471582,False,,5de54842a7cb240cb3c34933,,2350808,99,,evan-feature22,full_pf_a,,0
69,46105,100,,,,2,2,1.0,0.0,0.0,-1.0,,0.0-97.0,,0.0,532.485,0.0,0.297716424,0.0,0.618863717,1.0,0.7402358259999999,0.0,0.262600834,False,,5de54842a7cb240cb3c34933,,2361103,100,,evan-feature22,full_pf_a,,1
70,46106,101,,,,2,2,1.0,0.0,1.0,0.0,,0.0-98.0,,1.0,562.48,0.0,0.290935512,1.0,0.695370945,1.0,0.706570507,0.0,0.280030553,False,,5de54842a7cb240cb3c34933,,2371428,101,,evan-feature22,full_pf_a,,0
71,46107,102,,,,2,2,1.0,0.0,0.0,-1.0,,0.0-99.0,,0.0,986.405,0.0,0.25,1.0,0.6465277079999999,1.0,0.67766682,0.0,0.25,False,,5de54842a7cb240cb3c34933,,2382180,102,,evan-feature22,full_pf_a,,0
72,46108,103,,,,1,1,0.0,1.0,1.0,0.0,,0.0-100.0,,0.0,1097.96,0.0,0.26463816,1.0,0.636100213,0.0,0.646048507,0.0,0.265607101,False,,5de54842a7cb240cb3c34933,,2393039,103,,evan-feature22,full_pf_a,,1
73,46109,104,,,,1,1,1.0,1.0,1.0,0.0,,0.0-101.0,,1.0,893.575,1.0,0.314340707,1.0,0.667795927,1.0,0.613630805,0.0,0.25,False,,5de54842a7cb240cb3c34933,,2403698,104,,evan-feature22,full_pf_a,,0
74,46110,105,,,,2,2,1.0,0.0,0.0,-1.0,,0.0-102.0,,0.0,1163.685,1.0,0.28685784,1.0,0.6622549529999999,1.0,0.652154117,0.0,0.25,False,,5de54842a7cb240cb3c34933,,2414626,105,,evan-feature22,full_pf_a,,1
75,46111,106,,,,2,2,1.0,0.0,0.0,-1.0,,0.0-103.0,,0.0,985.84,0.0,0.304106554,1.0,0.631289538,1.0,0.707041942,0.0,0.29314237,False,,5de54842a7cb240cb3c34933,,2425374,106,,evan-feature22,full_pf_a,,0
76,46112,107,,,,2,2,1.0,1.0,0.0,-1.0,,0.0-104.0,,-1.0,1052.01,0.0,0.304806932,0.0,0.571167718,1.0,0.680472346,1.0,0.25,False,,5de54842a7cb240cb3c34933,,2436191,107,,evan-feature22,full_pf_a,,0
77,46113,108,,,,1,1,0.0,0.0,0.0,-1.0,,0.0-105.0,,0.0,727.33,0.0,0.37919861,0.0,0.5724849710000001,0.0,0.705638003,1.0,0.30179300600000003,False,,5de54842a7cb240cb3c34933,,2446682,108,,evan-feature22,full_pf_a,,1
78,46114,109,,,,2,2,1.0,1.0,0.0,-1.0,,0.0-106.0,,-1.0,1038.73,0.0,0.464277969,1.0,0.554034373,1.0,0.7372627340000001,1.0,0.264699741,False,,5de54842a7cb240cb3c34933,,2457490,109,,evan-feature22,full_pf_a,,1
79,46115,110,,,,1,1,0.0,0.0,0.0,-1.0,,0.0-107.0,,0.0,1089.35,0.0,0.465104323,0.0,0.530793115,1.0,0.75,0.0,0.31683071,False,,5de54842a7cb240cb3c34933,,2468342,110,,evan-feature22,full_pf_a,,1
80,46116,111,,,,2,2,1.0,1.0,1.0,0.0,,0.0-108.0,,1.0,769.385,0.0,0.465104323,0.0,0.530793115,1.0,0.75,1.0,0.31683071,False,,5de54842a7cb240cb3c34933,,2478877,111,,evan-feature22,full_pf_a,,1
81,46117,112,,,,2,2,0.0,0.0,1.0,0.0,,0.0-109.0,,0.0,734.135,1.0,0.46833986,0.0,0.570249239,0.0,0.7244472590000001,0.0,0.364114163,False,,5de54842a7cb240cb3c34933,,2489374,112,,evan-feature22,full_pf_a,,0
82,46118,113,,,,2,2,1.0,0.0,1.0,0.0,,0.0-110.0,,1.0,857.355,1.0,0.445444024,1.0,0.649673355,1.0,0.6845441290000001,0.0,0.300660449,False,,5de54842a7cb240cb3c34933,,2499997,113,,evan-feature22,full_pf_a,,0
83,46119,114,,,,2,2,0.0,1.0,1.0,0.0,,0.0-111.0,,0.0,659.645,0.0,0.39909721299999995,1.0,0.6715179509999999,0.0,0.742310028,1.0,0.35496088299999995,False,,5de54842a7cb240cb3c34933,,2510423,114,,evan-feature22,full_pf_a,,0
84,46120,115,,,,2,2,1.0,1.0,0.0,-1.0,,0.0-112.0,,-1.0,808.075,0.0,0.37956104799999996,0.0,0.694725302,1.0,0.7181651309999999,1.0,0.38726906299999997,False,,5de54842a7cb240cb3c34933,,2521000,115,,evan-feature22,full_pf_a,,0
85,46121,116,,,,1,1,1.0,1.0,0.0,-1.0,,0.0-113.0,,-1.0,773.345,1.0,0.404995034,1.0,0.724375412,1.0,0.6910946859999999,0.0,0.387187347,False,,5de54842a7cb240cb3c34933,,2531536,116,,evan-feature22,full_pf_a,,1
86,46122,117,,,,2,2,0.0,0.0,1.0,0.0,,0.0-114.0,,0.0,1075.75,0.0,0.461740803,1.0,0.75,0.0,0.75,0.0,0.34872038200000005,False,,5de54842a7cb240cb3c34933,,2542374,117,,evan-feature22,full_pf_a,,1
87,46123,118,,,,2,2,1.0,0.0,1.0,0.0,,0.0-115.0,,1.0,752.685,1.0,0.43821380600000004,1.0,0.738833273,1.0,0.728286963,0.0,0.399538128,False,,5de54842a7cb240cb3c34933,,2552890,118,,evan-feature22,full_pf_a,,0
88,46124,119,,,,SLOW,SLOW,,,0.0,-1.0,,0.0-116.0,,-3.0,,0.0,0.41709882,1.0,0.736666736,0.0,0.75,0.0,0.389095584,False,,5de54842a7cb240cb3c34933,,2558697,119,,evan-feature22,full_pf_a,,1
89,46125,120,,,,1,1,0.0,1.0,0.0,-1.0,,0.0-117.0,,-1.0,476.185,0.0,0.39749009799999996,1.0,0.744320029,1.0,0.75,1.0,0.363848678,False,,5de54842a7cb240cb3c34933,,2568936,120,,evan-feature22,full_pf_a,,1
90,46126,121,,,,2,2,1.0,0.0,1.0,0.0,,0.0-118.0,,1.0,520.43,1.0,0.392653706,1.0,0.75,1.0,0.75,0.0,0.384386976,False,,5de54842a7cb240cb3c34933,,2579220,121,,evan-feature22,full_pf_a,,1
91,46127,122,,,,1,1,1.0,1.0,0.0,-1.0,,0.0-119.0,,-1.0,711.735,1.0,0.31190902600000003,1.0,0.75,1.0,0.732413819,1.0,0.413082932,False,,5de54842a7cb240cb3c34933,,2589699,122,,evan-feature22,full_pf_a,,1
92,46128,123,,,,2,2,1.0,0.0,1.0,0.0,,0.0-120.0,,1.0,1706.2,1.0,0.366917648,0.0,0.740073855,1.0,0.75,0.0,0.352861979,False,,5de54842a7cb240cb3c34933,,2601166,123,,evan-feature22,full_pf_a,,1
93,46129,124,,,,2,2,1.0,0.0,1.0,0.0,,0.0-121.0,,1.0,529.335,0.0,0.3645172,1.0,0.721770713,1.0,0.75,0.0,0.404074511,False,,5de54842a7cb240cb3c34933,,2611458,124,,evan-feature22,full_pf_a,,0
94,46130,125,,,,1,1,0.0,1.0,1.0,0.0,,0.0-122.0,,0.0,664.11,0.0,0.35205600299999995,1.0,0.68983859,1.0,0.739735447,0.0,0.366895945,False,,5de54842a7cb240cb3c34933,,2621887,125,,evan-feature22,full_pf_a,,1
95,46131,126,,,,2,2,0.0,0.0,1.0,0.0,,0.0-123.0,,0.0,750.205,0.0,0.40998722600000004,1.0,0.720859127,0.0,0.673854955,0.0,0.368528541,False,,5de54842a7cb240cb3c34933,,2632400,126,,evan-feature22,full_pf_a,,1
96,46132,127,,,,1,1,0.0,1.0,1.0,0.0,,0.0-124.0,,0.0,627.15,0.0,0.353625316,1.0,0.75,0.0,0.695605473,0.0,0.38303674200000004,False,,5de54842a7cb240cb3c34933,,2642788,127,,evan-feature22,full_pf_a,,1
97,46133,128,,,,2,2,0.0,0.0,1.0,0.0,,0.0-125.0,,0.0,1452.085,0.0,0.359216989,0.0,0.75,0.0,0.6987915090000001,0.0,0.35169046200000004,False,,5de54842a7cb240cb3c34933,,2654004,128,,evan-feature22,full_pf_a,,1
98,46134,129,,,,SLOW,SLOW,,,1.0,0.0,,0.0-126.0,,-3.0,,0.0,0.35834496899999996,1.0,0.75,1.0,0.707067742,1.0,0.416763636,False,,5de54842a7cb240cb3c34933,,2659812,129,,evan-feature22,full_pf_a,,1
99,46135,130,,,,2,2,1.0,1.0,0.0,-1.0,,0.0-127.0,,-1.0,1812.225,0.0,0.38741613799999997,0.0,0.7177369570000001,1.0,0.734902455,1.0,0.49438664299999996,False,,5de54842a7cb240cb3c34933,,2671390,130,,evan-feature22,full_pf_a,,1
100,46136,131,,,,2,2,1.0,0.0,1.0,0.0,,0.0-128.0,,1.0,517.605,1.0,0.405255252,1.0,0.7300466640000001,1.0,0.7027748070000001,0.0,0.504359668,False,,5de54842a7cb240cb3c34933,,2681671,131,,evan-feature22,full_pf_a,,0
101,46137,132,,,,1,1,1.0,1.0,1.0,0.0,,0.0-129.0,,1.0,978.91,1.0,0.40697073,1.0,0.7260142190000001,0.0,0.724461982,1.0,0.522779179,False,,5de54842a7cb240cb3c34933,,2692414,132,,evan-feature22,full_pf_a,,1
102,46138,133,,,,1,1,0.0,1.0,1.0,0.0,,0.0-130.0,,0.0,639.98,0.0,0.43906215299999996,1.0,0.7252802340000001,1.0,0.719079934,0.0,0.5712990579999999,False,,5de54842a7cb240cb3c34933,,2702815,133,,evan-feature22,full_pf_a,,0
103,46139,134,,,,1,1,0.0,1.0,0.0,-1.0,,0.0-131.0,,-1.0,1275.72,0.0,0.4076705,1.0,0.73280499,1.0,0.681313127,1.0,0.523891346,False,,5de54842a7cb240cb3c34933,,2713854,134,,evan-feature22,full_pf_a,,0
104,46140,135,,,,1,1,1.0,1.0,0.0,-1.0,,0.0-132.0,,-1.0,2753.85,1.0,0.399102911,1.0,0.730498344,1.0,0.661080239,1.0,0.46742603,False,,5de54842a7cb240cb3c34933,,2726376,135,,evan-feature22,full_pf_a,,0
105,46141,136,,,,2,2,1.0,1.0,0.0,-1.0,,0.0-133.0,,-1.0,194.655,0.0,0.356477282,1.0,0.712296395,1.0,0.641812684,1.0,0.44868414,False,,5de54842a7cb240cb3c34933,,2736335,136,,evan-feature22,full_pf_a,,1
106,46142,137,,,,1,1,0.0,1.0,1.0,0.0,,0.0-134.0,,0.0,2324.915,0.0,0.462760722,1.0,0.692349322,1.0,0.700947931,1.0,0.394680266,False,,5de54842a7cb240cb3c34933,,2748423,137,,evan-feature22,full_pf_a,,1
107,46143,138,,,,1,1,0.0,1.0,1.0,0.0,,0.0-135.0,,0.0,461.74,0.0,0.422306413,1.0,0.718375916,0.0,0.706340917,0.0,0.367787185,False,,5de54842a7cb240cb3c34933,,2758646,138,,evan-feature22,full_pf_a,,0
108,46145,140,,,,1,1,0.0,1.0,1.0,0.0,,0.0-137.0,,0.0,413.425,0.0,0.4582233,1.0,0.643834117,1.0,0.75,0.0,0.39615823299999997,False,,5de54842a7cb240cb3c34933,,2770734,140,,evan-feature22,full_pf_a,,0
109,46146,141,,,,2,2,1.0,0.0,1.0,0.0,,0.0-138.0,,1.0,475.71,1.0,0.43813437899999996,0.0,0.651283804,1.0,0.729674191,0.0,0.37711048,False,,5de54842a7cb240cb3c34933,,2780972,141,,evan-feature22,full_pf_a,,1
110,46147,142,,,,SLOW,SLOW,,,1.0,0.0,,0.0-139.0,,-3.0,,1.0,0.471199094,0.0,0.6470010979999999,0.0,0.715008097,1.0,0.410656191,False,,5de54842a7cb240cb3c34933,,2786778,142,,evan-feature22,full_pf_a,,1
111,46148,143,,,,1,1,0.0,0.0,1.0,0.0,,0.0-140.0,,0.0,523.855,0.0,0.42486406,0.0,0.629771829,0.0,0.6550939960000001,1.0,0.459093873,False,,5de54842a7cb240cb3c34933,,2797069,143,,evan-feature22,full_pf_a,,1
112,46149,144,,,,2,2,1.0,1.0,1.0,0.0,,0.0-141.0,,1.0,694.75,1.0,0.4803197,1.0,0.645842715,1.0,0.6421749920000001,1.0,0.443092151,False,,5de54842a7cb240cb3c34933,,2807531,144,,evan-feature22,full_pf_a,,1
113,46150,145,,,,2,2,1.0,1.0,0.0,-1.0,,0.0-142.0,,-1.0,575.985,0.0,0.521848997,1.0,0.735801074,1.0,0.6691348460000001,1.0,0.45259351600000003,False,,5de54842a7cb240cb3c34933,,2817871,145,,evan-feature22,full_pf_a,,0
114,46151,146,,,,1,1,1.0,1.0,1.0,0.0,,0.0-143.0,,1.0,719.26,1.0,0.49565621299999996,1.0,0.742400847,1.0,0.661512553,1.0,0.483110831,False,,5de54842a7cb240cb3c34933,,2828369,146,,evan-feature22,full_pf_a,,1
115,46152,147,,,,1,1,0.0,1.0,1.0,0.0,,0.0-144.0,,0.0,430.765,0.0,0.521564361,1.0,0.731078632,1.0,0.6774886809999999,1.0,0.483263956,False,,5de54842a7cb240cb3c34933,,2838563,147,,evan-feature22,full_pf_a,,0
116,46153,148,,,,1,1,1.0,1.0,1.0,0.0,,0.0-145.0,,1.0,396.145,1.0,0.558893102,1.0,0.719810023,0.0,0.67461031,1.0,0.499349834,False,,5de54842a7cb240cb3c34933,,2848730,148,,evan-feature22,full_pf_a,,0
117,46154,149,,,,1,1,1.0,0.0,1.0,0.0,,0.0-146.0,,1.0,464.475,1.0,0.611031046,0.0,0.75,0.0,0.688072995,0.0,0.5321422729999999,False,,5de54842a7cb240cb3c34933,,2858963,149,,evan-feature22,full_pf_a,,0
118,46155,150,,,,1,1,1.0,1.0,0.0,-1.0,,0.0-147.0,,-1.0,493.475,1.0,0.633223941,1.0,0.713567728,0.0,0.75,0.0,0.48185314700000004,False,,5de54842a7cb240cb3c34933,,2869221,150,,evan-feature22,full_pf_a,,0
119,46156,151,,,,2,2,0.0,1.0,1.0,0.0,,0.0-148.0,,0.0,402.44,1.0,0.664001694,0.0,0.705509768,0.0,0.75,1.0,0.500211065,False,,5de54842a7cb240cb3c34933,,2879386,151,,evan-feature22,full_pf_a,,1
120,46157,152,,,,1,1,1.0,1.0,1.0,0.0,,0.0-149.0,,1.0,353.565,1.0,0.664001694,1.0,0.705509768,1.0,0.75,0.0,0.500211065,False,,5de54842a7cb240cb3c34933,,2889506,152,,evan-feature22,full_pf_a,,1
121,46158,153,,,,1,1,1.0,0.0,1.0,0.0,,0.0-150.0,,1.0,728.23,1.0,0.696508041,0.0,0.71066027,1.0,0.717028709,0.0,0.49792991,False,,5de54842a7cb240cb3c34933,,2900000,153,,evan-feature22,full_pf_a,,0
122,46159,154,,,,1,1,1.0,0.0,0.0,-1.0,,0.0-151.0,,0.0,459.035,1.0,0.699883272,0.0,0.75,1.0,0.713543895,0.0,0.496962643,False,,5de54842a7cb240cb3c34933,,2910223,154,,evan-feature22,full_pf_a,,0
123,46160,155,,,,2,2,0.0,0.0,0.0,-1.0,,0.0-152.0,,0.0,2718.07,1.0,0.741163419,0.0,0.75,0.0,0.64691024,0.0,0.513858197,False,,5de54842a7cb240cb3c34933,,2922720,155,,evan-feature22,full_pf_a,,1
124,46161,156,,,,1,1,1.0,1.0,0.0,-1.0,,0.0-153.0,,-1.0,41.425,1.0,0.75,1.0,0.70816558,0.0,0.594499079,0.0,0.48502124,False,,5de54842a7cb240cb3c34933,,2932527,156,,evan-feature22,full_pf_a,,1
125,46162,157,,,,2,2,1.0,1.0,1.0,0.0,,0.0-154.0,,1.0,297.805,1.0,0.75,1.0,0.721848901,1.0,0.62197249,1.0,0.48263586399999997,False,,5de54842a7cb240cb3c34933,,2942591,157,,evan-feature22,full_pf_a,,1
126,46163,158,,,,1,1,0.0,1.0,1.0,0.0,,0.0-155.0,,0.0,534.1,0.0,0.75,1.0,0.74813071,0.0,0.584357161,0.0,0.411477782,False,,5de54842a7cb240cb3c34933,,2952895,158,,evan-feature22,full_pf_a,,1
127,46164,159,,,,2,2,0.0,1.0,1.0,0.0,,0.0-156.0,,0.0,594.31,1.0,0.75,0.0,0.75,0.0,0.52287236,1.0,0.488290656,False,,5de54842a7cb240cb3c34933,,2963251,159,,evan-feature22,full_pf_a,,1
128,46165,160,,,,2,2,0.0,0.0,1.0,0.0,,0.0-157.0,,0.0,238.325,1.0,0.75,0.0,0.75,0.0,0.544321581,0.0,0.53143059,False,,5de54842a7cb240cb3c34933,,2973251,160,,evan-feature22,full_pf_a,,0
129,46166,161,,,,1,1,1.0,1.0,1.0,0.0,,0.0-158.0,,1.0,633.425,1.0,0.726754564,1.0,0.75,1.0,0.5129306370000001,1.0,0.530592445,False,,5de54842a7cb240cb3c34933,,2983647,161,,evan-feature22,full_pf_a,,1
130,46167,162,,,,1,1,0.0,1.0,0.0,-1.0,,0.0-159.0,,-1.0,663.155,0.0,0.75,1.0,0.7392590729999999,0.0,0.479875835,1.0,0.547007051,False,,5de54842a7cb240cb3c34933,,2994075,162,,evan-feature22,full_pf_a,,0
131,46168,163,,,,1,1,1.0,0.0,0.0,-1.0,,0.0-160.0,,0.0,963.315,1.0,0.75,0.0,0.7393376979999999,0.0,0.546045419,1.0,0.541267353,False,,5de54842a7cb240cb3c34933,,3004808,163,,evan-feature22,full_pf_a,,0
132,46169,164,,,,1,1,0.0,0.0,1.0,0.0,,0.0-161.0,,0.0,506.69,0.0,0.75,0.0,0.75,0.0,0.485725895,0.0,0.527625395,False,,5de54842a7cb240cb3c34933,,3015076,164,,evan-feature22,full_pf_a,,0
133,46170,165,,,,1,1,1.0,1.0,0.0,-1.0,,0.0-162.0,,-1.0,713.205,1.0,0.75,1.0,0.725087974,0.0,0.488603595,1.0,0.504019206,False,,5de54842a7cb240cb3c34933,,3025555,165,,evan-feature22,full_pf_a,,0
134,46171,166,,,,2,2,0.0,1.0,1.0,0.0,,0.0-163.0,,0.0,559.21,1.0,0.745504295,1.0,0.75,0.0,0.452379914,1.0,0.50131194,False,,5de54842a7cb240cb3c34933,,3035874,166,,evan-feature22,full_pf_a,,1
135,46172,167,,,,2,2,0.0,0.0,0.0,-1.0,,0.0-164.0,,0.0,1080.505,0.0,0.728513874,1.0,0.75,0.0,0.44125567200000004,0.0,0.531454591,False,,5de54842a7cb240cb3c34933,,3046715,167,,evan-feature22,full_pf_a,,0
136,46173,168,,,,1,1,0.0,1.0,1.0,0.0,,0.0-165.0,,0.0,3252.06,0.0,0.73790804,1.0,0.75,1.0,0.413036656,1.0,0.524619035,False,,5de54842a7cb240cb3c34933,,3059727,168,,evan-feature22,full_pf_a,,1
137,46174,169,,,,1,1,1.0,0.0,1.0,0.0,,0.0-166.0,,1.0,1765.06,1.0,0.7080961309999999,0.0,0.708666865,1.0,0.431915581,1.0,0.481819489,False,,5de54842a7cb240cb3c34933,,3071256,169,,evan-feature22,full_pf_a,,0
138,46175,170,,,,1,1,1.0,1.0,1.0,0.0,,0.0-167.0,,1.0,963.205,1.0,0.721378003,1.0,0.71605913,1.0,0.36642387,0.0,0.5036739929999999,False,,5de54842a7cb240cb3c34933,,3081983,170,,evan-feature22,full_pf_a,,0
139,46176,171,,,,1,1,0.0,0.0,0.0,-1.0,,0.0-168.0,,0.0,1172.67,0.0,0.7340618959999999,0.0,0.699323252,0.0,0.35298046299999997,1.0,0.511241692,False,,5de54842a7cb240cb3c34933,,3092917,171,,evan-feature22,full_pf_a,,0
140,46177,172,,,,1,1,1.0,1.0,0.0,-1.0,,0.0-169.0,,-1.0,922.315,1.0,0.75,1.0,0.70412698,0.0,0.380734814,1.0,0.529580116,False,,5de54842a7cb240cb3c34933,,3103616,172,,evan-feature22,full_pf_a,,0
141,46178,173,,,,2,2,1.0,0.0,0.0,-1.0,,0.0-170.0,,0.0,213.55,1.0,0.7436654909999999,1.0,0.711182751,1.0,0.41125331,0.0,0.49554405,False,,5de54842a7cb240cb3c34933,,3113597,173,,evan-feature22,full_pf_a,,1
142,46179,174,,,,1,1,1.0,1.0,1.0,0.0,,0.0-171.0,,1.0,924.41,1.0,0.731607915,1.0,0.651774583,0.0,0.35688023,0.0,0.45194491600000003,False,,5de54842a7cb240cb3c34933,,3124285,174,,evan-feature22,full_pf_a,,1
143,46180,175,,,,1,1,0.0,1.0,0.0,-1.0,,0.0-172.0,,-1.0,1451.355,0.0,0.75,1.0,0.75,1.0,0.283145374,0.0,0.528608005,False,,5de54842a7cb240cb3c34933,,3135498,175,,evan-feature22,full_pf_a,,0
144,46181,176,,,,2,2,0.0,1.0,1.0,0.0,,0.0-173.0,,0.0,1280.395,1.0,0.7491416890000001,0.0,0.7423785959999999,0.0,0.29135870399999997,1.0,0.498888318,False,,5de54842a7cb240cb3c34933,,3146543,176,,evan-feature22,full_pf_a,,1
145,46182,177,,,,1,1,0.0,1.0,0.0,-1.0,,0.0-174.0,,-1.0,565.29,0.0,0.708569387,1.0,0.717682277,0.0,0.294421699,1.0,0.493838163,False,,5de54842a7cb240cb3c34933,,3156872,177,,evan-feature22,full_pf_a,,1
146,46183,178,,,,2,2,0.0,0.0,1.0,0.0,,0.0-175.0,,0.0,0.234999999,1.0,0.75,1.0,0.7383382159999999,0.0,0.356098707,0.0,0.442533405,False,,5de54842a7cb240cb3c34933,,3166631,178,,evan-feature22,full_pf_a,,1
147,46184,179,,,,2,2,0.0,1.0,1.0,0.0,,0.0-176.0,,0.0,398.12,0.0,0.744527075,1.0,0.75,0.0,0.334127506,1.0,0.393165805,False,,5de54842a7cb240cb3c34933,,3176789,179,,evan-feature22,full_pf_a,,0
148,46185,180,,,,1,1,1.0,1.0,1.0,0.0,,0.0-177.0,,1.0,332.945,1.0,0.75,1.0,0.75,0.0,0.33571021799999995,0.0,0.350393962,False,,5de54842a7cb240cb3c34933,,3186886,180,,evan-feature22,full_pf_a,,1
149,46186,181,,,,1,1,1.0,1.0,0.0,-1.0,,0.0-178.0,,-1.0,496.775,1.0,0.75,1.0,0.75,0.0,0.313628297,0.0,0.36349657399999996,False,,5de54842a7cb240cb3c34933,,3197152,181,,evan-feature22,full_pf_a,,0
150,46187,182,,,,2,2,0.0,1.0,1.0,0.0,,0.0-179.0,,0.0,453.95,1.0,0.75,0.0,0.734284182,0.0,0.262667667,1.0,0.380199119,False,,5de54842a7cb240cb3c34933,,3207370,182,,evan-feature22,full_pf_a,,1
151,46188,183,,,,1,1,1.0,1.0,1.0,0.0,,0.0-180.0,,1.0,358.95,1.0,0.75,1.0,0.75,0.0,0.25,1.0,0.394494013,False,,5de54842a7cb240cb3c34933,,3217495,183,,evan-feature22,full_pf_a,,1
152,46189,184,,,,1,1,1.0,0.0,1.0,0.0,,0.0-181.0,,1.0,395.8,1.0,0.722298145,0.0,0.7357822340000001,0.0,0.25,0.0,0.319142121,False,,5de54842a7cb240cb3c34933,,3227651,184,,evan-feature22,full_pf_a,,0
153,46190,185,,,,2,2,0.0,0.0,1.0,0.0,,0.0-182.0,,0.0,1227.095,1.0,0.73149275,1.0,0.724276446,0.0,0.305856907,0.0,0.281315057,False,,5de54842a7cb240cb3c34933,,3238640,185,,evan-feature22,full_pf_a,,1
154,46191,186,,,,1,1,1.0,1.0,1.0,0.0,,0.0-183.0,,1.0,897.26,1.0,0.7458732690000001,1.0,0.7336382459999999,0.0,0.272571964,0.0,0.266021999,False,,5de54842a7cb240cb3c34933,,3249310,186,,evan-feature22,full_pf_a,,1
155,46192,187,,,,2,2,1.0,0.0,0.0,-1.0,,0.0-184.0,,0.0,766.745,1.0,0.705579037,1.0,0.720778292,1.0,0.320238144,0.0,0.30971744,False,,5de54842a7cb240cb3c34933,,3259837,187,,evan-feature22,full_pf_a,,1
156,46193,188,,,,2,2,1.0,0.0,0.0,-1.0,,0.0-185.0,,0.0,1320.32,1.0,0.700425648,1.0,0.7198784009999999,1.0,0.272590393,0.0,0.304182931,False,,5de54842a7cb240cb3c34933,,3270918,188,,evan-feature22,full_pf_a,,0
157,46194,189,,,,2,2,0.0,1.0,0.0,-1.0,,0.0-186.0,,-1.0,2061.275,1.0,0.735590785,0.0,0.722714973,0.0,0.25,1.0,0.323421091,False,,5de54842a7cb240cb3c34933,,3282747,189,,evan-feature22,full_pf_a,,0
158,46195,190,,,,2,2,0.0,0.0,0.0,-1.0,,0.0-187.0,,0.0,533.305,0.0,0.724807662,0.0,0.63146213,0.0,0.36836492600000004,0.0,0.34592153299999995,False,,5de54842a7cb240cb3c34933,,3293044,190,,evan-feature22,full_pf_a,,0
159,46196,191,,,,1,1,1.0,0.0,1.0,0.0,,0.0-188.0,,1.0,364.62,1.0,0.7352796909999999,0.0,0.555111392,0.0,0.36003922,0.0,0.31433779999999995,False,,5de54842a7cb240cb3c34933,,3303170,191,,evan-feature22,full_pf_a,,1
160,46197,192,notice,,,,,,,,,,0.0-189.0,"{""Q0"":""no""}",,9165.0,,,,,,,,,False,,5de54842a7cb240cb3c34933,,3312337,192,Q,survey-text,full_pf_a,,1
161,46198,193,track1,,[1],,,,,,,,0.0-190.0,"{""Q0"":""no""}",,4286.0,,,,,,,,,False,,5de54842a7cb240cb3c34933,,3316629,193,Q,evan-quiz,full_pf_a,,1
162,46199,194,track2,,[0],,,,,,,,0.0-191.0,"{""Q0"":""yes""}",,6196.0,,,,,,,,,False,,5de54842a7cb240cb3c34933,,3322828,194,Q,evan-quiz,full_pf_a,,1
163,46200,195,strat,,,,,,,,,,0.0-192.0,"{""Q0"":""J was more positive at the beginning""}",,17012.0,,,,,,,,,False,,5de54842a7cb240cb3c34933,,3339842,195,Q,survey-text,full_pf_a,,1
