,index,Unnamed: 0,Q_name,button_pressed,choice_idxs,chosen_pos,chosen_state,chosen_state_f_1_outcome,chosen_state_f_2_outcome,f_1_reward,f_2_reward,incor_questions,internal_node_id,responses,reward_received,rt,s_1_f_1_outcome,s_1_f_1_prob,s_1_f_2_outcome,s_1_f_2_prob,s_2_f_1_outcome,s_2_f_1_prob,s_2_f_2_outcome,s_2_f_2_prob,safe_first,stimulus,subjectID,success,time_elapsed,trial_index,trial_num,trial_type,version,view_history,switching
0,8210,25,,,,1,1,0.0,0.0,1.0,0.0,,0.0-27.0,,0.0,899.0,0.0,0.6,0.0,0.6,0.0,0.4,1.0,0.4,True,,58fa36995214e3000193281c,,832787,25,,evan-feature22,full_rf_a,,0
1,8211,26,,,,SLOW,SLOW,,,1.0,0.0,,0.0-28.0,,-3.0,,0.0,0.608053294,1.0,0.63424552,0.0,0.397152172,0.0,0.347069101,True,,58fa36995214e3000193281c,,838599,26,,evan-feature22,full_rf_a,,1
2,8212,27,,,,1,1,1.0,0.0,1.0,0.0,,0.0-29.0,,1.0,772.0,1.0,0.642237155,0.0,0.648566321,0.0,0.389407674,0.0,0.285525717,True,,58fa36995214e3000193281c,,849186,27,,evan-feature22,full_rf_a,,1
3,8213,28,,,,1,1,1.0,1.0,1.0,0.0,,0.0-30.0,,1.0,871.0,1.0,0.661086576,1.0,0.630492543,0.0,0.399058924,0.0,0.25,True,,58fa36995214e3000193281c,,859868,28,,evan-feature22,full_rf_a,,0
4,8214,29,,,,1,1,1.0,1.0,0.0,-1.0,,0.0-31.0,,-1.0,651.0,1.0,0.631324137,1.0,0.6269842929999999,1.0,0.38734784299999997,1.0,0.25,True,,58fa36995214e3000193281c,,870326,29,,evan-feature22,full_rf_a,,0
5,8215,30,,,,2,2,0.0,0.0,0.0,-1.0,,0.0-32.0,,0.0,1291.0,0.0,0.6381991370000001,1.0,0.68987999,0.0,0.384107265,0.0,0.271332943,True,,58fa36995214e3000193281c,,881428,30,,evan-feature22,full_rf_a,,1
6,8216,31,,,,SLOW,SLOW,,,1.0,0.0,,0.0-33.0,,-3.0,,1.0,0.66034901,1.0,0.742641349,0.0,0.360225629,1.0,0.25,True,,58fa36995214e3000193281c,,887255,31,,evan-feature22,full_rf_a,,1
7,8217,32,,,,2,2,1.0,0.0,1.0,0.0,,0.0-34.0,,1.0,833.0,0.0,0.638612418,0.0,0.75,1.0,0.367273939,0.0,0.25,True,,58fa36995214e3000193281c,,897896,32,,evan-feature22,full_rf_a,,1
8,8218,33,,,,2,2,0.0,1.0,0.0,-1.0,,0.0-35.0,,-1.0,834.0,1.0,0.624340629,0.0,0.75,0.0,0.425829545,1.0,0.25,True,,58fa36995214e3000193281c,,908529,33,,evan-feature22,full_rf_a,,0
9,8219,34,,,,2,2,1.0,0.0,0.0,-1.0,,0.0-36.0,,0.0,487.0,1.0,0.621999804,1.0,0.75,1.0,0.368609357,0.0,0.25,True,,58fa36995214e3000193281c,,918810,34,,evan-feature22,full_rf_a,,0
10,8220,35,,,,1,1,1.0,1.0,1.0,0.0,,0.0-37.0,,1.0,1310.0,1.0,0.62666403,1.0,0.75,0.0,0.311151498,0.0,0.25,True,,58fa36995214e3000193281c,,929911,35,,evan-feature22,full_rf_a,,1
11,8221,36,,,,1,1,1.0,1.0,0.0,-1.0,,0.0-38.0,,-1.0,779.0,1.0,0.6819650009999999,1.0,0.75,0.0,0.310763048,0.0,0.25,True,,58fa36995214e3000193281c,,940484,36,,evan-feature22,full_rf_a,,0
12,8222,37,,,,1,1,1.0,0.0,1.0,0.0,,0.0-39.0,,1.0,704.0,1.0,0.740626951,0.0,0.75,0.0,0.25,0.0,0.25,True,,58fa36995214e3000193281c,,950996,37,,evan-feature22,full_rf_a,,0
13,8223,38,,,,2,2,0.0,0.0,1.0,0.0,,0.0-40.0,,0.0,1034.0,0.0,0.739599242,1.0,0.742034978,0.0,0.25397114600000004,0.0,0.25,True,,58fa36995214e3000193281c,,961841,38,,evan-feature22,full_rf_a,,1
14,8224,39,,,,2,2,0.0,0.0,1.0,0.0,,0.0-41.0,,0.0,524.0,1.0,0.732341315,1.0,0.72735643,0.0,0.25,0.0,0.25,True,,58fa36995214e3000193281c,,972162,39,,evan-feature22,full_rf_a,,0
15,8225,40,,,,1,1,1.0,1.0,1.0,0.0,,0.0-42.0,,1.0,648.0,1.0,0.7062287770000001,1.0,0.75,1.0,0.29002151,0.0,0.288256649,True,,58fa36995214e3000193281c,,982598,40,,evan-feature22,full_rf_a,,1
16,8226,41,,,,2,2,0.0,0.0,1.0,0.0,,0.0-43.0,,0.0,921.0,1.0,0.7086029209999999,1.0,0.75,0.0,0.274129113,0.0,0.262851608,True,,58fa36995214e3000193281c,,993325,41,,evan-feature22,full_rf_a,,1
17,8227,42,,,,2,2,0.0,0.0,1.0,0.0,,0.0-44.0,,0.0,804.0,0.0,0.669189651,1.0,0.727614338,0.0,0.298444036,0.0,0.296944518,True,,58fa36995214e3000193281c,,1003927,42,,evan-feature22,full_rf_a,,0
18,8228,43,,,,2,2,0.0,0.0,1.0,0.0,,0.0-45.0,,0.0,1391.0,0.0,0.6819912929999999,0.0,0.7179434290000001,0.0,0.265003961,0.0,0.28157921199999997,True,,58fa36995214e3000193281c,,1015127,43,,evan-feature22,full_rf_a,,0
19,8229,44,,,,1,1,1.0,1.0,0.0,-1.0,,0.0-46.0,,-1.0,456.0,1.0,0.665275002,1.0,0.723065271,0.0,0.260414971,1.0,0.30973870000000003,True,,58fa36995214e3000193281c,,1025381,44,,evan-feature22,full_rf_a,,1
20,8230,45,,,,2,2,0.0,0.0,1.0,0.0,,0.0-47.0,,0.0,534.0,0.0,0.6660593260000001,0.0,0.728032907,0.0,0.30922817,0.0,0.338778608,True,,58fa36995214e3000193281c,,1035694,45,,evan-feature22,full_rf_a,,1
21,8231,46,,,,2,2,0.0,0.0,1.0,0.0,,0.0-48.0,,0.0,571.0,1.0,0.702068785,1.0,0.6528750879999999,0.0,0.287329608,0.0,0.35789613200000003,True,,58fa36995214e3000193281c,,1046066,46,,evan-feature22,full_rf_a,,0
22,8232,47,,,,1,1,1.0,1.0,1.0,0.0,,0.0-49.0,,1.0,855.0,1.0,0.651939787,1.0,0.636725589,0.0,0.284834488,0.0,0.358563756,True,,58fa36995214e3000193281c,,1056712,47,,evan-feature22,full_rf_a,,1
23,8233,48,,,,2,2,1.0,1.0,0.0,-1.0,,0.0-50.0,,-1.0,496.0,0.0,0.67573929,0.0,0.612550049,1.0,0.37130387600000003,1.0,0.383542402,True,,58fa36995214e3000193281c,,1066995,48,,evan-feature22,full_rf_a,,1
24,8234,49,,,,2,2,0.0,0.0,0.0,-1.0,,0.0-51.0,,0.0,404.0,1.0,0.620753801,0.0,0.60513644,0.0,0.385529434,0.0,0.340361743,True,,58fa36995214e3000193281c,,1077203,49,,evan-feature22,full_rf_a,,0
25,8235,50,,,,2,2,0.0,1.0,0.0,-1.0,,0.0-52.0,,-1.0,585.0,0.0,0.673564893,1.0,0.672437924,0.0,0.292955382,1.0,0.337633795,True,,58fa36995214e3000193281c,,1087582,50,,evan-feature22,full_rf_a,,0
26,8236,51,,,,1,1,1.0,1.0,1.0,0.0,,0.0-53.0,,1.0,728.0,1.0,0.6749427,1.0,0.724197502,0.0,0.32391132100000003,0.0,0.350995264,True,,58fa36995214e3000193281c,,1098129,51,,evan-feature22,full_rf_a,,1
27,8237,52,,,,2,2,0.0,0.0,1.0,0.0,,0.0-54.0,,0.0,688.0,1.0,0.6940159379999999,0.0,0.75,0.0,0.31710554399999996,0.0,0.413450341,True,,58fa36995214e3000193281c,,1108597,52,,evan-feature22,full_rf_a,,1
28,8238,53,,,,1,1,1.0,1.0,1.0,0.0,,0.0-55.0,,1.0,549.0,1.0,0.6916018270000001,1.0,0.69001187,0.0,0.261817804,0.0,0.40038635,True,,58fa36995214e3000193281c,,1118940,53,,evan-feature22,full_rf_a,,1
29,8239,54,,,,2,2,0.0,1.0,1.0,0.0,,0.0-56.0,,0.0,843.0,1.0,0.641061544,1.0,0.71337992,0.0,0.277296461,1.0,0.47372791700000005,True,,58fa36995214e3000193281c,,1129587,54,,evan-feature22,full_rf_a,,1
30,8240,55,,,,1,1,1.0,1.0,1.0,0.0,,0.0-57.0,,1.0,433.0,1.0,0.6082438520000001,1.0,0.708471106,1.0,0.28745137,1.0,0.564174476,True,,58fa36995214e3000193281c,,1139832,55,,evan-feature22,full_rf_a,,1
31,8241,56,,,,1,1,1.0,1.0,1.0,0.0,,0.0-58.0,,1.0,560.0,1.0,0.6051112120000001,1.0,0.7118147229999999,0.0,0.272390611,1.0,0.5595149939999999,True,,58fa36995214e3000193281c,,1150183,56,,evan-feature22,full_rf_a,,0
32,8242,57,,,,2,2,1.0,1.0,1.0,0.0,,0.0-59.0,,1.0,341.0,0.0,0.582420852,1.0,0.635867583,1.0,0.31089574,1.0,0.5227206520000001,True,,58fa36995214e3000193281c,,1160308,57,,evan-feature22,full_rf_a,,1
33,8243,58,,,,1,1,1.0,1.0,0.0,-1.0,,0.0-60.0,,-1.0,426.0,1.0,0.623195575,1.0,0.655026044,0.0,0.25,0.0,0.560387538,True,,58fa36995214e3000193281c,,1170539,58,,evan-feature22,full_rf_a,,1
34,8244,59,,,,1,1,1.0,1.0,1.0,0.0,,0.0-61.0,,1.0,443.0,1.0,0.601889598,1.0,0.678198724,1.0,0.25,0.0,0.559922936,True,,58fa36995214e3000193281c,,1180803,59,,evan-feature22,full_rf_a,,0
35,8245,60,,,,1,1,0.0,0.0,1.0,0.0,,0.0-62.0,,0.0,607.0,0.0,0.601259914,0.0,0.704681482,0.0,0.33908969299999997,0.0,0.505003715,True,,58fa36995214e3000193281c,,1191211,60,,evan-feature22,full_rf_a,,0
36,8246,61,,,,1,1,1.0,1.0,1.0,0.0,,0.0-63.0,,1.0,545.0,1.0,0.59645454,1.0,0.710437172,0.0,0.327441879,0.0,0.391749613,True,,58fa36995214e3000193281c,,1201553,61,,evan-feature22,full_rf_a,,0
37,8247,62,,,,2,2,0.0,1.0,1.0,0.0,,0.0-64.0,,0.0,341.0,0.0,0.529473,0.0,0.636758527,0.0,0.301338063,1.0,0.365661481,True,,58fa36995214e3000193281c,,1211712,62,,evan-feature22,full_rf_a,,1
38,8248,63,,,,1,1,1.0,0.0,0.0,-1.0,,0.0-65.0,,0.0,1232.0,1.0,0.541657162,0.0,0.634541962,0.0,0.343535366,0.0,0.371763742,True,,58fa36995214e3000193281c,,1222732,63,,evan-feature22,full_rf_a,,1
39,8249,64,,,,2,2,1.0,0.0,1.0,0.0,,0.0-66.0,,1.0,449.0,1.0,0.5707533260000001,1.0,0.589121171,1.0,0.326428396,0.0,0.43961622899999997,True,,58fa36995214e3000193281c,,1232990,64,,evan-feature22,full_rf_a,,1
40,8250,65,,,,2,2,1.0,0.0,1.0,0.0,,0.0-67.0,,1.0,1767.0,1.0,0.5707533260000001,1.0,0.589121171,1.0,0.326428396,0.0,0.43961622899999997,True,,58fa36995214e3000193281c,,1244560,65,,evan-feature22,full_rf_a,,0
41,8251,66,,,,2,2,1.0,0.0,1.0,0.0,,0.0-68.0,,1.0,661.0,1.0,0.506271295,1.0,0.641775594,1.0,0.37149690700000004,0.0,0.404330166,True,,58fa36995214e3000193281c,,1255021,66,,evan-feature22,full_rf_a,,0
42,8252,67,,,,2,2,1.0,1.0,0.0,-1.0,,0.0-69.0,,-1.0,588.0,1.0,0.455642565,0.0,0.623605825,1.0,0.358753011,1.0,0.346174041,True,,58fa36995214e3000193281c,,1265405,67,,evan-feature22,full_rf_a,,0
43,8253,68,,,,1,1,0.0,1.0,0.0,-1.0,,0.0-70.0,,-1.0,820.0,0.0,0.483677308,1.0,0.5904681070000001,0.0,0.402218411,1.0,0.35344697,True,,58fa36995214e3000193281c,,1276062,68,,evan-feature22,full_rf_a,,1
44,8254,69,,,,2,2,1.0,0.0,0.0,-1.0,,0.0-71.0,,0.0,477.0,0.0,0.394210977,1.0,0.558925494,1.0,0.540052017,0.0,0.35182128700000004,True,,58fa36995214e3000193281c,,1286339,69,,evan-feature22,full_rf_a,,1
45,8255,70,,,,1,1,0.0,1.0,1.0,0.0,,0.0-72.0,,0.0,867.0,0.0,0.382300414,1.0,0.577670603,1.0,0.607608448,0.0,0.378261578,True,,58fa36995214e3000193281c,,1296990,70,,evan-feature22,full_rf_a,,1
46,8256,71,,,,2,2,1.0,1.0,1.0,0.0,,0.0-73.0,,1.0,518.0,0.0,0.357596762,0.0,0.5929076529999999,1.0,0.6579790010000001,1.0,0.401326777,True,,58fa36995214e3000193281c,,1307296,71,,evan-feature22,full_rf_a,,1
47,8257,72,,,,1,1,1.0,0.0,1.0,0.0,,0.0-74.0,,1.0,903.0,1.0,0.362033495,0.0,0.582308608,1.0,0.649195052,1.0,0.355158505,True,,58fa36995214e3000193281c,,1318006,72,,evan-feature22,full_rf_a,,1
48,8258,73,,,,2,2,1.0,0.0,1.0,0.0,,0.0-75.0,,1.0,640.0,0.0,0.369620635,0.0,0.669100864,1.0,0.706059111,0.0,0.362516241,True,,58fa36995214e3000193281c,,1328444,73,,evan-feature22,full_rf_a,,1
49,8259,74,,,,2,2,1.0,1.0,1.0,0.0,,0.0-76.0,,1.0,543.0,0.0,0.41477751399999996,1.0,0.7284416779999999,1.0,0.7182656940000001,1.0,0.36228040899999997,True,,58fa36995214e3000193281c,,1338792,74,,evan-feature22,full_rf_a,,0
50,8260,75,,,,1,1,1.0,1.0,0.0,-1.0,,0.0-77.0,,-1.0,381.0,1.0,0.37675460299999997,1.0,0.703250285,0.0,0.75,0.0,0.461979164,True,,58fa36995214e3000193281c,,1348971,75,,evan-feature22,full_rf_a,,1
51,8261,76,,,,2,2,0.0,0.0,0.0,-1.0,,0.0-78.0,,0.0,579.0,1.0,0.398716075,1.0,0.6723864890000001,0.0,0.674153818,0.0,0.519029516,True,,58fa36995214e3000193281c,,1359340,76,,evan-feature22,full_rf_a,,1
52,8262,77,,,,1,1,0.0,1.0,1.0,0.0,,0.0-79.0,,0.0,306.0,0.0,0.34677856700000004,1.0,0.69057175,1.0,0.6822438540000001,0.0,0.477292237,True,,58fa36995214e3000193281c,,1369442,77,,evan-feature22,full_rf_a,,1
53,8263,78,,,,2,2,1.0,1.0,0.0,-1.0,,0.0-80.0,,-1.0,285.0,0.0,0.28580469199999997,1.0,0.68408818,1.0,0.684207565,1.0,0.49780448299999996,True,,58fa36995214e3000193281c,,1379517,78,,evan-feature22,full_rf_a,,1
54,8265,80,,,,1,1,0.0,1.0,1.0,0.0,,0.0-82.0,,0.0,43.0,0.0,0.25,1.0,0.7405808970000001,1.0,0.679614108,1.0,0.436436964,True,,58fa36995214e3000193281c,,1391385,80,,evan-feature22,full_rf_a,,1
55,8266,81,,,,2,2,1.0,0.0,0.0,-1.0,,0.0-83.0,,0.0,889.0,0.0,0.29890393,1.0,0.730505706,1.0,0.7328203320000001,0.0,0.439256938,True,,58fa36995214e3000193281c,,1402087,81,,evan-feature22,full_rf_a,,1
56,8267,82,,,,2,2,0.0,0.0,1.0,0.0,,0.0-84.0,,0.0,393.0,0.0,0.326762398,0.0,0.7148059609999999,0.0,0.75,0.0,0.44389608799999997,True,,58fa36995214e3000193281c,,1412282,82,,evan-feature22,full_rf_a,,0
57,8268,83,,,,2,2,0.0,0.0,1.0,0.0,,0.0-85.0,,0.0,428.0,0.0,0.295168515,1.0,0.739760854,0.0,0.719947008,0.0,0.35277284600000003,True,,58fa36995214e3000193281c,,1422489,83,,evan-feature22,full_rf_a,,0
58,8269,84,,,,1,1,0.0,1.0,1.0,0.0,,0.0-86.0,,0.0,447.0,0.0,0.25,1.0,0.70781482,0.0,0.75,0.0,0.286095925,True,,58fa36995214e3000193281c,,1432757,84,,evan-feature22,full_rf_a,,1
59,8270,85,,,,2,2,1.0,0.0,0.0,-1.0,,0.0-87.0,,0.0,320.0,0.0,0.25638190899999996,0.0,0.704088163,1.0,0.75,0.0,0.26872601399999996,True,,58fa36995214e3000193281c,,1442883,85,,evan-feature22,full_rf_a,,1
60,8271,86,,,,1,1,0.0,1.0,0.0,-1.0,,0.0-88.0,,-1.0,631.0,0.0,0.271581126,1.0,0.669760107,1.0,0.733896663,1.0,0.273244572,True,,58fa36995214e3000193281c,,1453290,86,,evan-feature22,full_rf_a,,1
61,8272,87,,,,2,2,1.0,0.0,0.0,-1.0,,0.0-89.0,,0.0,610.0,0.0,0.257144401,1.0,0.600575706,1.0,0.74488122,0.0,0.25,True,,58fa36995214e3000193281c,,1463701,87,,evan-feature22,full_rf_a,,1
62,8273,88,,,,2,2,0.0,1.0,1.0,0.0,,0.0-90.0,,0.0,1337.0,1.0,0.25,0.0,0.616870026,0.0,0.723610234,1.0,0.25,True,,58fa36995214e3000193281c,,1474849,88,,evan-feature22,full_rf_a,,0
63,8274,89,,,,2,2,1.0,0.0,0.0,-1.0,,0.0-91.0,,0.0,1412.0,0.0,0.25,1.0,0.583540187,1.0,0.7041042559999999,0.0,0.285961995,True,,58fa36995214e3000193281c,,1486040,89,,evan-feature22,full_rf_a,,0
64,8275,90,,,,2,2,0.0,0.0,1.0,0.0,,0.0-92.0,,0.0,818.0,0.0,0.27254536,1.0,0.53875765,0.0,0.693783448,0.0,0.284961652,True,,58fa36995214e3000193281c,,1496652,90,,evan-feature22,full_rf_a,,0
65,8276,91,,,,2,2,0.0,0.0,0.0,-1.0,,0.0-93.0,,0.0,542.0,0.0,0.25,0.0,0.548431252,0.0,0.734221895,0.0,0.279445214,True,,58fa36995214e3000193281c,,1506981,91,,evan-feature22,full_rf_a,,0
66,8277,92,,,,1,1,0.0,0.0,1.0,0.0,,0.0-94.0,,0.0,337.0,0.0,0.258640684,0.0,0.545878066,0.0,0.725245965,0.0,0.31487537,True,,58fa36995214e3000193281c,,1517118,92,,evan-feature22,full_rf_a,,1
67,8278,93,,,,2,2,0.0,1.0,1.0,0.0,,0.0-95.0,,0.0,1747.0,0.0,0.251103711,1.0,0.5776290629999999,0.0,0.696320133,1.0,0.317831047,True,,58fa36995214e3000193281c,,1528670,93,,evan-feature22,full_rf_a,,1
68,8279,94,,,,2,2,1.0,0.0,1.0,0.0,,0.0-96.0,,1.0,318.0,1.0,0.276630292,1.0,0.617329858,1.0,0.73838088,0.0,0.261471582,True,,58fa36995214e3000193281c,,1538790,94,,evan-feature22,full_rf_a,,0
69,8280,95,,,,2,2,0.0,0.0,0.0,-1.0,,0.0-97.0,,0.0,652.0,1.0,0.297716424,1.0,0.618863717,0.0,0.7402358259999999,0.0,0.262600834,True,,58fa36995214e3000193281c,,1549243,95,,evan-feature22,full_rf_a,,0
70,8281,96,,,,1,1,0.0,1.0,1.0,0.0,,0.0-98.0,,0.0,531.0,0.0,0.290935512,1.0,0.695370945,1.0,0.706570507,0.0,0.280030553,True,,58fa36995214e3000193281c,,1559567,96,,evan-feature22,full_rf_a,,1
71,8282,97,,,,1,1,0.0,0.0,1.0,0.0,,0.0-99.0,,0.0,390.0,0.0,0.25,0.0,0.6465277079999999,1.0,0.67766682,0.0,0.25,True,,58fa36995214e3000193281c,,1569744,97,,evan-feature22,full_rf_a,,0
72,8283,98,,,,1,1,0.0,1.0,1.0,0.0,,0.0-100.0,,0.0,1460.0,0.0,0.26463816,1.0,0.636100213,1.0,0.646048507,0.0,0.265607101,True,,58fa36995214e3000193281c,,1580974,98,,evan-feature22,full_rf_a,,0
73,8284,99,,,,1,1,0.0,0.0,1.0,0.0,,0.0-101.0,,0.0,427.0,0.0,0.314340707,0.0,0.667795927,0.0,0.613630805,0.0,0.25,True,,58fa36995214e3000193281c,,1591190,99,,evan-feature22,full_rf_a,,0
74,8285,100,,,,2,2,0.0,0.0,1.0,0.0,,0.0-102.0,,0.0,886.0,0.0,0.28685784,0.0,0.6622549529999999,0.0,0.652154117,0.0,0.25,True,,58fa36995214e3000193281c,,1601854,100,,evan-feature22,full_rf_a,,1
75,8286,101,,,,1,1,1.0,1.0,0.0,-1.0,,0.0-103.0,,-1.0,287.0,1.0,0.304106554,1.0,0.631289538,1.0,0.707041942,1.0,0.29314237,True,,58fa36995214e3000193281c,,1611932,101,,evan-feature22,full_rf_a,,1
76,8287,102,,,,2,2,1.0,0.0,0.0,-1.0,,0.0-104.0,,0.0,376.0,0.0,0.304806932,1.0,0.571167718,1.0,0.680472346,0.0,0.25,True,,58fa36995214e3000193281c,,1622122,102,,evan-feature22,full_rf_a,,1
77,8288,103,,,,2,2,1.0,0.0,0.0,-1.0,,0.0-105.0,,0.0,247.0,0.0,0.37919861,0.0,0.5724849710000001,1.0,0.705638003,0.0,0.30179300600000003,True,,58fa36995214e3000193281c,,1632163,103,,evan-feature22,full_rf_a,,0
78,8289,104,,,,2,2,0.0,0.0,0.0,-1.0,,0.0-106.0,,0.0,337.0,0.0,0.464277969,0.0,0.554034373,0.0,0.7372627340000001,0.0,0.264699741,True,,58fa36995214e3000193281c,,1642299,104,,evan-feature22,full_rf_a,,0
79,8290,105,,,,2,2,1.0,0.0,1.0,0.0,,0.0-107.0,,1.0,868.0,0.0,0.465104323,0.0,0.530793115,1.0,0.75,0.0,0.31683071,True,,58fa36995214e3000193281c,,1652960,105,,evan-feature22,full_rf_a,,0
80,8291,106,,,,1,1,0.0,0.0,0.0,-1.0,,0.0-108.0,,0.0,379.0,0.0,0.465104323,0.0,0.530793115,1.0,0.75,1.0,0.31683071,True,,58fa36995214e3000193281c,,1663108,106,,evan-feature22,full_rf_a,,1
81,8292,107,,,,1,1,1.0,1.0,0.0,-1.0,,0.0-109.0,,-1.0,1530.0,1.0,0.46833986,1.0,0.570249239,0.0,0.7244472590000001,1.0,0.364114163,True,,58fa36995214e3000193281c,,1674430,107,,evan-feature22,full_rf_a,,0
82,8293,108,,,,1,1,0.0,1.0,0.0,-1.0,,0.0-110.0,,-1.0,443.0,0.0,0.445444024,1.0,0.649673355,1.0,0.6845441290000001,0.0,0.300660449,True,,58fa36995214e3000193281c,,1684662,108,,evan-feature22,full_rf_a,,0
83,8294,109,,,,2,2,1.0,1.0,0.0,-1.0,,0.0-111.0,,-1.0,378.0,1.0,0.39909721299999995,1.0,0.6715179509999999,1.0,0.742310028,1.0,0.35496088299999995,True,,58fa36995214e3000193281c,,1694843,109,,evan-feature22,full_rf_a,,1
84,8295,110,,,,1,1,1.0,1.0,0.0,-1.0,,0.0-112.0,,-1.0,677.0,1.0,0.37956104799999996,1.0,0.694725302,1.0,0.7181651309999999,0.0,0.38726906299999997,True,,58fa36995214e3000193281c,,1705326,110,,evan-feature22,full_rf_a,,1
85,8296,111,,,,1,1,0.0,1.0,0.0,-1.0,,0.0-113.0,,-1.0,252.0,0.0,0.404995034,1.0,0.724375412,1.0,0.6910946859999999,0.0,0.387187347,True,,58fa36995214e3000193281c,,1715388,111,,evan-feature22,full_rf_a,,0
86,8297,112,,,,2,2,1.0,0.0,0.0,-1.0,,0.0-114.0,,0.0,502.0,0.0,0.461740803,0.0,0.75,1.0,0.75,0.0,0.34872038200000005,True,,58fa36995214e3000193281c,,1725681,112,,evan-feature22,full_rf_a,,1
87,8298,113,,,,2,2,1.0,1.0,1.0,0.0,,0.0-115.0,,1.0,564.0,0.0,0.43821380600000004,1.0,0.738833273,1.0,0.728286963,1.0,0.399538128,True,,58fa36995214e3000193281c,,1736052,113,,evan-feature22,full_rf_a,,0
88,8299,114,,,,2,2,1.0,0.0,0.0,-1.0,,0.0-116.0,,0.0,643.0,1.0,0.41709882,1.0,0.736666736,1.0,0.75,0.0,0.389095584,True,,58fa36995214e3000193281c,,1746499,114,,evan-feature22,full_rf_a,,0
89,8300,115,,,,2,2,1.0,1.0,0.0,-1.0,,0.0-117.0,,-1.0,303.0,1.0,0.39749009799999996,1.0,0.744320029,1.0,0.75,1.0,0.363848678,True,,58fa36995214e3000193281c,,1756620,115,,evan-feature22,full_rf_a,,0
90,8301,116,,,,1,1,0.0,0.0,1.0,0.0,,0.0-118.0,,0.0,223.0,0.0,0.392653706,0.0,0.75,0.0,0.75,0.0,0.384386976,True,,58fa36995214e3000193281c,,1766634,116,,evan-feature22,full_rf_a,,1
91,8302,117,,,,1,1,1.0,1.0,1.0,0.0,,0.0-119.0,,1.0,446.0,1.0,0.31190902600000003,1.0,0.75,1.0,0.732413819,0.0,0.413082932,True,,58fa36995214e3000193281c,,1776898,117,,evan-feature22,full_rf_a,,0
92,8303,118,,,,1,1,0.0,1.0,0.0,-1.0,,0.0-120.0,,-1.0,1011.0,0.0,0.366917648,1.0,0.740073855,0.0,0.75,1.0,0.352861979,True,,58fa36995214e3000193281c,,1787702,118,,evan-feature22,full_rf_a,,0
93,8304,119,,,,2,2,0.0,1.0,0.0,-1.0,,0.0-121.0,,-1.0,656.0,1.0,0.3645172,1.0,0.721770713,0.0,0.75,1.0,0.404074511,True,,58fa36995214e3000193281c,,1798174,119,,evan-feature22,full_rf_a,,1
94,8305,120,,,,1,1,1.0,0.0,0.0,-1.0,,0.0-122.0,,0.0,632.0,1.0,0.35205600299999995,0.0,0.68983859,1.0,0.739735447,0.0,0.366895945,True,,58fa36995214e3000193281c,,1808581,120,,evan-feature22,full_rf_a,,1
95,8306,121,,,,1,1,1.0,1.0,0.0,-1.0,,0.0-123.0,,-1.0,396.0,1.0,0.40998722600000004,1.0,0.720859127,1.0,0.673854955,1.0,0.368528541,True,,58fa36995214e3000193281c,,1818784,121,,evan-feature22,full_rf_a,,0
96,8307,122,,,,1,1,0.0,1.0,1.0,0.0,,0.0-124.0,,0.0,591.0,0.0,0.353625316,1.0,0.75,1.0,0.695605473,1.0,0.38303674200000004,True,,58fa36995214e3000193281c,,1829180,122,,evan-feature22,full_rf_a,,0
97,8308,123,,,,1,1,0.0,1.0,0.0,-1.0,,0.0-125.0,,-1.0,520.0,0.0,0.359216989,1.0,0.75,0.0,0.6987915090000001,0.0,0.35169046200000004,True,,58fa36995214e3000193281c,,1839488,123,,evan-feature22,full_rf_a,,0
98,8309,124,,,,1,1,0.0,0.0,1.0,0.0,,0.0-126.0,,0.0,510.0,0.0,0.35834496899999996,0.0,0.75,1.0,0.707067742,0.0,0.416763636,True,,58fa36995214e3000193281c,,1849802,124,,evan-feature22,full_rf_a,,0
99,8310,125,,,,1,1,1.0,1.0,1.0,0.0,,0.0-127.0,,1.0,352.0,1.0,0.38741613799999997,1.0,0.7177369570000001,1.0,0.734902455,0.0,0.49438664299999996,True,,58fa36995214e3000193281c,,1859946,125,,evan-feature22,full_rf_a,,0
100,8311,126,,,,1,1,1.0,1.0,0.0,-1.0,,0.0-128.0,,-1.0,510.0,1.0,0.405255252,1.0,0.7300466640000001,1.0,0.7027748070000001,1.0,0.504359668,True,,58fa36995214e3000193281c,,1870267,126,,evan-feature22,full_rf_a,,0
101,8312,127,,,,1,1,0.0,1.0,0.0,-1.0,,0.0-129.0,,-1.0,376.0,0.0,0.40697073,1.0,0.7260142190000001,1.0,0.724461982,1.0,0.522779179,True,,58fa36995214e3000193281c,,1880444,127,,evan-feature22,full_rf_a,,0
102,8313,128,,,,1,1,0.0,1.0,0.0,-1.0,,0.0-130.0,,-1.0,666.0,0.0,0.43906215299999996,1.0,0.7252802340000001,1.0,0.719079934,0.0,0.5712990579999999,True,,58fa36995214e3000193281c,,1890908,128,,evan-feature22,full_rf_a,,0
103,8314,129,,,,2,2,1.0,0.0,0.0,-1.0,,0.0-131.0,,0.0,488.0,1.0,0.4076705,0.0,0.73280499,1.0,0.681313127,0.0,0.523891346,True,,58fa36995214e3000193281c,,1901203,129,,evan-feature22,full_rf_a,,1
104,8315,130,,,,2,2,0.0,0.0,0.0,-1.0,,0.0-132.0,,0.0,320.0,0.0,0.399102911,1.0,0.730498344,0.0,0.661080239,0.0,0.46742603,True,,58fa36995214e3000193281c,,1911333,130,,evan-feature22,full_rf_a,,0
105,8316,131,,,,2,2,1.0,0.0,1.0,0.0,,0.0-133.0,,1.0,370.0,1.0,0.356477282,0.0,0.712296395,1.0,0.641812684,0.0,0.44868414,True,,58fa36995214e3000193281c,,1921509,131,,evan-feature22,full_rf_a,,0
106,8317,132,,,,2,2,0.0,0.0,0.0,-1.0,,0.0-134.0,,0.0,524.0,1.0,0.462760722,1.0,0.692349322,0.0,0.700947931,0.0,0.394680266,True,,58fa36995214e3000193281c,,1931843,132,,evan-feature22,full_rf_a,,0
107,8318,133,,,,2,2,0.0,1.0,0.0,-1.0,,0.0-135.0,,-1.0,251.0,1.0,0.422306413,1.0,0.718375916,0.0,0.706340917,1.0,0.367787185,True,,58fa36995214e3000193281c,,1941894,133,,evan-feature22,full_rf_a,,0
108,8320,135,,,,1,1,1.0,1.0,0.0,-1.0,,0.0-137.0,,-1.0,3975.0,1.0,0.4582233,1.0,0.643834117,1.0,0.75,1.0,0.39615823299999997,True,,58fa36995214e3000193281c,,1960159,135,,evan-feature22,full_rf_a,,1
109,8321,136,,,,1,1,1.0,0.0,0.0,-1.0,,0.0-138.0,,0.0,558.0,1.0,0.43813437899999996,0.0,0.651283804,1.0,0.729674191,1.0,0.37711048,True,,58fa36995214e3000193281c,,1970518,136,,evan-feature22,full_rf_a,,0
110,8322,137,,,,1,1,0.0,1.0,0.0,-1.0,,0.0-139.0,,-1.0,1212.0,0.0,0.471199094,1.0,0.6470010979999999,1.0,0.715008097,1.0,0.410656191,True,,58fa36995214e3000193281c,,1981539,137,,evan-feature22,full_rf_a,,0
111,8323,138,,,,2,2,1.0,0.0,1.0,0.0,,0.0-140.0,,1.0,474.0,0.0,0.42486406,0.0,0.629771829,1.0,0.6550939960000001,0.0,0.459093873,True,,58fa36995214e3000193281c,,1991819,138,,evan-feature22,full_rf_a,,1
112,8324,139,,,,2,2,1.0,1.0,1.0,0.0,,0.0-141.0,,1.0,688.0,1.0,0.4803197,1.0,0.645842715,1.0,0.6421749920000001,1.0,0.443092151,True,,58fa36995214e3000193281c,,2002319,139,,evan-feature22,full_rf_a,,0
113,8325,140,,,,1,1,1.0,0.0,1.0,0.0,,0.0-142.0,,1.0,563.0,1.0,0.521848997,0.0,0.735801074,1.0,0.6691348460000001,0.0,0.45259351600000003,True,,58fa36995214e3000193281c,,2012696,140,,evan-feature22,full_rf_a,,1
114,8326,141,,,,1,1,0.0,1.0,0.0,-1.0,,0.0-143.0,,-1.0,543.0,0.0,0.49565621299999996,1.0,0.742400847,0.0,0.661512553,1.0,0.483110831,True,,58fa36995214e3000193281c,,2023073,141,,evan-feature22,full_rf_a,,0
115,8327,142,,,,2,2,0.0,1.0,1.0,0.0,,0.0-144.0,,0.0,1373.0,0.0,0.521564361,1.0,0.731078632,0.0,0.6774886809999999,1.0,0.483263956,True,,58fa36995214e3000193281c,,2034258,142,,evan-feature22,full_rf_a,,1
116,8328,143,,,,2,2,1.0,1.0,1.0,0.0,,0.0-145.0,,1.0,929.0,1.0,0.558893102,1.0,0.719810023,1.0,0.67461031,1.0,0.499349834,True,,58fa36995214e3000193281c,,2044992,143,,evan-feature22,full_rf_a,,0
117,8329,144,,,,2,2,1.0,0.0,0.0,-1.0,,0.0-146.0,,0.0,403.0,1.0,0.611031046,1.0,0.75,1.0,0.688072995,0.0,0.5321422729999999,True,,58fa36995214e3000193281c,,2055207,144,,evan-feature22,full_rf_a,,0
118,8330,145,,,,1,1,1.0,1.0,1.0,0.0,,0.0-147.0,,1.0,3034.0,1.0,0.633223941,1.0,0.713567728,1.0,0.75,1.0,0.48185314700000004,True,,58fa36995214e3000193281c,,2068049,145,,evan-feature22,full_rf_a,,1
119,8331,146,,,,2,2,1.0,0.0,1.0,0.0,,0.0-148.0,,1.0,559.0,1.0,0.664001694,0.0,0.705509768,1.0,0.75,0.0,0.500211065,True,,58fa36995214e3000193281c,,2078399,146,,evan-feature22,full_rf_a,,1
120,8332,147,,,,1,1,0.0,0.0,0.0,-1.0,,0.0-149.0,,0.0,787.0,0.0,0.664001694,0.0,0.705509768,1.0,0.75,0.0,0.500211065,True,,58fa36995214e3000193281c,,2088977,147,,evan-feature22,full_rf_a,,1
121,8333,148,,,,1,1,1.0,1.0,0.0,-1.0,,0.0-150.0,,-1.0,321.0,1.0,0.696508041,1.0,0.71066027,1.0,0.717028709,0.0,0.49792991,True,,58fa36995214e3000193281c,,2099114,148,,evan-feature22,full_rf_a,,0
122,8334,149,,,,2,2,1.0,0.0,1.0,0.0,,0.0-151.0,,1.0,249.0,1.0,0.699883272,1.0,0.75,1.0,0.713543895,0.0,0.496962643,True,,58fa36995214e3000193281c,,2109141,149,,evan-feature22,full_rf_a,,1
123,8335,150,,,,2,2,1.0,0.0,0.0,-1.0,,0.0-152.0,,0.0,615.0,1.0,0.741163419,1.0,0.75,1.0,0.64691024,0.0,0.513858197,True,,58fa36995214e3000193281c,,2119538,150,,evan-feature22,full_rf_a,,0
124,8336,151,,,,1,1,1.0,1.0,1.0,0.0,,0.0-153.0,,1.0,739.0,1.0,0.75,1.0,0.70816558,1.0,0.594499079,0.0,0.48502124,True,,58fa36995214e3000193281c,,2130075,151,,evan-feature22,full_rf_a,,1
125,8337,152,,,,2,2,1.0,1.0,0.0,-1.0,,0.0-154.0,,-1.0,458.0,1.0,0.75,0.0,0.721848901,1.0,0.62197249,1.0,0.48263586399999997,True,,58fa36995214e3000193281c,,2140341,152,,evan-feature22,full_rf_a,,1
126,8338,153,,,,1,1,1.0,1.0,1.0,0.0,,0.0-155.0,,1.0,657.0,1.0,0.75,1.0,0.74813071,1.0,0.584357161,0.0,0.411477782,True,,58fa36995214e3000193281c,,2150808,153,,evan-feature22,full_rf_a,,1
127,8339,154,,,,1,1,1.0,1.0,0.0,-1.0,,0.0-156.0,,-1.0,470.0,1.0,0.75,1.0,0.75,1.0,0.52287236,1.0,0.488290656,True,,58fa36995214e3000193281c,,2161095,154,,evan-feature22,full_rf_a,,0
128,8340,155,,,,1,1,1.0,1.0,0.0,-1.0,,0.0-157.0,,-1.0,460.0,1.0,0.75,1.0,0.75,0.0,0.544321581,1.0,0.53143059,True,,58fa36995214e3000193281c,,2171366,155,,evan-feature22,full_rf_a,,0
129,8341,156,,,,1,1,1.0,1.0,0.0,-1.0,,0.0-158.0,,-1.0,494.0,1.0,0.726754564,1.0,0.75,0.0,0.5129306370000001,1.0,0.530592445,True,,58fa36995214e3000193281c,,2181687,156,,evan-feature22,full_rf_a,,0
130,8342,157,,,,2,2,0.0,0.0,1.0,0.0,,0.0-159.0,,0.0,352.0,0.0,0.75,1.0,0.7392590729999999,0.0,0.479875835,0.0,0.547007051,True,,58fa36995214e3000193281c,,2191863,157,,evan-feature22,full_rf_a,,1
131,8343,158,,,,2,2,0.0,0.0,1.0,0.0,,0.0-160.0,,0.0,376.0,0.0,0.75,1.0,0.7393376979999999,0.0,0.546045419,0.0,0.541267353,True,,58fa36995214e3000193281c,,2202040,158,,evan-feature22,full_rf_a,,0
132,8344,159,,,,1,1,1.0,1.0,1.0,0.0,,0.0-161.0,,1.0,564.0,1.0,0.75,1.0,0.75,0.0,0.485725895,0.0,0.527625395,True,,58fa36995214e3000193281c,,2212382,159,,evan-feature22,full_rf_a,,1
133,8345,160,,,,1,1,1.0,0.0,0.0,-1.0,,0.0-162.0,,0.0,622.0,1.0,0.75,0.0,0.725087974,0.0,0.488603595,0.0,0.504019206,True,,58fa36995214e3000193281c,,2222815,160,,evan-feature22,full_rf_a,,0
134,8346,161,,,,2,2,0.0,1.0,0.0,-1.0,,0.0-163.0,,-1.0,752.0,1.0,0.745504295,0.0,0.75,0.0,0.452379914,1.0,0.50131194,True,,58fa36995214e3000193281c,,2233350,161,,evan-feature22,full_rf_a,,1
135,8347,162,,,,2,2,1.0,0.0,0.0,-1.0,,0.0-164.0,,0.0,94.0,1.0,0.728513874,1.0,0.75,1.0,0.44125567200000004,0.0,0.531454591,True,,58fa36995214e3000193281c,,2243242,162,,evan-feature22,full_rf_a,,0
136,8348,163,,,,2,2,0.0,1.0,1.0,0.0,,0.0-165.0,,0.0,920.0,1.0,0.73790804,1.0,0.75,0.0,0.413036656,1.0,0.524619035,True,,58fa36995214e3000193281c,,2253960,163,,evan-feature22,full_rf_a,,0
137,8349,164,,,,2,2,1.0,1.0,0.0,-1.0,,0.0-166.0,,-1.0,481.0,1.0,0.7080961309999999,1.0,0.708666865,1.0,0.431915581,1.0,0.481819489,True,,58fa36995214e3000193281c,,2264275,164,,evan-feature22,full_rf_a,,0
138,8350,165,,,,2,2,0.0,1.0,0.0,-1.0,,0.0-167.0,,-1.0,600.0,1.0,0.721378003,1.0,0.71605913,0.0,0.36642387,1.0,0.5036739929999999,True,,58fa36995214e3000193281c,,2274694,165,,evan-feature22,full_rf_a,,0
139,8351,166,,,,2,2,0.0,0.0,0.0,-1.0,,0.0-168.0,,0.0,491.0,1.0,0.7340618959999999,1.0,0.699323252,0.0,0.35298046299999997,0.0,0.511241692,True,,58fa36995214e3000193281c,,2284979,166,,evan-feature22,full_rf_a,,0
140,8352,167,,,,1,1,1.0,1.0,1.0,0.0,,0.0-169.0,,1.0,495.0,1.0,0.75,1.0,0.70412698,1.0,0.380734814,0.0,0.529580116,True,,58fa36995214e3000193281c,,2295267,167,,evan-feature22,full_rf_a,,1
141,8353,168,,,,1,1,0.0,1.0,0.0,-1.0,,0.0-170.0,,-1.0,773.0,0.0,0.7436654909999999,1.0,0.711182751,0.0,0.41125331,0.0,0.49554405,True,,58fa36995214e3000193281c,,2305829,168,,evan-feature22,full_rf_a,,0
142,8354,169,,,,1,1,1.0,0.0,0.0,-1.0,,0.0-171.0,,0.0,833.0,1.0,0.731607915,0.0,0.651774583,1.0,0.35688023,0.0,0.45194491600000003,True,,58fa36995214e3000193281c,,2316473,169,,evan-feature22,full_rf_a,,0
143,8355,170,,,,2,2,0.0,1.0,1.0,0.0,,0.0-172.0,,0.0,362.0,1.0,0.75,0.0,0.75,0.0,0.283145374,1.0,0.528608005,True,,58fa36995214e3000193281c,,2326635,170,,evan-feature22,full_rf_a,,1
144,8356,171,,,,1,1,1.0,1.0,1.0,0.0,,0.0-173.0,,1.0,577.0,1.0,0.7491416890000001,1.0,0.7423785959999999,1.0,0.29135870399999997,1.0,0.498888318,True,,58fa36995214e3000193281c,,2337015,171,,evan-feature22,full_rf_a,,1
145,8357,172,,,,2,2,0.0,0.0,1.0,0.0,,0.0-174.0,,0.0,470.0,1.0,0.708569387,0.0,0.717682277,0.0,0.294421699,0.0,0.493838163,True,,58fa36995214e3000193281c,,2347279,172,,evan-feature22,full_rf_a,,1
146,8358,173,,,,1,1,1.0,1.0,0.0,-1.0,,0.0-175.0,,-1.0,844.0,1.0,0.75,1.0,0.7383382159999999,0.0,0.356098707,1.0,0.442533405,True,,58fa36995214e3000193281c,,2357921,173,,evan-feature22,full_rf_a,,1
147,8359,174,,,,1,1,1.0,1.0,0.0,-1.0,,0.0-176.0,,-1.0,410.0,1.0,0.744527075,1.0,0.75,0.0,0.334127506,1.0,0.393165805,True,,58fa36995214e3000193281c,,2368154,174,,evan-feature22,full_rf_a,,0
148,8360,175,,,,1,1,1.0,1.0,0.0,-1.0,,0.0-177.0,,-1.0,309.0,1.0,0.75,1.0,0.75,0.0,0.33571021799999995,1.0,0.350393962,True,,58fa36995214e3000193281c,,2378263,175,,evan-feature22,full_rf_a,,0
149,8361,176,,,,1,1,1.0,1.0,0.0,-1.0,,0.0-178.0,,-1.0,2366.0,1.0,0.75,1.0,0.75,1.0,0.313628297,0.0,0.36349657399999996,True,,58fa36995214e3000193281c,,2390414,176,,evan-feature22,full_rf_a,,0
150,8362,177,,,,1,1,1.0,1.0,1.0,0.0,,0.0-179.0,,1.0,731.0,1.0,0.75,1.0,0.734284182,0.0,0.262667667,1.0,0.380199119,True,,58fa36995214e3000193281c,,2400931,177,,evan-feature22,full_rf_a,,0
151,8363,178,,,,2,2,1.0,0.0,0.0,-1.0,,0.0-180.0,,0.0,676.0,0.0,0.75,1.0,0.75,1.0,0.25,0.0,0.394494013,True,,58fa36995214e3000193281c,,2411399,178,,evan-feature22,full_rf_a,,1
152,8364,179,,,,2,2,0.0,0.0,1.0,0.0,,0.0-181.0,,0.0,641.0,0.0,0.722298145,1.0,0.7357822340000001,0.0,0.25,0.0,0.319142121,True,,58fa36995214e3000193281c,,2421849,179,,evan-feature22,full_rf_a,,0
153,8365,180,,,,2,2,0.0,1.0,1.0,0.0,,0.0-182.0,,0.0,436.0,1.0,0.73149275,1.0,0.724276446,0.0,0.305856907,1.0,0.281315057,True,,58fa36995214e3000193281c,,2432083,180,,evan-feature22,full_rf_a,,0
154,8366,181,,,,2,2,0.0,0.0,0.0,-1.0,,0.0-183.0,,0.0,446.0,1.0,0.7458732690000001,1.0,0.7336382459999999,0.0,0.272571964,0.0,0.266021999,True,,58fa36995214e3000193281c,,2442319,181,,evan-feature22,full_rf_a,,0
155,8367,182,,,,1,1,1.0,1.0,0.0,-1.0,,0.0-184.0,,-1.0,475.0,1.0,0.705579037,1.0,0.720778292,0.0,0.320238144,1.0,0.30971744,True,,58fa36995214e3000193281c,,2452592,182,,evan-feature22,full_rf_a,,1
156,8368,183,,,,1,1,1.0,1.0,0.0,-1.0,,0.0-185.0,,-1.0,440.0,1.0,0.700425648,1.0,0.7198784009999999,1.0,0.272590393,0.0,0.304182931,True,,58fa36995214e3000193281c,,2462842,183,,evan-feature22,full_rf_a,,0
157,8369,184,,,,2,2,0.0,0.0,0.0,-1.0,,0.0-186.0,,0.0,870.0,1.0,0.735590785,1.0,0.722714973,0.0,0.25,0.0,0.323421091,True,,58fa36995214e3000193281c,,2473521,184,,evan-feature22,full_rf_a,,1
158,8370,185,,,,2,2,1.0,0.0,0.0,-1.0,,0.0-187.0,,0.0,474.0,1.0,0.724807662,0.0,0.63146213,1.0,0.36836492600000004,0.0,0.34592153299999995,True,,58fa36995214e3000193281c,,2483800,185,,evan-feature22,full_rf_a,,0
159,8371,186,,,,2,2,0.0,1.0,0.0,-1.0,,0.0-188.0,,-1.0,3835.0,1.0,0.7352796909999999,0.0,0.555111392,0.0,0.36003922,1.0,0.31433779999999995,True,,58fa36995214e3000193281c,,2497439,186,,evan-feature22,full_rf_a,,0
160,8372,187,notice,,,,,,,,,,0.0-189.0,"{""Q0"":""Less chances to gain minerals""}",,17597.0,,,,,,,,,True,,58fa36995214e3000193281c,,2515036,187,Q,survey-text,full_rf_a,,1
161,8373,188,track1,,[1],,,,,,,,0.0-190.0,"{""Q0"":""no""}",,3096.0,,,,,,,,,True,,58fa36995214e3000193281c,,2518135,188,Q,evan-quiz,full_rf_a,,1
162,8374,189,track2,,[0],,,,,,,,0.0-191.0,"{""Q0"":""yes""}",,5014.0,,,,,,,,,True,,58fa36995214e3000193281c,,2523151,189,Q,evan-quiz,full_rf_a,,1
163,8375,190,strat,,,,,,,,,,0.0-192.0,"{""Q0"":""I tried to predict a pattern for which alien would be behind what door""}",,20861.0,,,,,,,,,True,,58fa36995214e3000193281c,,2544015,190,Q,survey-text,full_rf_a,,1
