,index,Unnamed: 0,Q_name,button_pressed,choice_idxs,chosen_pos,chosen_state,chosen_state_f_1_outcome,chosen_state_f_2_outcome,f_1_reward,f_2_reward,incor_questions,internal_node_id,responses,reward_received,rt,s_1_f_1_outcome,s_1_f_1_prob,s_1_f_2_outcome,s_1_f_2_prob,s_2_f_1_outcome,s_2_f_1_prob,s_2_f_2_outcome,s_2_f_2_prob,safe_first,stimulus,subjectID,success,time_elapsed,trial_index,trial_num,trial_type,version,view_history,switching
0,21918,25,,,,1,1,1.0,1.0,1.0,0.0,,0.0-27.0,,1.0,1779.0,1.0,0.6,1.0,0.6,0.0,0.4,0.0,0.4,True,,5c9d05e72b3c77001744e8d2,,1056239,25,,evan-feature22,full_rf_a,,0
1,21919,26,,,,1,1,0.0,1.0,1.0,0.0,,0.0-28.0,,0.0,1536.0,0.0,0.608053294,1.0,0.63424552,1.0,0.397152172,0.0,0.347069101,True,,5c9d05e72b3c77001744e8d2,,1067610,26,,evan-feature22,full_rf_a,,0
2,21920,27,,,,2,2,1.0,1.0,1.0,0.0,,0.0-29.0,,1.0,1349.0,1.0,0.642237155,1.0,0.648566321,1.0,0.389407674,1.0,0.285525717,True,,5c9d05e72b3c77001744e8d2,,1078762,27,,evan-feature22,full_rf_a,,1
3,21921,28,,,,2,2,0.0,0.0,1.0,0.0,,0.0-30.0,,0.0,1037.0,1.0,0.661086576,1.0,0.630492543,0.0,0.399058924,0.0,0.25,True,,5c9d05e72b3c77001744e8d2,,1089626,28,,evan-feature22,full_rf_a,,0
4,21922,29,,,,2,2,0.0,1.0,0.0,-1.0,,0.0-31.0,,-1.0,2203.0,0.0,0.631324137,1.0,0.6269842929999999,0.0,0.38734784299999997,1.0,0.25,True,,5c9d05e72b3c77001744e8d2,,1101658,29,,evan-feature22,full_rf_a,,0
5,21923,30,,,,1,1,1.0,1.0,0.0,-1.0,,0.0-32.0,,-1.0,1763.0,1.0,0.6381991370000001,1.0,0.68987999,0.0,0.384107265,1.0,0.271332943,True,,5c9d05e72b3c77001744e8d2,,1113222,30,,evan-feature22,full_rf_a,,1
6,21924,31,,,,1,1,0.0,1.0,1.0,0.0,,0.0-33.0,,0.0,1500.0,0.0,0.66034901,1.0,0.742641349,1.0,0.360225629,0.0,0.25,True,,5c9d05e72b3c77001744e8d2,,1124529,31,,evan-feature22,full_rf_a,,0
7,21925,32,,,,1,1,1.0,1.0,1.0,0.0,,0.0-34.0,,1.0,813.0000001,1.0,0.638612418,1.0,0.75,0.0,0.367273939,1.0,0.25,True,,5c9d05e72b3c77001744e8d2,,1135142,32,,evan-feature22,full_rf_a,,0
8,21926,33,,,,2,2,0.0,0.0,0.0,-1.0,,0.0-35.0,,0.0,1262.0,1.0,0.624340629,1.0,0.75,0.0,0.425829545,0.0,0.25,True,,5c9d05e72b3c77001744e8d2,,1146226,33,,evan-feature22,full_rf_a,,1
9,21927,34,,,,2,2,0.0,0.0,0.0,-1.0,,0.0-36.0,,0.0,1834.0,1.0,0.621999804,0.0,0.75,0.0,0.368609357,0.0,0.25,True,,5c9d05e72b3c77001744e8d2,,1157861,34,,evan-feature22,full_rf_a,,0
10,21928,35,,,,1,1,0.0,1.0,1.0,0.0,,0.0-37.0,,0.0,1308.0,0.0,0.62666403,1.0,0.75,1.0,0.311151498,0.0,0.25,True,,5c9d05e72b3c77001744e8d2,,1168989,35,,evan-feature22,full_rf_a,,1
11,21929,36,,,,2,2,0.0,0.0,0.0,-1.0,,0.0-38.0,,0.0,1530.0,1.0,0.6819650009999999,0.0,0.75,0.0,0.310763048,0.0,0.25,True,,5c9d05e72b3c77001744e8d2,,1180333,36,,evan-feature22,full_rf_a,,1
12,21930,37,,,,2,2,1.0,0.0,1.0,0.0,,0.0-39.0,,1.0,2132.0,0.0,0.740626951,1.0,0.75,1.0,0.25,0.0,0.25,True,,5c9d05e72b3c77001744e8d2,,1192299,37,,evan-feature22,full_rf_a,,0
13,21931,38,,,,1,1,1.0,1.0,1.0,0.0,,0.0-40.0,,1.0,1306.0,1.0,0.739599242,1.0,0.742034978,0.0,0.25397114600000004,0.0,0.25,True,,5c9d05e72b3c77001744e8d2,,1203415,38,,evan-feature22,full_rf_a,,1
14,21932,39,,,,1,1,1.0,1.0,1.0,0.0,,0.0-41.0,,1.0,1180.0,1.0,0.732341315,1.0,0.72735643,1.0,0.25,0.0,0.25,True,,5c9d05e72b3c77001744e8d2,,1214388,39,,evan-feature22,full_rf_a,,0
15,21933,40,,,,1,1,1.0,1.0,1.0,0.0,,0.0-42.0,,1.0,1103.0,1.0,0.7062287770000001,1.0,0.75,0.0,0.29002151,1.0,0.288256649,True,,5c9d05e72b3c77001744e8d2,,1225300,40,,evan-feature22,full_rf_a,,0
16,21934,41,,,,1,1,0.0,0.0,1.0,0.0,,0.0-43.0,,0.0,842.9999999,0.0,0.7086029209999999,0.0,0.75,0.0,0.274129113,0.0,0.262851608,True,,5c9d05e72b3c77001744e8d2,,1235964,41,,evan-feature22,full_rf_a,,0
17,21935,42,,,,1,1,0.0,0.0,1.0,0.0,,0.0-44.0,,0.0,1175.0,0.0,0.669189651,0.0,0.727614338,0.0,0.298444036,1.0,0.296944518,True,,5c9d05e72b3c77001744e8d2,,1246965,42,,evan-feature22,full_rf_a,,0
18,21936,43,,,,1,1,1.0,1.0,1.0,0.0,,0.0-45.0,,1.0,1552.0,1.0,0.6819912929999999,1.0,0.7179434290000001,0.0,0.265003961,0.0,0.28157921199999997,True,,5c9d05e72b3c77001744e8d2,,1258311,43,,evan-feature22,full_rf_a,,0
19,21937,44,,,,2,2,0.0,0.0,0.0,-1.0,,0.0-46.0,,0.0,2065.0,1.0,0.665275002,1.0,0.723065271,0.0,0.260414971,0.0,0.30973870000000003,True,,5c9d05e72b3c77001744e8d2,,1270183,44,,evan-feature22,full_rf_a,,1
20,21938,45,,,,1,1,0.0,1.0,1.0,0.0,,0.0-47.0,,0.0,1161.0,0.0,0.6660593260000001,1.0,0.728032907,0.0,0.30922817,1.0,0.338778608,True,,5c9d05e72b3c77001744e8d2,,1281184,45,,evan-feature22,full_rf_a,,1
21,21939,46,,,,1,1,1.0,0.0,1.0,0.0,,0.0-48.0,,1.0,2871.0,1.0,0.702068785,0.0,0.6528750879999999,1.0,0.287329608,0.0,0.35789613200000003,True,,5c9d05e72b3c77001744e8d2,,1293870,46,,evan-feature22,full_rf_a,,0
22,21940,47,,,,1,1,0.0,1.0,1.0,0.0,,0.0-49.0,,0.0,690.0000002,0.0,0.651939787,1.0,0.636725589,0.0,0.284834488,0.0,0.358563756,True,,5c9d05e72b3c77001744e8d2,,1304372,47,,evan-feature22,full_rf_a,,0
23,21941,48,,,,2,2,1.0,1.0,0.0,-1.0,,0.0-50.0,,-1.0,3226.0,1.0,0.67573929,1.0,0.612550049,1.0,0.37130387600000003,1.0,0.383542402,True,,5c9d05e72b3c77001744e8d2,,1317413,48,,evan-feature22,full_rf_a,,1
24,21942,49,,,,2,2,1.0,1.0,0.0,-1.0,,0.0-51.0,,-1.0,1240.0,1.0,0.620753801,0.0,0.60513644,1.0,0.385529434,1.0,0.340361743,True,,5c9d05e72b3c77001744e8d2,,1328483,49,,evan-feature22,full_rf_a,,0
25,21943,50,,,,1,1,1.0,1.0,0.0,-1.0,,0.0-52.0,,-1.0,718.0000001,1.0,0.673564893,1.0,0.672437924,0.0,0.292955382,0.0,0.337633795,True,,5c9d05e72b3c77001744e8d2,,1339018,50,,evan-feature22,full_rf_a,,1
26,21944,51,,,,1,1,1.0,1.0,1.0,0.0,,0.0-53.0,,1.0,1943.0,1.0,0.6749427,1.0,0.724197502,1.0,0.32391132100000003,1.0,0.350995264,True,,5c9d05e72b3c77001744e8d2,,1350795,51,,evan-feature22,full_rf_a,,0
27,21945,52,,,,1,1,0.0,0.0,1.0,0.0,,0.0-54.0,,0.0,761.9999999,0.0,0.6940159379999999,0.0,0.75,1.0,0.31710554399999996,1.0,0.413450341,True,,5c9d05e72b3c77001744e8d2,,1361392,52,,evan-feature22,full_rf_a,,0
28,21946,53,,,,1,1,1.0,1.0,1.0,0.0,,0.0-55.0,,1.0,1041.0,1.0,0.6916018270000001,1.0,0.69001187,1.0,0.261817804,1.0,0.40038635,True,,5c9d05e72b3c77001744e8d2,,1372270,53,,evan-feature22,full_rf_a,,0
29,21947,54,,,,1,1,1.0,1.0,1.0,0.0,,0.0-56.0,,1.0,619.9999999,1.0,0.641061544,1.0,0.71337992,0.0,0.277296461,1.0,0.47372791700000005,True,,5c9d05e72b3c77001744e8d2,,1382717,54,,evan-feature22,full_rf_a,,0
30,21948,55,,,,1,1,1.0,0.0,1.0,0.0,,0.0-57.0,,1.0,770.9999999,1.0,0.6082438520000001,0.0,0.708471106,0.0,0.28745137,1.0,0.564174476,True,,5c9d05e72b3c77001744e8d2,,1393297,55,,evan-feature22,full_rf_a,,0
31,21949,56,,,,1,1,1.0,1.0,1.0,0.0,,0.0-58.0,,1.0,801.0,1.0,0.6051112120000001,1.0,0.7118147229999999,0.0,0.272390611,1.0,0.5595149939999999,True,,5c9d05e72b3c77001744e8d2,,1403911,56,,evan-feature22,full_rf_a,,0
32,21950,57,,,,1,1,0.0,0.0,1.0,0.0,,0.0-59.0,,0.0,857.0000001,0.0,0.582420852,0.0,0.635867583,0.0,0.31089574,1.0,0.5227206520000001,True,,5c9d05e72b3c77001744e8d2,,1414586,57,,evan-feature22,full_rf_a,,0
33,21951,58,,,,2,2,0.0,0.0,0.0,-1.0,,0.0-60.0,,0.0,1547.0,1.0,0.623195575,1.0,0.655026044,0.0,0.25,0.0,0.560387538,True,,5c9d05e72b3c77001744e8d2,,1425954,58,,evan-feature22,full_rf_a,,1
34,21952,59,,,,1,1,1.0,0.0,1.0,0.0,,0.0-61.0,,1.0,707.9999999,1.0,0.601889598,0.0,0.678198724,0.0,0.25,1.0,0.559922936,True,,5c9d05e72b3c77001744e8d2,,1436487,59,,evan-feature22,full_rf_a,,1
35,21953,60,,,,1,1,0.0,1.0,1.0,0.0,,0.0-62.0,,0.0,1491.0,0.0,0.601259914,1.0,0.704681482,1.0,0.33908969299999997,0.0,0.505003715,True,,5c9d05e72b3c77001744e8d2,,1447788,60,,evan-feature22,full_rf_a,,0
36,21954,61,,,,1,1,1.0,0.0,1.0,0.0,,0.0-63.0,,1.0,1423.0,1.0,0.59645454,0.0,0.710437172,0.0,0.327441879,1.0,0.391749613,True,,5c9d05e72b3c77001744e8d2,,1459030,61,,evan-feature22,full_rf_a,,0
37,21955,62,,,,1,1,0.0,1.0,1.0,0.0,,0.0-64.0,,0.0,559.0000001,0.0,0.529473,1.0,0.636758527,1.0,0.301338063,0.0,0.365661481,True,,5c9d05e72b3c77001744e8d2,,1469418,62,,evan-feature22,full_rf_a,,0
38,21956,63,,,,SLOW,SLOW,,,0.0,-1.0,,0.0-65.0,,-3.0,,0.0,0.541657162,1.0,0.634541962,1.0,0.343535366,0.0,0.371763742,True,,5c9d05e72b3c77001744e8d2,,1475247,63,,evan-feature22,full_rf_a,,1
39,21957,64,,,,2,2,0.0,1.0,1.0,0.0,,0.0-66.0,,0.0,1168.0,1.0,0.5707533260000001,0.0,0.589121171,0.0,0.326428396,1.0,0.43961622899999997,True,,5c9d05e72b3c77001744e8d2,,1486227,64,,evan-feature22,full_rf_a,,1
40,21958,65,,,,1,1,0.0,0.0,1.0,0.0,,0.0-67.0,,0.0,943.0000002,0.0,0.5707533260000001,0.0,0.589121171,0.0,0.326428396,0.0,0.43961622899999997,True,,5c9d05e72b3c77001744e8d2,,1496967,65,,evan-feature22,full_rf_a,,1
41,21959,66,,,,1,1,1.0,0.0,1.0,0.0,,0.0-68.0,,1.0,583.0000001,1.0,0.506271295,0.0,0.641775594,0.0,0.37149690700000004,0.0,0.404330166,True,,5c9d05e72b3c77001744e8d2,,1507331,66,,evan-feature22,full_rf_a,,0
42,21960,67,,,,2,2,1.0,0.0,0.0,-1.0,,0.0-69.0,,0.0,2656.0,1.0,0.455642565,1.0,0.623605825,1.0,0.358753011,0.0,0.346174041,True,,5c9d05e72b3c77001744e8d2,,1519821,67,,evan-feature22,full_rf_a,,1
43,21961,68,,,,2,2,0.0,1.0,0.0,-1.0,,0.0-70.0,,-1.0,923.0,1.0,0.483677308,0.0,0.5904681070000001,0.0,0.402218411,1.0,0.35344697,True,,5c9d05e72b3c77001744e8d2,,1530577,68,,evan-feature22,full_rf_a,,0
44,21962,69,,,,2,2,1.0,1.0,0.0,-1.0,,0.0-71.0,,-1.0,1762.0,0.0,0.394210977,1.0,0.558925494,1.0,0.540052017,1.0,0.35182128700000004,True,,5c9d05e72b3c77001744e8d2,,1542151,69,,evan-feature22,full_rf_a,,0
45,21963,70,,,,1,1,1.0,0.0,1.0,0.0,,0.0-72.0,,1.0,527.9999999,1.0,0.382300414,0.0,0.577670603,1.0,0.607608448,1.0,0.378261578,True,,5c9d05e72b3c77001744e8d2,,1552511,70,,evan-feature22,full_rf_a,,1
46,21964,71,,,,2,2,0.0,0.0,1.0,0.0,,0.0-73.0,,0.0,1771.0,0.0,0.357596762,1.0,0.5929076529999999,0.0,0.6579790010000001,0.0,0.401326777,True,,5c9d05e72b3c77001744e8d2,,1564089,71,,evan-feature22,full_rf_a,,1
47,21965,72,,,,1,1,0.0,0.0,1.0,0.0,,0.0-74.0,,0.0,563.0000001,0.0,0.362033495,0.0,0.582308608,1.0,0.649195052,0.0,0.355158505,True,,5c9d05e72b3c77001744e8d2,,1574458,72,,evan-feature22,full_rf_a,,1
48,21966,73,,,,1,1,1.0,1.0,1.0,0.0,,0.0-75.0,,1.0,1609.0,1.0,0.369620635,1.0,0.669100864,1.0,0.706059111,0.0,0.362516241,True,,5c9d05e72b3c77001744e8d2,,1585892,73,,evan-feature22,full_rf_a,,0
49,21967,74,,,,2,2,1.0,1.0,1.0,0.0,,0.0-76.0,,1.0,660.9999998,0.0,0.41477751399999996,1.0,0.7284416779999999,1.0,0.7182656940000001,1.0,0.36228040899999997,True,,5c9d05e72b3c77001744e8d2,,1596378,74,,evan-feature22,full_rf_a,,1
50,21968,75,,,,2,2,0.0,0.0,0.0,-1.0,,0.0-77.0,,0.0,1258.0,0.0,0.37675460299999997,1.0,0.703250285,0.0,0.75,0.0,0.461979164,True,,5c9d05e72b3c77001744e8d2,,1607474,75,,evan-feature22,full_rf_a,,0
51,21969,76,,,,1,1,0.0,1.0,0.0,-1.0,,0.0-78.0,,-1.0,2250.0,0.0,0.398716075,1.0,0.6723864890000001,0.0,0.674153818,1.0,0.519029516,True,,5c9d05e72b3c77001744e8d2,,1619530,76,,evan-feature22,full_rf_a,,1
52,21970,77,,,,2,2,1.0,0.0,1.0,0.0,,0.0-79.0,,1.0,1429.0,1.0,0.34677856700000004,0.0,0.69057175,1.0,0.6822438540000001,0.0,0.477292237,True,,5c9d05e72b3c77001744e8d2,,1630767,77,,evan-feature22,full_rf_a,,1
53,21971,78,,,,1,1,0.0,1.0,0.0,-1.0,,0.0-80.0,,-1.0,1656.0,0.0,0.28580469199999997,1.0,0.68408818,1.0,0.684207565,0.0,0.49780448299999996,True,,5c9d05e72b3c77001744e8d2,,1642233,78,,evan-feature22,full_rf_a,,1
54,21973,80,,,,1,1,0.0,1.0,1.0,0.0,,0.0-82.0,,0.0,1209.0,0.0,0.25,1.0,0.7405808970000001,0.0,0.679614108,1.0,0.436436964,True,,5c9d05e72b3c77001744e8d2,,2381704,80,,evan-feature22,full_rf_a,,0
55,21974,81,,,,2,2,1.0,0.0,0.0,-1.0,,0.0-83.0,,0.0,2327.0,0.0,0.29890393,1.0,0.730505706,1.0,0.7328203320000001,0.0,0.439256938,True,,5c9d05e72b3c77001744e8d2,,2393842,81,,evan-feature22,full_rf_a,,1
56,21975,82,,,,1,1,0.0,1.0,1.0,0.0,,0.0-84.0,,0.0,683.9999999,0.0,0.326762398,1.0,0.7148059609999999,0.0,0.75,0.0,0.44389608799999997,True,,5c9d05e72b3c77001744e8d2,,2404844,82,,evan-feature22,full_rf_a,,1
57,21976,83,,,,2,2,1.0,1.0,1.0,0.0,,0.0-85.0,,1.0,1302.0,1.0,0.295168515,1.0,0.739760854,1.0,0.719947008,1.0,0.35277284600000003,True,,5c9d05e72b3c77001744e8d2,,2415935,83,,evan-feature22,full_rf_a,,1
58,21977,84,,,,2,2,1.0,0.0,1.0,0.0,,0.0-86.0,,1.0,823.0000001,0.0,0.25,0.0,0.70781482,1.0,0.75,0.0,0.286095925,True,,5c9d05e72b3c77001744e8d2,,2426579,84,,evan-feature22,full_rf_a,,0
59,21978,85,,,,2,2,1.0,0.0,0.0,-1.0,,0.0-87.0,,0.0,2302.0,1.0,0.25638190899999996,1.0,0.704088163,1.0,0.75,0.0,0.26872601399999996,True,,5c9d05e72b3c77001744e8d2,,2438698,85,,evan-feature22,full_rf_a,,0
60,21979,86,,,,2,2,1.0,1.0,0.0,-1.0,,0.0-88.0,,-1.0,1332.0,1.0,0.271581126,0.0,0.669760107,1.0,0.733896663,1.0,0.273244572,True,,5c9d05e72b3c77001744e8d2,,2449845,86,,evan-feature22,full_rf_a,,0
61,21980,87,,,,2,2,1.0,0.0,0.0,-1.0,,0.0-89.0,,0.0,1291.0,0.0,0.257144401,1.0,0.600575706,1.0,0.74488122,0.0,0.25,True,,5c9d05e72b3c77001744e8d2,,2460946,87,,evan-feature22,full_rf_a,,0
62,21981,88,,,,2,2,1.0,0.0,1.0,0.0,,0.0-90.0,,1.0,1956.0,1.0,0.25,0.0,0.616870026,1.0,0.723610234,0.0,0.25,True,,5c9d05e72b3c77001744e8d2,,2472732,88,,evan-feature22,full_rf_a,,0
63,21982,89,,,,1,1,0.0,0.0,0.0,-1.0,,0.0-91.0,,0.0,997.9999999,0.0,0.25,0.0,0.583540187,1.0,0.7041042559999999,0.0,0.285961995,True,,5c9d05e72b3c77001744e8d2,,2483529,89,,evan-feature22,full_rf_a,,1
64,21983,90,,,,2,2,0.0,0.0,1.0,0.0,,0.0-92.0,,0.0,1239.0,0.0,0.27254536,1.0,0.53875765,0.0,0.693783448,0.0,0.284961652,True,,5c9d05e72b3c77001744e8d2,,2494604,90,,evan-feature22,full_rf_a,,1
65,21984,91,,,,2,2,1.0,1.0,0.0,-1.0,,0.0-93.0,,-1.0,1585.0,0.0,0.25,0.0,0.548431252,1.0,0.734221895,1.0,0.279445214,True,,5c9d05e72b3c77001744e8d2,,2505996,91,,evan-feature22,full_rf_a,,0
66,21985,92,,,,1,1,0.0,0.0,1.0,0.0,,0.0-94.0,,0.0,2505.0,0.0,0.258640684,0.0,0.545878066,1.0,0.725245965,0.0,0.31487537,True,,5c9d05e72b3c77001744e8d2,,2519528,92,,evan-feature22,full_rf_a,,1
67,21986,93,,,,2,2,1.0,0.0,1.0,0.0,,0.0-95.0,,1.0,795.0000002,0.0,0.251103711,1.0,0.5776290629999999,1.0,0.696320133,0.0,0.317831047,True,,5c9d05e72b3c77001744e8d2,,2530136,93,,evan-feature22,full_rf_a,,1
68,21987,94,,,,2,2,1.0,1.0,1.0,0.0,,0.0-96.0,,1.0,1127.0,0.0,0.276630292,1.0,0.617329858,1.0,0.73838088,1.0,0.261471582,True,,5c9d05e72b3c77001744e8d2,,2541078,94,,evan-feature22,full_rf_a,,0
69,21988,95,,,,2,2,1.0,0.0,0.0,-1.0,,0.0-97.0,,0.0,2492.0,0.0,0.297716424,0.0,0.618863717,1.0,0.7402358259999999,0.0,0.262600834,True,,5c9d05e72b3c77001744e8d2,,2553387,95,,evan-feature22,full_rf_a,,0
70,21989,96,,,,2,2,1.0,0.0,1.0,0.0,,0.0-98.0,,1.0,1781.0,0.0,0.290935512,1.0,0.695370945,1.0,0.706570507,0.0,0.280030553,True,,5c9d05e72b3c77001744e8d2,,2565000,96,,evan-feature22,full_rf_a,,0
71,21990,97,,,,2,2,0.0,0.0,1.0,0.0,,0.0-99.0,,0.0,1075.0,0.0,0.25,0.0,0.6465277079999999,0.0,0.67766682,0.0,0.25,True,,5c9d05e72b3c77001744e8d2,,2575863,97,,evan-feature22,full_rf_a,,0
72,21991,98,,,,2,2,1.0,0.0,1.0,0.0,,0.0-100.0,,1.0,1094.0,0.0,0.26463816,0.0,0.636100213,1.0,0.646048507,0.0,0.265607101,True,,5c9d05e72b3c77001744e8d2,,2586771,98,,evan-feature22,full_rf_a,,0
73,21992,99,,,,2,2,1.0,1.0,1.0,0.0,,0.0-101.0,,1.0,684.0000001,0.0,0.314340707,1.0,0.667795927,1.0,0.613630805,1.0,0.25,True,,5c9d05e72b3c77001744e8d2,,2597289,99,,evan-feature22,full_rf_a,,0
74,21993,100,,,,1,1,1.0,1.0,1.0,0.0,,0.0-102.0,,1.0,1823.0,1.0,0.28685784,1.0,0.6622549529999999,1.0,0.652154117,0.0,0.25,True,,5c9d05e72b3c77001744e8d2,,2608929,100,,evan-feature22,full_rf_a,,1
75,21994,101,,,,2,2,0.0,1.0,0.0,-1.0,,0.0-103.0,,-1.0,1509.0,1.0,0.304106554,1.0,0.631289538,0.0,0.707041942,1.0,0.29314237,True,,5c9d05e72b3c77001744e8d2,,2620271,101,,evan-feature22,full_rf_a,,1
76,21995,102,,,,2,2,1.0,1.0,0.0,-1.0,,0.0-104.0,,-1.0,1387.0,0.0,0.304806932,1.0,0.571167718,1.0,0.680472346,1.0,0.25,True,,5c9d05e72b3c77001744e8d2,,2631460,102,,evan-feature22,full_rf_a,,0
77,21996,103,,,,2,2,1.0,0.0,0.0,-1.0,,0.0-105.0,,0.0,1048.0,1.0,0.37919861,0.0,0.5724849710000001,1.0,0.705638003,0.0,0.30179300600000003,True,,5c9d05e72b3c77001744e8d2,,2642317,103,,evan-feature22,full_rf_a,,0
78,21997,104,,,,2,2,0.0,0.0,0.0,-1.0,,0.0-106.0,,0.0,1189.0,1.0,0.464277969,1.0,0.554034373,0.0,0.7372627340000001,0.0,0.264699741,True,,5c9d05e72b3c77001744e8d2,,2653336,104,,evan-feature22,full_rf_a,,0
79,21998,105,,,,2,2,1.0,0.0,1.0,0.0,,0.0-107.0,,1.0,2042.0,1.0,0.465104323,0.0,0.530793115,1.0,0.75,0.0,0.31683071,True,,5c9d05e72b3c77001744e8d2,,2665206,105,,evan-feature22,full_rf_a,,0
80,21999,106,,,,2,2,1.0,0.0,0.0,-1.0,,0.0-108.0,,0.0,1642.0,0.0,0.465104323,0.0,0.530793115,1.0,0.75,0.0,0.31683071,True,,5c9d05e72b3c77001744e8d2,,2676658,106,,evan-feature22,full_rf_a,,0
81,22000,107,,,,1,1,1.0,0.0,0.0,-1.0,,0.0-109.0,,0.0,1923.0,1.0,0.46833986,0.0,0.570249239,1.0,0.7244472590000001,1.0,0.364114163,True,,5c9d05e72b3c77001744e8d2,,2688385,107,,evan-feature22,full_rf_a,,1
82,22001,108,,,,2,2,1.0,1.0,0.0,-1.0,,0.0-110.0,,-1.0,617.0000001,1.0,0.445444024,0.0,0.649673355,1.0,0.6845441290000001,1.0,0.300660449,True,,5c9d05e72b3c77001744e8d2,,2698816,108,,evan-feature22,full_rf_a,,1
83,22002,109,,,,2,2,1.0,0.0,0.0,-1.0,,0.0-111.0,,0.0,1477.0,0.0,0.39909721299999995,1.0,0.6715179509999999,1.0,0.742310028,0.0,0.35496088299999995,True,,5c9d05e72b3c77001744e8d2,,2710091,109,,evan-feature22,full_rf_a,,0
84,22003,110,,,,2,2,1.0,0.0,0.0,-1.0,,0.0-112.0,,0.0,1872.0,0.0,0.37956104799999996,1.0,0.694725302,1.0,0.7181651309999999,0.0,0.38726906299999997,True,,5c9d05e72b3c77001744e8d2,,2721795,110,,evan-feature22,full_rf_a,,0
85,22004,111,,,,1,1,0.0,1.0,0.0,-1.0,,0.0-113.0,,-1.0,504.0,0.0,0.404995034,1.0,0.724375412,1.0,0.6910946859999999,0.0,0.387187347,True,,5c9d05e72b3c77001744e8d2,,2732109,111,,evan-feature22,full_rf_a,,1
86,22005,112,,,,1,1,0.0,1.0,0.0,-1.0,,0.0-114.0,,-1.0,1552.0,0.0,0.461740803,1.0,0.75,1.0,0.75,1.0,0.34872038200000005,True,,5c9d05e72b3c77001744e8d2,,2743461,112,,evan-feature22,full_rf_a,,0
87,22006,113,,,,2,2,1.0,1.0,1.0,0.0,,0.0-115.0,,1.0,1352.0,0.0,0.43821380600000004,0.0,0.738833273,1.0,0.728286963,1.0,0.399538128,True,,5c9d05e72b3c77001744e8d2,,2754610,113,,evan-feature22,full_rf_a,,1
88,22007,114,,,,2,2,1.0,0.0,0.0,-1.0,,0.0-116.0,,0.0,2229.0,1.0,0.41709882,1.0,0.736666736,1.0,0.75,0.0,0.389095584,True,,5c9d05e72b3c77001744e8d2,,2766666,114,,evan-feature22,full_rf_a,,0
89,22008,115,,,,1,1,0.0,1.0,0.0,-1.0,,0.0-117.0,,-1.0,1039.0,0.0,0.39749009799999996,1.0,0.744320029,1.0,0.75,0.0,0.363848678,True,,5c9d05e72b3c77001744e8d2,,2777533,115,,evan-feature22,full_rf_a,,1
90,22009,116,,,,2,2,1.0,1.0,1.0,0.0,,0.0-118.0,,1.0,880.0000001,0.0,0.392653706,1.0,0.75,1.0,0.75,1.0,0.384386976,True,,5c9d05e72b3c77001744e8d2,,2788242,116,,evan-feature22,full_rf_a,,1
91,22010,117,,,,2,2,1.0,0.0,1.0,0.0,,0.0-119.0,,1.0,797.0,1.0,0.31190902600000003,1.0,0.75,1.0,0.732413819,0.0,0.413082932,True,,5c9d05e72b3c77001744e8d2,,2798858,117,,evan-feature22,full_rf_a,,0
92,22011,118,,,,1,1,0.0,1.0,0.0,-1.0,,0.0-120.0,,-1.0,1741.0,0.0,0.366917648,1.0,0.740073855,0.0,0.75,1.0,0.352861979,True,,5c9d05e72b3c77001744e8d2,,2810415,118,,evan-feature22,full_rf_a,,1
93,22012,119,,,,1,1,0.0,1.0,0.0,-1.0,,0.0-121.0,,-1.0,1573.0,0.0,0.3645172,1.0,0.721770713,1.0,0.75,0.0,0.404074511,True,,5c9d05e72b3c77001744e8d2,,2821811,119,,evan-feature22,full_rf_a,,0
94,22013,120,,,,2,2,1.0,1.0,0.0,-1.0,,0.0-122.0,,-1.0,660.0000001,0.0,0.35205600299999995,1.0,0.68983859,1.0,0.739735447,1.0,0.366895945,True,,5c9d05e72b3c77001744e8d2,,2832291,120,,evan-feature22,full_rf_a,,1
95,22014,121,,,,1,1,1.0,1.0,0.0,-1.0,,0.0-123.0,,-1.0,2297.0,1.0,0.40998722600000004,1.0,0.720859127,1.0,0.673854955,0.0,0.368528541,True,,5c9d05e72b3c77001744e8d2,,2844393,121,,evan-feature22,full_rf_a,,1
96,22015,122,,,,2,2,1.0,1.0,1.0,0.0,,0.0-124.0,,1.0,1026.0,0.0,0.353625316,1.0,0.75,1.0,0.695605473,1.0,0.38303674200000004,True,,5c9d05e72b3c77001744e8d2,,2855223,122,,evan-feature22,full_rf_a,,1
97,22016,123,,,,SLOW,SLOW,,,0.0,-1.0,,0.0-125.0,,-3.0,,1.0,0.359216989,1.0,0.75,0.0,0.6987915090000001,1.0,0.35169046200000004,True,,5c9d05e72b3c77001744e8d2,,2861058,123,,evan-feature22,full_rf_a,,1
98,22017,124,,,,SLOW,SLOW,,,1.0,0.0,,0.0-126.0,,-3.0,,1.0,0.35834496899999996,1.0,0.75,0.0,0.707067742,1.0,0.416763636,True,,5c9d05e72b3c77001744e8d2,,2867660,124,,evan-feature22,full_rf_a,,0
99,22018,125,,,,1,1,0.0,1.0,1.0,0.0,,0.0-127.0,,0.0,911.0000001,0.0,0.38741613799999997,1.0,0.7177369570000001,1.0,0.734902455,0.0,0.49438664299999996,True,,5c9d05e72b3c77001744e8d2,,2878389,125,,evan-feature22,full_rf_a,,1
100,22019,126,,,,2,2,1.0,1.0,0.0,-1.0,,0.0-128.0,,-1.0,635.9999999,0.0,0.405255252,1.0,0.7300466640000001,1.0,0.7027748070000001,1.0,0.504359668,True,,5c9d05e72b3c77001744e8d2,,2888839,126,,evan-feature22,full_rf_a,,1
101,22020,127,,,,2,2,1.0,1.0,0.0,-1.0,,0.0-129.0,,-1.0,560.0000001,1.0,0.40697073,1.0,0.7260142190000001,1.0,0.724461982,1.0,0.522779179,True,,5c9d05e72b3c77001744e8d2,,2899219,127,,evan-feature22,full_rf_a,,0
102,22021,128,,,,2,2,1.0,0.0,0.0,-1.0,,0.0-130.0,,0.0,998.9999998,0.0,0.43906215299999996,1.0,0.7252802340000001,1.0,0.719079934,0.0,0.5712990579999999,True,,5c9d05e72b3c77001744e8d2,,2910025,128,,evan-feature22,full_rf_a,,0
103,22022,129,,,,2,2,0.0,0.0,0.0,-1.0,,0.0-131.0,,0.0,2646.0,1.0,0.4076705,1.0,0.73280499,0.0,0.681313127,0.0,0.523891346,True,,5c9d05e72b3c77001744e8d2,,2922480,129,,evan-feature22,full_rf_a,,0
104,22023,130,,,,2,2,1.0,1.0,0.0,-1.0,,0.0-132.0,,-1.0,612.0,0.0,0.399102911,0.0,0.730498344,1.0,0.661080239,1.0,0.46742603,True,,5c9d05e72b3c77001744e8d2,,2932890,130,,evan-feature22,full_rf_a,,0
105,22024,131,,,,2,2,1.0,0.0,1.0,0.0,,0.0-133.0,,1.0,1202.0,1.0,0.356477282,0.0,0.712296395,1.0,0.641812684,0.0,0.44868414,True,,5c9d05e72b3c77001744e8d2,,2943903,131,,evan-feature22,full_rf_a,,0
106,22025,132,,,,2,2,1.0,0.0,0.0,-1.0,,0.0-134.0,,0.0,1159.0,0.0,0.462760722,1.0,0.692349322,1.0,0.700947931,0.0,0.394680266,True,,5c9d05e72b3c77001744e8d2,,2954864,132,,evan-feature22,full_rf_a,,0
107,22026,133,,,,2,2,0.0,0.0,0.0,-1.0,,0.0-135.0,,0.0,970.0,1.0,0.422306413,0.0,0.718375916,0.0,0.706340917,0.0,0.367787185,True,,5c9d05e72b3c77001744e8d2,,2965638,133,,evan-feature22,full_rf_a,,0
108,22028,135,,,,2,2,1.0,1.0,0.0,-1.0,,0.0-137.0,,-1.0,892.0,1.0,0.4582233,0.0,0.643834117,1.0,0.75,1.0,0.39615823299999997,True,,5c9d05e72b3c77001744e8d2,,3002764,135,,evan-feature22,full_rf_a,,0
109,22029,136,,,,2,2,1.0,1.0,0.0,-1.0,,0.0-138.0,,-1.0,923.0,0.0,0.43813437899999996,0.0,0.651283804,1.0,0.729674191,1.0,0.37711048,True,,5c9d05e72b3c77001744e8d2,,3013501,136,,evan-feature22,full_rf_a,,0
110,22030,137,,,,1,1,1.0,0.0,0.0,-1.0,,0.0-139.0,,0.0,968.0000001,1.0,0.471199094,0.0,0.6470010979999999,1.0,0.715008097,0.0,0.410656191,True,,5c9d05e72b3c77001744e8d2,,3024286,137,,evan-feature22,full_rf_a,,1
111,22031,138,,,,1,1,1.0,0.0,1.0,0.0,,0.0-140.0,,1.0,1707.0,1.0,0.42486406,0.0,0.629771829,1.0,0.6550939960000001,1.0,0.459093873,True,,5c9d05e72b3c77001744e8d2,,3035802,138,,evan-feature22,full_rf_a,,0
112,22032,139,,,,1,1,1.0,1.0,1.0,0.0,,0.0-141.0,,1.0,611.0,1.0,0.4803197,1.0,0.645842715,0.0,0.6421749920000001,1.0,0.443092151,True,,5c9d05e72b3c77001744e8d2,,3046218,139,,evan-feature22,full_rf_a,,0
113,22033,140,,,,1,1,0.0,1.0,1.0,0.0,,0.0-142.0,,0.0,859.9999999,0.0,0.521848997,1.0,0.735801074,1.0,0.6691348460000001,0.0,0.45259351600000003,True,,5c9d05e72b3c77001744e8d2,,3056900,140,,evan-feature22,full_rf_a,,0
114,22034,141,,,,1,1,0.0,0.0,0.0,-1.0,,0.0-143.0,,0.0,1349.0,0.0,0.49565621299999996,0.0,0.742400847,1.0,0.661512553,0.0,0.483110831,True,,5c9d05e72b3c77001744e8d2,,3068080,141,,evan-feature22,full_rf_a,,0
115,22035,142,,,,1,1,0.0,0.0,1.0,0.0,,0.0-144.0,,0.0,841.9999999,0.0,0.521564361,0.0,0.731078632,1.0,0.6774886809999999,1.0,0.483263956,True,,5c9d05e72b3c77001744e8d2,,3078737,142,,evan-feature22,full_rf_a,,0
116,22036,143,,,,2,2,1.0,1.0,1.0,0.0,,0.0-145.0,,1.0,657.9999998,1.0,0.558893102,1.0,0.719810023,1.0,0.67461031,1.0,0.499349834,True,,5c9d05e72b3c77001744e8d2,,3089211,143,,evan-feature22,full_rf_a,,1
117,22037,144,,,,1,1,1.0,1.0,0.0,-1.0,,0.0-146.0,,-1.0,558.0,1.0,0.611031046,1.0,0.75,1.0,0.688072995,1.0,0.5321422729999999,True,,5c9d05e72b3c77001744e8d2,,3099576,144,,evan-feature22,full_rf_a,,1
118,22038,145,,,,2,2,1.0,0.0,1.0,0.0,,0.0-147.0,,1.0,1030.0,1.0,0.633223941,0.0,0.713567728,1.0,0.75,0.0,0.48185314700000004,True,,5c9d05e72b3c77001744e8d2,,3110427,145,,evan-feature22,full_rf_a,,1
119,22039,146,,,,2,2,0.0,0.0,1.0,0.0,,0.0-148.0,,0.0,710.9999999,1.0,0.664001694,1.0,0.705509768,0.0,0.75,0.0,0.500211065,True,,5c9d05e72b3c77001744e8d2,,3120946,146,,evan-feature22,full_rf_a,,0
120,22040,147,,,,1,1,1.0,1.0,0.0,-1.0,,0.0-149.0,,-1.0,1771.0,1.0,0.664001694,1.0,0.705509768,0.0,0.75,0.0,0.500211065,True,,5c9d05e72b3c77001744e8d2,,3132504,147,,evan-feature22,full_rf_a,,1
121,22041,148,,,,1,1,1.0,1.0,0.0,-1.0,,0.0-150.0,,-1.0,1060.0,1.0,0.696508041,1.0,0.71066027,1.0,0.717028709,1.0,0.49792991,True,,5c9d05e72b3c77001744e8d2,,3143339,148,,evan-feature22,full_rf_a,,0
122,22042,149,,,,2,2,0.0,1.0,1.0,0.0,,0.0-151.0,,0.0,1143.0,1.0,0.699883272,0.0,0.75,0.0,0.713543895,1.0,0.496962643,True,,5c9d05e72b3c77001744e8d2,,3154319,149,,evan-feature22,full_rf_a,,1
123,22043,150,,,,2,2,0.0,1.0,0.0,-1.0,,0.0-152.0,,-1.0,2684.0,1.0,0.741163419,1.0,0.75,0.0,0.64691024,1.0,0.513858197,True,,5c9d05e72b3c77001744e8d2,,3166799,150,,evan-feature22,full_rf_a,,0
124,22044,151,,,,2,2,0.0,0.0,1.0,0.0,,0.0-153.0,,0.0,1948.0,1.0,0.75,1.0,0.70816558,0.0,0.594499079,0.0,0.48502124,True,,5c9d05e72b3c77001744e8d2,,3178556,151,,evan-feature22,full_rf_a,,0
125,22045,152,,,,1,1,1.0,1.0,0.0,-1.0,,0.0-154.0,,-1.0,754.0,1.0,0.75,1.0,0.721848901,1.0,0.62197249,1.0,0.48263586399999997,True,,5c9d05e72b3c77001744e8d2,,3189117,152,,evan-feature22,full_rf_a,,1
126,22046,153,,,,2,2,1.0,0.0,1.0,0.0,,0.0-155.0,,1.0,371.0,1.0,0.75,1.0,0.74813071,1.0,0.584357161,0.0,0.411477782,True,,5c9d05e72b3c77001744e8d2,,3199305,153,,evan-feature22,full_rf_a,,1
127,22047,154,,,,1,1,1.0,0.0,0.0,-1.0,,0.0-156.0,,0.0,453.0,1.0,0.75,0.0,0.75,1.0,0.52287236,1.0,0.488290656,True,,5c9d05e72b3c77001744e8d2,,3209600,154,,evan-feature22,full_rf_a,,1
128,22048,155,,,,2,2,1.0,1.0,0.0,-1.0,,0.0-157.0,,-1.0,257.0,1.0,0.75,1.0,0.75,1.0,0.544321581,1.0,0.53143059,True,,5c9d05e72b3c77001744e8d2,,3219687,155,,evan-feature22,full_rf_a,,1
129,22049,156,,,,2,2,0.0,1.0,0.0,-1.0,,0.0-158.0,,-1.0,298.0000002,1.0,0.726754564,1.0,0.75,0.0,0.5129306370000001,1.0,0.530592445,True,,5c9d05e72b3c77001744e8d2,,3229787,156,,evan-feature22,full_rf_a,,0
130,22050,157,,,,2,2,0.0,1.0,1.0,0.0,,0.0-159.0,,0.0,408.0000001,1.0,0.75,1.0,0.7392590729999999,0.0,0.479875835,1.0,0.547007051,True,,5c9d05e72b3c77001744e8d2,,3239999,157,,evan-feature22,full_rf_a,,0
131,22051,158,,,,1,1,1.0,1.0,1.0,0.0,,0.0-160.0,,1.0,292.9999998,1.0,0.75,1.0,0.7393376979999999,1.0,0.546045419,1.0,0.541267353,True,,5c9d05e72b3c77001744e8d2,,3250099,158,,evan-feature22,full_rf_a,,1
132,22052,159,,,,1,1,1.0,0.0,1.0,0.0,,0.0-161.0,,1.0,410.0000001,1.0,0.75,0.0,0.75,1.0,0.485725895,1.0,0.527625395,True,,5c9d05e72b3c77001744e8d2,,3260299,159,,evan-feature22,full_rf_a,,0
133,22053,160,,,,2,2,1.0,0.0,0.0,-1.0,,0.0-162.0,,0.0,482.0000001,0.0,0.75,0.0,0.725087974,1.0,0.488603595,0.0,0.504019206,True,,5c9d05e72b3c77001744e8d2,,3270569,160,,evan-feature22,full_rf_a,,1
134,22054,161,,,,2,2,1.0,0.0,0.0,-1.0,,0.0-163.0,,0.0,551.0,1.0,0.745504295,1.0,0.75,1.0,0.452379914,0.0,0.50131194,True,,5c9d05e72b3c77001744e8d2,,3280953,161,,evan-feature22,full_rf_a,,0
135,22055,162,,,,1,1,1.0,1.0,0.0,-1.0,,0.0-164.0,,-1.0,416.0,1.0,0.728513874,1.0,0.75,0.0,0.44125567200000004,1.0,0.531454591,True,,5c9d05e72b3c77001744e8d2,,3291174,162,,evan-feature22,full_rf_a,,1
136,22056,163,,,,2,2,1.0,0.0,1.0,0.0,,0.0-165.0,,1.0,285.9999998,1.0,0.73790804,1.0,0.75,1.0,0.413036656,0.0,0.524619035,True,,5c9d05e72b3c77001744e8d2,,3301267,163,,evan-feature22,full_rf_a,,1
137,22057,164,,,,1,1,0.0,1.0,0.0,-1.0,,0.0-166.0,,-1.0,723.0,0.0,0.7080961309999999,1.0,0.708666865,0.0,0.431915581,0.0,0.481819489,True,,5c9d05e72b3c77001744e8d2,,3311804,164,,evan-feature22,full_rf_a,,1
138,22058,165,,,,2,2,0.0,0.0,0.0,-1.0,,0.0-167.0,,0.0,270.0,1.0,0.721378003,1.0,0.71605913,0.0,0.36642387,0.0,0.5036739929999999,True,,5c9d05e72b3c77001744e8d2,,3321884,165,,evan-feature22,full_rf_a,,1
139,22059,166,,,,2,2,0.0,1.0,0.0,-1.0,,0.0-168.0,,-1.0,384.0000001,1.0,0.7340618959999999,1.0,0.699323252,0.0,0.35298046299999997,1.0,0.511241692,True,,5c9d05e72b3c77001744e8d2,,3332064,166,,evan-feature22,full_rf_a,,0
140,22060,167,,,,1,1,1.0,0.0,1.0,0.0,,0.0-169.0,,1.0,411.0000001,1.0,0.75,0.0,0.70412698,1.0,0.380734814,1.0,0.529580116,True,,5c9d05e72b3c77001744e8d2,,3342275,167,,evan-feature22,full_rf_a,,1
141,22061,168,,,,2,2,0.0,1.0,0.0,-1.0,,0.0-170.0,,-1.0,344.0,1.0,0.7436654909999999,0.0,0.711182751,0.0,0.41125331,1.0,0.49554405,True,,5c9d05e72b3c77001744e8d2,,3352414,168,,evan-feature22,full_rf_a,,1
142,22062,169,,,,1,1,1.0,1.0,0.0,-1.0,,0.0-171.0,,-1.0,716.0,1.0,0.731607915,1.0,0.651774583,0.0,0.35688023,0.0,0.45194491600000003,True,,5c9d05e72b3c77001744e8d2,,3362946,169,,evan-feature22,full_rf_a,,1
143,22063,170,,,,1,1,1.0,1.0,1.0,0.0,,0.0-172.0,,1.0,1030.0,1.0,0.75,1.0,0.75,0.0,0.283145374,0.0,0.528608005,True,,5c9d05e72b3c77001744e8d2,,3373800,170,,evan-feature22,full_rf_a,,0
144,22064,171,,,,1,1,1.0,0.0,1.0,0.0,,0.0-173.0,,1.0,297.0,1.0,0.7491416890000001,0.0,0.7423785959999999,0.0,0.29135870399999997,0.0,0.498888318,True,,5c9d05e72b3c77001744e8d2,,3383903,171,,evan-feature22,full_rf_a,,0
145,22065,172,,,,1,1,0.0,1.0,1.0,0.0,,0.0-174.0,,0.0,522.0000001,0.0,0.708569387,1.0,0.717682277,1.0,0.294421699,0.0,0.493838163,True,,5c9d05e72b3c77001744e8d2,,3394222,172,,evan-feature22,full_rf_a,,0
146,22066,173,,,,1,1,1.0,0.0,0.0,-1.0,,0.0-175.0,,0.0,707.9999999,1.0,0.75,0.0,0.7383382159999999,1.0,0.356098707,1.0,0.442533405,True,,5c9d05e72b3c77001744e8d2,,3404729,173,,evan-feature22,full_rf_a,,0
147,22067,174,,,,2,2,0.0,0.0,0.0,-1.0,,0.0-176.0,,0.0,649.0,1.0,0.744527075,1.0,0.75,0.0,0.334127506,0.0,0.393165805,True,,5c9d05e72b3c77001744e8d2,,3415199,174,,evan-feature22,full_rf_a,,1
148,22068,175,,,,1,1,1.0,1.0,0.0,-1.0,,0.0-177.0,,-1.0,517.0,1.0,0.75,1.0,0.75,0.0,0.33571021799999995,0.0,0.350393962,True,,5c9d05e72b3c77001744e8d2,,3425549,175,,evan-feature22,full_rf_a,,1
149,22069,176,,,,2,2,0.0,0.0,0.0,-1.0,,0.0-178.0,,0.0,1572.0,1.0,0.75,1.0,0.75,0.0,0.313628297,0.0,0.36349657399999996,True,,5c9d05e72b3c77001744e8d2,,3436944,176,,evan-feature22,full_rf_a,,1
150,22070,177,,,,1,1,0.0,1.0,1.0,0.0,,0.0-179.0,,0.0,2111.0,0.0,0.75,1.0,0.734284182,1.0,0.262667667,0.0,0.380199119,True,,5c9d05e72b3c77001744e8d2,,3448874,177,,evan-feature22,full_rf_a,,1
151,22071,178,,,,2,2,1.0,0.0,0.0,-1.0,,0.0-180.0,,0.0,321.9999999,1.0,0.75,0.0,0.75,1.0,0.25,0.0,0.394494013,True,,5c9d05e72b3c77001744e8d2,,3459016,178,,evan-feature22,full_rf_a,,1
152,22072,179,,,,2,2,0.0,0.0,1.0,0.0,,0.0-181.0,,0.0,468.0000001,1.0,0.722298145,1.0,0.7357822340000001,0.0,0.25,0.0,0.319142121,True,,5c9d05e72b3c77001744e8d2,,3469280,179,,evan-feature22,full_rf_a,,0
153,22073,180,,,,2,2,0.0,0.0,1.0,0.0,,0.0-182.0,,0.0,884.0000001,1.0,0.73149275,1.0,0.724276446,0.0,0.305856907,0.0,0.281315057,True,,5c9d05e72b3c77001744e8d2,,3479961,180,,evan-feature22,full_rf_a,,0
154,22074,181,,,,2,2,0.0,1.0,0.0,-1.0,,0.0-183.0,,-1.0,724.0000002,1.0,0.7458732690000001,1.0,0.7336382459999999,0.0,0.272571964,1.0,0.266021999,True,,5c9d05e72b3c77001744e8d2,,3490485,181,,evan-feature22,full_rf_a,,0
155,22075,182,,,,2,2,1.0,0.0,0.0,-1.0,,0.0-184.0,,0.0,1092.0,0.0,0.705579037,0.0,0.720778292,1.0,0.320238144,0.0,0.30971744,True,,5c9d05e72b3c77001744e8d2,,3501387,182,,evan-feature22,full_rf_a,,0
156,22076,183,,,,1,1,1.0,1.0,0.0,-1.0,,0.0-185.0,,-1.0,966.9999999,1.0,0.700425648,1.0,0.7198784009999999,0.0,0.272590393,0.0,0.304182931,True,,5c9d05e72b3c77001744e8d2,,3512159,183,,evan-feature22,full_rf_a,,1
157,22077,184,,,,2,2,1.0,0.0,0.0,-1.0,,0.0-186.0,,0.0,764.9999999,1.0,0.735590785,1.0,0.722714973,1.0,0.25,0.0,0.323421091,True,,5c9d05e72b3c77001744e8d2,,3522730,184,,evan-feature22,full_rf_a,,1
158,22078,185,,,,2,2,0.0,1.0,0.0,-1.0,,0.0-187.0,,-1.0,645.9999999,1.0,0.724807662,1.0,0.63146213,0.0,0.36836492600000004,1.0,0.34592153299999995,True,,5c9d05e72b3c77001744e8d2,,3533185,185,,evan-feature22,full_rf_a,,0
159,22079,186,,,,2,2,1.0,0.0,0.0,-1.0,,0.0-188.0,,0.0,420.00000020000004,1.0,0.7352796909999999,1.0,0.555111392,1.0,0.36003922,0.0,0.31433779999999995,True,,5c9d05e72b3c77001744e8d2,,3543427,186,,evan-feature22,full_rf_a,,0
160,22080,187,notice,,,,,,,,,,0.0-189.0,"{""Q0"":""I felt that there were more likelihoods for matches in the latter half.""}",,20731.0,,,,,,,,,True,,5c9d05e72b3c77001744e8d2,,3564160,187,Q,survey-text,full_rf_a,,1
161,22081,188,track1,,[1],,,,,,,,0.0-190.0,"{""Q0"":""no""}",,3946.0,,,,,,,,,True,,5c9d05e72b3c77001744e8d2,,3568112,188,Q,evan-quiz,full_rf_a,,1
162,22082,189,track2,,[0],,,,,,,,0.0-191.0,"{""Q0"":""yes""}",,3726.0,,,,,,,,,True,,5c9d05e72b3c77001744e8d2,,3571849,189,Q,evan-quiz,full_rf_a,,1
163,22083,190,strat,,,,,,,,,,0.0-192.0,"{""Q0"":""I tried to recall when I would see both or neither as that would help with both the yellow/gold and black aliens""}",,25845.0,,,,,,,,,True,,5c9d05e72b3c77001744e8d2,,3597711,190,Q,survey-text,full_rf_a,,1
