,index,Unnamed: 0,Q_name,button_pressed,choice_idxs,chosen_pos,chosen_state,chosen_state_f_1_outcome,chosen_state_f_2_outcome,f_1_reward,f_2_reward,incor_questions,internal_node_id,responses,reward_received,rt,s_1_f_1_outcome,s_1_f_1_prob,s_1_f_2_outcome,s_1_f_2_prob,s_2_f_1_outcome,s_2_f_1_prob,s_2_f_2_outcome,s_2_f_2_prob,safe_first,stimulus,subjectID,success,time_elapsed,trial_index,trial_num,trial_type,version,view_history,switching
0,38557,30,,,,2,2,0.0,0.0,0.0,1.0,,0.0-27.0,,0.0,673.5,1.0,0.6,0.0,0.6,0.0,0.4,0.0,0.4,True,,5ef4e343d0a7dd102a3c50b8,,573917,30,,evan-feature22,full_rf_b,,0
1,38558,31,,,,1,1,1.0,0.0,0.0,1.0,,0.0-28.0,,0.0,427.835,1.0,0.608053294,0.0,0.63424552,0.0,0.397152172,0.0,0.347069101,True,,5ef4e343d0a7dd102a3c50b8,,584110,31,,evan-feature22,full_rf_b,,1
2,38559,32,,,,1,1,1.0,0.0,0.0,1.0,,0.0-29.0,,0.0,480.92,1.0,0.642237155,0.0,0.648566321,1.0,0.389407674,0.0,0.285525717,True,,5ef4e343d0a7dd102a3c50b8,,594352,32,,evan-feature22,full_rf_b,,0
3,38560,33,,,,1,1,1.0,1.0,0.0,1.0,,0.0-30.0,,1.0,218.105,1.0,0.661086576,1.0,0.630492543,0.0,0.399058924,1.0,0.25,True,,5ef4e343d0a7dd102a3c50b8,,604333,33,,evan-feature22,full_rf_b,,0
4,38561,34,,,,1,1,1.0,1.0,0.0,1.0,,0.0-31.0,,1.0,243.35,1.0,0.631324137,1.0,0.6269842929999999,1.0,0.38734784299999997,1.0,0.25,True,,5ef4e343d0a7dd102a3c50b8,,614339,34,,evan-feature22,full_rf_b,,0
5,38562,35,,,,2,2,0.0,1.0,0.0,1.0,,0.0-32.0,,1.0,434.055,1.0,0.6381991370000001,1.0,0.68987999,0.0,0.384107265,1.0,0.271332943,True,,5ef4e343d0a7dd102a3c50b8,,624534,35,,evan-feature22,full_rf_b,,1
6,38563,36,,,,1,1,1.0,1.0,0.0,1.0,,0.0-33.0,,1.0,627.215,1.0,0.66034901,1.0,0.742641349,1.0,0.360225629,0.0,0.25,True,,5ef4e343d0a7dd102a3c50b8,,634923,36,,evan-feature22,full_rf_b,,1
7,38564,37,,,,2,2,0.0,0.0,-1.0,0.0,,0.0-34.0,,0.0,443.26,1.0,0.638612418,1.0,0.75,0.0,0.367273939,0.0,0.25,True,,5ef4e343d0a7dd102a3c50b8,,645124,37,,evan-feature22,full_rf_b,,1
8,38565,38,,,,1,1,0.0,0.0,0.0,1.0,,0.0-35.0,,0.0,446.855,0.0,0.624340629,0.0,0.75,1.0,0.425829545,0.0,0.25,True,,5ef4e343d0a7dd102a3c50b8,,655328,38,,evan-feature22,full_rf_b,,1
9,38566,39,,,,2,2,0.0,1.0,0.0,1.0,,0.0-36.0,,1.0,232.015,0.0,0.621999804,1.0,0.75,0.0,0.368609357,1.0,0.25,True,,5ef4e343d0a7dd102a3c50b8,,665320,39,,evan-feature22,full_rf_b,,1
10,38567,40,,,,1,1,0.0,1.0,-1.0,0.0,,0.0-37.0,,0.0,689.24,0.0,0.62666403,1.0,0.75,0.0,0.311151498,1.0,0.25,True,,5ef4e343d0a7dd102a3c50b8,,676436,40,,evan-feature22,full_rf_b,,1
11,38568,41,,,,1,1,1.0,1.0,-1.0,0.0,,0.0-38.0,,-1.0,1021.29,1.0,0.6819650009999999,1.0,0.75,1.0,0.310763048,0.0,0.25,True,,5ef4e343d0a7dd102a3c50b8,,687220,41,,evan-feature22,full_rf_b,,0
12,38569,42,,,,2,2,1.0,0.0,0.0,1.0,,0.0-39.0,,0.0,427.86,0.0,0.740626951,1.0,0.75,1.0,0.25,0.0,0.25,True,,5ef4e343d0a7dd102a3c50b8,,697407,42,,evan-feature22,full_rf_b,,1
13,38570,43,,,,2,2,0.0,0.0,0.0,1.0,,0.0-40.0,,0.0,682.025,1.0,0.739599242,1.0,0.742034978,0.0,0.25397114600000004,0.0,0.25,True,,5ef4e343d0a7dd102a3c50b8,,707864,43,,evan-feature22,full_rf_b,,0
14,38571,44,,,,2,2,0.0,0.0,0.0,1.0,,0.0-41.0,,0.0,535.215,1.0,0.732341315,1.0,0.72735643,0.0,0.25,0.0,0.25,True,,5ef4e343d0a7dd102a3c50b8,,718159,44,,evan-feature22,full_rf_b,,0
15,38572,45,,,,2,2,0.0,0.0,0.0,1.0,,0.0-42.0,,0.0,472.42,1.0,0.7062287770000001,1.0,0.75,0.0,0.29002151,0.0,0.288256649,True,,5ef4e343d0a7dd102a3c50b8,,728391,45,,evan-feature22,full_rf_b,,0
16,38573,46,,,,2,2,1.0,0.0,-1.0,0.0,,0.0-43.0,,-1.0,1112.6,1.0,0.7086029209999999,1.0,0.75,1.0,0.274129113,0.0,0.262851608,True,,5ef4e343d0a7dd102a3c50b8,,739261,46,,evan-feature22,full_rf_b,,0
17,38574,47,,,,1,1,1.0,1.0,0.0,1.0,,0.0-44.0,,1.0,1430.005,1.0,0.669189651,1.0,0.727614338,1.0,0.298444036,0.0,0.296944518,True,,5ef4e343d0a7dd102a3c50b8,,750452,47,,evan-feature22,full_rf_b,,1
18,38575,48,,,,1,1,0.0,1.0,-1.0,0.0,,0.0-45.0,,0.0,1454.79,0.0,0.6819912929999999,1.0,0.7179434290000001,0.0,0.265003961,0.0,0.28157921199999997,True,,5ef4e343d0a7dd102a3c50b8,,761668,48,,evan-feature22,full_rf_b,,0
19,38576,49,,,,2,2,0.0,0.0,-1.0,0.0,,0.0-46.0,,0.0,1088.385,0.0,0.665275002,1.0,0.723065271,0.0,0.260414971,0.0,0.30973870000000003,True,,5ef4e343d0a7dd102a3c50b8,,772519,49,,evan-feature22,full_rf_b,,1
20,38577,50,,,,1,1,1.0,0.0,0.0,1.0,,0.0-47.0,,0.0,653.565,1.0,0.6660593260000001,0.0,0.728032907,0.0,0.30922817,1.0,0.338778608,True,,5ef4e343d0a7dd102a3c50b8,,782932,50,,evan-feature22,full_rf_b,,1
21,38578,51,,,,1,1,1.0,1.0,0.0,1.0,,0.0-48.0,,1.0,1157.53,1.0,0.702068785,1.0,0.6528750879999999,0.0,0.287329608,0.0,0.35789613200000003,True,,5ef4e343d0a7dd102a3c50b8,,793852,51,,evan-feature22,full_rf_b,,0
22,38579,52,,,,1,1,1.0,0.0,0.0,1.0,,0.0-49.0,,0.0,681.025,1.0,0.651939787,0.0,0.636725589,0.0,0.284834488,0.0,0.358563756,True,,5ef4e343d0a7dd102a3c50b8,,804302,52,,evan-feature22,full_rf_b,,0
23,38580,53,,,,1,1,0.0,1.0,0.0,1.0,,0.0-50.0,,1.0,649.13,0.0,0.67573929,1.0,0.612550049,0.0,0.37130387600000003,0.0,0.383542402,True,,5ef4e343d0a7dd102a3c50b8,,814713,53,,evan-feature22,full_rf_b,,0
24,38581,54,,,,1,1,1.0,1.0,0.0,1.0,,0.0-51.0,,1.0,687.975,1.0,0.620753801,1.0,0.60513644,0.0,0.385529434,0.0,0.340361743,True,,5ef4e343d0a7dd102a3c50b8,,825161,54,,evan-feature22,full_rf_b,,0
25,38582,55,,,,2,2,1.0,0.0,-1.0,0.0,,0.0-52.0,,-1.0,682.285,1.0,0.673564893,1.0,0.672437924,1.0,0.292955382,0.0,0.337633795,True,,5ef4e343d0a7dd102a3c50b8,,835606,55,,evan-feature22,full_rf_b,,1
26,38583,56,,,,1,1,1.0,0.0,0.0,1.0,,0.0-53.0,,0.0,738.74,1.0,0.6749427,0.0,0.724197502,0.0,0.32391132100000003,0.0,0.350995264,True,,5ef4e343d0a7dd102a3c50b8,,846108,56,,evan-feature22,full_rf_b,,1
27,38584,57,,,,1,1,1.0,1.0,0.0,1.0,,0.0-54.0,,1.0,397.98,1.0,0.6940159379999999,1.0,0.75,0.0,0.31710554399999996,1.0,0.413450341,True,,5ef4e343d0a7dd102a3c50b8,,856270,57,,evan-feature22,full_rf_b,,0
28,38585,58,,,,1,1,0.0,0.0,0.0,1.0,,0.0-55.0,,0.0,480.56,0.0,0.6916018270000001,0.0,0.69001187,0.0,0.261817804,1.0,0.40038635,True,,5ef4e343d0a7dd102a3c50b8,,866510,58,,evan-feature22,full_rf_b,,0
29,38586,59,,,,1,1,0.0,0.0,0.0,1.0,,0.0-56.0,,0.0,528.25,0.0,0.641061544,0.0,0.71337992,0.0,0.277296461,0.0,0.47372791700000005,True,,5ef4e343d0a7dd102a3c50b8,,876804,59,,evan-feature22,full_rf_b,,0
30,38587,60,,,,1,1,1.0,1.0,0.0,1.0,,0.0-57.0,,1.0,477.625,1.0,0.6082438520000001,1.0,0.708471106,1.0,0.28745137,0.0,0.564174476,True,,5ef4e343d0a7dd102a3c50b8,,887043,60,,evan-feature22,full_rf_b,,0
31,38588,61,,,,2,2,0.0,0.0,-1.0,0.0,,0.0-58.0,,0.0,925.26,0.0,0.6051112120000001,0.0,0.7118147229999999,0.0,0.272390611,0.0,0.5595149939999999,True,,5ef4e343d0a7dd102a3c50b8,,897731,61,,evan-feature22,full_rf_b,,1
32,38589,62,,,,2,2,1.0,0.0,-1.0,0.0,,0.0-59.0,,-1.0,531.87,0.0,0.582420852,0.0,0.635867583,1.0,0.31089574,0.0,0.5227206520000001,True,,5ef4e343d0a7dd102a3c50b8,,908039,62,,evan-feature22,full_rf_b,,0
33,38590,63,,,,2,2,0.0,1.0,-1.0,0.0,,0.0-60.0,,0.0,625.61,0.0,0.623195575,1.0,0.655026044,0.0,0.25,1.0,0.560387538,True,,5ef4e343d0a7dd102a3c50b8,,918426,63,,evan-feature22,full_rf_b,,0
34,38591,64,,,,1,1,1.0,0.0,0.0,1.0,,0.0-61.0,,0.0,497.165,1.0,0.601889598,0.0,0.678198724,1.0,0.25,0.0,0.559922936,True,,5ef4e343d0a7dd102a3c50b8,,928686,64,,evan-feature22,full_rf_b,,1
35,38592,65,,,,2,2,0.0,0.0,-1.0,0.0,,0.0-62.0,,0.0,590.48,0.0,0.601259914,1.0,0.704681482,0.0,0.33908969299999997,0.0,0.505003715,True,,5ef4e343d0a7dd102a3c50b8,,939036,65,,evan-feature22,full_rf_b,,1
36,38593,66,,,,1,1,0.0,1.0,-1.0,0.0,,0.0-63.0,,0.0,795.895,0.0,0.59645454,1.0,0.710437172,0.0,0.327441879,1.0,0.391749613,True,,5ef4e343d0a7dd102a3c50b8,,949591,66,,evan-feature22,full_rf_b,,1
37,38594,67,,,,1,1,1.0,1.0,0.0,1.0,,0.0-64.0,,1.0,556.235,1.0,0.529473,1.0,0.636758527,1.0,0.301338063,1.0,0.365661481,True,,5ef4e343d0a7dd102a3c50b8,,959906,67,,evan-feature22,full_rf_b,,0
38,38595,68,,,,2,2,1.0,0.0,-1.0,0.0,,0.0-65.0,,-1.0,603.975,1.0,0.541657162,1.0,0.634541962,1.0,0.343535366,0.0,0.371763742,True,,5ef4e343d0a7dd102a3c50b8,,970269,68,,evan-feature22,full_rf_b,,1
39,38596,69,,,,2,2,0.0,1.0,-1.0,0.0,,0.0-66.0,,0.0,829.605,0.0,0.5707533260000001,1.0,0.589121171,0.0,0.326428396,1.0,0.43961622899999997,True,,5ef4e343d0a7dd102a3c50b8,,980862,69,,evan-feature22,full_rf_b,,0
40,38597,70,,,,1,1,0.0,1.0,0.0,1.0,,0.0-67.0,,1.0,821.75,0.0,0.5707533260000001,1.0,0.589121171,1.0,0.326428396,0.0,0.43961622899999997,True,,5ef4e343d0a7dd102a3c50b8,,991443,70,,evan-feature22,full_rf_b,,1
41,38598,71,,,,2,2,0.0,0.0,0.0,1.0,,0.0-68.0,,0.0,52.095,0.0,0.506271295,1.0,0.641775594,0.0,0.37149690700000004,0.0,0.404330166,True,,5ef4e343d0a7dd102a3c50b8,,1001255,71,,evan-feature22,full_rf_b,,1
42,38599,72,,,,2,2,0.0,1.0,-1.0,0.0,,0.0-69.0,,0.0,789.415,0.0,0.455642565,1.0,0.623605825,0.0,0.358753011,1.0,0.346174041,True,,5ef4e343d0a7dd102a3c50b8,,1011805,72,,evan-feature22,full_rf_b,,0
43,38600,73,,,,1,1,1.0,1.0,0.0,1.0,,0.0-70.0,,1.0,577.88,1.0,0.483677308,1.0,0.5904681070000001,0.0,0.402218411,0.0,0.35344697,True,,5ef4e343d0a7dd102a3c50b8,,1022146,73,,evan-feature22,full_rf_b,,1
44,38601,74,,,,2,2,1.0,0.0,-1.0,0.0,,0.0-71.0,,-1.0,876.965,0.0,0.394210977,0.0,0.558925494,1.0,0.540052017,0.0,0.35182128700000004,True,,5ef4e343d0a7dd102a3c50b8,,1032789,74,,evan-feature22,full_rf_b,,1
45,38602,75,,,,1,1,0.0,0.0,0.0,1.0,,0.0-72.0,,0.0,653.735,0.0,0.382300414,0.0,0.577670603,0.0,0.607608448,1.0,0.378261578,True,,5ef4e343d0a7dd102a3c50b8,,1043205,75,,evan-feature22,full_rf_b,,1
46,38603,76,,,,2,2,1.0,0.0,-1.0,0.0,,0.0-73.0,,-1.0,747.555,0.0,0.357596762,0.0,0.5929076529999999,1.0,0.6579790010000001,0.0,0.401326777,True,,5ef4e343d0a7dd102a3c50b8,,1053712,76,,evan-feature22,full_rf_b,,1
47,38604,77,,,,2,2,1.0,0.0,0.0,1.0,,0.0-74.0,,0.0,789.785,0.0,0.362033495,0.0,0.582308608,1.0,0.649195052,0.0,0.355158505,True,,5ef4e343d0a7dd102a3c50b8,,1064263,77,,evan-feature22,full_rf_b,,0
48,38605,78,,,,2,2,1.0,0.0,0.0,1.0,,0.0-75.0,,0.0,624.13,0.0,0.369620635,1.0,0.669100864,1.0,0.706059111,0.0,0.362516241,True,,5ef4e343d0a7dd102a3c50b8,,1074646,78,,evan-feature22,full_rf_b,,0
49,38606,79,,,,1,1,0.0,1.0,0.0,1.0,,0.0-76.0,,1.0,629.845,0.0,0.41477751399999996,1.0,0.7284416779999999,1.0,0.7182656940000001,1.0,0.36228040899999997,True,,5ef4e343d0a7dd102a3c50b8,,1085040,79,,evan-feature22,full_rf_b,,1
50,38607,80,,,,2,2,1.0,1.0,-1.0,0.0,,0.0-77.0,,-1.0,932.2,0.0,0.37675460299999997,0.0,0.703250285,1.0,0.75,1.0,0.461979164,True,,5ef4e343d0a7dd102a3c50b8,,1095732,80,,evan-feature22,full_rf_b,,1
51,38608,81,,,,2,2,1.0,0.0,-1.0,0.0,,0.0-78.0,,-1.0,1263.015,0.0,0.398716075,1.0,0.6723864890000001,1.0,0.674153818,0.0,0.519029516,True,,5ef4e343d0a7dd102a3c50b8,,1106755,81,,evan-feature22,full_rf_b,,0
52,38609,82,,,,1,1,0.0,1.0,-1.0,0.0,,0.0-79.0,,0.0,577.5,0.0,0.34677856700000004,1.0,0.69057175,1.0,0.6822438540000001,1.0,0.477292237,True,,5ef4e343d0a7dd102a3c50b8,,1117094,82,,evan-feature22,full_rf_b,,1
53,38610,83,,,,1,1,0.0,1.0,0.0,1.0,,0.0-80.0,,1.0,621.28,0.0,0.28580469199999997,1.0,0.68408818,1.0,0.684207565,1.0,0.49780448299999996,True,,5ef4e343d0a7dd102a3c50b8,,1127476,83,,evan-feature22,full_rf_b,,0
54,38612,85,,,,1,1,1.0,1.0,0.0,1.0,,0.0-82.0,,1.0,967.335,1.0,0.25,1.0,0.7405808970000001,0.0,0.679614108,0.0,0.436436964,True,,5ef4e343d0a7dd102a3c50b8,,1140764,85,,evan-feature22,full_rf_b,,0
55,38613,86,,,,1,1,0.0,1.0,0.0,1.0,,0.0-83.0,,1.0,376.235,0.0,0.29890393,1.0,0.730505706,1.0,0.7328203320000001,0.0,0.439256938,True,,5ef4e343d0a7dd102a3c50b8,,1150900,86,,evan-feature22,full_rf_b,,0
56,38614,87,,,,2,2,1.0,0.0,-1.0,0.0,,0.0-84.0,,-1.0,424.2,1.0,0.326762398,1.0,0.7148059609999999,1.0,0.75,0.0,0.44389608799999997,True,,5ef4e343d0a7dd102a3c50b8,,1161084,87,,evan-feature22,full_rf_b,,1
57,38615,88,,,,1,1,1.0,1.0,0.0,1.0,,0.0-85.0,,1.0,608.09,1.0,0.295168515,1.0,0.739760854,0.0,0.719947008,0.0,0.35277284600000003,True,,5ef4e343d0a7dd102a3c50b8,,1171452,88,,evan-feature22,full_rf_b,,1
58,38616,89,,,,1,1,0.0,0.0,0.0,1.0,,0.0-86.0,,0.0,402.16,0.0,0.25,0.0,0.70781482,0.0,0.75,0.0,0.286095925,True,,5ef4e343d0a7dd102a3c50b8,,1181614,89,,evan-feature22,full_rf_b,,0
59,38617,90,,,,1,1,0.0,1.0,0.0,1.0,,0.0-87.0,,1.0,948.775,0.0,0.25638190899999996,1.0,0.704088163,1.0,0.75,1.0,0.26872601399999996,True,,5ef4e343d0a7dd102a3c50b8,,1192324,90,,evan-feature22,full_rf_b,,0
60,38618,91,,,,2,2,1.0,0.0,-1.0,0.0,,0.0-88.0,,-1.0,345.515,1.0,0.271581126,0.0,0.669760107,1.0,0.733896663,0.0,0.273244572,True,,5ef4e343d0a7dd102a3c50b8,,1202432,91,,evan-feature22,full_rf_b,,1
61,38619,92,,,,1,1,0.0,1.0,0.0,1.0,,0.0-89.0,,1.0,526.18,0.0,0.257144401,1.0,0.600575706,1.0,0.74488122,0.0,0.25,True,,5ef4e343d0a7dd102a3c50b8,,1212720,92,,evan-feature22,full_rf_b,,1
62,38620,93,,,,1,1,0.0,0.0,0.0,1.0,,0.0-90.0,,0.0,495.805,0.0,0.25,0.0,0.616870026,1.0,0.723610234,0.0,0.25,True,,5ef4e343d0a7dd102a3c50b8,,1222976,93,,evan-feature22,full_rf_b,,0
63,38621,94,,,,2,2,1.0,0.0,-1.0,0.0,,0.0-91.0,,-1.0,409.06,0.0,0.25,1.0,0.583540187,1.0,0.7041042559999999,0.0,0.285961995,True,,5ef4e343d0a7dd102a3c50b8,,1233148,94,,evan-feature22,full_rf_b,,1
64,38622,95,,,,2,2,1.0,1.0,-1.0,0.0,,0.0-92.0,,-1.0,684.545,1.0,0.27254536,0.0,0.53875765,1.0,0.693783448,1.0,0.284961652,True,,5ef4e343d0a7dd102a3c50b8,,1243592,95,,evan-feature22,full_rf_b,,0
65,38623,96,,,,2,2,1.0,0.0,-1.0,0.0,,0.0-93.0,,-1.0,447.655,0.0,0.25,1.0,0.548431252,1.0,0.734221895,0.0,0.279445214,True,,5ef4e343d0a7dd102a3c50b8,,1253800,96,,evan-feature22,full_rf_b,,0
66,38624,97,,,,1,1,0.0,1.0,0.0,1.0,,0.0-94.0,,1.0,463.565,0.0,0.258640684,1.0,0.545878066,1.0,0.725245965,0.0,0.31487537,True,,5ef4e343d0a7dd102a3c50b8,,1264025,97,,evan-feature22,full_rf_b,,1
67,38625,98,,,,1,1,1.0,1.0,0.0,1.0,,0.0-95.0,,1.0,535.355,1.0,0.251103711,1.0,0.5776290629999999,1.0,0.696320133,0.0,0.317831047,True,,5ef4e343d0a7dd102a3c50b8,,1274325,98,,evan-feature22,full_rf_b,,0
68,38626,99,,,,1,1,0.0,1.0,0.0,1.0,,0.0-96.0,,1.0,291.14,0.0,0.276630292,1.0,0.617329858,1.0,0.73838088,1.0,0.261471582,True,,5ef4e343d0a7dd102a3c50b8,,1284374,99,,evan-feature22,full_rf_b,,0
69,38627,100,,,,1,1,0.0,1.0,0.0,1.0,,0.0-97.0,,1.0,526.265,0.0,0.297716424,1.0,0.618863717,1.0,0.7402358259999999,0.0,0.262600834,True,,5ef4e343d0a7dd102a3c50b8,,1294664,100,,evan-feature22,full_rf_b,,0
70,38628,101,,,,2,2,1.0,0.0,-1.0,0.0,,0.0-98.0,,-1.0,364.49,0.0,0.290935512,1.0,0.695370945,1.0,0.706570507,0.0,0.280030553,True,,5ef4e343d0a7dd102a3c50b8,,1304789,101,,evan-feature22,full_rf_b,,1
71,38629,102,,,,1,1,1.0,1.0,0.0,1.0,,0.0-99.0,,1.0,207.385,1.0,0.25,1.0,0.6465277079999999,0.0,0.67766682,1.0,0.25,True,,5ef4e343d0a7dd102a3c50b8,,1314757,102,,evan-feature22,full_rf_b,,1
72,38630,103,,,,1,1,0.0,1.0,-1.0,0.0,,0.0-100.0,,0.0,340.36,0.0,0.26463816,1.0,0.636100213,1.0,0.646048507,0.0,0.265607101,True,,5ef4e343d0a7dd102a3c50b8,,1324859,103,,evan-feature22,full_rf_b,,0
73,38631,104,,,,1,1,0.0,1.0,-1.0,0.0,,0.0-101.0,,0.0,119.705,0.0,0.314340707,1.0,0.667795927,1.0,0.613630805,0.0,0.25,True,,5ef4e343d0a7dd102a3c50b8,,1334741,104,,evan-feature22,full_rf_b,,0
74,38632,105,,,,1,1,1.0,0.0,0.0,1.0,,0.0-102.0,,0.0,148.045,1.0,0.28685784,0.0,0.6622549529999999,1.0,0.652154117,0.0,0.25,True,,5ef4e343d0a7dd102a3c50b8,,1344647,105,,evan-feature22,full_rf_b,,0
75,38633,106,,,,1,1,0.0,0.0,0.0,1.0,,0.0-103.0,,0.0,277.3,0.0,0.304106554,0.0,0.631289538,0.0,0.707041942,0.0,0.29314237,True,,5ef4e343d0a7dd102a3c50b8,,1354684,106,,evan-feature22,full_rf_b,,0
76,38634,107,,,,1,1,0.0,0.0,0.0,1.0,,0.0-104.0,,0.0,319.56,0.0,0.304806932,0.0,0.571167718,1.0,0.680472346,0.0,0.25,True,,5ef4e343d0a7dd102a3c50b8,,1364760,107,,evan-feature22,full_rf_b,,0
77,38635,108,,,,1,1,0.0,1.0,0.0,1.0,,0.0-105.0,,1.0,24.57,0.0,0.37919861,1.0,0.5724849710000001,1.0,0.705638003,0.0,0.30179300600000003,True,,5ef4e343d0a7dd102a3c50b8,,1374547,108,,evan-feature22,full_rf_b,,0
78,38636,109,,,,1,1,1.0,0.0,0.0,1.0,,0.0-106.0,,0.0,251.16,1.0,0.464277969,0.0,0.554034373,0.0,0.7372627340000001,1.0,0.264699741,True,,5ef4e343d0a7dd102a3c50b8,,1384558,109,,evan-feature22,full_rf_b,,0
79,38637,110,,,,1,1,1.0,1.0,0.0,1.0,,0.0-107.0,,1.0,447.145,1.0,0.465104323,1.0,0.530793115,1.0,0.75,0.0,0.31683071,True,,5ef4e343d0a7dd102a3c50b8,,1394767,110,,evan-feature22,full_rf_b,,0
80,38638,111,,,,1,1,0.0,1.0,-1.0,0.0,,0.0-108.0,,0.0,1035.62,0.0,0.465104323,1.0,0.530793115,0.0,0.75,0.0,0.31683071,True,,5ef4e343d0a7dd102a3c50b8,,1405562,111,,evan-feature22,full_rf_b,,0
81,38639,112,,,,1,1,0.0,0.0,-1.0,0.0,,0.0-109.0,,0.0,474.605,0.0,0.46833986,0.0,0.570249239,0.0,0.7244472590000001,0.0,0.364114163,True,,5ef4e343d0a7dd102a3c50b8,,1415795,112,,evan-feature22,full_rf_b,,0
82,38640,113,,,,1,1,1.0,0.0,-1.0,0.0,,0.0-110.0,,-1.0,261.945,1.0,0.445444024,0.0,0.649673355,0.0,0.6845441290000001,0.0,0.300660449,True,,5ef4e343d0a7dd102a3c50b8,,1425816,113,,evan-feature22,full_rf_b,,0
83,38641,114,,,,2,2,1.0,0.0,-1.0,0.0,,0.0-111.0,,-1.0,444.515,1.0,0.39909721299999995,1.0,0.6715179509999999,1.0,0.742310028,0.0,0.35496088299999995,True,,5ef4e343d0a7dd102a3c50b8,,1436021,114,,evan-feature22,full_rf_b,,1
84,38642,115,,,,1,1,1.0,1.0,0.0,1.0,,0.0-112.0,,1.0,539.325,1.0,0.37956104799999996,1.0,0.694725302,1.0,0.7181651309999999,0.0,0.38726906299999997,True,,5ef4e343d0a7dd102a3c50b8,,1446328,115,,evan-feature22,full_rf_b,,1
85,38643,116,,,,1,1,0.0,1.0,0.0,1.0,,0.0-113.0,,1.0,414.475,0.0,0.404995034,1.0,0.724375412,0.0,0.6910946859999999,0.0,0.387187347,True,,5ef4e343d0a7dd102a3c50b8,,1456507,116,,evan-feature22,full_rf_b,,0
86,38644,117,,,,2,2,1.0,0.0,-1.0,0.0,,0.0-114.0,,-1.0,992.72,0.0,0.461740803,1.0,0.75,1.0,0.75,0.0,0.34872038200000005,True,,5ef4e343d0a7dd102a3c50b8,,1467260,117,,evan-feature22,full_rf_b,,1
87,38645,118,,,,1,1,1.0,1.0,-1.0,0.0,,0.0-115.0,,-1.0,474.84,1.0,0.43821380600000004,1.0,0.738833273,1.0,0.728286963,1.0,0.399538128,True,,5ef4e343d0a7dd102a3c50b8,,1477496,118,,evan-feature22,full_rf_b,,1
88,38646,119,,,,1,1,1.0,1.0,0.0,1.0,,0.0-116.0,,1.0,220.595,1.0,0.41709882,1.0,0.736666736,1.0,0.75,1.0,0.389095584,True,,5ef4e343d0a7dd102a3c50b8,,1487479,119,,evan-feature22,full_rf_b,,0
89,38647,120,,,,1,1,0.0,1.0,0.0,1.0,,0.0-117.0,,1.0,599.335,0.0,0.39749009799999996,1.0,0.744320029,1.0,0.75,1.0,0.363848678,True,,5ef4e343d0a7dd102a3c50b8,,1497840,120,,evan-feature22,full_rf_b,,0
90,38648,121,,,,1,1,0.0,0.0,-1.0,0.0,,0.0-118.0,,0.0,967.285,0.0,0.392653706,0.0,0.75,1.0,0.75,0.0,0.384386976,True,,5ef4e343d0a7dd102a3c50b8,,1508565,121,,evan-feature22,full_rf_b,,0
91,38649,122,,,,1,1,0.0,1.0,0.0,1.0,,0.0-119.0,,1.0,232.54,0.0,0.31190902600000003,1.0,0.75,1.0,0.732413819,1.0,0.413082932,True,,5ef4e343d0a7dd102a3c50b8,,1518555,122,,evan-feature22,full_rf_b,,0
92,38650,123,,,,1,1,1.0,1.0,-1.0,0.0,,0.0-120.0,,-1.0,723.77,1.0,0.366917648,1.0,0.740073855,1.0,0.75,1.0,0.352861979,True,,5ef4e343d0a7dd102a3c50b8,,1529038,123,,evan-feature22,full_rf_b,,0
93,38651,124,,,,1,1,1.0,1.0,-1.0,0.0,,0.0-121.0,,-1.0,281.065,1.0,0.3645172,1.0,0.721770713,0.0,0.75,0.0,0.404074511,True,,5ef4e343d0a7dd102a3c50b8,,1539083,124,,evan-feature22,full_rf_b,,0
94,38652,125,,,,1,1,0.0,0.0,-1.0,0.0,,0.0-122.0,,0.0,510.295,0.0,0.35205600299999995,0.0,0.68983859,0.0,0.739735447,0.0,0.366895945,True,,5ef4e343d0a7dd102a3c50b8,,1549353,125,,evan-feature22,full_rf_b,,0
95,38653,126,,,,1,1,0.0,1.0,-1.0,0.0,,0.0-123.0,,0.0,199.505,0.0,0.40998722600000004,1.0,0.720859127,1.0,0.673854955,0.0,0.368528541,True,,5ef4e343d0a7dd102a3c50b8,,1559313,126,,evan-feature22,full_rf_b,,0
96,38654,127,,,,1,1,0.0,1.0,-1.0,0.0,,0.0-124.0,,0.0,355.0,0.0,0.353625316,1.0,0.75,1.0,0.695605473,1.0,0.38303674200000004,True,,5ef4e343d0a7dd102a3c50b8,,1569429,127,,evan-feature22,full_rf_b,,0
97,38655,128,,,,1,1,1.0,0.0,-1.0,0.0,,0.0-125.0,,-1.0,287.83,1.0,0.359216989,0.0,0.75,1.0,0.6987915090000001,1.0,0.35169046200000004,True,,5ef4e343d0a7dd102a3c50b8,,1579481,128,,evan-feature22,full_rf_b,,0
98,38656,129,,,,1,1,1.0,1.0,-1.0,0.0,,0.0-126.0,,-1.0,463.36,1.0,0.35834496899999996,1.0,0.75,0.0,0.707067742,0.0,0.416763636,True,,5ef4e343d0a7dd102a3c50b8,,1589704,129,,evan-feature22,full_rf_b,,0
99,38657,130,,,,1,1,1.0,1.0,0.0,1.0,,0.0-127.0,,1.0,357.94,1.0,0.38741613799999997,1.0,0.7177369570000001,1.0,0.734902455,1.0,0.49438664299999996,True,,5ef4e343d0a7dd102a3c50b8,,1599822,130,,evan-feature22,full_rf_b,,0
100,38658,131,,,,1,1,0.0,1.0,-1.0,0.0,,0.0-128.0,,0.0,381.525,0.0,0.405255252,1.0,0.7300466640000001,1.0,0.7027748070000001,0.0,0.504359668,True,,5ef4e343d0a7dd102a3c50b8,,1609961,131,,evan-feature22,full_rf_b,,0
101,38659,132,,,,2,2,1.0,0.0,-1.0,0.0,,0.0-129.0,,-1.0,821.37,0.0,0.40697073,0.0,0.7260142190000001,1.0,0.724461982,0.0,0.522779179,True,,5ef4e343d0a7dd102a3c50b8,,1620542,132,,evan-feature22,full_rf_b,,1
102,38660,133,,,,2,2,1.0,1.0,-1.0,0.0,,0.0-130.0,,-1.0,422.32,0.0,0.43906215299999996,1.0,0.7252802340000001,1.0,0.719079934,1.0,0.5712990579999999,True,,5ef4e343d0a7dd102a3c50b8,,1630726,133,,evan-feature22,full_rf_b,,0
103,38661,134,,,,2,2,1.0,0.0,0.0,1.0,,0.0-131.0,,0.0,326.38,0.0,0.4076705,0.0,0.73280499,1.0,0.681313127,0.0,0.523891346,True,,5ef4e343d0a7dd102a3c50b8,,1640813,134,,evan-feature22,full_rf_b,,0
104,38662,135,,,,1,1,1.0,1.0,0.0,1.0,,0.0-132.0,,1.0,933.57,1.0,0.399102911,1.0,0.730498344,0.0,0.661080239,1.0,0.46742603,True,,5ef4e343d0a7dd102a3c50b8,,1651507,135,,evan-feature22,full_rf_b,,1
105,38663,136,,,,1,1,0.0,0.0,0.0,1.0,,0.0-133.0,,0.0,252.025,0.0,0.356477282,0.0,0.712296395,0.0,0.641812684,0.0,0.44868414,True,,5ef4e343d0a7dd102a3c50b8,,1661521,136,,evan-feature22,full_rf_b,,0
106,38664,137,,,,1,1,0.0,0.0,-1.0,0.0,,0.0-134.0,,0.0,689.255,0.0,0.462760722,0.0,0.692349322,1.0,0.700947931,0.0,0.394680266,True,,5ef4e343d0a7dd102a3c50b8,,1671969,137,,evan-feature22,full_rf_b,,0
107,38665,138,,,,1,1,0.0,1.0,-1.0,0.0,,0.0-135.0,,0.0,266.87,0.0,0.422306413,1.0,0.718375916,1.0,0.706340917,0.0,0.367787185,True,,5ef4e343d0a7dd102a3c50b8,,1681998,138,,evan-feature22,full_rf_b,,0
108,38667,140,,,,1,1,0.0,1.0,-1.0,0.0,,0.0-137.0,,0.0,674.24,0.0,0.4582233,1.0,0.643834117,1.0,0.75,0.0,0.39615823299999997,True,,5ef4e343d0a7dd102a3c50b8,,1696123,140,,evan-feature22,full_rf_b,,0
109,38668,141,,,,1,1,0.0,1.0,-1.0,0.0,,0.0-138.0,,0.0,278.58,0.0,0.43813437899999996,1.0,0.651283804,1.0,0.729674191,0.0,0.37711048,True,,5ef4e343d0a7dd102a3c50b8,,1706163,141,,evan-feature22,full_rf_b,,0
110,38669,142,,,,1,1,1.0,0.0,-1.0,0.0,,0.0-139.0,,-1.0,196.955,1.0,0.471199094,0.0,0.6470010979999999,1.0,0.715008097,0.0,0.410656191,True,,5ef4e343d0a7dd102a3c50b8,,1716121,142,,evan-feature22,full_rf_b,,0
111,38670,143,,,,1,1,0.0,1.0,-1.0,0.0,,0.0-140.0,,0.0,410.425,0.0,0.42486406,1.0,0.629771829,1.0,0.6550939960000001,1.0,0.459093873,True,,5ef4e343d0a7dd102a3c50b8,,1726293,143,,evan-feature22,full_rf_b,,0
112,38671,144,,,,1,1,0.0,1.0,-1.0,0.0,,0.0-141.0,,0.0,374.45,0.0,0.4803197,1.0,0.645842715,1.0,0.6421749920000001,0.0,0.443092151,True,,5ef4e343d0a7dd102a3c50b8,,1736430,144,,evan-feature22,full_rf_b,,0
113,38672,145,,,,1,1,0.0,1.0,0.0,1.0,,0.0-142.0,,1.0,292.49,0.0,0.521848997,1.0,0.735801074,1.0,0.6691348460000001,0.0,0.45259351600000003,True,,5ef4e343d0a7dd102a3c50b8,,1746482,145,,evan-feature22,full_rf_b,,0
114,38673,146,,,,1,1,0.0,1.0,-1.0,0.0,,0.0-143.0,,0.0,275.065,0.0,0.49565621299999996,1.0,0.742400847,1.0,0.661512553,1.0,0.483110831,True,,5ef4e343d0a7dd102a3c50b8,,1756517,146,,evan-feature22,full_rf_b,,0
115,38674,147,,,,1,1,1.0,1.0,-1.0,0.0,,0.0-144.0,,-1.0,2457.47,1.0,0.521564361,1.0,0.731078632,1.0,0.6774886809999999,1.0,0.483263956,True,,5ef4e343d0a7dd102a3c50b8,,1768743,147,,evan-feature22,full_rf_b,,0
116,38675,148,,,,1,1,0.0,0.0,-1.0,0.0,,0.0-145.0,,0.0,440.22,0.0,0.558893102,0.0,0.719810023,1.0,0.67461031,0.0,0.499349834,True,,5ef4e343d0a7dd102a3c50b8,,1778950,148,,evan-feature22,full_rf_b,,0
117,38676,149,,,,1,1,0.0,1.0,-1.0,0.0,,0.0-146.0,,0.0,313.66,0.0,0.611031046,1.0,0.75,1.0,0.688072995,1.0,0.5321422729999999,True,,5ef4e343d0a7dd102a3c50b8,,1789044,149,,evan-feature22,full_rf_b,,0
118,38677,150,,,,1,1,1.0,0.0,0.0,1.0,,0.0-147.0,,0.0,343.825,1.0,0.633223941,0.0,0.713567728,0.0,0.75,0.0,0.48185314700000004,True,,5ef4e343d0a7dd102a3c50b8,,1799162,150,,evan-feature22,full_rf_b,,0
119,38678,151,,,,1,1,1.0,1.0,-1.0,0.0,,0.0-148.0,,-1.0,115.875,1.0,0.664001694,1.0,0.705509768,1.0,0.75,1.0,0.500211065,True,,5ef4e343d0a7dd102a3c50b8,,1809062,151,,evan-feature22,full_rf_b,,0
120,38679,152,,,,1,1,1.0,1.0,-1.0,0.0,,0.0-149.0,,-1.0,202.14,1.0,0.664001694,1.0,0.705509768,1.0,0.75,0.0,0.500211065,True,,5ef4e343d0a7dd102a3c50b8,,1819037,152,,evan-feature22,full_rf_b,,0
121,38680,153,,,,1,1,0.0,1.0,-1.0,0.0,,0.0-150.0,,0.0,271.685,0.0,0.696508041,1.0,0.71066027,1.0,0.717028709,1.0,0.49792991,True,,5ef4e343d0a7dd102a3c50b8,,1829080,153,,evan-feature22,full_rf_b,,0
122,38681,154,,,,1,1,0.0,0.0,0.0,1.0,,0.0-151.0,,0.0,485.28,0.0,0.699883272,0.0,0.75,0.0,0.713543895,0.0,0.496962643,True,,5ef4e343d0a7dd102a3c50b8,,1839329,154,,evan-feature22,full_rf_b,,0
123,38682,155,,,,1,1,1.0,1.0,0.0,1.0,,0.0-152.0,,1.0,416.095,1.0,0.741163419,1.0,0.75,1.0,0.64691024,0.0,0.513858197,True,,5ef4e343d0a7dd102a3c50b8,,1849515,155,,evan-feature22,full_rf_b,,0
124,38683,156,,,,1,1,1.0,1.0,0.0,1.0,,0.0-153.0,,1.0,884.15,1.0,0.75,1.0,0.70816558,1.0,0.594499079,1.0,0.48502124,True,,5ef4e343d0a7dd102a3c50b8,,1860168,156,,evan-feature22,full_rf_b,,0
125,38684,157,,,,SLOW,SLOW,,,-1.0,0.0,,0.0-154.0,,-3.0,,1.0,0.75,1.0,0.721848901,1.0,0.62197249,0.0,0.48263586399999997,True,,5ef4e343d0a7dd102a3c50b8,,1865976,157,,evan-feature22,full_rf_b,,1
126,38685,158,,,,2,2,1.0,0.0,-1.0,0.0,,0.0-155.0,,-1.0,1314.375,0.0,0.75,1.0,0.74813071,1.0,0.584357161,0.0,0.411477782,True,,5ef4e343d0a7dd102a3c50b8,,1877055,158,,evan-feature22,full_rf_b,,1
127,38686,159,,,,1,1,0.0,0.0,-1.0,0.0,,0.0-156.0,,0.0,282.975,0.0,0.75,0.0,0.75,0.0,0.52287236,0.0,0.488290656,True,,5ef4e343d0a7dd102a3c50b8,,1887099,159,,evan-feature22,full_rf_b,,1
128,38687,160,,,,1,1,1.0,1.0,-1.0,0.0,,0.0-157.0,,-1.0,512.655,1.0,0.75,1.0,0.75,1.0,0.544321581,0.0,0.53143059,True,,5ef4e343d0a7dd102a3c50b8,,1897377,160,,evan-feature22,full_rf_b,,0
129,38688,161,,,,1,1,0.0,1.0,-1.0,0.0,,0.0-158.0,,0.0,751.595,0.0,0.726754564,1.0,0.75,1.0,0.5129306370000001,0.0,0.530592445,True,,5ef4e343d0a7dd102a3c50b8,,1907897,161,,evan-feature22,full_rf_b,,0
130,38689,162,,,,1,1,1.0,1.0,0.0,1.0,,0.0-159.0,,1.0,230.605,1.0,0.75,1.0,0.7392590729999999,0.0,0.479875835,0.0,0.547007051,True,,5ef4e343d0a7dd102a3c50b8,,1917907,162,,evan-feature22,full_rf_b,,0
131,38690,163,,,,1,1,0.0,1.0,0.0,1.0,,0.0-160.0,,1.0,203.88,0.0,0.75,1.0,0.7393376979999999,0.0,0.546045419,0.0,0.541267353,True,,5ef4e343d0a7dd102a3c50b8,,1927878,163,,evan-feature22,full_rf_b,,0
132,38691,164,,,,1,1,1.0,1.0,-1.0,0.0,,0.0-161.0,,-1.0,506.19,1.0,0.75,1.0,0.75,0.0,0.485725895,0.0,0.527625395,True,,5ef4e343d0a7dd102a3c50b8,,1938152,164,,evan-feature22,full_rf_b,,0
133,38692,165,,,,1,1,1.0,1.0,0.0,1.0,,0.0-162.0,,1.0,226.045,1.0,0.75,1.0,0.725087974,1.0,0.488603595,1.0,0.504019206,True,,5ef4e343d0a7dd102a3c50b8,,1948158,165,,evan-feature22,full_rf_b,,0
134,38693,166,,,,1,1,1.0,1.0,-1.0,0.0,,0.0-163.0,,-1.0,423.74,1.0,0.745504295,1.0,0.75,0.0,0.452379914,0.0,0.50131194,True,,5ef4e343d0a7dd102a3c50b8,,1958354,166,,evan-feature22,full_rf_b,,0
135,38694,167,,,,1,1,1.0,0.0,0.0,1.0,,0.0-164.0,,0.0,363.63,1.0,0.728513874,0.0,0.75,0.0,0.44125567200000004,1.0,0.531454591,True,,5ef4e343d0a7dd102a3c50b8,,1968484,167,,evan-feature22,full_rf_b,,0
136,38695,168,,,,1,1,0.0,1.0,-1.0,0.0,,0.0-165.0,,0.0,382.94,0.0,0.73790804,1.0,0.75,0.0,0.413036656,0.0,0.524619035,True,,5ef4e343d0a7dd102a3c50b8,,1978628,168,,evan-feature22,full_rf_b,,0
137,38696,169,,,,1,1,1.0,0.0,-1.0,0.0,,0.0-166.0,,-1.0,222.09,1.0,0.7080961309999999,0.0,0.708666865,1.0,0.431915581,1.0,0.481819489,True,,5ef4e343d0a7dd102a3c50b8,,1988612,169,,evan-feature22,full_rf_b,,0
138,38697,170,,,,1,1,0.0,1.0,-1.0,0.0,,0.0-167.0,,0.0,348.315,0.0,0.721378003,1.0,0.71605913,1.0,0.36642387,1.0,0.5036739929999999,True,,5ef4e343d0a7dd102a3c50b8,,1998727,170,,evan-feature22,full_rf_b,,0
139,38698,171,,,,1,1,0.0,1.0,0.0,1.0,,0.0-168.0,,1.0,251.8,0.0,0.7340618959999999,1.0,0.699323252,0.0,0.35298046299999997,1.0,0.511241692,True,,5ef4e343d0a7dd102a3c50b8,,2008741,171,,evan-feature22,full_rf_b,,0
140,38699,172,,,,1,1,1.0,1.0,0.0,1.0,,0.0-169.0,,1.0,282.59,1.0,0.75,1.0,0.70412698,0.0,0.380734814,1.0,0.529580116,True,,5ef4e343d0a7dd102a3c50b8,,2018802,172,,evan-feature22,full_rf_b,,0
141,38700,173,,,,1,1,1.0,1.0,0.0,1.0,,0.0-170.0,,1.0,538.095,1.0,0.7436654909999999,1.0,0.711182751,0.0,0.41125331,1.0,0.49554405,True,,5ef4e343d0a7dd102a3c50b8,,2029106,173,,evan-feature22,full_rf_b,,0
142,38701,174,,,,1,1,1.0,0.0,-1.0,0.0,,0.0-171.0,,-1.0,567.15,1.0,0.731607915,0.0,0.651774583,0.0,0.35688023,0.0,0.45194491600000003,True,,5ef4e343d0a7dd102a3c50b8,,2039441,174,,evan-feature22,full_rf_b,,0
143,38702,175,,,,1,1,1.0,1.0,0.0,1.0,,0.0-172.0,,1.0,284.99,1.0,0.75,1.0,0.75,1.0,0.283145374,0.0,0.528608005,True,,5ef4e343d0a7dd102a3c50b8,,2049506,175,,evan-feature22,full_rf_b,,0
144,38703,176,,,,1,1,1.0,0.0,-1.0,0.0,,0.0-173.0,,-1.0,286.835,1.0,0.7491416890000001,0.0,0.7423785959999999,1.0,0.29135870399999997,1.0,0.498888318,True,,5ef4e343d0a7dd102a3c50b8,,2059567,176,,evan-feature22,full_rf_b,,0
145,38704,177,,,,1,1,1.0,1.0,0.0,1.0,,0.0-174.0,,1.0,468.62,1.0,0.708569387,1.0,0.717682277,1.0,0.294421699,1.0,0.493838163,True,,5ef4e343d0a7dd102a3c50b8,,2069802,177,,evan-feature22,full_rf_b,,0
146,38705,178,,,,1,1,1.0,0.0,-1.0,0.0,,0.0-175.0,,-1.0,751.655,1.0,0.75,0.0,0.7383382159999999,0.0,0.356098707,0.0,0.442533405,True,,5ef4e343d0a7dd102a3c50b8,,2080328,178,,evan-feature22,full_rf_b,,0
147,38706,179,,,,1,1,1.0,1.0,-1.0,0.0,,0.0-176.0,,-1.0,306.735,1.0,0.744527075,1.0,0.75,0.0,0.334127506,0.0,0.393165805,True,,5ef4e343d0a7dd102a3c50b8,,2090403,179,,evan-feature22,full_rf_b,,0
148,38707,180,,,,1,1,0.0,1.0,-1.0,0.0,,0.0-177.0,,0.0,724.45,0.0,0.75,1.0,0.75,0.0,0.33571021799999995,1.0,0.350393962,True,,5ef4e343d0a7dd102a3c50b8,,2100901,180,,evan-feature22,full_rf_b,,0
149,38708,181,,,,1,1,1.0,1.0,0.0,1.0,,0.0-178.0,,1.0,514.745,1.0,0.75,1.0,0.75,1.0,0.313628297,0.0,0.36349657399999996,True,,5ef4e343d0a7dd102a3c50b8,,2111182,181,,evan-feature22,full_rf_b,,0
150,38709,182,,,,1,1,1.0,1.0,-1.0,0.0,,0.0-179.0,,-1.0,810.66,1.0,0.75,1.0,0.734284182,0.0,0.262667667,0.0,0.380199119,True,,5ef4e343d0a7dd102a3c50b8,,2121763,182,,evan-feature22,full_rf_b,,0
151,38710,183,,,,1,1,0.0,1.0,-1.0,0.0,,0.0-180.0,,0.0,370.795,0.0,0.75,1.0,0.75,0.0,0.25,0.0,0.394494013,True,,5ef4e343d0a7dd102a3c50b8,,2131912,183,,evan-feature22,full_rf_b,,0
152,38711,184,,,,1,1,1.0,1.0,-1.0,0.0,,0.0-181.0,,-1.0,138.14,1.0,0.722298145,1.0,0.7357822340000001,0.0,0.25,0.0,0.319142121,True,,5ef4e343d0a7dd102a3c50b8,,2141818,184,,evan-feature22,full_rf_b,,0
153,38712,185,,,,2,2,0.0,1.0,-1.0,0.0,,0.0-182.0,,0.0,482.07,1.0,0.73149275,1.0,0.724276446,0.0,0.305856907,1.0,0.281315057,True,,5ef4e343d0a7dd102a3c50b8,,2152066,185,,evan-feature22,full_rf_b,,1
154,38713,186,,,,1,1,0.0,0.0,-1.0,0.0,,0.0-183.0,,0.0,524.415,0.0,0.7458732690000001,0.0,0.7336382459999999,0.0,0.272571964,0.0,0.266021999,True,,5ef4e343d0a7dd102a3c50b8,,2162351,186,,evan-feature22,full_rf_b,,1
155,38714,187,,,,1,1,1.0,1.0,0.0,1.0,,0.0-184.0,,1.0,767.985,1.0,0.705579037,1.0,0.720778292,0.0,0.320238144,1.0,0.30971744,True,,5ef4e343d0a7dd102a3c50b8,,2172888,187,,evan-feature22,full_rf_b,,0
156,38715,188,,,,1,1,1.0,1.0,0.0,1.0,,0.0-185.0,,1.0,626.155,1.0,0.700425648,1.0,0.7198784009999999,0.0,0.272590393,0.0,0.304182931,True,,5ef4e343d0a7dd102a3c50b8,,2183285,188,,evan-feature22,full_rf_b,,0
157,38716,189,,,,1,1,1.0,1.0,0.0,1.0,,0.0-186.0,,1.0,440.85,1.0,0.735590785,1.0,0.722714973,0.0,0.25,1.0,0.323421091,True,,5ef4e343d0a7dd102a3c50b8,,2193492,189,,evan-feature22,full_rf_b,,0
158,38717,190,,,,1,1,1.0,0.0,0.0,1.0,,0.0-187.0,,0.0,606.07,1.0,0.724807662,0.0,0.63146213,1.0,0.36836492600000004,1.0,0.34592153299999995,True,,5ef4e343d0a7dd102a3c50b8,,2203867,190,,evan-feature22,full_rf_b,,0
159,38718,191,,,,2,2,1.0,1.0,-1.0,0.0,,0.0-188.0,,-1.0,1209.885,1.0,0.7352796909999999,0.0,0.555111392,1.0,0.36003922,1.0,0.31433779999999995,True,,5ef4e343d0a7dd102a3c50b8,,2214841,191,,evan-feature22,full_rf_b,,1
160,38719,192,notice,,,,,,,,,,0.0-189.0,"{""Q0"":""I did not notice anything""}",,18267.0,,,,,,,,,True,,5ef4e343d0a7dd102a3c50b8,,2233111,192,Q,survey-text,full_rf_b,,1
161,38720,193,track1,,[1],,,,,,,,0.0-190.0,"{""Q0"":""no""}",,2973.0,,,,,,,,,True,,5ef4e343d0a7dd102a3c50b8,,2236089,193,Q,evan-quiz,full_rf_b,,1
162,38721,194,track2,,[0],,,,,,,,0.0-191.0,"{""Q0"":""yes""}",,11016.0,,,,,,,,,True,,5ef4e343d0a7dd102a3c50b8,,2247117,194,Q,evan-quiz,full_rf_b,,1
163,38722,195,strat,,,,,,,,,,0.0-192.0,"{""Q0"":""I began to go for 6 of the 'g' door then 3 of the 'j' but I started to believe the 'g' door was luckier""}",,63124.0,,,,,,,,,True,,5ef4e343d0a7dd102a3c50b8,,2310250,195,Q,survey-text,full_rf_b,,1
