,index,Unnamed: 0,Q_name,button_pressed,choice_idxs,chosen_pos,chosen_state,chosen_state_f_1_outcome,chosen_state_f_2_outcome,f_1_reward,f_2_reward,incor_questions,internal_node_id,responses,reward_received,rt,s_1_f_1_outcome,s_1_f_1_prob,s_1_f_2_outcome,s_1_f_2_prob,s_2_f_1_outcome,s_2_f_1_prob,s_2_f_2_outcome,s_2_f_2_prob,safe_first,stimulus,subjectID,success,time_elapsed,trial_index,trial_num,trial_type,version,view_history,switching
0,5511,25,,,,2,2,0.0,0.0,-1.0,0.0,,0.0-27.0,,0.0,466.9999999,1.0,0.6,1.0,0.6,0.0,0.4,0.0,0.4,False,,5b0abc9ce9270900013b950d,,739876,25,,evan-feature22,full_pf_b,,0
1,5512,26,,,,1,1,1.0,0.0,-1.0,0.0,,0.0-28.0,,-1.0,3862.0,1.0,0.608053294,0.0,0.63424552,0.0,0.397152172,0.0,0.347069101,False,,5b0abc9ce9270900013b950d,,753504,26,,evan-feature22,full_pf_b,,1
2,5513,27,,,,2,2,0.0,0.0,-1.0,0.0,,0.0-29.0,,0.0,1514.0,1.0,0.642237155,0.0,0.648566321,0.0,0.389407674,0.0,0.285525717,False,,5b0abc9ce9270900013b950d,,764775,27,,evan-feature22,full_pf_b,,1
3,5514,28,,,,2,2,1.0,0.0,-1.0,0.0,,0.0-30.0,,-1.0,1457.0,1.0,0.661086576,0.0,0.630492543,1.0,0.399058924,0.0,0.25,False,,5b0abc9ce9270900013b950d,,775992,28,,evan-feature22,full_pf_b,,0
4,5515,29,,,,2,2,0.0,0.0,0.0,1.0,,0.0-31.0,,0.0,1539.0,1.0,0.631324137,1.0,0.6269842929999999,0.0,0.38734784299999997,0.0,0.25,False,,5b0abc9ce9270900013b950d,,787286,29,,evan-feature22,full_pf_b,,0
5,5516,30,,,,1,1,1.0,1.0,0.0,1.0,,0.0-32.0,,1.0,123.99999979999998,1.0,0.6381991370000001,1.0,0.68987999,1.0,0.384107265,0.0,0.271332943,False,,5b0abc9ce9270900013b950d,,797172,30,,evan-feature22,full_pf_b,,1
6,5517,31,,,,2,2,0.0,0.0,-1.0,0.0,,0.0-33.0,,0.0,449.0,1.0,0.66034901,1.0,0.742641349,0.0,0.360225629,0.0,0.25,False,,5b0abc9ce9270900013b950d,,807378,31,,evan-feature22,full_pf_b,,1
7,5518,32,,,,2,2,0.0,1.0,-1.0,0.0,,0.0-34.0,,0.0,938.0000001,1.0,0.638612418,1.0,0.75,0.0,0.367273939,1.0,0.25,False,,5b0abc9ce9270900013b950d,,818076,32,,evan-feature22,full_pf_b,,0
8,5519,33,,,,1,1,1.0,1.0,0.0,1.0,,0.0-35.0,,1.0,1037.0,1.0,0.624340629,1.0,0.75,1.0,0.425829545,0.0,0.25,False,,5b0abc9ce9270900013b950d,,828870,33,,evan-feature22,full_pf_b,,1
9,5520,34,,,,1,1,1.0,1.0,0.0,1.0,,0.0-36.0,,1.0,724.0000002,1.0,0.621999804,1.0,0.75,0.0,0.368609357,0.0,0.25,False,,5b0abc9ce9270900013b950d,,839354,34,,evan-feature22,full_pf_b,,0
10,5521,35,,,,1,1,0.0,1.0,-1.0,0.0,,0.0-37.0,,0.0,1649.0,0.0,0.62666403,1.0,0.75,0.0,0.311151498,0.0,0.25,False,,5b0abc9ce9270900013b950d,,850762,35,,evan-feature22,full_pf_b,,0
11,5522,36,,,,1,1,0.0,1.0,0.0,1.0,,0.0-38.0,,1.0,1530.0,0.0,0.6819650009999999,1.0,0.75,0.0,0.310763048,0.0,0.25,False,,5b0abc9ce9270900013b950d,,862054,36,,evan-feature22,full_pf_b,,0
12,5523,37,,,,2,2,0.0,1.0,-1.0,0.0,,0.0-39.0,,0.0,876.0000002,0.0,0.740626951,0.0,0.75,0.0,0.25,1.0,0.25,False,,5b0abc9ce9270900013b950d,,872698,37,,evan-feature22,full_pf_b,,1
13,5524,38,,,,1,1,1.0,1.0,-1.0,0.0,,0.0-40.0,,-1.0,895.9999999,1.0,0.739599242,1.0,0.742034978,1.0,0.25397114600000004,0.0,0.25,False,,5b0abc9ce9270900013b950d,,883358,38,,evan-feature22,full_pf_b,,1
14,5525,39,,,,2,2,1.0,0.0,-1.0,0.0,,0.0-41.0,,-1.0,1121.0,0.0,0.732341315,0.0,0.72735643,1.0,0.25,0.0,0.25,False,,5b0abc9ce9270900013b950d,,894238,39,,evan-feature22,full_pf_b,,1
15,5526,40,,,,1,1,1.0,1.0,-1.0,0.0,,0.0-42.0,,-1.0,968.0000001,1.0,0.7062287770000001,1.0,0.75,1.0,0.29002151,1.0,0.288256649,False,,5b0abc9ce9270900013b950d,,904968,40,,evan-feature22,full_pf_b,,1
16,5527,41,,,,2,2,0.0,1.0,-1.0,0.0,,0.0-43.0,,0.0,997.9999999,1.0,0.7086029209999999,0.0,0.75,0.0,0.274129113,1.0,0.262851608,False,,5b0abc9ce9270900013b950d,,915727,41,,evan-feature22,full_pf_b,,1
17,5528,42,,,,2,2,1.0,0.0,-1.0,0.0,,0.0-44.0,,-1.0,406.0000002,0.0,0.669189651,1.0,0.727614338,1.0,0.298444036,0.0,0.296944518,False,,5b0abc9ce9270900013b950d,,925893,42,,evan-feature22,full_pf_b,,0
18,5529,43,,,,SLOW,SLOW,,,-1.0,0.0,,0.0-45.0,,-3.0,,0.0,0.6819912929999999,1.0,0.7179434290000001,0.0,0.265003961,0.0,0.28157921199999997,False,,5b0abc9ce9270900013b950d,,931698,43,,evan-feature22,full_pf_b,,1
19,5530,44,,,,1,1,1.0,0.0,0.0,1.0,,0.0-46.0,,0.0,808.0,1.0,0.665275002,0.0,0.723065271,1.0,0.260414971,0.0,0.30973870000000003,False,,5b0abc9ce9270900013b950d,,942266,44,,evan-feature22,full_pf_b,,1
20,5531,45,,,,2,2,0.0,0.0,-1.0,0.0,,0.0-47.0,,0.0,862.0000002,1.0,0.6660593260000001,1.0,0.728032907,0.0,0.30922817,0.0,0.338778608,False,,5b0abc9ce9270900013b950d,,952888,45,,evan-feature22,full_pf_b,,1
21,5532,46,,,,SLOW,SLOW,,,-1.0,0.0,,0.0-48.0,,-3.0,,1.0,0.702068785,1.0,0.6528750879999999,0.0,0.287329608,1.0,0.35789613200000003,False,,5b0abc9ce9270900013b950d,,958694,46,,evan-feature22,full_pf_b,,1
22,5533,47,,,,1,1,1.0,0.0,-1.0,0.0,,0.0-49.0,,-1.0,676.0,1.0,0.651939787,0.0,0.636725589,1.0,0.284834488,0.0,0.358563756,False,,5b0abc9ce9270900013b950d,,969137,47,,evan-feature22,full_pf_b,,1
23,5534,48,,,,1,1,1.0,0.0,0.0,1.0,,0.0-50.0,,0.0,504.9999999,1.0,0.67573929,0.0,0.612550049,0.0,0.37130387600000003,0.0,0.383542402,False,,5b0abc9ce9270900013b950d,,979405,48,,evan-feature22,full_pf_b,,0
24,5535,49,,,,2,2,0.0,1.0,0.0,1.0,,0.0-51.0,,1.0,568.9999999,1.0,0.620753801,0.0,0.60513644,0.0,0.385529434,1.0,0.340361743,False,,5b0abc9ce9270900013b950d,,989735,49,,evan-feature22,full_pf_b,,1
25,5536,50,,,,1,1,1.0,1.0,0.0,1.0,,0.0-52.0,,1.0,3879.0,1.0,0.673564893,1.0,0.672437924,0.0,0.292955382,1.0,0.337633795,False,,5b0abc9ce9270900013b950d,,1003380,50,,evan-feature22,full_pf_b,,1
26,5537,51,,,,2,2,0.0,0.0,-1.0,0.0,,0.0-53.0,,0.0,122.0,1.0,0.6749427,1.0,0.724197502,0.0,0.32391132100000003,0.0,0.350995264,False,,5b0abc9ce9270900013b950d,,1013264,51,,evan-feature22,full_pf_b,,1
27,5538,52,,,,2,2,0.0,0.0,-1.0,0.0,,0.0-54.0,,0.0,1876.0,1.0,0.6940159379999999,0.0,0.75,0.0,0.31710554399999996,0.0,0.413450341,False,,5b0abc9ce9270900013b950d,,1024900,52,,evan-feature22,full_pf_b,,0
28,5539,53,,,,1,1,1.0,0.0,-1.0,0.0,,0.0-55.0,,-1.0,635.9999999,1.0,0.6916018270000001,0.0,0.69001187,0.0,0.261817804,0.0,0.40038635,False,,5b0abc9ce9270900013b950d,,1035299,53,,evan-feature22,full_pf_b,,1
29,5540,54,,,,2,2,0.0,1.0,-1.0,0.0,,0.0-56.0,,0.0,3966.0,1.0,0.641061544,1.0,0.71337992,0.0,0.277296461,1.0,0.47372791700000005,False,,5b0abc9ce9270900013b950d,,1049029,54,,evan-feature22,full_pf_b,,1
30,5541,55,,,,1,1,1.0,1.0,-1.0,0.0,,0.0-57.0,,-1.0,2010.0,1.0,0.6082438520000001,1.0,0.708471106,0.0,0.28745137,1.0,0.564174476,False,,5b0abc9ce9270900013b950d,,1060797,55,,evan-feature22,full_pf_b,,1
31,5542,56,,,,2,2,0.0,0.0,-1.0,0.0,,0.0-58.0,,0.0,822.0000002,1.0,0.6051112120000001,1.0,0.7118147229999999,0.0,0.272390611,0.0,0.5595149939999999,False,,5b0abc9ce9270900013b950d,,1071380,56,,evan-feature22,full_pf_b,,1
32,5543,57,,,,1,1,1.0,1.0,-1.0,0.0,,0.0-59.0,,-1.0,983.0,1.0,0.582420852,1.0,0.635867583,0.0,0.31089574,1.0,0.5227206520000001,False,,5b0abc9ce9270900013b950d,,1082128,57,,evan-feature22,full_pf_b,,1
33,5544,58,,,,2,2,0.0,1.0,0.0,1.0,,0.0-60.0,,1.0,733.9999999,0.0,0.623195575,1.0,0.655026044,0.0,0.25,1.0,0.560387538,False,,5b0abc9ce9270900013b950d,,1092622,58,,evan-feature22,full_pf_b,,1
34,5545,59,,,,2,2,0.0,1.0,-1.0,0.0,,0.0-61.0,,0.0,916.0,0.0,0.601889598,1.0,0.678198724,0.0,0.25,1.0,0.559922936,False,,5b0abc9ce9270900013b950d,,1103303,59,,evan-feature22,full_pf_b,,0
35,5546,60,,,,1,1,0.0,1.0,-1.0,0.0,,0.0-62.0,,0.0,1121.0,0.0,0.601259914,1.0,0.704681482,0.0,0.33908969299999997,1.0,0.505003715,False,,5b0abc9ce9270900013b950d,,1114186,60,,evan-feature22,full_pf_b,,1
36,5547,61,,,,2,2,0.0,1.0,-1.0,0.0,,0.0-63.0,,0.0,755.0000001,1.0,0.59645454,1.0,0.710437172,0.0,0.327441879,1.0,0.391749613,False,,5b0abc9ce9270900013b950d,,1124708,61,,evan-feature22,full_pf_b,,1
37,5548,62,,,,1,1,1.0,1.0,-1.0,0.0,,0.0-64.0,,-1.0,1943.0,1.0,0.529473,1.0,0.636758527,0.0,0.301338063,0.0,0.365661481,False,,5b0abc9ce9270900013b950d,,1136415,62,,evan-feature22,full_pf_b,,1
38,5549,63,,,,2,2,0.0,0.0,0.0,1.0,,0.0-65.0,,0.0,561.0000002,1.0,0.541657162,1.0,0.634541962,0.0,0.343535366,0.0,0.371763742,False,,5b0abc9ce9270900013b950d,,1146740,63,,evan-feature22,full_pf_b,,1
39,5550,64,,,,1,1,0.0,1.0,-1.0,0.0,,0.0-66.0,,0.0,2144.0,0.0,0.5707533260000001,1.0,0.589121171,1.0,0.326428396,1.0,0.43961622899999997,False,,5b0abc9ce9270900013b950d,,1158647,64,,evan-feature22,full_pf_b,,1
40,5551,65,,,,2,2,0.0,0.0,-1.0,0.0,,0.0-67.0,,0.0,2772.0,0.0,0.5707533260000001,1.0,0.589121171,0.0,0.326428396,0.0,0.43961622899999997,False,,5b0abc9ce9270900013b950d,,1171180,65,,evan-feature22,full_pf_b,,1
41,5552,66,,,,2,2,0.0,0.0,-1.0,0.0,,0.0-68.0,,0.0,3387.0,1.0,0.506271295,1.0,0.641775594,0.0,0.37149690700000004,0.0,0.404330166,False,,5b0abc9ce9270900013b950d,,1184330,66,,evan-feature22,full_pf_b,,0
42,5553,67,,,,1,1,0.0,1.0,0.0,1.0,,0.0-69.0,,1.0,757.0,0.0,0.455642565,1.0,0.623605825,0.0,0.358753011,1.0,0.346174041,False,,5b0abc9ce9270900013b950d,,1194850,67,,evan-feature22,full_pf_b,,1
43,5554,68,,,,SLOW,SLOW,,,0.0,1.0,,0.0-70.0,,-3.0,,0.0,0.483677308,0.0,0.5904681070000001,0.0,0.402218411,1.0,0.35344697,False,,5b0abc9ce9270900013b950d,,1200658,68,,evan-feature22,full_pf_b,,1
44,5555,69,,,,2,2,0.0,1.0,0.0,1.0,,0.0-71.0,,1.0,479.0000001,0.0,0.394210977,0.0,0.558925494,0.0,0.540052017,1.0,0.35182128700000004,False,,5b0abc9ce9270900013b950d,,1210900,69,,evan-feature22,full_pf_b,,1
45,5556,70,,,,2,2,1.0,0.0,-1.0,0.0,,0.0-72.0,,-1.0,1896.0,0.0,0.382300414,1.0,0.577670603,1.0,0.607608448,0.0,0.378261578,False,,5b0abc9ce9270900013b950d,,1222555,70,,evan-feature22,full_pf_b,,0
46,5557,71,,,,1,1,0.0,1.0,-1.0,0.0,,0.0-73.0,,0.0,1373.0,0.0,0.357596762,1.0,0.5929076529999999,1.0,0.6579790010000001,1.0,0.401326777,False,,5b0abc9ce9270900013b950d,,1233690,71,,evan-feature22,full_pf_b,,1
47,5558,72,,,,2,2,1.0,1.0,-1.0,0.0,,0.0-74.0,,-1.0,1831.0,1.0,0.362033495,1.0,0.582308608,1.0,0.649195052,1.0,0.355158505,False,,5b0abc9ce9270900013b950d,,1245285,72,,evan-feature22,full_pf_b,,1
48,5559,73,,,,1,1,1.0,0.0,-1.0,0.0,,0.0-75.0,,-1.0,924.0000001,1.0,0.369620635,0.0,0.669100864,1.0,0.706059111,0.0,0.362516241,False,,5b0abc9ce9270900013b950d,,1255975,73,,evan-feature22,full_pf_b,,1
49,5560,74,,,,2,2,1.0,1.0,-1.0,0.0,,0.0-76.0,,-1.0,537.9999999,0.0,0.41477751399999996,0.0,0.7284416779999999,1.0,0.7182656940000001,1.0,0.36228040899999997,False,,5b0abc9ce9270900013b950d,,1266272,74,,evan-feature22,full_pf_b,,1
50,5561,75,,,,2,2,0.0,1.0,0.0,1.0,,0.0-77.0,,1.0,1316.0,0.0,0.37675460299999997,0.0,0.703250285,0.0,0.75,1.0,0.461979164,False,,5b0abc9ce9270900013b950d,,1277352,75,,evan-feature22,full_pf_b,,0
51,5562,76,,,,2,2,1.0,1.0,0.0,1.0,,0.0-78.0,,1.0,1000.0,0.0,0.398716075,1.0,0.6723864890000001,1.0,0.674153818,1.0,0.519029516,False,,5b0abc9ce9270900013b950d,,1288120,76,,evan-feature22,full_pf_b,,0
52,5563,77,,,,1,1,1.0,1.0,-1.0,0.0,,0.0-79.0,,-1.0,690.9999999,1.0,0.34677856700000004,1.0,0.69057175,1.0,0.6822438540000001,0.0,0.477292237,False,,5b0abc9ce9270900013b950d,,1298575,77,,evan-feature22,full_pf_b,,1
53,5564,78,,,,2,2,0.0,1.0,0.0,1.0,,0.0-80.0,,1.0,784.0,0.0,0.28580469199999997,0.0,0.68408818,0.0,0.684207565,1.0,0.49780448299999996,False,,5b0abc9ce9270900013b950d,,1309126,78,,evan-feature22,full_pf_b,,1
54,5566,80,,,,1,1,0.0,1.0,-1.0,0.0,,0.0-82.0,,0.0,1029.0,0.0,0.25,1.0,0.7405808970000001,0.0,0.679614108,0.0,0.436436964,False,,5b0abc9ce9270900013b950d,,1324398,80,,evan-feature22,full_pf_b,,1
55,5567,81,,,,2,2,1.0,0.0,0.0,1.0,,0.0-83.0,,0.0,616.9999999,1.0,0.29890393,0.0,0.730505706,1.0,0.7328203320000001,0.0,0.439256938,False,,5b0abc9ce9270900013b950d,,1334779,81,,evan-feature22,full_pf_b,,1
56,5568,82,,,,2,2,0.0,1.0,-1.0,0.0,,0.0-84.0,,0.0,2518.0,0.0,0.326762398,1.0,0.7148059609999999,0.0,0.75,1.0,0.44389608799999997,False,,5b0abc9ce9270900013b950d,,1347060,82,,evan-feature22,full_pf_b,,0
57,5569,83,,,,1,1,0.0,0.0,-1.0,0.0,,0.0-85.0,,0.0,875.0,0.0,0.295168515,0.0,0.739760854,0.0,0.719947008,1.0,0.35277284600000003,False,,5b0abc9ce9270900013b950d,,1357697,83,,evan-feature22,full_pf_b,,1
58,5570,84,,,,2,2,1.0,0.0,-1.0,0.0,,0.0-86.0,,-1.0,375.9999999,0.0,0.25,1.0,0.70781482,1.0,0.75,0.0,0.286095925,False,,5b0abc9ce9270900013b950d,,1367834,84,,evan-feature22,full_pf_b,,1
59,5571,85,,,,1,1,0.0,1.0,0.0,1.0,,0.0-87.0,,1.0,816.9999998,0.0,0.25638190899999996,1.0,0.704088163,0.0,0.75,0.0,0.26872601399999996,False,,5b0abc9ce9270900013b950d,,1378416,85,,evan-feature22,full_pf_b,,1
60,5572,86,,,,2,2,1.0,1.0,0.0,1.0,,0.0-88.0,,1.0,609.9999999,1.0,0.271581126,1.0,0.669760107,1.0,0.733896663,1.0,0.273244572,False,,5b0abc9ce9270900013b950d,,1388791,86,,evan-feature22,full_pf_b,,1
61,5573,87,,,,1,1,0.0,1.0,0.0,1.0,,0.0-89.0,,1.0,387.0000001,0.0,0.257144401,1.0,0.600575706,1.0,0.74488122,0.0,0.25,False,,5b0abc9ce9270900013b950d,,1398940,87,,evan-feature22,full_pf_b,,1
62,5574,88,,,,2,2,1.0,0.0,-1.0,0.0,,0.0-90.0,,-1.0,652.0,0.0,0.25,1.0,0.616870026,1.0,0.723610234,0.0,0.25,False,,5b0abc9ce9270900013b950d,,1409353,88,,evan-feature22,full_pf_b,,1
63,5575,89,,,,2,2,1.0,0.0,0.0,1.0,,0.0-91.0,,0.0,1508.0,0.0,0.25,1.0,0.583540187,1.0,0.7041042559999999,0.0,0.285961995,False,,5b0abc9ce9270900013b950d,,1420625,89,,evan-feature22,full_pf_b,,0
64,5576,90,,,,2,2,1.0,1.0,-1.0,0.0,,0.0-92.0,,-1.0,2132.0,0.0,0.27254536,1.0,0.53875765,1.0,0.693783448,1.0,0.284961652,False,,5b0abc9ce9270900013b950d,,1432522,90,,evan-feature22,full_pf_b,,0
65,5577,91,,,,1,1,0.0,0.0,0.0,1.0,,0.0-93.0,,0.0,1357.0,0.0,0.25,0.0,0.548431252,0.0,0.734221895,0.0,0.279445214,False,,5b0abc9ce9270900013b950d,,1443640,91,,evan-feature22,full_pf_b,,1
66,5578,92,,,,2,2,1.0,0.0,-1.0,0.0,,0.0-94.0,,-1.0,1150.0,0.0,0.258640684,0.0,0.545878066,1.0,0.725245965,0.0,0.31487537,False,,5b0abc9ce9270900013b950d,,1454556,92,,evan-feature22,full_pf_b,,1
67,5579,93,,,,2,2,1.0,0.0,-1.0,0.0,,0.0-95.0,,-1.0,608.0,0.0,0.251103711,0.0,0.5776290629999999,1.0,0.696320133,0.0,0.317831047,False,,5b0abc9ce9270900013b950d,,1464926,93,,evan-feature22,full_pf_b,,0
68,5580,94,,,,2,2,1.0,1.0,-1.0,0.0,,0.0-96.0,,-1.0,2969.0,1.0,0.276630292,1.0,0.617329858,1.0,0.73838088,1.0,0.261471582,False,,5b0abc9ce9270900013b950d,,1477660,94,,evan-feature22,full_pf_b,,0
69,5581,95,,,,1,1,0.0,1.0,0.0,1.0,,0.0-97.0,,1.0,1174.0,0.0,0.297716424,1.0,0.618863717,1.0,0.7402358259999999,0.0,0.262600834,False,,5b0abc9ce9270900013b950d,,1488598,95,,evan-feature22,full_pf_b,,1
70,5582,96,,,,2,2,0.0,0.0,-1.0,0.0,,0.0-98.0,,0.0,1218.0,1.0,0.290935512,1.0,0.695370945,0.0,0.706570507,0.0,0.280030553,False,,5b0abc9ce9270900013b950d,,1499577,96,,evan-feature22,full_pf_b,,1
71,5583,97,,,,2,2,1.0,0.0,-1.0,0.0,,0.0-99.0,,-1.0,1274.0,0.0,0.25,1.0,0.6465277079999999,1.0,0.67766682,0.0,0.25,False,,5b0abc9ce9270900013b950d,,1510619,97,,evan-feature22,full_pf_b,,0
72,5584,98,,,,1,1,1.0,1.0,-1.0,0.0,,0.0-100.0,,-1.0,769.0000001,1.0,0.26463816,1.0,0.636100213,1.0,0.646048507,0.0,0.265607101,False,,5b0abc9ce9270900013b950d,,1521157,98,,evan-feature22,full_pf_b,,1
73,5585,99,,,,2,2,0.0,0.0,-1.0,0.0,,0.0-101.0,,0.0,1258.0,0.0,0.314340707,0.0,0.667795927,0.0,0.613630805,0.0,0.25,False,,5b0abc9ce9270900013b950d,,1532179,99,,evan-feature22,full_pf_b,,1
74,5586,100,,,,2,2,0.0,0.0,-1.0,0.0,,0.0-102.0,,0.0,1202.0,0.0,0.28685784,0.0,0.6622549529999999,0.0,0.652154117,0.0,0.25,False,,5b0abc9ce9270900013b950d,,1543140,100,,evan-feature22,full_pf_b,,0
75,5587,101,,,,1,1,0.0,1.0,0.0,1.0,,0.0-103.0,,1.0,340.0000001,0.0,0.304106554,1.0,0.631289538,0.0,0.707041942,1.0,0.29314237,False,,5b0abc9ce9270900013b950d,,1553242,101,,evan-feature22,full_pf_b,,1
76,5588,102,,,,2,2,1.0,0.0,0.0,1.0,,0.0-104.0,,0.0,478.0000001,1.0,0.304806932,1.0,0.571167718,1.0,0.680472346,0.0,0.25,False,,5b0abc9ce9270900013b950d,,1563482,102,,evan-feature22,full_pf_b,,1
77,5589,103,,,,1,1,1.0,1.0,0.0,1.0,,0.0-105.0,,1.0,618.0,1.0,0.37919861,1.0,0.5724849710000001,1.0,0.705638003,1.0,0.30179300600000003,False,,5b0abc9ce9270900013b950d,,1573863,103,,evan-feature22,full_pf_b,,1
78,5590,104,,,,2,2,1.0,0.0,0.0,1.0,,0.0-106.0,,0.0,260.0,1.0,0.464277969,1.0,0.554034373,1.0,0.7372627340000001,0.0,0.264699741,False,,5b0abc9ce9270900013b950d,,1583891,104,,evan-feature22,full_pf_b,,1
79,5591,105,,,,2,2,0.0,0.0,-1.0,0.0,,0.0-107.0,,0.0,88.00000022,0.0,0.465104323,1.0,0.530793115,0.0,0.75,0.0,0.31683071,False,,5b0abc9ce9270900013b950d,,1593738,105,,evan-feature22,full_pf_b,,0
80,5592,106,,,,1,1,1.0,0.0,0.0,1.0,,0.0-108.0,,0.0,825.0,1.0,0.465104323,0.0,0.530793115,1.0,0.75,1.0,0.31683071,False,,5b0abc9ce9270900013b950d,,1604327,106,,evan-feature22,full_pf_b,,1
81,5593,107,,,,SLOW,SLOW,,,0.0,1.0,,0.0-109.0,,-3.0,,1.0,0.46833986,0.0,0.570249239,0.0,0.7244472590000001,0.0,0.364114163,False,,5b0abc9ce9270900013b950d,,1610135,107,,evan-feature22,full_pf_b,,1
82,5594,108,,,,2,2,1.0,0.0,0.0,1.0,,0.0-110.0,,0.0,1116.0,0.0,0.445444024,1.0,0.649673355,1.0,0.6845441290000001,0.0,0.300660449,False,,5b0abc9ce9270900013b950d,,1621015,108,,evan-feature22,full_pf_b,,1
83,5595,109,,,,1,1,1.0,0.0,0.0,1.0,,0.0-111.0,,0.0,391.0000001,1.0,0.39909721299999995,0.0,0.6715179509999999,1.0,0.742310028,1.0,0.35496088299999995,False,,5b0abc9ce9270900013b950d,,1631171,109,,evan-feature22,full_pf_b,,1
84,5596,110,,,,2,2,1.0,0.0,0.0,1.0,,0.0-112.0,,0.0,1424.0,1.0,0.37956104799999996,1.0,0.694725302,1.0,0.7181651309999999,0.0,0.38726906299999997,False,,5b0abc9ce9270900013b950d,,1642361,110,,evan-feature22,full_pf_b,,1
85,5597,111,,,,1,1,1.0,0.0,0.0,1.0,,0.0-113.0,,0.0,477.9999999,1.0,0.404995034,0.0,0.724375412,1.0,0.6910946859999999,0.0,0.387187347,False,,5b0abc9ce9270900013b950d,,1652604,111,,evan-feature22,full_pf_b,,1
86,5598,112,,,,2,2,1.0,0.0,0.0,1.0,,0.0-114.0,,0.0,617.0000001,0.0,0.461740803,1.0,0.75,1.0,0.75,0.0,0.34872038200000005,False,,5b0abc9ce9270900013b950d,,1662983,112,,evan-feature22,full_pf_b,,1
87,5599,113,,,,2,2,1.0,1.0,-1.0,0.0,,0.0-115.0,,-1.0,479.0000001,0.0,0.43821380600000004,1.0,0.738833273,1.0,0.728286963,1.0,0.399538128,False,,5b0abc9ce9270900013b950d,,1673236,113,,evan-feature22,full_pf_b,,0
88,5600,114,,,,1,1,0.0,1.0,0.0,1.0,,0.0-116.0,,1.0,946.9999999,0.0,0.41709882,1.0,0.736666736,0.0,0.75,1.0,0.389095584,False,,5b0abc9ce9270900013b950d,,1683947,114,,evan-feature22,full_pf_b,,1
89,5601,115,,,,2,2,1.0,0.0,0.0,1.0,,0.0-117.0,,0.0,689.0,0.0,0.39749009799999996,1.0,0.744320029,1.0,0.75,0.0,0.363848678,False,,5b0abc9ce9270900013b950d,,1694397,115,,evan-feature22,full_pf_b,,1
90,5602,116,,,,1,1,0.0,1.0,-1.0,0.0,,0.0-118.0,,0.0,588.9999999,0.0,0.392653706,1.0,0.75,0.0,0.75,0.0,0.384386976,False,,5b0abc9ce9270900013b950d,,1704748,116,,evan-feature22,full_pf_b,,1
91,5603,117,,,,1,1,0.0,1.0,-1.0,0.0,,0.0-119.0,,0.0,1573.0,0.0,0.31190902600000003,1.0,0.75,1.0,0.732413819,1.0,0.413082932,False,,5b0abc9ce9270900013b950d,,1716084,117,,evan-feature22,full_pf_b,,0
92,5604,118,,,,2,2,1.0,0.0,0.0,1.0,,0.0-120.0,,0.0,1833.0,0.0,0.366917648,1.0,0.740073855,1.0,0.75,0.0,0.352861979,False,,5b0abc9ce9270900013b950d,,1727679,118,,evan-feature22,full_pf_b,,1
93,5605,119,,,,1,1,0.0,1.0,0.0,1.0,,0.0-121.0,,1.0,1414.0,0.0,0.3645172,1.0,0.721770713,0.0,0.75,0.0,0.404074511,False,,5b0abc9ce9270900013b950d,,1738859,119,,evan-feature22,full_pf_b,,1
94,5606,120,,,,1,1,0.0,1.0,0.0,1.0,,0.0-122.0,,1.0,504.00000020000004,0.0,0.35205600299999995,1.0,0.68983859,1.0,0.739735447,1.0,0.366895945,False,,5b0abc9ce9270900013b950d,,1749126,120,,evan-feature22,full_pf_b,,0
95,5607,121,,,,1,1,0.0,1.0,0.0,1.0,,0.0-123.0,,1.0,916.0,0.0,0.40998722600000004,1.0,0.720859127,1.0,0.673854955,0.0,0.368528541,False,,5b0abc9ce9270900013b950d,,1759806,121,,evan-feature22,full_pf_b,,0
96,5608,122,,,,2,2,1.0,0.0,-1.0,0.0,,0.0-124.0,,-1.0,1308.0,0.0,0.353625316,1.0,0.75,1.0,0.695605473,0.0,0.38303674200000004,False,,5b0abc9ce9270900013b950d,,1770874,122,,evan-feature22,full_pf_b,,1
97,5609,123,,,,1,1,1.0,0.0,0.0,1.0,,0.0-125.0,,0.0,1224.0,1.0,0.359216989,0.0,0.75,1.0,0.6987915090000001,1.0,0.35169046200000004,False,,5b0abc9ce9270900013b950d,,1781858,123,,evan-feature22,full_pf_b,,1
98,5610,124,,,,2,2,0.0,0.0,-1.0,0.0,,0.0-126.0,,0.0,559.9999998,0.0,0.35834496899999996,1.0,0.75,0.0,0.707067742,0.0,0.416763636,False,,5b0abc9ce9270900013b950d,,1792179,124,,evan-feature22,full_pf_b,,1
99,5611,125,,,,2,2,1.0,0.0,-1.0,0.0,,0.0-127.0,,-1.0,997.0000002,0.0,0.38741613799999997,1.0,0.7177369570000001,1.0,0.734902455,0.0,0.49438664299999996,False,,5b0abc9ce9270900013b950d,,1802943,125,,evan-feature22,full_pf_b,,0
100,5612,126,,,,1,1,0.0,1.0,0.0,1.0,,0.0-128.0,,1.0,852.9999999,0.0,0.405255252,1.0,0.7300466640000001,1.0,0.7027748070000001,0.0,0.504359668,False,,5b0abc9ce9270900013b950d,,1813561,126,,evan-feature22,full_pf_b,,1
101,5613,127,,,,1,1,0.0,1.0,0.0,1.0,,0.0-129.0,,1.0,912.0,0.0,0.40697073,1.0,0.7260142190000001,0.0,0.724461982,1.0,0.522779179,False,,5b0abc9ce9270900013b950d,,1824241,127,,evan-feature22,full_pf_b,,0
102,5614,128,,,,1,1,0.0,0.0,0.0,1.0,,0.0-130.0,,0.0,410.0000001,0.0,0.43906215299999996,0.0,0.7252802340000001,1.0,0.719079934,1.0,0.5712990579999999,False,,5b0abc9ce9270900013b950d,,1834413,128,,evan-feature22,full_pf_b,,0
103,5615,129,,,,1,1,1.0,1.0,0.0,1.0,,0.0-131.0,,1.0,922.0,1.0,0.4076705,1.0,0.73280499,1.0,0.681313127,1.0,0.523891346,False,,5b0abc9ce9270900013b950d,,1845098,129,,evan-feature22,full_pf_b,,0
104,5616,130,,,,1,1,0.0,1.0,0.0,1.0,,0.0-132.0,,1.0,792.0000001,0.0,0.399102911,1.0,0.730498344,1.0,0.661080239,1.0,0.46742603,False,,5b0abc9ce9270900013b950d,,1855654,130,,evan-feature22,full_pf_b,,0
105,5617,131,,,,1,1,0.0,0.0,-1.0,0.0,,0.0-133.0,,0.0,1326.0,0.0,0.356477282,0.0,0.712296395,0.0,0.641812684,0.0,0.44868414,False,,5b0abc9ce9270900013b950d,,1866743,131,,evan-feature22,full_pf_b,,0
106,5618,132,,,,2,2,0.0,1.0,0.0,1.0,,0.0-134.0,,1.0,741.9999999,1.0,0.462760722,1.0,0.692349322,0.0,0.700947931,1.0,0.394680266,False,,5b0abc9ce9270900013b950d,,1877250,132,,evan-feature22,full_pf_b,,1
107,5619,133,,,,2,2,1.0,0.0,0.0,1.0,,0.0-135.0,,0.0,460.0,0.0,0.422306413,1.0,0.718375916,1.0,0.706340917,0.0,0.367787185,False,,5b0abc9ce9270900013b950d,,1887479,133,,evan-feature22,full_pf_b,,0
108,5621,135,,,,1,1,0.0,0.0,0.0,1.0,,0.0-137.0,,0.0,638.0,0.0,0.4582233,0.0,0.643834117,1.0,0.75,0.0,0.39615823299999997,False,,5b0abc9ce9270900013b950d,,1923549,135,,evan-feature22,full_pf_b,,1
109,5622,136,,,,2,2,0.0,0.0,0.0,1.0,,0.0-138.0,,0.0,399.0,1.0,0.43813437899999996,1.0,0.651283804,0.0,0.729674191,0.0,0.37711048,False,,5b0abc9ce9270900013b950d,,1933707,136,,evan-feature22,full_pf_b,,1
110,5623,137,,,,2,2,1.0,0.0,0.0,1.0,,0.0-139.0,,0.0,554.9999999,0.0,0.471199094,1.0,0.6470010979999999,1.0,0.715008097,0.0,0.410656191,False,,5b0abc9ce9270900013b950d,,1944022,137,,evan-feature22,full_pf_b,,0
111,5624,138,,,,2,2,1.0,1.0,-1.0,0.0,,0.0-140.0,,-1.0,1006.0,0.0,0.42486406,1.0,0.629771829,1.0,0.6550939960000001,1.0,0.459093873,False,,5b0abc9ce9270900013b950d,,1954796,138,,evan-feature22,full_pf_b,,0
112,5625,139,,,,2,2,0.0,1.0,-1.0,0.0,,0.0-141.0,,0.0,1958.0,1.0,0.4803197,1.0,0.645842715,0.0,0.6421749920000001,1.0,0.443092151,False,,5b0abc9ce9270900013b950d,,1966520,139,,evan-feature22,full_pf_b,,0
113,5626,140,,,,2,2,0.0,1.0,-1.0,0.0,,0.0-142.0,,0.0,511.00000020000004,0.0,0.521848997,1.0,0.735801074,0.0,0.6691348460000001,1.0,0.45259351600000003,False,,5b0abc9ce9270900013b950d,,1976793,140,,evan-feature22,full_pf_b,,0
114,5627,141,,,,1,1,0.0,0.0,0.0,1.0,,0.0-143.0,,0.0,1036.0,0.0,0.49565621299999996,0.0,0.742400847,0.0,0.661512553,0.0,0.483110831,False,,5b0abc9ce9270900013b950d,,1987587,141,,evan-feature22,full_pf_b,,1
115,5628,142,,,,1,1,1.0,0.0,-1.0,0.0,,0.0-144.0,,-1.0,933.0,1.0,0.521564361,0.0,0.731078632,0.0,0.6774886809999999,0.0,0.483263956,False,,5b0abc9ce9270900013b950d,,1998282,142,,evan-feature22,full_pf_b,,0
116,5629,143,,,,2,2,1.0,0.0,-1.0,0.0,,0.0-145.0,,-1.0,750.9999999,0.0,0.558893102,1.0,0.719810023,1.0,0.67461031,0.0,0.499349834,False,,5b0abc9ce9270900013b950d,,2008798,143,,evan-feature22,full_pf_b,,1
117,5630,144,,,,1,1,0.0,0.0,0.0,1.0,,0.0-146.0,,0.0,592.9999999,0.0,0.611031046,0.0,0.75,1.0,0.688072995,1.0,0.5321422729999999,False,,5b0abc9ce9270900013b950d,,2019151,144,,evan-feature22,full_pf_b,,1
118,5631,145,,,,2,2,1.0,1.0,-1.0,0.0,,0.0-147.0,,-1.0,823.0000001,1.0,0.633223941,1.0,0.713567728,1.0,0.75,1.0,0.48185314700000004,False,,5b0abc9ce9270900013b950d,,2029739,145,,evan-feature22,full_pf_b,,1
119,5632,146,,,,1,1,0.0,1.0,-1.0,0.0,,0.0-148.0,,0.0,1037.0,0.0,0.664001694,1.0,0.705509768,1.0,0.75,0.0,0.500211065,False,,5b0abc9ce9270900013b950d,,2040540,146,,evan-feature22,full_pf_b,,1
120,5633,147,,,,2,2,1.0,0.0,0.0,1.0,,0.0-149.0,,0.0,760.0,1.0,0.664001694,0.0,0.705509768,1.0,0.75,0.0,0.500211065,False,,5b0abc9ce9270900013b950d,,2051062,147,,evan-feature22,full_pf_b,,1
121,5634,148,,,,1,1,1.0,1.0,0.0,1.0,,0.0-150.0,,1.0,2929.0,1.0,0.696508041,1.0,0.71066027,1.0,0.717028709,1.0,0.49792991,False,,5b0abc9ce9270900013b950d,,2063760,148,,evan-feature22,full_pf_b,,1
122,5635,149,,,,2,2,1.0,0.0,-1.0,0.0,,0.0-151.0,,-1.0,458.0000001,1.0,0.699883272,0.0,0.75,1.0,0.713543895,0.0,0.496962643,False,,5b0abc9ce9270900013b950d,,2073982,149,,evan-feature22,full_pf_b,,1
123,5636,150,,,,1,1,1.0,0.0,0.0,1.0,,0.0-152.0,,0.0,1134.0,1.0,0.741163419,0.0,0.75,1.0,0.64691024,1.0,0.513858197,False,,5b0abc9ce9270900013b950d,,2084881,150,,evan-feature22,full_pf_b,,1
124,5637,151,,,,2,2,0.0,1.0,-1.0,0.0,,0.0-153.0,,0.0,1168.0,1.0,0.75,0.0,0.70816558,0.0,0.594499079,1.0,0.48502124,False,,5b0abc9ce9270900013b950d,,2095812,151,,evan-feature22,full_pf_b,,1
125,5638,152,,,,1,1,1.0,1.0,0.0,1.0,,0.0-154.0,,1.0,669.0,1.0,0.75,1.0,0.721848901,0.0,0.62197249,0.0,0.48263586399999997,False,,5b0abc9ce9270900013b950d,,2106243,152,,evan-feature22,full_pf_b,,1
126,5639,153,,,,1,1,1.0,1.0,-1.0,0.0,,0.0-155.0,,-1.0,1201.0,1.0,0.75,1.0,0.74813071,0.0,0.584357161,1.0,0.411477782,False,,5b0abc9ce9270900013b950d,,2117203,153,,evan-feature22,full_pf_b,,0
127,5640,154,,,,2,2,1.0,1.0,0.0,1.0,,0.0-156.0,,1.0,1352.0,1.0,0.75,1.0,0.75,1.0,0.52287236,1.0,0.488290656,False,,5b0abc9ce9270900013b950d,,2128315,154,,evan-feature22,full_pf_b,,1
128,5641,155,,,,1,1,1.0,1.0,0.0,1.0,,0.0-157.0,,1.0,1196.0,1.0,0.75,1.0,0.75,0.0,0.544321581,0.0,0.53143059,False,,5b0abc9ce9270900013b950d,,2139278,155,,evan-feature22,full_pf_b,,1
129,5642,156,,,,1,1,1.0,1.0,0.0,1.0,,0.0-158.0,,1.0,1066.0,1.0,0.726754564,1.0,0.75,1.0,0.5129306370000001,1.0,0.530592445,False,,5b0abc9ce9270900013b950d,,2150109,156,,evan-feature22,full_pf_b,,0
130,5643,157,,,,2,2,1.0,1.0,-1.0,0.0,,0.0-159.0,,-1.0,1478.0,0.0,0.75,1.0,0.7392590729999999,1.0,0.479875835,1.0,0.547007051,False,,5b0abc9ce9270900013b950d,,2161347,157,,evan-feature22,full_pf_b,,1
131,5644,158,,,,2,2,1.0,0.0,-1.0,0.0,,0.0-160.0,,-1.0,929.9999999,0.0,0.75,1.0,0.7393376979999999,1.0,0.546045419,0.0,0.541267353,False,,5b0abc9ce9270900013b950d,,2172049,158,,evan-feature22,full_pf_b,,0
132,5645,159,,,,1,1,0.0,0.0,-1.0,0.0,,0.0-161.0,,0.0,2286.0,0.0,0.75,0.0,0.75,0.0,0.485725895,1.0,0.527625395,False,,5b0abc9ce9270900013b950d,,2184097,159,,evan-feature22,full_pf_b,,1
133,5646,160,,,,1,1,1.0,1.0,0.0,1.0,,0.0-162.0,,1.0,961.0000001,1.0,0.75,1.0,0.725087974,1.0,0.488603595,0.0,0.504019206,False,,5b0abc9ce9270900013b950d,,2194822,160,,evan-feature22,full_pf_b,,0
134,5647,161,,,,1,1,1.0,0.0,0.0,1.0,,0.0-163.0,,0.0,1132.0,1.0,0.745504295,0.0,0.75,0.0,0.452379914,0.0,0.50131194,False,,5b0abc9ce9270900013b950d,,2205719,161,,evan-feature22,full_pf_b,,0
135,5648,162,,,,1,1,1.0,1.0,0.0,1.0,,0.0-164.0,,1.0,511.9999999,1.0,0.728513874,1.0,0.75,1.0,0.44125567200000004,1.0,0.531454591,False,,5b0abc9ce9270900013b950d,,2215998,162,,evan-feature22,full_pf_b,,0
136,5649,163,,,,1,1,1.0,1.0,-1.0,0.0,,0.0-165.0,,-1.0,1402.0,1.0,0.73790804,1.0,0.75,1.0,0.413036656,0.0,0.524619035,False,,5b0abc9ce9270900013b950d,,2227168,163,,evan-feature22,full_pf_b,,0
137,5650,164,,,,1,1,1.0,1.0,0.0,1.0,,0.0-166.0,,1.0,3188.0,1.0,0.7080961309999999,1.0,0.708666865,0.0,0.431915581,1.0,0.481819489,False,,5b0abc9ce9270900013b950d,,2240119,164,,evan-feature22,full_pf_b,,0
138,5651,165,,,,1,1,1.0,1.0,0.0,1.0,,0.0-167.0,,1.0,934.9999998,1.0,0.721378003,1.0,0.71605913,0.0,0.36642387,0.0,0.5036739929999999,False,,5b0abc9ce9270900013b950d,,2250817,165,,evan-feature22,full_pf_b,,0
139,5652,166,,,,2,2,1.0,0.0,0.0,1.0,,0.0-168.0,,0.0,580.0000001,1.0,0.7340618959999999,1.0,0.699323252,1.0,0.35298046299999997,0.0,0.511241692,False,,5b0abc9ce9270900013b950d,,2261160,166,,evan-feature22,full_pf_b,,1
140,5653,167,,,,1,1,1.0,1.0,-1.0,0.0,,0.0-169.0,,-1.0,1811.0,1.0,0.75,1.0,0.70412698,0.0,0.380734814,1.0,0.529580116,False,,5b0abc9ce9270900013b950d,,2272734,167,,evan-feature22,full_pf_b,,1
141,5654,168,,,,1,1,1.0,0.0,0.0,1.0,,0.0-170.0,,0.0,1602.0,1.0,0.7436654909999999,0.0,0.711182751,1.0,0.41125331,0.0,0.49554405,False,,5b0abc9ce9270900013b950d,,2284101,168,,evan-feature22,full_pf_b,,0
142,5655,169,,,,1,1,1.0,1.0,0.0,1.0,,0.0-171.0,,1.0,816.9999998,1.0,0.731607915,1.0,0.651774583,1.0,0.35688023,0.0,0.45194491600000003,False,,5b0abc9ce9270900013b950d,,2294681,169,,evan-feature22,full_pf_b,,0
143,5656,170,,,,1,1,1.0,0.0,-1.0,0.0,,0.0-172.0,,-1.0,464.00000020000004,1.0,0.75,0.0,0.75,0.0,0.283145374,1.0,0.528608005,False,,5b0abc9ce9270900013b950d,,2304908,170,,evan-feature22,full_pf_b,,0
144,5657,171,,,,1,1,0.0,0.0,-1.0,0.0,,0.0-173.0,,0.0,704.9999998,0.0,0.7491416890000001,0.0,0.7423785959999999,0.0,0.29135870399999997,0.0,0.498888318,False,,5b0abc9ce9270900013b950d,,2315374,171,,evan-feature22,full_pf_b,,0
145,5658,172,,,,1,1,0.0,0.0,-1.0,0.0,,0.0-174.0,,0.0,696.9999999,0.0,0.708569387,0.0,0.717682277,1.0,0.294421699,0.0,0.493838163,False,,5b0abc9ce9270900013b950d,,2325833,172,,evan-feature22,full_pf_b,,0
146,5659,173,,,,1,1,1.0,1.0,0.0,1.0,,0.0-175.0,,1.0,491.00000020000004,1.0,0.75,1.0,0.7383382159999999,0.0,0.356098707,0.0,0.442533405,False,,5b0abc9ce9270900013b950d,,2336092,173,,evan-feature22,full_pf_b,,0
147,5660,174,,,,1,1,1.0,0.0,0.0,1.0,,0.0-176.0,,0.0,753.0,1.0,0.744527075,0.0,0.75,0.0,0.334127506,1.0,0.393165805,False,,5b0abc9ce9270900013b950d,,2346605,174,,evan-feature22,full_pf_b,,0
148,5661,175,,,,1,1,1.0,1.0,0.0,1.0,,0.0-177.0,,1.0,571.0,1.0,0.75,1.0,0.75,0.0,0.33571021799999995,1.0,0.350393962,False,,5b0abc9ce9270900013b950d,,2356943,175,,evan-feature22,full_pf_b,,0
149,5662,176,,,,2,2,0.0,0.0,0.0,1.0,,0.0-178.0,,0.0,1942.0,1.0,0.75,0.0,0.75,0.0,0.313628297,0.0,0.36349657399999996,False,,5b0abc9ce9270900013b950d,,2368644,176,,evan-feature22,full_pf_b,,1
150,5663,177,,,,2,2,0.0,0.0,-1.0,0.0,,0.0-179.0,,0.0,1204.0,1.0,0.75,1.0,0.734284182,0.0,0.262667667,0.0,0.380199119,False,,5b0abc9ce9270900013b950d,,2379610,177,,evan-feature22,full_pf_b,,0
151,5664,178,,,,1,1,0.0,1.0,0.0,1.0,,0.0-180.0,,1.0,1931.0,0.0,0.75,1.0,0.75,0.0,0.25,1.0,0.394494013,False,,5b0abc9ce9270900013b950d,,2391307,178,,evan-feature22,full_pf_b,,1
152,5665,179,,,,2,2,1.0,0.0,-1.0,0.0,,0.0-181.0,,-1.0,180.9999999,1.0,0.722298145,0.0,0.7357822340000001,1.0,0.25,0.0,0.319142121,False,,5b0abc9ce9270900013b950d,,2401252,179,,evan-feature22,full_pf_b,,1
153,5666,180,,,,1,1,1.0,1.0,-1.0,0.0,,0.0-182.0,,-1.0,876.0000002,1.0,0.73149275,1.0,0.724276446,1.0,0.305856907,0.0,0.281315057,False,,5b0abc9ce9270900013b950d,,2411896,180,,evan-feature22,full_pf_b,,1
154,5667,181,,,,1,1,1.0,1.0,0.0,1.0,,0.0-183.0,,1.0,421.0000001,1.0,0.7458732690000001,1.0,0.7336382459999999,0.0,0.272571964,0.0,0.266021999,False,,5b0abc9ce9270900013b950d,,2422077,181,,evan-feature22,full_pf_b,,0
155,5668,182,,,,1,1,1.0,1.0,0.0,1.0,,0.0-184.0,,1.0,499.0000001,1.0,0.705579037,1.0,0.720778292,0.0,0.320238144,0.0,0.30971744,False,,5b0abc9ce9270900013b950d,,2432338,182,,evan-feature22,full_pf_b,,0
156,5669,183,,,,1,1,1.0,0.0,0.0,1.0,,0.0-185.0,,0.0,575.0000002,1.0,0.700425648,0.0,0.7198784009999999,0.0,0.272590393,0.0,0.304182931,False,,5b0abc9ce9270900013b950d,,2442677,183,,evan-feature22,full_pf_b,,0
157,5670,184,,,,1,1,0.0,0.0,0.0,1.0,,0.0-186.0,,0.0,705.0000001,0.0,0.735590785,0.0,0.722714973,0.0,0.25,1.0,0.323421091,False,,5b0abc9ce9270900013b950d,,2453141,184,,evan-feature22,full_pf_b,,0
158,5671,185,,,,1,1,1.0,1.0,0.0,1.0,,0.0-187.0,,1.0,597.0000001,1.0,0.724807662,1.0,0.63146213,1.0,0.36836492600000004,1.0,0.34592153299999995,False,,5b0abc9ce9270900013b950d,,2463502,185,,evan-feature22,full_pf_b,,0
159,5672,186,,,,1,1,0.0,0.0,0.0,1.0,,0.0-188.0,,0.0,823.0000001,0.0,0.7352796909999999,0.0,0.555111392,1.0,0.36003922,0.0,0.31433779999999995,False,,5b0abc9ce9270900013b950d,,2474090,186,,evan-feature22,full_pf_b,,0
160,5673,187,notice,,,,,,,,,,0.0-189.0,"{""Q0"":""no""}",,37382.0,,,,,,,,,False,,5b0abc9ce9270900013b950d,,2511475,187,Q,survey-text,full_pf_b,,1
161,5674,188,track1,,[1],,,,,,,,0.0-190.0,"{""Q0"":""no""}",,5185.0,,,,,,,,,False,,5b0abc9ce9270900013b950d,,2516667,188,Q,evan-quiz,full_pf_b,,1
162,5675,189,track2,,[0],,,,,,,,0.0-191.0,"{""Q0"":""yes""}",,7173.0,,,,,,,,,False,,5b0abc9ce9270900013b950d,,2523845,189,Q,evan-quiz,full_pf_b,,1
163,5676,190,strat,,,,,,,,,,0.0-192.0,"{""Q0"":""if it was a black one i would normally go for g""}",,14278.0,,,,,,,,,False,,5b0abc9ce9270900013b950d,,2538128,190,Q,survey-text,full_pf_b,,1
