,index,Unnamed: 0,Q_name,button_pressed,choice_idxs,chosen_pos,chosen_state,chosen_state_f_1_outcome,chosen_state_f_2_outcome,f_1_reward,f_2_reward,incor_questions,internal_node_id,responses,reward_received,rt,s_1_f_1_outcome,s_1_f_1_prob,s_1_f_2_outcome,s_1_f_2_prob,s_2_f_1_outcome,s_2_f_1_prob,s_2_f_2_outcome,s_2_f_2_prob,safe_first,stimulus,subjectID,success,time_elapsed,trial_index,trial_num,trial_type,version,view_history,switching
0,35265,25,,,,2,2,0.0,0.0,0.0,-1.0,,0.0-27.0,,0.0,1351.02,0.0,0.6,1.0,0.6,0.0,0.4,0.0,0.4,False,,5f2a531e8a626e22c1f1d9ad,,561498,25,,evan-feature22,full_pf_a,,0
1,35266,26,,,,2,2,1.0,1.0,0.0,-1.0,,0.0-28.0,,-1.0,151.3650001,0.0,0.608053294,1.0,0.63424552,1.0,0.397152172,1.0,0.347069101,False,,5f2a531e8a626e22c1f1d9ad,,571490,26,,evan-feature22,full_pf_a,,0
2,35267,27,,,,2,2,0.0,0.0,0.0,-1.0,,0.0-29.0,,0.0,977.73,1.0,0.642237155,1.0,0.648566321,0.0,0.389407674,0.0,0.285525717,False,,5f2a531e8a626e22c1f1d9ad,,582314,27,,evan-feature22,full_pf_a,,0
3,35268,28,,,,2,2,0.0,1.0,0.0,-1.0,,0.0-30.0,,-1.0,787.6,1.0,0.661086576,1.0,0.630492543,0.0,0.399058924,1.0,0.25,False,,5f2a531e8a626e22c1f1d9ad,,592990,28,,evan-feature22,full_pf_a,,0
4,35269,29,,,,1,1,1.0,0.0,0.0,-1.0,,0.0-31.0,,0.0,705.33,1.0,0.631324137,0.0,0.6269842929999999,1.0,0.38734784299999997,1.0,0.25,False,,5f2a531e8a626e22c1f1d9ad,,603567,29,,evan-feature22,full_pf_a,,1
5,35270,30,,,,1,1,1.0,1.0,0.0,-1.0,,0.0-32.0,,-1.0,658.695,1.0,0.6381991370000001,1.0,0.68987999,1.0,0.384107265,0.0,0.271332943,False,,5f2a531e8a626e22c1f1d9ad,,614063,30,,evan-feature22,full_pf_a,,0
6,35271,31,,,,2,2,1.0,0.0,0.0,-1.0,,0.0-33.0,,0.0,1463.35,1.0,0.66034901,1.0,0.742641349,1.0,0.360225629,0.0,0.25,False,,5f2a531e8a626e22c1f1d9ad,,625378,31,,evan-feature22,full_pf_a,,1
7,35272,32,,,,2,2,1.0,0.0,1.0,0.0,,0.0-34.0,,1.0,670.88,0.0,0.638612418,0.0,0.75,1.0,0.367273939,0.0,0.25,False,,5f2a531e8a626e22c1f1d9ad,,635893,32,,evan-feature22,full_pf_a,,0
8,35273,33,,,,2,2,0.0,1.0,0.0,-1.0,,0.0-35.0,,-1.0,1015.495,0.0,0.624340629,1.0,0.75,0.0,0.425829545,1.0,0.25,False,,5f2a531e8a626e22c1f1d9ad,,646763,33,,evan-feature22,full_pf_a,,0
9,35274,34,,,,1,1,1.0,1.0,0.0,-1.0,,0.0-36.0,,-1.0,660.155,1.0,0.621999804,1.0,0.75,1.0,0.368609357,0.0,0.25,False,,5f2a531e8a626e22c1f1d9ad,,657279,34,,evan-feature22,full_pf_a,,1
10,35275,35,,,,2,2,1.0,0.0,1.0,0.0,,0.0-37.0,,1.0,399.725,1.0,0.62666403,0.0,0.75,1.0,0.311151498,0.0,0.25,False,,5f2a531e8a626e22c1f1d9ad,,667548,35,,evan-feature22,full_pf_a,,1
11,35276,36,,,,2,2,0.0,0.0,1.0,0.0,,0.0-38.0,,0.0,573.985,0.0,0.6819650009999999,1.0,0.75,0.0,0.310763048,0.0,0.25,False,,5f2a531e8a626e22c1f1d9ad,,677974,36,,evan-feature22,full_pf_a,,0
12,35277,37,,,,2,2,0.0,0.0,0.0,-1.0,,0.0-39.0,,0.0,339.435,0.0,0.740626951,0.0,0.75,0.0,0.25,0.0,0.25,False,,5f2a531e8a626e22c1f1d9ad,,688165,37,,evan-feature22,full_pf_a,,0
13,35278,38,,,,2,2,0.0,0.0,0.0,-1.0,,0.0-40.0,,0.0,265.705,1.0,0.739599242,1.0,0.742034978,0.0,0.25397114600000004,0.0,0.25,False,,5f2a531e8a626e22c1f1d9ad,,698270,38,,evan-feature22,full_pf_a,,0
14,35279,39,,,,2,2,0.0,0.0,0.0,-1.0,,0.0-41.0,,0.0,838.075,0.0,0.732341315,0.0,0.72735643,0.0,0.25,0.0,0.25,False,,5f2a531e8a626e22c1f1d9ad,,708934,39,,evan-feature22,full_pf_a,,0
15,35280,40,,,,2,2,0.0,1.0,0.0,-1.0,,0.0-42.0,,-1.0,429.38,0.0,0.7062287770000001,0.0,0.75,0.0,0.29002151,1.0,0.288256649,False,,5f2a531e8a626e22c1f1d9ad,,719231,40,,evan-feature22,full_pf_a,,0
16,35281,41,,,,1,1,1.0,1.0,1.0,0.0,,0.0-43.0,,1.0,441.47,1.0,0.7086029209999999,1.0,0.75,0.0,0.274129113,0.0,0.262851608,False,,5f2a531e8a626e22c1f1d9ad,,729507,41,,evan-feature22,full_pf_a,,1
17,35282,42,,,,1,1,0.0,1.0,0.0,-1.0,,0.0-44.0,,-1.0,897.435,0.0,0.669189651,1.0,0.727614338,0.0,0.298444036,0.0,0.296944518,False,,5f2a531e8a626e22c1f1d9ad,,740260,42,,evan-feature22,full_pf_a,,0
18,35283,43,,,,2,2,0.0,0.0,1.0,0.0,,0.0-45.0,,0.0,652.56,0.0,0.6819912929999999,1.0,0.7179434290000001,0.0,0.265003961,0.0,0.28157921199999997,False,,5f2a531e8a626e22c1f1d9ad,,750727,43,,evan-feature22,full_pf_a,,1
19,35284,44,,,,2,2,0.0,0.0,1.0,0.0,,0.0-46.0,,0.0,579.17,1.0,0.665275002,1.0,0.723065271,0.0,0.260414971,0.0,0.30973870000000003,False,,5f2a531e8a626e22c1f1d9ad,,761161,44,,evan-feature22,full_pf_a,,0
20,35285,45,,,,2,2,1.0,0.0,0.0,-1.0,,0.0-47.0,,0.0,805.6,0.0,0.6660593260000001,0.0,0.728032907,1.0,0.30922817,0.0,0.338778608,False,,5f2a531e8a626e22c1f1d9ad,,771796,45,,evan-feature22,full_pf_a,,0
21,35286,46,,,,2,2,0.0,0.0,0.0,-1.0,,0.0-48.0,,0.0,777.35,1.0,0.702068785,1.0,0.6528750879999999,0.0,0.287329608,0.0,0.35789613200000003,False,,5f2a531e8a626e22c1f1d9ad,,782400,46,,evan-feature22,full_pf_a,,0
22,35287,47,,,,2,2,0.0,0.0,0.0,-1.0,,0.0-49.0,,0.0,424.54,1.0,0.651939787,1.0,0.636725589,0.0,0.284834488,0.0,0.358563756,False,,5f2a531e8a626e22c1f1d9ad,,792681,47,,evan-feature22,full_pf_a,,0
23,35288,48,,,,2,2,0.0,0.0,0.0,-1.0,,0.0-50.0,,0.0,644.7,0.0,0.67573929,0.0,0.612550049,0.0,0.37130387600000003,0.0,0.383542402,False,,5f2a531e8a626e22c1f1d9ad,,803167,48,,evan-feature22,full_pf_a,,0
24,35289,49,,,,2,2,0.0,0.0,0.0,-1.0,,0.0-51.0,,0.0,432.545,1.0,0.620753801,0.0,0.60513644,0.0,0.385529434,0.0,0.340361743,False,,5f2a531e8a626e22c1f1d9ad,,813425,49,,evan-feature22,full_pf_a,,0
25,35290,50,,,,1,1,0.0,1.0,1.0,0.0,,0.0-52.0,,0.0,93.375,0.0,0.673564893,1.0,0.672437924,0.0,0.292955382,0.0,0.337633795,False,,5f2a531e8a626e22c1f1d9ad,,823399,50,,evan-feature22,full_pf_a,,1
26,35291,51,,,,1,1,1.0,1.0,0.0,-1.0,,0.0-53.0,,-1.0,275.36,1.0,0.6749427,1.0,0.724197502,0.0,0.32391132100000003,1.0,0.350995264,False,,5f2a531e8a626e22c1f1d9ad,,833508,51,,evan-feature22,full_pf_a,,0
27,35292,52,,,,1,1,1.0,1.0,0.0,-1.0,,0.0-54.0,,-1.0,1006.9,1.0,0.6940159379999999,1.0,0.75,1.0,0.31710554399999996,1.0,0.413450341,False,,5f2a531e8a626e22c1f1d9ad,,844359,52,,evan-feature22,full_pf_a,,0
28,35293,53,,,,2,2,0.0,0.0,0.0,-1.0,,0.0-55.0,,0.0,330.885,1.0,0.6916018270000001,0.0,0.69001187,0.0,0.261817804,0.0,0.40038635,False,,5f2a531e8a626e22c1f1d9ad,,854523,53,,evan-feature22,full_pf_a,,1
29,35294,54,,,,1,1,1.0,1.0,0.0,-1.0,,0.0-56.0,,-1.0,391.045,1.0,0.641061544,1.0,0.71337992,0.0,0.277296461,1.0,0.47372791700000005,False,,5f2a531e8a626e22c1f1d9ad,,864784,54,,evan-feature22,full_pf_a,,1
30,35295,55,,,,1,1,1.0,0.0,0.0,-1.0,,0.0-57.0,,0.0,425.195,1.0,0.6082438520000001,0.0,0.708471106,0.0,0.28745137,1.0,0.564174476,False,,5f2a531e8a626e22c1f1d9ad,,875064,55,,evan-feature22,full_pf_a,,0
31,35296,56,,,,1,1,1.0,0.0,1.0,0.0,,0.0-58.0,,1.0,1004.06,1.0,0.6051112120000001,0.0,0.7118147229999999,0.0,0.272390611,0.0,0.5595149939999999,False,,5f2a531e8a626e22c1f1d9ad,,885945,56,,evan-feature22,full_pf_a,,0
32,35297,57,,,,1,1,0.0,1.0,1.0,0.0,,0.0-59.0,,0.0,389.425,0.0,0.582420852,1.0,0.635867583,1.0,0.31089574,1.0,0.5227206520000001,False,,5f2a531e8a626e22c1f1d9ad,,896216,57,,evan-feature22,full_pf_a,,0
33,35298,58,,,,2,2,0.0,1.0,1.0,0.0,,0.0-60.0,,0.0,705.725,1.0,0.623195575,1.0,0.655026044,0.0,0.25,1.0,0.560387538,False,,5f2a531e8a626e22c1f1d9ad,,906779,58,,evan-feature22,full_pf_a,,1
34,35299,59,,,,2,2,1.0,1.0,0.0,-1.0,,0.0-61.0,,-1.0,1806.515,1.0,0.601889598,1.0,0.678198724,1.0,0.25,1.0,0.559922936,False,,5f2a531e8a626e22c1f1d9ad,,918416,59,,evan-feature22,full_pf_a,,0
35,35300,60,,,,2,2,0.0,1.0,1.0,0.0,,0.0-62.0,,0.0,414.755,0.0,0.601259914,0.0,0.704681482,0.0,0.33908969299999997,1.0,0.505003715,False,,5f2a531e8a626e22c1f1d9ad,,928689,60,,evan-feature22,full_pf_a,,0
36,35301,61,,,,1,1,1.0,1.0,1.0,0.0,,0.0-63.0,,1.0,1308.965,1.0,0.59645454,1.0,0.710437172,0.0,0.327441879,0.0,0.391749613,False,,5f2a531e8a626e22c1f1d9ad,,939896,61,,evan-feature22,full_pf_a,,1
37,35302,62,,,,1,1,1.0,1.0,0.0,-1.0,,0.0-64.0,,-1.0,401.15,1.0,0.529473,1.0,0.636758527,0.0,0.301338063,1.0,0.365661481,False,,5f2a531e8a626e22c1f1d9ad,,950181,62,,evan-feature22,full_pf_a,,0
38,35303,63,,,,2,2,1.0,1.0,1.0,0.0,,0.0-65.0,,1.0,962.77,0.0,0.541657162,1.0,0.634541962,1.0,0.343535366,1.0,0.371763742,False,,5f2a531e8a626e22c1f1d9ad,,960975,63,,evan-feature22,full_pf_a,,1
39,35304,64,,,,2,2,0.0,0.0,1.0,0.0,,0.0-66.0,,0.0,617.325,1.0,0.5707533260000001,1.0,0.589121171,0.0,0.326428396,0.0,0.43961622899999997,False,,5f2a531e8a626e22c1f1d9ad,,971405,64,,evan-feature22,full_pf_a,,0
40,35305,65,,,,2,2,1.0,0.0,0.0,-1.0,,0.0-67.0,,0.0,2558.0,1.0,0.5707533260000001,1.0,0.589121171,1.0,0.326428396,0.0,0.43961622899999997,False,,5f2a531e8a626e22c1f1d9ad,,983815,65,,evan-feature22,full_pf_a,,0
41,35306,66,,,,2,2,1.0,0.0,0.0,-1.0,,0.0-68.0,,0.0,768.46,1.0,0.506271295,1.0,0.641775594,1.0,0.37149690700000004,0.0,0.404330166,False,,5f2a531e8a626e22c1f1d9ad,,994453,66,,evan-feature22,full_pf_a,,0
42,35307,67,,,,2,2,1.0,1.0,1.0,0.0,,0.0-69.0,,1.0,955.965,0.0,0.455642565,0.0,0.623605825,1.0,0.358753011,1.0,0.346174041,False,,5f2a531e8a626e22c1f1d9ad,,1005255,67,,evan-feature22,full_pf_a,,0
43,35308,68,,,,2,2,0.0,0.0,0.0,-1.0,,0.0-70.0,,0.0,900.935,1.0,0.483677308,1.0,0.5904681070000001,0.0,0.402218411,0.0,0.35344697,False,,5f2a531e8a626e22c1f1d9ad,,1016015,68,,evan-feature22,full_pf_a,,0
44,35309,69,,,,1,1,0.0,0.0,1.0,0.0,,0.0-71.0,,0.0,694.145,0.0,0.394210977,0.0,0.558925494,1.0,0.540052017,1.0,0.35182128700000004,False,,5f2a531e8a626e22c1f1d9ad,,1026531,69,,evan-feature22,full_pf_a,,1
45,35310,70,,,,2,2,0.0,1.0,0.0,-1.0,,0.0-72.0,,-1.0,1024.82,0.0,0.382300414,0.0,0.577670603,0.0,0.607608448,1.0,0.378261578,False,,5f2a531e8a626e22c1f1d9ad,,1037411,70,,evan-feature22,full_pf_a,,1
46,35311,71,,,,1,1,0.0,1.0,1.0,0.0,,0.0-73.0,,0.0,1926.035,0.0,0.357596762,1.0,0.5929076529999999,1.0,0.6579790010000001,0.0,0.401326777,False,,5f2a531e8a626e22c1f1d9ad,,1049202,71,,evan-feature22,full_pf_a,,1
47,35312,72,,,,2,2,1.0,0.0,0.0,-1.0,,0.0-74.0,,0.0,361.665,0.0,0.362033495,1.0,0.582308608,1.0,0.649195052,0.0,0.355158505,False,,5f2a531e8a626e22c1f1d9ad,,1059407,72,,evan-feature22,full_pf_a,,1
48,35313,73,,,,2,2,1.0,0.0,0.0,-1.0,,0.0-75.0,,0.0,650.34,1.0,0.369620635,1.0,0.669100864,1.0,0.706059111,0.0,0.362516241,False,,5f2a531e8a626e22c1f1d9ad,,1069880,73,,evan-feature22,full_pf_a,,0
49,35314,74,,,,2,2,1.0,0.0,0.0,-1.0,,0.0-76.0,,0.0,633.575,0.0,0.41477751399999996,1.0,0.7284416779999999,1.0,0.7182656940000001,0.0,0.36228040899999997,False,,5f2a531e8a626e22c1f1d9ad,,1080346,74,,evan-feature22,full_pf_a,,0
50,35315,75,,,,2,2,1.0,0.0,1.0,0.0,,0.0-77.0,,1.0,763.3,0.0,0.37675460299999997,0.0,0.703250285,1.0,0.75,0.0,0.461979164,False,,5f2a531e8a626e22c1f1d9ad,,1090952,75,,evan-feature22,full_pf_a,,0
51,35316,76,,,,2,2,1.0,1.0,1.0,0.0,,0.0-78.0,,1.0,701.855,1.0,0.398716075,0.0,0.6723864890000001,1.0,0.674153818,1.0,0.519029516,False,,5f2a531e8a626e22c1f1d9ad,,1101509,76,,evan-feature22,full_pf_a,,0
52,35317,77,,,,2,2,1.0,0.0,1.0,0.0,,0.0-79.0,,1.0,1436.435,1.0,0.34677856700000004,0.0,0.69057175,1.0,0.6822438540000001,0.0,0.477292237,False,,5f2a531e8a626e22c1f1d9ad,,1112802,77,,evan-feature22,full_pf_a,,0
53,35318,78,,,,2,2,1.0,1.0,0.0,-1.0,,0.0-80.0,,-1.0,1447.38,1.0,0.28580469199999997,0.0,0.68408818,1.0,0.684207565,1.0,0.49780448299999996,False,,5f2a531e8a626e22c1f1d9ad,,1124095,78,,evan-feature22,full_pf_a,,0
54,35320,80,,,,1,1,0.0,0.0,0.0,-1.0,,0.0-82.0,,0.0,1117.355,0.0,0.25,0.0,0.7405808970000001,1.0,0.679614108,1.0,0.436436964,False,,5f2a531e8a626e22c1f1d9ad,,1139321,80,,evan-feature22,full_pf_a,,1
55,35321,81,,,,1,1,0.0,1.0,0.0,-1.0,,0.0-83.0,,-1.0,1516.56,0.0,0.29890393,1.0,0.730505706,1.0,0.7328203320000001,1.0,0.439256938,False,,5f2a531e8a626e22c1f1d9ad,,1150671,81,,evan-feature22,full_pf_a,,0
56,35322,82,,,,2,2,0.0,0.0,1.0,0.0,,0.0-84.0,,0.0,735.055,0.0,0.326762398,1.0,0.7148059609999999,0.0,0.75,0.0,0.44389608799999997,False,,5f2a531e8a626e22c1f1d9ad,,1161271,82,,evan-feature22,full_pf_a,,1
57,35323,83,,,,2,2,0.0,0.0,0.0,-1.0,,0.0-85.0,,0.0,973.28,0.0,0.295168515,1.0,0.739760854,0.0,0.719947008,0.0,0.35277284600000003,False,,5f2a531e8a626e22c1f1d9ad,,1172092,83,,evan-feature22,full_pf_a,,0
58,35324,84,,,,2,2,0.0,0.0,0.0,-1.0,,0.0-86.0,,0.0,1469.455,1.0,0.25,1.0,0.70781482,0.0,0.75,0.0,0.286095925,False,,5f2a531e8a626e22c1f1d9ad,,1183423,84,,evan-feature22,full_pf_a,,0
59,35325,85,,,,2,2,1.0,0.0,0.0,-1.0,,0.0-87.0,,0.0,1176.13,0.0,0.25638190899999996,1.0,0.704088163,1.0,0.75,0.0,0.26872601399999996,False,,5f2a531e8a626e22c1f1d9ad,,1194446,85,,evan-feature22,full_pf_a,,0
60,35326,86,,,,2,2,1.0,1.0,1.0,0.0,,0.0-88.0,,1.0,623.365,0.0,0.271581126,0.0,0.669760107,1.0,0.733896663,1.0,0.273244572,False,,5f2a531e8a626e22c1f1d9ad,,1204913,86,,evan-feature22,full_pf_a,,0
61,35327,87,,,,2,2,1.0,0.0,0.0,-1.0,,0.0-89.0,,0.0,872.66,0.0,0.257144401,1.0,0.600575706,1.0,0.74488122,0.0,0.25,False,,5f2a531e8a626e22c1f1d9ad,,1215635,87,,evan-feature22,full_pf_a,,0
62,35328,88,,,,2,2,1.0,0.0,0.0,-1.0,,0.0-90.0,,0.0,1197.615,0.0,0.25,0.0,0.616870026,1.0,0.723610234,0.0,0.25,False,,5f2a531e8a626e22c1f1d9ad,,1226684,88,,evan-feature22,full_pf_a,,0
63,35329,89,,,,2,2,0.0,0.0,1.0,0.0,,0.0-91.0,,0.0,1326.7,0.0,0.25,1.0,0.583540187,0.0,0.7041042559999999,0.0,0.285961995,False,,5f2a531e8a626e22c1f1d9ad,,1237864,89,,evan-feature22,full_pf_a,,0
64,35330,90,,,,2,2,1.0,0.0,1.0,0.0,,0.0-92.0,,1.0,1130.7,0.0,0.27254536,0.0,0.53875765,1.0,0.693783448,0.0,0.284961652,False,,5f2a531e8a626e22c1f1d9ad,,1248844,90,,evan-feature22,full_pf_a,,0
65,35331,91,,,,2,2,1.0,0.0,1.0,0.0,,0.0-93.0,,1.0,575.89,0.0,0.25,1.0,0.548431252,1.0,0.734221895,0.0,0.279445214,False,,5f2a531e8a626e22c1f1d9ad,,1259313,91,,evan-feature22,full_pf_a,,0
66,35332,92,,,,2,2,1.0,0.0,0.0,-1.0,,0.0-94.0,,0.0,794.585,1.0,0.258640684,0.0,0.545878066,1.0,0.725245965,0.0,0.31487537,False,,5f2a531e8a626e22c1f1d9ad,,1269947,92,,evan-feature22,full_pf_a,,0
67,35333,93,,,,2,2,1.0,0.0,0.0,-1.0,,0.0-95.0,,0.0,1040.44,0.0,0.251103711,1.0,0.5776290629999999,1.0,0.696320133,0.0,0.317831047,False,,5f2a531e8a626e22c1f1d9ad,,1280868,93,,evan-feature22,full_pf_a,,0
68,35334,94,,,,2,2,1.0,0.0,0.0,-1.0,,0.0-96.0,,0.0,1931.895,0.0,0.276630292,0.0,0.617329858,1.0,0.73838088,0.0,0.261471582,False,,5f2a531e8a626e22c1f1d9ad,,1292634,94,,evan-feature22,full_pf_a,,0
69,35335,95,,,,2,2,1.0,0.0,0.0,-1.0,,0.0-97.0,,0.0,567.4,1.0,0.297716424,0.0,0.618863717,1.0,0.7402358259999999,0.0,0.262600834,False,,5f2a531e8a626e22c1f1d9ad,,1303019,95,,evan-feature22,full_pf_a,,0
70,35336,96,,,,2,2,1.0,0.0,1.0,0.0,,0.0-98.0,,1.0,1034.64,0.0,0.290935512,1.0,0.695370945,1.0,0.706570507,0.0,0.280030553,False,,5f2a531e8a626e22c1f1d9ad,,1313892,96,,evan-feature22,full_pf_a,,0
71,35337,97,,,,2,2,0.0,0.0,0.0,-1.0,,0.0-99.0,,0.0,512.645,1.0,0.25,1.0,0.6465277079999999,0.0,0.67766682,0.0,0.25,False,,5f2a531e8a626e22c1f1d9ad,,1324254,97,,evan-feature22,full_pf_a,,0
72,35338,98,,,,2,2,0.0,0.0,1.0,0.0,,0.0-100.0,,0.0,939.785,1.0,0.26463816,1.0,0.636100213,0.0,0.646048507,0.0,0.265607101,False,,5f2a531e8a626e22c1f1d9ad,,1335039,98,,evan-feature22,full_pf_a,,0
73,35339,99,,,,1,1,0.0,0.0,1.0,0.0,,0.0-101.0,,0.0,693.28,0.0,0.314340707,0.0,0.667795927,1.0,0.613630805,1.0,0.25,False,,5f2a531e8a626e22c1f1d9ad,,1345573,99,,evan-feature22,full_pf_a,,1
74,35340,100,,,,2,2,0.0,0.0,0.0,-1.0,,0.0-102.0,,0.0,1797.935,1.0,0.28685784,1.0,0.6622549529999999,0.0,0.652154117,0.0,0.25,False,,5f2a531e8a626e22c1f1d9ad,,1357197,100,,evan-feature22,full_pf_a,,1
75,35341,101,,,,2,2,0.0,0.0,0.0,-1.0,,0.0-103.0,,0.0,898.025,0.0,0.304106554,1.0,0.631289538,0.0,0.707041942,0.0,0.29314237,False,,5f2a531e8a626e22c1f1d9ad,,1367922,101,,evan-feature22,full_pf_a,,0
76,35342,102,,,,2,2,1.0,1.0,0.0,-1.0,,0.0-104.0,,-1.0,577.015,1.0,0.304806932,0.0,0.571167718,1.0,0.680472346,1.0,0.25,False,,5f2a531e8a626e22c1f1d9ad,,1378351,102,,evan-feature22,full_pf_a,,0
77,35343,103,,,,1,1,0.0,1.0,0.0,-1.0,,0.0-105.0,,-1.0,1246.96,0.0,0.37919861,1.0,0.5724849710000001,1.0,0.705638003,0.0,0.30179300600000003,False,,5f2a531e8a626e22c1f1d9ad,,1389421,103,,evan-feature22,full_pf_a,,1
78,35344,104,,,,2,2,1.0,0.0,0.0,-1.0,,0.0-106.0,,0.0,488.875,0.0,0.464277969,0.0,0.554034373,1.0,0.7372627340000001,0.0,0.264699741,False,,5f2a531e8a626e22c1f1d9ad,,1399797,104,,evan-feature22,full_pf_a,,1
79,35345,105,,,,2,2,1.0,0.0,0.0,-1.0,,0.0-107.0,,0.0,487.805,1.0,0.465104323,1.0,0.530793115,1.0,0.75,0.0,0.31683071,False,,5f2a531e8a626e22c1f1d9ad,,1410154,105,,evan-feature22,full_pf_a,,0
80,35346,106,,,,2,2,1.0,1.0,1.0,0.0,,0.0-108.0,,1.0,597.115,1.0,0.465104323,1.0,0.530793115,1.0,0.75,1.0,0.31683071,False,,5f2a531e8a626e22c1f1d9ad,,1420596,106,,evan-feature22,full_pf_a,,0
81,35347,107,,,,2,2,0.0,0.0,1.0,0.0,,0.0-109.0,,0.0,375.34,0.0,0.46833986,1.0,0.570249239,0.0,0.7244472590000001,0.0,0.364114163,False,,5f2a531e8a626e22c1f1d9ad,,1430842,107,,evan-feature22,full_pf_a,,0
82,35348,108,,,,2,2,1.0,0.0,1.0,0.0,,0.0-110.0,,1.0,863.1,0.0,0.445444024,1.0,0.649673355,1.0,0.6845441290000001,0.0,0.300660449,False,,5f2a531e8a626e22c1f1d9ad,,1441543,108,,evan-feature22,full_pf_a,,0
83,35349,109,,,,2,2,1.0,0.0,1.0,0.0,,0.0-111.0,,1.0,529.795,0.0,0.39909721299999995,1.0,0.6715179509999999,1.0,0.742310028,0.0,0.35496088299999995,False,,5f2a531e8a626e22c1f1d9ad,,1451887,109,,evan-feature22,full_pf_a,,0
84,35350,110,,,,2,2,0.0,0.0,0.0,-1.0,,0.0-112.0,,0.0,253.29,0.0,0.37956104799999996,1.0,0.694725302,0.0,0.7181651309999999,0.0,0.38726906299999997,False,,5f2a531e8a626e22c1f1d9ad,,1461962,110,,evan-feature22,full_pf_a,,0
85,35351,111,,,,2,2,1.0,0.0,0.0,-1.0,,0.0-113.0,,0.0,973.93,1.0,0.404995034,1.0,0.724375412,1.0,0.6910946859999999,0.0,0.387187347,False,,5f2a531e8a626e22c1f1d9ad,,1472810,111,,evan-feature22,full_pf_a,,0
86,35352,112,,,,2,2,0.0,0.0,1.0,0.0,,0.0-114.0,,0.0,267.34,0.0,0.461740803,1.0,0.75,0.0,0.75,0.0,0.34872038200000005,False,,5f2a531e8a626e22c1f1d9ad,,1482899,112,,evan-feature22,full_pf_a,,0
87,35353,113,,,,2,2,1.0,0.0,1.0,0.0,,0.0-115.0,,1.0,552.85,0.0,0.43821380600000004,1.0,0.738833273,1.0,0.728286963,0.0,0.399538128,False,,5f2a531e8a626e22c1f1d9ad,,1493343,113,,evan-feature22,full_pf_a,,0
88,35354,114,,,,2,2,1.0,0.0,0.0,-1.0,,0.0-116.0,,0.0,812.06,1.0,0.41709882,1.0,0.736666736,1.0,0.75,0.0,0.389095584,False,,5f2a531e8a626e22c1f1d9ad,,1504015,114,,evan-feature22,full_pf_a,,0
89,35355,115,,,,2,2,0.0,0.0,0.0,-1.0,,0.0-117.0,,0.0,270.95,1.0,0.39749009799999996,1.0,0.744320029,0.0,0.75,0.0,0.363848678,False,,5f2a531e8a626e22c1f1d9ad,,1514122,115,,evan-feature22,full_pf_a,,0
90,35356,116,,,,2,2,1.0,1.0,1.0,0.0,,0.0-118.0,,1.0,362.435,1.0,0.392653706,1.0,0.75,1.0,0.75,1.0,0.384386976,False,,5f2a531e8a626e22c1f1d9ad,,1524444,116,,evan-feature22,full_pf_a,,0
91,35357,117,,,,2,2,1.0,0.0,0.0,-1.0,,0.0-119.0,,0.0,329.735,0.0,0.31190902600000003,0.0,0.75,1.0,0.732413819,0.0,0.413082932,False,,5f2a531e8a626e22c1f1d9ad,,1534611,117,,evan-feature22,full_pf_a,,0
92,35358,118,,,,2,2,0.0,1.0,1.0,0.0,,0.0-120.0,,0.0,448.66,1.0,0.366917648,1.0,0.740073855,0.0,0.75,1.0,0.352861979,False,,5f2a531e8a626e22c1f1d9ad,,1544896,118,,evan-feature22,full_pf_a,,0
93,35359,119,,,,2,2,1.0,1.0,1.0,0.0,,0.0-121.0,,1.0,819.335,0.0,0.3645172,1.0,0.721770713,1.0,0.75,1.0,0.404074511,False,,5f2a531e8a626e22c1f1d9ad,,1555559,119,,evan-feature22,full_pf_a,,0
94,35360,120,,,,2,2,1.0,0.0,1.0,0.0,,0.0-122.0,,1.0,875.715,1.0,0.35205600299999995,1.0,0.68983859,1.0,0.739735447,0.0,0.366895945,False,,5f2a531e8a626e22c1f1d9ad,,1566274,120,,evan-feature22,full_pf_a,,0
95,35361,121,,,,2,2,0.0,0.0,1.0,0.0,,0.0-123.0,,0.0,583.105,1.0,0.40998722600000004,0.0,0.720859127,0.0,0.673854955,0.0,0.368528541,False,,5f2a531e8a626e22c1f1d9ad,,1576693,121,,evan-feature22,full_pf_a,,0
96,35362,122,,,,2,2,1.0,0.0,1.0,0.0,,0.0-124.0,,1.0,381.535,0.0,0.353625316,1.0,0.75,1.0,0.695605473,0.0,0.38303674200000004,False,,5f2a531e8a626e22c1f1d9ad,,1586929,122,,evan-feature22,full_pf_a,,0
97,35363,123,,,,2,2,1.0,1.0,1.0,0.0,,0.0-125.0,,1.0,547.05,1.0,0.359216989,1.0,0.75,1.0,0.6987915090000001,1.0,0.35169046200000004,False,,5f2a531e8a626e22c1f1d9ad,,1597335,123,,evan-feature22,full_pf_a,,0
98,35364,124,,,,2,2,0.0,0.0,1.0,0.0,,0.0-126.0,,0.0,491.245,0.0,0.35834496899999996,0.0,0.75,0.0,0.707067742,0.0,0.416763636,False,,5f2a531e8a626e22c1f1d9ad,,1607642,124,,evan-feature22,full_pf_a,,0
99,35365,125,,,,2,2,1.0,0.0,0.0,-1.0,,0.0-127.0,,0.0,598.05,1.0,0.38741613799999997,1.0,0.7177369570000001,1.0,0.734902455,0.0,0.49438664299999996,False,,5f2a531e8a626e22c1f1d9ad,,1618086,125,,evan-feature22,full_pf_a,,0
100,35366,126,,,,2,2,0.0,1.0,1.0,0.0,,0.0-128.0,,0.0,639.145,0.0,0.405255252,1.0,0.7300466640000001,0.0,0.7027748070000001,1.0,0.504359668,False,,5f2a531e8a626e22c1f1d9ad,,1628568,126,,evan-feature22,full_pf_a,,0
101,35367,127,,,,2,2,1.0,1.0,1.0,0.0,,0.0-129.0,,1.0,563.53,0.0,0.40697073,0.0,0.7260142190000001,1.0,0.724461982,1.0,0.522779179,False,,5f2a531e8a626e22c1f1d9ad,,1638998,127,,evan-feature22,full_pf_a,,0
102,35368,128,,,,2,2,1.0,0.0,1.0,0.0,,0.0-130.0,,1.0,630.56,0.0,0.43906215299999996,0.0,0.7252802340000001,1.0,0.719079934,0.0,0.5712990579999999,False,,5f2a531e8a626e22c1f1d9ad,,1649446,128,,evan-feature22,full_pf_a,,0
103,35369,129,,,,2,2,1.0,0.0,0.0,-1.0,,0.0-131.0,,0.0,386.555,1.0,0.4076705,0.0,0.73280499,1.0,0.681313127,0.0,0.523891346,False,,5f2a531e8a626e22c1f1d9ad,,1659696,129,,evan-feature22,full_pf_a,,0
104,35370,130,,,,2,2,1.0,1.0,0.0,-1.0,,0.0-132.0,,-1.0,369.9,0.0,0.399102911,0.0,0.730498344,1.0,0.661080239,1.0,0.46742603,False,,5f2a531e8a626e22c1f1d9ad,,1669917,130,,evan-feature22,full_pf_a,,0
105,35371,131,,,,1,1,0.0,1.0,0.0,-1.0,,0.0-133.0,,-1.0,1215.24,0.0,0.356477282,1.0,0.712296395,1.0,0.641812684,1.0,0.44868414,False,,5f2a531e8a626e22c1f1d9ad,,1681030,131,,evan-feature22,full_pf_a,,1
106,35372,132,,,,2,2,1.0,0.0,1.0,0.0,,0.0-134.0,,1.0,565.16,1.0,0.462760722,1.0,0.692349322,1.0,0.700947931,0.0,0.394680266,False,,5f2a531e8a626e22c1f1d9ad,,1691404,132,,evan-feature22,full_pf_a,,1
107,35373,133,,,,2,2,0.0,1.0,1.0,0.0,,0.0-135.0,,0.0,440.27,1.0,0.422306413,1.0,0.718375916,0.0,0.706340917,1.0,0.367787185,False,,5f2a531e8a626e22c1f1d9ad,,1701678,133,,evan-feature22,full_pf_a,,0
108,35375,135,,,,1,1,0.0,1.0,1.0,0.0,,0.0-137.0,,0.0,676.18,0.0,0.4582233,1.0,0.643834117,0.0,0.75,0.0,0.39615823299999997,False,,5f2a531e8a626e22c1f1d9ad,,1713924,135,,evan-feature22,full_pf_a,,1
109,35376,136,,,,2,2,1.0,1.0,1.0,0.0,,0.0-138.0,,1.0,579.195,1.0,0.43813437899999996,0.0,0.651283804,1.0,0.729674191,1.0,0.37711048,False,,5f2a531e8a626e22c1f1d9ad,,1724336,136,,evan-feature22,full_pf_a,,1
110,35377,137,,,,2,2,0.0,0.0,1.0,0.0,,0.0-139.0,,0.0,422.61,1.0,0.471199094,0.0,0.6470010979999999,0.0,0.715008097,0.0,0.410656191,False,,5f2a531e8a626e22c1f1d9ad,,1734579,137,,evan-feature22,full_pf_a,,0
111,35378,138,,,,1,1,1.0,0.0,1.0,0.0,,0.0-140.0,,1.0,755.12,1.0,0.42486406,0.0,0.629771829,1.0,0.6550939960000001,0.0,0.459093873,False,,5f2a531e8a626e22c1f1d9ad,,1745172,138,,evan-feature22,full_pf_a,,1
112,35379,139,,,,1,1,1.0,0.0,1.0,0.0,,0.0-141.0,,1.0,939.04,1.0,0.4803197,0.0,0.645842715,1.0,0.6421749920000001,0.0,0.443092151,False,,5f2a531e8a626e22c1f1d9ad,,1755946,139,,evan-feature22,full_pf_a,,0
113,35380,140,,,,1,1,0.0,1.0,0.0,-1.0,,0.0-142.0,,-1.0,1629.535,0.0,0.521848997,1.0,0.735801074,0.0,0.6691348460000001,1.0,0.45259351600000003,False,,5f2a531e8a626e22c1f1d9ad,,1767413,140,,evan-feature22,full_pf_a,,0
114,35381,141,,,,2,2,1.0,1.0,1.0,0.0,,0.0-143.0,,1.0,880.39,1.0,0.49565621299999996,1.0,0.742400847,1.0,0.661512553,1.0,0.483110831,False,,5f2a531e8a626e22c1f1d9ad,,1778137,141,,evan-feature22,full_pf_a,,1
115,35382,142,,,,2,2,0.0,0.0,1.0,0.0,,0.0-144.0,,0.0,1488.62,1.0,0.521564361,1.0,0.731078632,0.0,0.6774886809999999,0.0,0.483263956,False,,5f2a531e8a626e22c1f1d9ad,,1789458,142,,evan-feature22,full_pf_a,,0
116,35383,143,,,,2,2,0.0,0.0,1.0,0.0,,0.0-145.0,,0.0,1389.945,1.0,0.558893102,0.0,0.719810023,0.0,0.67461031,0.0,0.499349834,False,,5f2a531e8a626e22c1f1d9ad,,1800688,143,,evan-feature22,full_pf_a,,0
117,35384,144,,,,1,1,1.0,1.0,1.0,0.0,,0.0-146.0,,1.0,656.755,1.0,0.611031046,1.0,0.75,0.0,0.688072995,1.0,0.5321422729999999,False,,5f2a531e8a626e22c1f1d9ad,,1811203,144,,evan-feature22,full_pf_a,,1
118,35385,145,,,,2,2,1.0,0.0,0.0,-1.0,,0.0-147.0,,0.0,2012.575,1.0,0.633223941,1.0,0.713567728,1.0,0.75,0.0,0.48185314700000004,False,,5f2a531e8a626e22c1f1d9ad,,1823115,145,,evan-feature22,full_pf_a,,1
119,35386,146,,,,2,2,1.0,1.0,1.0,0.0,,0.0-148.0,,1.0,831.14,0.0,0.664001694,1.0,0.705509768,1.0,0.75,1.0,0.500211065,False,,5f2a531e8a626e22c1f1d9ad,,1833820,146,,evan-feature22,full_pf_a,,0
120,35387,147,,,,2,2,1.0,0.0,1.0,0.0,,0.0-149.0,,1.0,656.705,1.0,0.664001694,0.0,0.705509768,1.0,0.75,0.0,0.500211065,False,,5f2a531e8a626e22c1f1d9ad,,1844351,147,,evan-feature22,full_pf_a,,0
121,35388,148,,,,2,2,1.0,1.0,1.0,0.0,,0.0-150.0,,1.0,322.35,0.0,0.696508041,1.0,0.71066027,1.0,0.717028709,1.0,0.49792991,False,,5f2a531e8a626e22c1f1d9ad,,1854557,148,,evan-feature22,full_pf_a,,0
122,35389,149,,,,2,2,1.0,1.0,0.0,-1.0,,0.0-151.0,,-1.0,551.38,1.0,0.699883272,0.0,0.75,1.0,0.713543895,1.0,0.496962643,False,,5f2a531e8a626e22c1f1d9ad,,1864988,149,,evan-feature22,full_pf_a,,0
123,35390,150,,,,1,1,1.0,1.0,0.0,-1.0,,0.0-152.0,,-1.0,1676.085,1.0,0.741163419,1.0,0.75,1.0,0.64691024,0.0,0.513858197,False,,5f2a531e8a626e22c1f1d9ad,,1876527,150,,evan-feature22,full_pf_a,,1
124,35391,151,,,,2,2,0.0,0.0,0.0,-1.0,,0.0-153.0,,0.0,642.545,1.0,0.75,1.0,0.70816558,0.0,0.594499079,0.0,0.48502124,False,,5f2a531e8a626e22c1f1d9ad,,1886995,151,,evan-feature22,full_pf_a,,1
125,35392,152,,,,2,2,1.0,1.0,1.0,0.0,,0.0-154.0,,1.0,889.55,1.0,0.75,1.0,0.721848901,1.0,0.62197249,1.0,0.48263586399999997,False,,5f2a531e8a626e22c1f1d9ad,,1897745,152,,evan-feature22,full_pf_a,,0
126,35393,153,,,,2,2,1.0,1.0,1.0,0.0,,0.0-155.0,,1.0,446.32,1.0,0.75,1.0,0.74813071,1.0,0.584357161,1.0,0.411477782,False,,5f2a531e8a626e22c1f1d9ad,,1908025,153,,evan-feature22,full_pf_a,,0
127,35394,154,,,,2,2,0.0,0.0,1.0,0.0,,0.0-156.0,,0.0,381.255,1.0,0.75,1.0,0.75,0.0,0.52287236,0.0,0.488290656,False,,5f2a531e8a626e22c1f1d9ad,,1918246,154,,evan-feature22,full_pf_a,,0
128,35395,155,,,,1,1,1.0,1.0,1.0,0.0,,0.0-157.0,,1.0,1253.405,1.0,0.75,1.0,0.75,1.0,0.544321581,1.0,0.53143059,False,,5f2a531e8a626e22c1f1d9ad,,1929328,155,,evan-feature22,full_pf_a,,1
129,35396,156,,,,2,2,1.0,0.0,1.0,0.0,,0.0-158.0,,1.0,688.03,0.0,0.726754564,0.0,0.75,1.0,0.5129306370000001,0.0,0.530592445,False,,5f2a531e8a626e22c1f1d9ad,,1939866,156,,evan-feature22,full_pf_a,,1
130,35397,157,,,,2,2,0.0,0.0,0.0,-1.0,,0.0-159.0,,0.0,1239.095,1.0,0.75,1.0,0.7392590729999999,0.0,0.479875835,0.0,0.547007051,False,,5f2a531e8a626e22c1f1d9ad,,1950933,157,,evan-feature22,full_pf_a,,0
131,35398,158,,,,2,2,1.0,1.0,0.0,-1.0,,0.0-160.0,,-1.0,1320.18,1.0,0.75,1.0,0.7393376979999999,1.0,0.546045419,1.0,0.541267353,False,,5f2a531e8a626e22c1f1d9ad,,1962128,158,,evan-feature22,full_pf_a,,0
132,35399,159,,,,2,2,0.0,1.0,1.0,0.0,,0.0-161.0,,0.0,581.525,0.0,0.75,1.0,0.75,0.0,0.485725895,1.0,0.527625395,False,,5f2a531e8a626e22c1f1d9ad,,1972542,159,,evan-feature22,full_pf_a,,0
133,35400,160,,,,2,2,0.0,0.0,0.0,-1.0,,0.0-162.0,,0.0,993.635,1.0,0.75,1.0,0.725087974,0.0,0.488603595,0.0,0.504019206,False,,5f2a531e8a626e22c1f1d9ad,,1983358,160,,evan-feature22,full_pf_a,,0
134,35401,161,,,,2,2,1.0,0.0,1.0,0.0,,0.0-163.0,,1.0,1245.66,0.0,0.745504295,0.0,0.75,1.0,0.452379914,0.0,0.50131194,False,,5f2a531e8a626e22c1f1d9ad,,1994459,161,,evan-feature22,full_pf_a,,0
135,35402,162,,,,2,2,0.0,0.0,0.0,-1.0,,0.0-164.0,,0.0,1417.585,0.0,0.728513874,1.0,0.75,0.0,0.44125567200000004,0.0,0.531454591,False,,5f2a531e8a626e22c1f1d9ad,,2005720,162,,evan-feature22,full_pf_a,,0
136,35403,163,,,,2,2,1.0,1.0,1.0,0.0,,0.0-165.0,,1.0,657.645,0.0,0.73790804,1.0,0.75,1.0,0.413036656,1.0,0.524619035,False,,5f2a531e8a626e22c1f1d9ad,,2016228,163,,evan-feature22,full_pf_a,,0
137,35404,164,,,,2,2,0.0,1.0,1.0,0.0,,0.0-166.0,,0.0,782.17,1.0,0.7080961309999999,1.0,0.708666865,0.0,0.431915581,1.0,0.481819489,False,,5f2a531e8a626e22c1f1d9ad,,2026869,164,,evan-feature22,full_pf_a,,0
138,35405,165,,,,1,1,0.0,1.0,1.0,0.0,,0.0-167.0,,0.0,530.055,0.0,0.721378003,1.0,0.71605913,0.0,0.36642387,1.0,0.5036739929999999,False,,5f2a531e8a626e22c1f1d9ad,,2037255,165,,evan-feature22,full_pf_a,,1
139,35406,166,,,,2,2,0.0,0.0,0.0,-1.0,,0.0-168.0,,0.0,1357.99,0.0,0.7340618959999999,0.0,0.699323252,0.0,0.35298046299999997,0.0,0.511241692,False,,5f2a531e8a626e22c1f1d9ad,,2048432,166,,evan-feature22,full_pf_a,,1
140,35407,167,,,,2,2,1.0,1.0,0.0,-1.0,,0.0-169.0,,-1.0,1132.64,1.0,0.75,1.0,0.70412698,1.0,0.380734814,1.0,0.529580116,False,,5f2a531e8a626e22c1f1d9ad,,2059406,167,,evan-feature22,full_pf_a,,0
141,35408,168,,,,1,1,1.0,0.0,0.0,-1.0,,0.0-170.0,,0.0,1388.37,1.0,0.7436654909999999,0.0,0.711182751,1.0,0.41125331,1.0,0.49554405,False,,5f2a531e8a626e22c1f1d9ad,,2070646,168,,evan-feature22,full_pf_a,,1
142,35409,169,,,,2,2,0.0,0.0,1.0,0.0,,0.0-171.0,,0.0,859.315,1.0,0.731607915,0.0,0.651774583,0.0,0.35688023,0.0,0.45194491600000003,False,,5f2a531e8a626e22c1f1d9ad,,2081359,169,,evan-feature22,full_pf_a,,1
143,35410,170,,,,2,2,1.0,0.0,0.0,-1.0,,0.0-172.0,,0.0,2003.89,1.0,0.75,1.0,0.75,1.0,0.283145374,0.0,0.528608005,False,,5f2a531e8a626e22c1f1d9ad,,2093232,170,,evan-feature22,full_pf_a,,0
144,35411,171,,,,2,2,0.0,0.0,1.0,0.0,,0.0-173.0,,0.0,614.495,1.0,0.7491416890000001,1.0,0.7423785959999999,0.0,0.29135870399999997,0.0,0.498888318,False,,5f2a531e8a626e22c1f1d9ad,,2103695,171,,evan-feature22,full_pf_a,,0
145,35412,172,,,,2,2,0.0,1.0,0.0,-1.0,,0.0-174.0,,-1.0,1413.205,1.0,0.708569387,1.0,0.717682277,0.0,0.294421699,1.0,0.493838163,False,,5f2a531e8a626e22c1f1d9ad,,2114990,172,,evan-feature22,full_pf_a,,0
146,35413,173,,,,2,2,0.0,0.0,1.0,0.0,,0.0-175.0,,0.0,572.725,1.0,0.75,1.0,0.7383382159999999,0.0,0.356098707,0.0,0.442533405,False,,5f2a531e8a626e22c1f1d9ad,,2125380,173,,evan-feature22,full_pf_a,,0
147,35414,174,,,,1,1,1.0,0.0,1.0,0.0,,0.0-176.0,,1.0,479.225,1.0,0.744527075,0.0,0.75,0.0,0.334127506,0.0,0.393165805,False,,5f2a531e8a626e22c1f1d9ad,,2135683,174,,evan-feature22,full_pf_a,,1
148,35415,175,,,,1,1,1.0,1.0,1.0,0.0,,0.0-177.0,,1.0,707.4,1.0,0.75,1.0,0.75,1.0,0.33571021799999995,0.0,0.350393962,False,,5f2a531e8a626e22c1f1d9ad,,2146253,175,,evan-feature22,full_pf_a,,0
149,35416,176,,,,2,2,0.0,1.0,0.0,-1.0,,0.0-178.0,,-1.0,1079.725,1.0,0.75,1.0,0.75,0.0,0.313628297,1.0,0.36349657399999996,False,,5f2a531e8a626e22c1f1d9ad,,2157194,176,,evan-feature22,full_pf_a,,1
150,35417,177,,,,1,1,1.0,1.0,1.0,0.0,,0.0-179.0,,1.0,609.96,1.0,0.75,1.0,0.734284182,1.0,0.262667667,0.0,0.380199119,False,,5f2a531e8a626e22c1f1d9ad,,2167648,177,,evan-feature22,full_pf_a,,1
151,35418,178,,,,1,1,1.0,0.0,1.0,0.0,,0.0-180.0,,1.0,971.6,1.0,0.75,0.0,0.75,0.0,0.25,0.0,0.394494013,False,,5f2a531e8a626e22c1f1d9ad,,2178493,178,,evan-feature22,full_pf_a,,0
152,35419,179,,,,1,1,1.0,0.0,1.0,0.0,,0.0-181.0,,1.0,1014.91,1.0,0.722298145,0.0,0.7357822340000001,1.0,0.25,0.0,0.319142121,False,,5f2a531e8a626e22c1f1d9ad,,2189352,179,,evan-feature22,full_pf_a,,0
153,35420,180,,,,2,2,0.0,0.0,1.0,0.0,,0.0-182.0,,0.0,1189.56,1.0,0.73149275,1.0,0.724276446,0.0,0.305856907,0.0,0.281315057,False,,5f2a531e8a626e22c1f1d9ad,,2200392,180,,evan-feature22,full_pf_a,,1
154,35421,181,,,,1,1,1.0,0.0,1.0,0.0,,0.0-183.0,,1.0,774.965,1.0,0.7458732690000001,0.0,0.7336382459999999,1.0,0.272571964,0.0,0.266021999,False,,5f2a531e8a626e22c1f1d9ad,,2211009,181,,evan-feature22,full_pf_a,,1
155,35422,182,,,,2,2,0.0,1.0,0.0,-1.0,,0.0-184.0,,-1.0,1234.52,1.0,0.705579037,0.0,0.720778292,0.0,0.320238144,1.0,0.30971744,False,,5f2a531e8a626e22c1f1d9ad,,2222097,182,,evan-feature22,full_pf_a,,1
156,35423,183,,,,1,1,1.0,1.0,0.0,-1.0,,0.0-185.0,,-1.0,1283.935,1.0,0.700425648,1.0,0.7198784009999999,0.0,0.272590393,0.0,0.304182931,False,,5f2a531e8a626e22c1f1d9ad,,2233222,183,,evan-feature22,full_pf_a,,1
157,35424,184,,,,2,2,0.0,0.0,0.0,-1.0,,0.0-186.0,,0.0,737.04,1.0,0.735590785,1.0,0.722714973,0.0,0.25,0.0,0.323421091,False,,5f2a531e8a626e22c1f1d9ad,,2243783,184,,evan-feature22,full_pf_a,,1
158,35425,185,,,,2,2,0.0,1.0,0.0,-1.0,,0.0-187.0,,-1.0,879.71,0.0,0.724807662,1.0,0.63146213,0.0,0.36836492600000004,1.0,0.34592153299999995,False,,5f2a531e8a626e22c1f1d9ad,,2254502,185,,evan-feature22,full_pf_a,,0
159,35426,186,,,,2,2,0.0,0.0,1.0,0.0,,0.0-188.0,,0.0,953.35,0.0,0.7352796909999999,0.0,0.555111392,0.0,0.36003922,0.0,0.31433779999999995,False,,5f2a531e8a626e22c1f1d9ad,,2265276,186,,evan-feature22,full_pf_a,,0
160,35427,187,notice,,,,,,,,,,0.0-189.0,"{""Q0"":""no""}",,7956.0,,,,,,,,,False,,5f2a531e8a626e22c1f1d9ad,,2273236,187,Q,survey-text,full_pf_a,,1
161,35428,188,track1,,[1],,,,,,,,0.0-190.0,"{""Q0"":""no""}",,7451.0,,,,,,,,,False,,5f2a531e8a626e22c1f1d9ad,,2280704,188,Q,evan-quiz,full_pf_a,,1
162,35429,189,track2,,[0],,,,,,,,0.0-191.0,"{""Q0"":""yes""}",,9414.0,,,,,,,,,False,,5f2a531e8a626e22c1f1d9ad,,2290133,189,Q,evan-quiz,full_pf_a,,1
163,35430,190,strat,,,,,,,,,,0.0-192.0,"{""Q0"":""i tried track the black alien and avoid it at each round""}",,26682.0,,,,,,,,,False,,5f2a531e8a626e22c1f1d9ad,,2316835,190,Q,survey-text,full_pf_a,,1
