,index,Unnamed: 0,Q_name,button_pressed,choice_idxs,chosen_pos,chosen_state,chosen_state_f_1_outcome,chosen_state_f_2_outcome,f_1_reward,f_2_reward,incor_questions,internal_node_id,responses,reward_received,rt,s_1_f_1_outcome,s_1_f_1_prob,s_1_f_2_outcome,s_1_f_2_prob,s_2_f_1_outcome,s_2_f_1_prob,s_2_f_2_outcome,s_2_f_2_prob,safe_first,stimulus,subjectID,success,time_elapsed,trial_index,trial_num,trial_type,version,view_history,switching
0,2603,35,,,,1,1,1.0,0.0,0.0,-1.0,,0.0-27.0,,0.0,802.72,1.0,0.6,0.0,0.6,0.0,0.4,1.0,0.4,False,,5d60e3350393f90001015529,,594065,35,,evan-feature22,full_pf_a,,0
1,2604,36,,,,1,1,1.0,1.0,0.0,-1.0,,0.0-28.0,,-1.0,946.735,1.0,0.608053294,1.0,0.63424552,0.0,0.397152172,0.0,0.347069101,False,,5d60e3350393f90001015529,,604785,36,,evan-feature22,full_pf_a,,0
2,2605,37,,,,2,2,0.0,1.0,0.0,-1.0,,0.0-29.0,,-1.0,503.895,0.0,0.642237155,0.0,0.648566321,0.0,0.389407674,1.0,0.285525717,False,,5d60e3350393f90001015529,,615069,37,,evan-feature22,full_pf_a,,1
3,2606,38,,,,1,1,1.0,1.0,0.0,-1.0,,0.0-30.0,,-1.0,860.665,1.0,0.661086576,1.0,0.630492543,0.0,0.399058924,1.0,0.25,False,,5d60e3350393f90001015529,,625706,38,,evan-feature22,full_pf_a,,1
4,2607,39,,,,2,2,0.0,0.0,0.0,-1.0,,0.0-31.0,,0.0,508.78,0.0,0.631324137,0.0,0.6269842929999999,0.0,0.38734784299999997,0.0,0.25,False,,5d60e3350393f90001015529,,635986,39,,evan-feature22,full_pf_a,,1
5,2608,40,,,,1,1,1.0,0.0,0.0,-1.0,,0.0-32.0,,0.0,547.845,1.0,0.6381991370000001,0.0,0.68987999,0.0,0.384107265,1.0,0.271332943,False,,5d60e3350393f90001015529,,646314,40,,evan-feature22,full_pf_a,,1
6,2609,41,,,,1,1,0.0,1.0,0.0,-1.0,,0.0-33.0,,-1.0,2320.48,0.0,0.66034901,1.0,0.742641349,1.0,0.360225629,0.0,0.25,False,,5d60e3350393f90001015529,,658418,41,,evan-feature22,full_pf_a,,0
7,2610,42,,,,2,2,1.0,0.0,1.0,0.0,,0.0-34.0,,1.0,1043.33,0.0,0.638612418,1.0,0.75,1.0,0.367273939,0.0,0.25,False,,5d60e3350393f90001015529,,669242,42,,evan-feature22,full_pf_a,,1
8,2611,43,,,,2,2,1.0,1.0,0.0,-1.0,,0.0-35.0,,-1.0,793.68,0.0,0.624340629,0.0,0.75,1.0,0.425829545,1.0,0.25,False,,5d60e3350393f90001015529,,679816,43,,evan-feature22,full_pf_a,,0
9,2612,44,,,,1,1,0.0,1.0,0.0,-1.0,,0.0-36.0,,-1.0,2369.53,0.0,0.621999804,1.0,0.75,0.0,0.368609357,0.0,0.25,False,,5d60e3350393f90001015529,,691966,44,,evan-feature22,full_pf_a,,1
10,2613,45,,,,2,2,1.0,0.0,1.0,0.0,,0.0-37.0,,1.0,1602.195,0.0,0.62666403,1.0,0.75,1.0,0.311151498,0.0,0.25,False,,5d60e3350393f90001015529,,703344,45,,evan-feature22,full_pf_a,,1
11,2614,46,,,,2,2,0.0,0.0,1.0,0.0,,0.0-38.0,,0.0,1177.905,0.0,0.6819650009999999,0.0,0.75,0.0,0.310763048,0.0,0.25,False,,5d60e3350393f90001015529,,714298,46,,evan-feature22,full_pf_a,,0
12,2615,47,,,,2,2,0.0,1.0,0.0,-1.0,,0.0-39.0,,-1.0,1746.405,0.0,0.740626951,1.0,0.75,0.0,0.25,1.0,0.25,False,,5d60e3350393f90001015529,,725822,47,,evan-feature22,full_pf_a,,0
13,2616,48,,,,1,1,0.0,1.0,0.0,-1.0,,0.0-40.0,,-1.0,3377.43,0.0,0.739599242,1.0,0.742034978,0.0,0.25397114600000004,0.0,0.25,False,,5d60e3350393f90001015529,,738973,48,,evan-feature22,full_pf_a,,1
14,2617,49,,,,2,2,0.0,1.0,0.0,-1.0,,0.0-41.0,,-1.0,2684.32,1.0,0.732341315,1.0,0.72735643,0.0,0.25,1.0,0.25,False,,5d60e3350393f90001015529,,751440,49,,evan-feature22,full_pf_a,,1
15,2618,50,,,,2,2,0.0,0.0,0.0,-1.0,,0.0-42.0,,0.0,946.27,1.0,0.7062287770000001,1.0,0.75,0.0,0.29002151,0.0,0.288256649,False,,5d60e3350393f90001015529,,762174,50,,evan-feature22,full_pf_a,,0
16,2619,51,,,,2,2,0.0,0.0,1.0,0.0,,0.0-43.0,,0.0,1145.045,1.0,0.7086029209999999,0.0,0.75,0.0,0.274129113,0.0,0.262851608,False,,5d60e3350393f90001015529,,773099,51,,evan-feature22,full_pf_a,,0
17,2620,52,,,,2,2,0.0,0.0,0.0,-1.0,,0.0-44.0,,0.0,1219.87,1.0,0.669189651,0.0,0.727614338,0.0,0.298444036,0.0,0.296944518,False,,5d60e3350393f90001015529,,784091,52,,evan-feature22,full_pf_a,,0
18,2621,53,,,,2,2,1.0,0.0,1.0,0.0,,0.0-45.0,,1.0,1556.245,1.0,0.6819912929999999,0.0,0.7179434290000001,1.0,0.265003961,0.0,0.28157921199999997,False,,5d60e3350393f90001015529,,795425,53,,evan-feature22,full_pf_a,,0
19,2622,54,,,,2,2,0.0,1.0,1.0,0.0,,0.0-46.0,,0.0,1627.985,1.0,0.665275002,1.0,0.723065271,0.0,0.260414971,1.0,0.30973870000000003,False,,5d60e3350393f90001015529,,806824,54,,evan-feature22,full_pf_a,,0
20,2623,55,,,,2,2,1.0,1.0,0.0,-1.0,,0.0-47.0,,-1.0,1170.37,0.0,0.6660593260000001,0.0,0.728032907,1.0,0.30922817,1.0,0.338778608,False,,5d60e3350393f90001015529,,817769,55,,evan-feature22,full_pf_a,,0
21,2624,56,,,,2,2,0.0,1.0,0.0,-1.0,,0.0-48.0,,-1.0,1173.655,1.0,0.702068785,0.0,0.6528750879999999,0.0,0.287329608,1.0,0.35789613200000003,False,,5d60e3350393f90001015529,,828723,56,,evan-feature22,full_pf_a,,0
22,2625,57,,,,2,2,0.0,1.0,0.0,-1.0,,0.0-49.0,,-1.0,1339.885,0.0,0.651939787,0.0,0.636725589,0.0,0.284834488,1.0,0.358563756,False,,5d60e3350393f90001015529,,839842,57,,evan-feature22,full_pf_a,,0
23,2626,58,,,,2,2,0.0,0.0,0.0,-1.0,,0.0-50.0,,0.0,1161.08,1.0,0.67573929,0.0,0.612550049,0.0,0.37130387600000003,0.0,0.383542402,False,,5d60e3350393f90001015529,,850781,58,,evan-feature22,full_pf_a,,0
24,2627,59,,,,2,2,0.0,0.0,0.0,-1.0,,0.0-51.0,,0.0,948.175,0.0,0.620753801,1.0,0.60513644,0.0,0.385529434,0.0,0.340361743,False,,5d60e3350393f90001015529,,861510,59,,evan-feature22,full_pf_a,,0
25,2628,60,,,,2,2,0.0,0.0,1.0,0.0,,0.0-52.0,,0.0,1222.425,1.0,0.673564893,0.0,0.672437924,0.0,0.292955382,0.0,0.337633795,False,,5d60e3350393f90001015529,,872513,60,,evan-feature22,full_pf_a,,0
26,2629,61,,,,SLOW,SLOW,,,0.0,-1.0,,0.0-53.0,,-3.0,,1.0,0.6749427,0.0,0.724197502,0.0,0.32391132100000003,0.0,0.350995264,False,,5d60e3350393f90001015529,,878331,61,,evan-feature22,full_pf_a,,1
27,2630,62,,,,2,2,0.0,0.0,0.0,-1.0,,0.0-54.0,,0.0,3992.925,1.0,0.6940159379999999,0.0,0.75,0.0,0.31710554399999996,0.0,0.413450341,False,,5d60e3350393f90001015529,,892102,62,,evan-feature22,full_pf_a,,1
28,2631,63,,,,2,2,0.0,0.0,0.0,-1.0,,0.0-55.0,,0.0,2134.285,1.0,0.6916018270000001,0.0,0.69001187,0.0,0.261817804,0.0,0.40038635,False,,5d60e3350393f90001015529,,904011,63,,evan-feature22,full_pf_a,,0
29,2632,64,,,,2,2,0.0,1.0,0.0,-1.0,,0.0-56.0,,-1.0,1068.4,1.0,0.641061544,1.0,0.71337992,0.0,0.277296461,1.0,0.47372791700000005,False,,5d60e3350393f90001015529,,914864,64,,evan-feature22,full_pf_a,,0
30,2633,65,,,,1,1,1.0,1.0,0.0,-1.0,,0.0-57.0,,-1.0,1059.035,1.0,0.6082438520000001,1.0,0.708471106,0.0,0.28745137,1.0,0.564174476,False,,5d60e3350393f90001015529,,925696,65,,evan-feature22,full_pf_a,,1
31,2634,66,,,,1,1,1.0,1.0,1.0,0.0,,0.0-58.0,,1.0,1272.67,1.0,0.6051112120000001,1.0,0.7118147229999999,0.0,0.272390611,0.0,0.5595149939999999,False,,5d60e3350393f90001015529,,936747,66,,evan-feature22,full_pf_a,,0
32,2635,67,,,,1,1,0.0,1.0,1.0,0.0,,0.0-59.0,,0.0,468.29,0.0,0.582420852,1.0,0.635867583,0.0,0.31089574,1.0,0.5227206520000001,False,,5d60e3350393f90001015529,,946995,67,,evan-feature22,full_pf_a,,0
33,2636,68,,,,SLOW,SLOW,,,1.0,0.0,,0.0-60.0,,-3.0,,1.0,0.623195575,1.0,0.655026044,0.0,0.25,1.0,0.560387538,False,,5d60e3350393f90001015529,,952807,68,,evan-feature22,full_pf_a,,1
34,2637,69,,,,1,1,1.0,0.0,0.0,-1.0,,0.0-61.0,,0.0,1972.03,1.0,0.601889598,0.0,0.678198724,0.0,0.25,0.0,0.559922936,False,,5d60e3350393f90001015529,,964563,69,,evan-feature22,full_pf_a,,1
35,2638,70,,,,SLOW,SLOW,,,1.0,0.0,,0.0-62.0,,-3.0,,0.0,0.601259914,0.0,0.704681482,0.0,0.33908969299999997,0.0,0.505003715,False,,5d60e3350393f90001015529,,970374,70,,evan-feature22,full_pf_a,,1
36,2639,71,,,,2,2,1.0,0.0,1.0,0.0,,0.0-63.0,,1.0,422.98,1.0,0.59645454,1.0,0.710437172,1.0,0.327441879,0.0,0.391749613,False,,5d60e3350393f90001015529,,980575,71,,evan-feature22,full_pf_a,,1
37,2640,72,,,,2,2,0.0,0.0,0.0,-1.0,,0.0-64.0,,0.0,413.335,1.0,0.529473,1.0,0.636758527,0.0,0.301338063,0.0,0.365661481,False,,5d60e3350393f90001015529,,990768,72,,evan-feature22,full_pf_a,,0
38,2641,73,,,,2,2,1.0,1.0,1.0,0.0,,0.0-65.0,,1.0,1795.94,0.0,0.541657162,1.0,0.634541962,1.0,0.343535366,1.0,0.371763742,False,,5d60e3350393f90001015529,,1002348,73,,evan-feature22,full_pf_a,,0
39,2642,74,,,,1,1,1.0,0.0,1.0,0.0,,0.0-66.0,,1.0,930.085,1.0,0.5707533260000001,0.0,0.589121171,0.0,0.326428396,1.0,0.43961622899999997,False,,5d60e3350393f90001015529,,1013054,74,,evan-feature22,full_pf_a,,1
40,2643,75,,,,1,1,1.0,0.0,0.0,-1.0,,0.0-67.0,,0.0,3113.575,1.0,0.5707533260000001,0.0,0.589121171,0.0,0.326428396,0.0,0.43961622899999997,False,,5d60e3350393f90001015529,,1025950,75,,evan-feature22,full_pf_a,,0
41,2644,76,,,,1,1,0.0,1.0,0.0,-1.0,,0.0-68.0,,-1.0,884.24,0.0,0.506271295,1.0,0.641775594,0.0,0.37149690700000004,0.0,0.404330166,False,,5d60e3350393f90001015529,,1036615,76,,evan-feature22,full_pf_a,,0
42,2645,77,,,,SLOW,SLOW,,,1.0,0.0,,0.0-69.0,,-3.0,,0.0,0.455642565,1.0,0.623605825,0.0,0.358753011,0.0,0.346174041,False,,5d60e3350393f90001015529,,1042426,77,,evan-feature22,full_pf_a,,1
43,2646,78,,,,1,1,1.0,1.0,0.0,-1.0,,0.0-70.0,,-1.0,896.04,1.0,0.483677308,1.0,0.5904681070000001,0.0,0.402218411,0.0,0.35344697,False,,5d60e3350393f90001015529,,1053102,78,,evan-feature22,full_pf_a,,1
44,2647,79,,,,2,2,1.0,0.0,1.0,0.0,,0.0-71.0,,1.0,1890.21,1.0,0.394210977,0.0,0.558925494,1.0,0.540052017,0.0,0.35182128700000004,False,,5d60e3350393f90001015529,,1064771,79,,evan-feature22,full_pf_a,,1
45,2648,80,,,,2,2,0.0,0.0,0.0,-1.0,,0.0-72.0,,0.0,923.185,1.0,0.382300414,0.0,0.577670603,0.0,0.607608448,0.0,0.378261578,False,,5d60e3350393f90001015529,,1075476,80,,evan-feature22,full_pf_a,,0
46,2649,81,,,,2,2,1.0,0.0,1.0,0.0,,0.0-73.0,,1.0,590.48,0.0,0.357596762,0.0,0.5929076529999999,1.0,0.6579790010000001,0.0,0.401326777,False,,5d60e3350393f90001015529,,1085843,81,,evan-feature22,full_pf_a,,0
47,2650,82,,,,1,1,0.0,1.0,0.0,-1.0,,0.0-74.0,,-1.0,2632.64,0.0,0.362033495,1.0,0.582308608,0.0,0.649195052,0.0,0.355158505,False,,5d60e3350393f90001015529,,1098254,82,,evan-feature22,full_pf_a,,1
48,2651,83,,,,1,1,0.0,1.0,0.0,-1.0,,0.0-75.0,,-1.0,580.045,0.0,0.369620635,1.0,0.669100864,1.0,0.706059111,0.0,0.362516241,False,,5d60e3350393f90001015529,,1108616,83,,evan-feature22,full_pf_a,,0
49,2652,84,,,,2,2,1.0,0.0,0.0,-1.0,,0.0-76.0,,0.0,2505.255,0.0,0.41477751399999996,1.0,0.7284416779999999,1.0,0.7182656940000001,0.0,0.36228040899999997,False,,5d60e3350393f90001015529,,1120900,84,,evan-feature22,full_pf_a,,1
50,2653,85,,,,SLOW,SLOW,,,1.0,0.0,,0.0-77.0,,-3.0,,0.0,0.37675460299999997,0.0,0.703250285,0.0,0.75,1.0,0.461979164,False,,5d60e3350393f90001015529,,1126711,85,,evan-feature22,full_pf_a,,1
51,2654,86,,,,2,2,0.0,1.0,1.0,0.0,,0.0-78.0,,0.0,452.985,0.0,0.398716075,1.0,0.6723864890000001,0.0,0.674153818,1.0,0.519029516,False,,5d60e3350393f90001015529,,1136940,86,,evan-feature22,full_pf_a,,1
52,2655,87,,,,1,1,0.0,1.0,1.0,0.0,,0.0-79.0,,0.0,423.685,0.0,0.34677856700000004,1.0,0.69057175,0.0,0.6822438540000001,0.0,0.477292237,False,,5d60e3350393f90001015529,,1147133,87,,evan-feature22,full_pf_a,,1
53,2656,88,,,,2,2,1.0,1.0,0.0,-1.0,,0.0-80.0,,-1.0,1171.955,0.0,0.28580469199999997,1.0,0.68408818,1.0,0.684207565,1.0,0.49780448299999996,False,,5d60e3350393f90001015529,,1158091,88,,evan-feature22,full_pf_a,,1
54,2658,90,,,,1,1,0.0,1.0,0.0,-1.0,,0.0-82.0,,-1.0,938.555,0.0,0.25,1.0,0.7405808970000001,1.0,0.679614108,0.0,0.436436964,False,,5d60e3350393f90001015529,,1171979,90,,evan-feature22,full_pf_a,,1
55,2659,91,,,,2,2,1.0,1.0,0.0,-1.0,,0.0-83.0,,-1.0,2239.68,1.0,0.29890393,1.0,0.730505706,1.0,0.7328203320000001,1.0,0.439256938,False,,5d60e3350393f90001015529,,1184003,91,,evan-feature22,full_pf_a,,1
56,2660,92,,,,2,2,0.0,0.0,1.0,0.0,,0.0-84.0,,0.0,1667.55,1.0,0.326762398,1.0,0.7148059609999999,0.0,0.75,0.0,0.44389608799999997,False,,5d60e3350393f90001015529,,1195451,92,,evan-feature22,full_pf_a,,0
57,2661,93,,,,2,2,0.0,0.0,0.0,-1.0,,0.0-85.0,,0.0,544.165,0.0,0.295168515,1.0,0.739760854,0.0,0.719947008,0.0,0.35277284600000003,False,,5d60e3350393f90001015529,,1205771,93,,evan-feature22,full_pf_a,,0
58,2662,94,,,,1,1,0.0,0.0,0.0,-1.0,,0.0-86.0,,0.0,432.555,0.0,0.25,0.0,0.70781482,1.0,0.75,0.0,0.286095925,False,,5d60e3350393f90001015529,,1215983,94,,evan-feature22,full_pf_a,,1
59,2663,95,,,,1,1,0.0,0.0,0.0,-1.0,,0.0-87.0,,0.0,360.025,0.0,0.25638190899999996,0.0,0.704088163,1.0,0.75,0.0,0.26872601399999996,False,,5d60e3350393f90001015529,,1226118,95,,evan-feature22,full_pf_a,,0
60,2664,96,,,,1,1,0.0,1.0,1.0,0.0,,0.0-88.0,,0.0,507.915,0.0,0.271581126,1.0,0.669760107,1.0,0.733896663,0.0,0.273244572,False,,5d60e3350393f90001015529,,1236404,96,,evan-feature22,full_pf_a,,0
61,2665,97,,,,2,2,1.0,0.0,0.0,-1.0,,0.0-89.0,,0.0,357.99,0.0,0.257144401,0.0,0.600575706,1.0,0.74488122,0.0,0.25,False,,5d60e3350393f90001015529,,1246543,97,,evan-feature22,full_pf_a,,1
62,2666,98,,,,2,2,0.0,1.0,0.0,-1.0,,0.0-90.0,,-1.0,761.745,0.0,0.25,1.0,0.616870026,0.0,0.723610234,1.0,0.25,False,,5d60e3350393f90001015529,,1257085,98,,evan-feature22,full_pf_a,,0
63,2667,99,,,,1,1,1.0,1.0,1.0,0.0,,0.0-91.0,,1.0,1382.78,1.0,0.25,1.0,0.583540187,0.0,0.7041042559999999,0.0,0.285961995,False,,5d60e3350393f90001015529,,1268251,99,,evan-feature22,full_pf_a,,1
64,2668,100,,,,1,1,0.0,0.0,1.0,0.0,,0.0-92.0,,0.0,2613.98,0.0,0.27254536,0.0,0.53875765,0.0,0.693783448,0.0,0.284961652,False,,5d60e3350393f90001015529,,1280646,100,,evan-feature22,full_pf_a,,0
65,2669,101,,,,1,1,0.0,1.0,1.0,0.0,,0.0-93.0,,0.0,3373.56,0.0,0.25,1.0,0.548431252,1.0,0.734221895,0.0,0.279445214,False,,5d60e3350393f90001015529,,1293803,101,,evan-feature22,full_pf_a,,0
66,2670,102,,,,2,2,1.0,0.0,0.0,-1.0,,0.0-94.0,,0.0,2031.74,1.0,0.258640684,1.0,0.545878066,1.0,0.725245965,0.0,0.31487537,False,,5d60e3350393f90001015529,,1305613,102,,evan-feature22,full_pf_a,,1
67,2671,103,,,,2,2,1.0,0.0,0.0,-1.0,,0.0-95.0,,0.0,361.815,1.0,0.251103711,1.0,0.5776290629999999,1.0,0.696320133,0.0,0.317831047,False,,5d60e3350393f90001015529,,1315750,103,,evan-feature22,full_pf_a,,0
68,2672,104,,,,1,1,1.0,0.0,0.0,-1.0,,0.0-96.0,,0.0,439.4,1.0,0.276630292,0.0,0.617329858,1.0,0.73838088,1.0,0.261471582,False,,5d60e3350393f90001015529,,1325969,104,,evan-feature22,full_pf_a,,1
69,2673,105,,,,SLOW,SLOW,,,0.0,-1.0,,0.0-97.0,,-3.0,,0.0,0.297716424,1.0,0.618863717,1.0,0.7402358259999999,0.0,0.262600834,False,,5d60e3350393f90001015529,,1331782,105,,evan-feature22,full_pf_a,,1
70,2674,106,,,,2,2,1.0,1.0,1.0,0.0,,0.0-98.0,,1.0,1790.9,0.0,0.290935512,0.0,0.695370945,1.0,0.706570507,1.0,0.280030553,False,,5d60e3350393f90001015529,,1343357,106,,evan-feature22,full_pf_a,,1
71,2675,107,,,,2,2,1.0,0.0,0.0,-1.0,,0.0-99.0,,0.0,3604.2,1.0,0.25,1.0,0.6465277079999999,1.0,0.67766682,0.0,0.25,False,,5d60e3350393f90001015529,,1356739,107,,evan-feature22,full_pf_a,,0
72,2676,108,,,,2,2,0.0,0.0,1.0,0.0,,0.0-100.0,,0.0,1070.025,1.0,0.26463816,1.0,0.636100213,0.0,0.646048507,0.0,0.265607101,False,,5d60e3350393f90001015529,,1367589,108,,evan-feature22,full_pf_a,,0
73,2677,109,,,,1,1,0.0,1.0,1.0,0.0,,0.0-101.0,,0.0,595.4,0.0,0.314340707,1.0,0.667795927,1.0,0.613630805,0.0,0.25,False,,5d60e3350393f90001015529,,1377962,109,,evan-feature22,full_pf_a,,1
74,2678,110,,,,2,2,1.0,0.0,0.0,-1.0,,0.0-102.0,,0.0,399.2700001,1.0,0.28685784,0.0,0.6622549529999999,1.0,0.652154117,0.0,0.25,False,,5d60e3350393f90001015529,,1388133,110,,evan-feature22,full_pf_a,,1
75,2679,111,,,,1,1,0.0,0.0,0.0,-1.0,,0.0-103.0,,0.0,529.78,0.0,0.304106554,0.0,0.631289538,1.0,0.707041942,0.0,0.29314237,False,,5d60e3350393f90001015529,,1398441,111,,evan-feature22,full_pf_a,,1
76,2680,112,,,,1,1,1.0,1.0,0.0,-1.0,,0.0-104.0,,-1.0,1353.65,1.0,0.304806932,1.0,0.571167718,1.0,0.680472346,0.0,0.25,False,,5d60e3350393f90001015529,,1409571,112,,evan-feature22,full_pf_a,,0
77,2681,113,,,,2,2,1.0,0.0,0.0,-1.0,,0.0-105.0,,0.0,425.64,1.0,0.37919861,1.0,0.5724849710000001,1.0,0.705638003,0.0,0.30179300600000003,False,,5d60e3350393f90001015529,,1419771,113,,evan-feature22,full_pf_a,,1
78,2682,114,,,,2,2,1.0,1.0,0.0,-1.0,,0.0-106.0,,-1.0,485.885,1.0,0.464277969,0.0,0.554034373,1.0,0.7372627340000001,1.0,0.264699741,False,,5d60e3350393f90001015529,,1430029,114,,evan-feature22,full_pf_a,,0
79,2683,115,,,,1,1,0.0,1.0,0.0,-1.0,,0.0-107.0,,-1.0,2284.09,0.0,0.465104323,1.0,0.530793115,1.0,0.75,0.0,0.31683071,False,,5d60e3350393f90001015529,,1442092,115,,evan-feature22,full_pf_a,,1
80,2684,116,,,,2,2,1.0,0.0,1.0,0.0,,0.0-108.0,,1.0,727.865,0.0,0.465104323,0.0,0.530793115,1.0,0.75,0.0,0.31683071,False,,5d60e3350393f90001015529,,1452592,116,,evan-feature22,full_pf_a,,1
81,2685,117,,,,2,2,1.0,0.0,1.0,0.0,,0.0-109.0,,1.0,448.34,1.0,0.46833986,1.0,0.570249239,1.0,0.7244472590000001,0.0,0.364114163,False,,5d60e3350393f90001015529,,1462816,117,,evan-feature22,full_pf_a,,0
82,2686,118,,,,2,2,1.0,0.0,1.0,0.0,,0.0-110.0,,1.0,2319.49,0.0,0.445444024,1.0,0.649673355,1.0,0.6845441290000001,0.0,0.300660449,False,,5d60e3350393f90001015529,,1474919,118,,evan-feature22,full_pf_a,,0
83,2687,119,,,,1,1,1.0,1.0,1.0,0.0,,0.0-111.0,,1.0,582.87,1.0,0.39909721299999995,1.0,0.6715179509999999,1.0,0.742310028,0.0,0.35496088299999995,False,,5d60e3350393f90001015529,,1485277,119,,evan-feature22,full_pf_a,,1
84,2688,120,,,,2,2,1.0,0.0,0.0,-1.0,,0.0-112.0,,0.0,2356.965,0.0,0.37956104799999996,1.0,0.694725302,1.0,0.7181651309999999,0.0,0.38726906299999997,False,,5d60e3350393f90001015529,,1497415,120,,evan-feature22,full_pf_a,,1
85,2689,121,,,,2,2,0.0,0.0,0.0,-1.0,,0.0-113.0,,0.0,1541.625,1.0,0.404995034,0.0,0.724375412,0.0,0.6910946859999999,0.0,0.387187347,False,,5d60e3350393f90001015529,,1508728,121,,evan-feature22,full_pf_a,,0
86,2690,122,,,,1,1,0.0,1.0,1.0,0.0,,0.0-114.0,,0.0,1087.885,0.0,0.461740803,1.0,0.75,1.0,0.75,0.0,0.34872038200000005,False,,5d60e3350393f90001015529,,1519596,122,,evan-feature22,full_pf_a,,1
87,2691,123,,,,1,1,1.0,1.0,1.0,0.0,,0.0-115.0,,1.0,1174.155,1.0,0.43821380600000004,1.0,0.738833273,1.0,0.728286963,1.0,0.399538128,False,,5d60e3350393f90001015529,,1530552,123,,evan-feature22,full_pf_a,,0
88,2692,124,,,,1,1,1.0,1.0,0.0,-1.0,,0.0-116.0,,-1.0,651.39,1.0,0.41709882,1.0,0.736666736,1.0,0.75,0.0,0.389095584,False,,5d60e3350393f90001015529,,1540982,124,,evan-feature22,full_pf_a,,0
89,2693,125,,,,1,1,0.0,1.0,0.0,-1.0,,0.0-117.0,,-1.0,541.925,0.0,0.39749009799999996,1.0,0.744320029,1.0,0.75,1.0,0.363848678,False,,5d60e3350393f90001015529,,1551299,125,,evan-feature22,full_pf_a,,0
90,2694,126,,,,2,2,1.0,0.0,1.0,0.0,,0.0-118.0,,1.0,547.745,0.0,0.392653706,1.0,0.75,1.0,0.75,0.0,0.384386976,False,,5d60e3350393f90001015529,,1561619,126,,evan-feature22,full_pf_a,,1
91,2695,127,,,,2,2,1.0,0.0,0.0,-1.0,,0.0-119.0,,0.0,918.72,0.0,0.31190902600000003,0.0,0.75,1.0,0.732413819,0.0,0.413082932,False,,5d60e3350393f90001015529,,1572318,127,,evan-feature22,full_pf_a,,0
92,2696,128,,,,2,2,1.0,0.0,1.0,0.0,,0.0-120.0,,1.0,2736.78,0.0,0.366917648,1.0,0.740073855,1.0,0.75,0.0,0.352861979,False,,5d60e3350393f90001015529,,1584828,128,,evan-feature22,full_pf_a,,0
93,2697,129,,,,1,1,0.0,1.0,1.0,0.0,,0.0-121.0,,0.0,964.05,0.0,0.3645172,1.0,0.721770713,0.0,0.75,0.0,0.404074511,False,,5d60e3350393f90001015529,,1595569,129,,evan-feature22,full_pf_a,,1
94,2698,130,,,,1,1,1.0,0.0,1.0,0.0,,0.0-122.0,,1.0,1629.675,1.0,0.35205600299999995,0.0,0.68983859,1.0,0.739735447,1.0,0.366895945,False,,5d60e3350393f90001015529,,1606972,130,,evan-feature22,full_pf_a,,0
95,2699,131,,,,1,1,0.0,1.0,1.0,0.0,,0.0-123.0,,0.0,713.635,0.0,0.40998722600000004,1.0,0.720859127,1.0,0.673854955,0.0,0.368528541,False,,5d60e3350393f90001015529,,1617460,131,,evan-feature22,full_pf_a,,0
96,2700,132,,,,2,2,1.0,0.0,1.0,0.0,,0.0-124.0,,1.0,1977.22,1.0,0.353625316,1.0,0.75,1.0,0.695605473,0.0,0.38303674200000004,False,,5d60e3350393f90001015529,,1629220,132,,evan-feature22,full_pf_a,,1
97,2701,133,,,,2,2,1.0,1.0,1.0,0.0,,0.0-125.0,,1.0,1392.935,0.0,0.359216989,1.0,0.75,1.0,0.6987915090000001,1.0,0.35169046200000004,False,,5d60e3350393f90001015529,,1640389,133,,evan-feature22,full_pf_a,,0
98,2702,134,,,,2,2,1.0,1.0,1.0,0.0,,0.0-126.0,,1.0,2202.765,0.0,0.35834496899999996,0.0,0.75,1.0,0.707067742,1.0,0.416763636,False,,5d60e3350393f90001015529,,1652371,134,,evan-feature22,full_pf_a,,0
99,2703,135,,,,1,1,0.0,1.0,0.0,-1.0,,0.0-127.0,,-1.0,1140.095,0.0,0.38741613799999997,1.0,0.7177369570000001,1.0,0.734902455,0.0,0.49438664299999996,False,,5d60e3350393f90001015529,,1663285,135,,evan-feature22,full_pf_a,,1
100,2704,136,,,,2,2,1.0,1.0,1.0,0.0,,0.0-128.0,,1.0,704.81,0.0,0.405255252,1.0,0.7300466640000001,1.0,0.7027748070000001,1.0,0.504359668,False,,5d60e3350393f90001015529,,1673762,136,,evan-feature22,full_pf_a,,1
101,2705,137,,,,2,2,1.0,0.0,1.0,0.0,,0.0-129.0,,1.0,401.945,1.0,0.40697073,1.0,0.7260142190000001,1.0,0.724461982,0.0,0.522779179,False,,5d60e3350393f90001015529,,1683945,137,,evan-feature22,full_pf_a,,0
102,2706,138,,,,2,2,1.0,1.0,1.0,0.0,,0.0-130.0,,1.0,1674.91,1.0,0.43906215299999996,1.0,0.7252802340000001,1.0,0.719079934,1.0,0.5712990579999999,False,,5d60e3350393f90001015529,,1695399,138,,evan-feature22,full_pf_a,,0
103,2707,139,,,,1,1,1.0,0.0,0.0,-1.0,,0.0-131.0,,0.0,1073.175,1.0,0.4076705,0.0,0.73280499,0.0,0.681313127,0.0,0.523891346,False,,5d60e3350393f90001015529,,1706254,139,,evan-feature22,full_pf_a,,1
104,2708,140,,,,1,1,1.0,0.0,0.0,-1.0,,0.0-132.0,,0.0,2934.385,1.0,0.399102911,0.0,0.730498344,1.0,0.661080239,0.0,0.46742603,False,,5d60e3350393f90001015529,,1718962,140,,evan-feature22,full_pf_a,,0
105,2709,141,,,,2,2,1.0,1.0,0.0,-1.0,,0.0-133.0,,-1.0,489.595,0.0,0.356477282,1.0,0.712296395,1.0,0.641812684,1.0,0.44868414,False,,5d60e3350393f90001015529,,1729225,141,,evan-feature22,full_pf_a,,1
106,2710,142,,,,2,2,0.0,0.0,1.0,0.0,,0.0-134.0,,0.0,3570.01,0.0,0.462760722,1.0,0.692349322,0.0,0.700947931,0.0,0.394680266,False,,5d60e3350393f90001015529,,1742574,142,,evan-feature22,full_pf_a,,0
107,2711,143,,,,2,2,1.0,0.0,1.0,0.0,,0.0-135.0,,1.0,1146.39,1.0,0.422306413,1.0,0.718375916,1.0,0.706340917,0.0,0.367787185,False,,5d60e3350393f90001015529,,1753508,143,,evan-feature22,full_pf_a,,0
108,2713,145,,,,SLOW,SLOW,,,1.0,0.0,,0.0-137.0,,-3.0,,1.0,0.4582233,1.0,0.643834117,1.0,0.75,1.0,0.39615823299999997,False,,5d60e3350393f90001015529,,1762314,145,,evan-feature22,full_pf_a,,1
109,2714,146,,,,2,2,1.0,0.0,1.0,0.0,,0.0-138.0,,1.0,2910.6,0.0,0.43813437899999996,0.0,0.651283804,1.0,0.729674191,0.0,0.37711048,False,,5d60e3350393f90001015529,,1775007,146,,evan-feature22,full_pf_a,,1
110,2715,147,,,,1,1,1.0,1.0,1.0,0.0,,0.0-139.0,,1.0,1864.395,1.0,0.471199094,1.0,0.6470010979999999,0.0,0.715008097,1.0,0.410656191,False,,5d60e3350393f90001015529,,1786654,147,,evan-feature22,full_pf_a,,1
111,2716,148,,,,SLOW,SLOW,,,1.0,0.0,,0.0-140.0,,-3.0,,1.0,0.42486406,0.0,0.629771829,1.0,0.6550939960000001,1.0,0.459093873,False,,5d60e3350393f90001015529,,1792466,148,,evan-feature22,full_pf_a,,1
112,2717,149,,,,2,2,1.0,0.0,1.0,0.0,,0.0-141.0,,1.0,547.445,0.0,0.4803197,0.0,0.645842715,1.0,0.6421749920000001,0.0,0.443092151,False,,5d60e3350393f90001015529,,1802790,149,,evan-feature22,full_pf_a,,1
113,2718,150,,,,1,1,0.0,1.0,0.0,-1.0,,0.0-142.0,,-1.0,2955.515,0.0,0.521848997,1.0,0.735801074,1.0,0.6691348460000001,0.0,0.45259351600000003,False,,5d60e3350393f90001015529,,1815515,150,,evan-feature22,full_pf_a,,1
114,2719,151,,,,2,2,1.0,0.0,1.0,0.0,,0.0-143.0,,1.0,2270.3,0.0,0.49565621299999996,1.0,0.742400847,1.0,0.661512553,0.0,0.483110831,False,,5d60e3350393f90001015529,,1827557,151,,evan-feature22,full_pf_a,,1
115,2720,152,,,,SLOW,SLOW,,,1.0,0.0,,0.0-144.0,,-3.0,,1.0,0.521564361,1.0,0.731078632,1.0,0.6774886809999999,1.0,0.483263956,False,,5d60e3350393f90001015529,,1833374,152,,evan-feature22,full_pf_a,,1
116,2721,153,,,,1,1,1.0,1.0,1.0,0.0,,0.0-145.0,,1.0,448.165,1.0,0.558893102,1.0,0.719810023,1.0,0.67461031,1.0,0.499349834,False,,5d60e3350393f90001015529,,1843592,153,,evan-feature22,full_pf_a,,1
117,2722,154,,,,2,2,0.0,0.0,1.0,0.0,,0.0-146.0,,0.0,420.19,0.0,0.611031046,0.0,0.75,0.0,0.688072995,0.0,0.5321422729999999,False,,5d60e3350393f90001015529,,1853791,154,,evan-feature22,full_pf_a,,1
118,2723,155,,,,1,1,1.0,1.0,0.0,-1.0,,0.0-147.0,,-1.0,1420.36,1.0,0.633223941,1.0,0.713567728,1.0,0.75,0.0,0.48185314700000004,False,,5d60e3350393f90001015529,,1864995,155,,evan-feature22,full_pf_a,,1
119,2724,156,,,,2,2,1.0,1.0,1.0,0.0,,0.0-148.0,,1.0,552.905,1.0,0.664001694,1.0,0.705509768,1.0,0.75,1.0,0.500211065,False,,5d60e3350393f90001015529,,1875322,156,,evan-feature22,full_pf_a,,1
120,2725,157,,,,2,2,1.0,0.0,1.0,0.0,,0.0-149.0,,1.0,926.85,0.0,0.664001694,1.0,0.705509768,1.0,0.75,0.0,0.500211065,False,,5d60e3350393f90001015529,,1886016,157,,evan-feature22,full_pf_a,,0
121,2726,158,,,,2,2,0.0,0.0,1.0,0.0,,0.0-150.0,,0.0,1166.88,0.0,0.696508041,1.0,0.71066027,0.0,0.717028709,0.0,0.49792991,False,,5d60e3350393f90001015529,,1896964,158,,evan-feature22,full_pf_a,,0
122,2727,159,,,,SLOW,SLOW,,,0.0,-1.0,,0.0-151.0,,-3.0,,1.0,0.699883272,1.0,0.75,1.0,0.713543895,0.0,0.496962643,False,,5d60e3350393f90001015529,,1902781,159,,evan-feature22,full_pf_a,,1
123,2728,160,,,,2,2,1.0,0.0,0.0,-1.0,,0.0-152.0,,0.0,379.35,0.0,0.741163419,1.0,0.75,1.0,0.64691024,0.0,0.513858197,False,,5d60e3350393f90001015529,,1912939,160,,evan-feature22,full_pf_a,,1
124,2729,161,,,,1,1,1.0,1.0,0.0,-1.0,,0.0-153.0,,-1.0,399.805,1.0,0.75,1.0,0.70816558,0.0,0.594499079,1.0,0.48502124,False,,5d60e3350393f90001015529,,1923126,161,,evan-feature22,full_pf_a,,1
125,2730,162,,,,2,2,0.0,1.0,1.0,0.0,,0.0-154.0,,0.0,621.54,1.0,0.75,0.0,0.721848901,0.0,0.62197249,1.0,0.48263586399999997,False,,5d60e3350393f90001015529,,1933535,162,,evan-feature22,full_pf_a,,1
126,2731,163,,,,SLOW,SLOW,,,1.0,0.0,,0.0-155.0,,-3.0,,1.0,0.75,1.0,0.74813071,0.0,0.584357161,0.0,0.411477782,False,,5d60e3350393f90001015529,,1939350,163,,evan-feature22,full_pf_a,,1
127,2732,164,,,,2,2,1.0,0.0,1.0,0.0,,0.0-156.0,,1.0,2458.905,1.0,0.75,1.0,0.75,1.0,0.52287236,0.0,0.488290656,False,,5d60e3350393f90001015529,,1951584,164,,evan-feature22,full_pf_a,,1
128,2733,165,,,,2,2,1.0,1.0,1.0,0.0,,0.0-157.0,,1.0,597.995,1.0,0.75,1.0,0.75,1.0,0.544321581,1.0,0.53143059,False,,5d60e3350393f90001015529,,1961967,165,,evan-feature22,full_pf_a,,0
129,2734,166,,,,2,2,0.0,1.0,1.0,0.0,,0.0-158.0,,0.0,446.67,1.0,0.726754564,1.0,0.75,0.0,0.5129306370000001,1.0,0.530592445,False,,5d60e3350393f90001015529,,1972191,166,,evan-feature22,full_pf_a,,0
130,2735,167,,,,2,2,0.0,1.0,0.0,-1.0,,0.0-159.0,,-1.0,438.14,1.0,0.75,0.0,0.7392590729999999,0.0,0.479875835,1.0,0.547007051,False,,5d60e3350393f90001015529,,1982414,167,,evan-feature22,full_pf_a,,0
131,2736,168,,,,2,2,1.0,0.0,0.0,-1.0,,0.0-160.0,,0.0,601.51,1.0,0.75,1.0,0.7393376979999999,1.0,0.546045419,0.0,0.541267353,False,,5d60e3350393f90001015529,,1992793,168,,evan-feature22,full_pf_a,,0
132,2737,169,,,,2,2,1.0,1.0,1.0,0.0,,0.0-161.0,,1.0,986.69,1.0,0.75,0.0,0.75,1.0,0.485725895,1.0,0.527625395,False,,5d60e3350393f90001015529,,2003561,169,,evan-feature22,full_pf_a,,0
133,2738,170,,,,2,2,0.0,1.0,0.0,-1.0,,0.0-162.0,,-1.0,496.09,1.0,0.75,0.0,0.725087974,0.0,0.488603595,1.0,0.504019206,False,,5d60e3350393f90001015529,,2013838,170,,evan-feature22,full_pf_a,,0
134,2739,171,,,,2,2,0.0,1.0,1.0,0.0,,0.0-163.0,,0.0,634.46,1.0,0.745504295,1.0,0.75,0.0,0.452379914,1.0,0.50131194,False,,5d60e3350393f90001015529,,2024246,171,,evan-feature22,full_pf_a,,0
135,2740,172,,,,2,2,1.0,0.0,0.0,-1.0,,0.0-164.0,,0.0,605.5,1.0,0.728513874,0.0,0.75,1.0,0.44125567200000004,0.0,0.531454591,False,,5d60e3350393f90001015529,,2034626,172,,evan-feature22,full_pf_a,,0
136,2741,173,,,,2,2,1.0,1.0,1.0,0.0,,0.0-165.0,,1.0,1410.445,1.0,0.73790804,1.0,0.75,1.0,0.413036656,1.0,0.524619035,False,,5d60e3350393f90001015529,,2045818,173,,evan-feature22,full_pf_a,,0
137,2742,174,,,,2,2,1.0,0.0,1.0,0.0,,0.0-166.0,,1.0,523.84,1.0,0.7080961309999999,0.0,0.708666865,1.0,0.431915581,0.0,0.481819489,False,,5d60e3350393f90001015529,,2056119,174,,evan-feature22,full_pf_a,,0
138,2743,175,,,,2,2,1.0,1.0,1.0,0.0,,0.0-167.0,,1.0,1380.445,1.0,0.721378003,1.0,0.71605913,1.0,0.36642387,1.0,0.5036739929999999,False,,5d60e3350393f90001015529,,2067268,175,,evan-feature22,full_pf_a,,0
139,2744,176,,,,2,2,0.0,1.0,0.0,-1.0,,0.0-168.0,,-1.0,410.225,1.0,0.7340618959999999,1.0,0.699323252,0.0,0.35298046299999997,1.0,0.511241692,False,,5d60e3350393f90001015529,,2077451,176,,evan-feature22,full_pf_a,,0
140,2745,177,,,,2,2,1.0,1.0,0.0,-1.0,,0.0-169.0,,-1.0,413.08,1.0,0.75,1.0,0.70412698,1.0,0.380734814,1.0,0.529580116,False,,5d60e3350393f90001015529,,2087644,177,,evan-feature22,full_pf_a,,0
141,2746,178,,,,2,2,0.0,0.0,0.0,-1.0,,0.0-170.0,,0.0,1498.755,1.0,0.7436654909999999,1.0,0.711182751,0.0,0.41125331,0.0,0.49554405,False,,5d60e3350393f90001015529,,2098921,178,,evan-feature22,full_pf_a,,0
142,2747,179,,,,2,2,0.0,0.0,1.0,0.0,,0.0-171.0,,0.0,1366.67,0.0,0.731607915,0.0,0.651774583,0.0,0.35688023,0.0,0.45194491600000003,False,,5d60e3350393f90001015529,,2110066,179,,evan-feature22,full_pf_a,,0
143,2748,180,,,,2,2,0.0,1.0,0.0,-1.0,,0.0-172.0,,-1.0,1432.22,1.0,0.75,0.0,0.75,0.0,0.283145374,1.0,0.528608005,False,,5d60e3350393f90001015529,,2121275,180,,evan-feature22,full_pf_a,,0
144,2749,181,,,,2,2,1.0,0.0,1.0,0.0,,0.0-173.0,,1.0,1399.65,1.0,0.7491416890000001,0.0,0.7423785959999999,1.0,0.29135870399999997,0.0,0.498888318,False,,5d60e3350393f90001015529,,2132449,181,,evan-feature22,full_pf_a,,0
145,2750,182,,,,2,2,0.0,0.0,0.0,-1.0,,0.0-174.0,,0.0,1209.845,0.0,0.708569387,1.0,0.717682277,0.0,0.294421699,0.0,0.493838163,False,,5d60e3350393f90001015529,,2143432,182,,evan-feature22,full_pf_a,,0
146,2751,183,,,,2,2,0.0,0.0,1.0,0.0,,0.0-175.0,,0.0,1970.975,1.0,0.75,1.0,0.7383382159999999,0.0,0.356098707,0.0,0.442533405,False,,5d60e3350393f90001015529,,2155185,183,,evan-feature22,full_pf_a,,0
147,2752,184,,,,2,2,1.0,0.0,1.0,0.0,,0.0-176.0,,1.0,1836.585,1.0,0.744527075,1.0,0.75,1.0,0.334127506,0.0,0.393165805,False,,5d60e3350393f90001015529,,2166805,184,,evan-feature22,full_pf_a,,0
148,2753,185,,,,2,2,1.0,1.0,1.0,0.0,,0.0-177.0,,1.0,419.63,1.0,0.75,1.0,0.75,1.0,0.33571021799999995,1.0,0.350393962,False,,5d60e3350393f90001015529,,2177006,185,,evan-feature22,full_pf_a,,0
149,2754,186,,,,2,2,0.0,0.0,0.0,-1.0,,0.0-178.0,,0.0,804.01,1.0,0.75,1.0,0.75,0.0,0.313628297,0.0,0.36349657399999996,False,,5d60e3350393f90001015529,,2187586,186,,evan-feature22,full_pf_a,,0
150,2755,187,,,,2,2,0.0,0.0,1.0,0.0,,0.0-179.0,,0.0,953.405,0.0,0.75,0.0,0.734284182,0.0,0.262667667,0.0,0.380199119,False,,5d60e3350393f90001015529,,2198321,187,,evan-feature22,full_pf_a,,0
151,2756,188,,,,2,2,0.0,1.0,1.0,0.0,,0.0-180.0,,0.0,1857.455,1.0,0.75,0.0,0.75,0.0,0.25,1.0,0.394494013,False,,5d60e3350393f90001015529,,2209960,188,,evan-feature22,full_pf_a,,0
152,2757,189,,,,2,2,1.0,1.0,1.0,0.0,,0.0-181.0,,1.0,530.15,1.0,0.722298145,0.0,0.7357822340000001,1.0,0.25,1.0,0.319142121,False,,5d60e3350393f90001015529,,2220263,189,,evan-feature22,full_pf_a,,0
153,2758,190,,,,2,2,1.0,0.0,1.0,0.0,,0.0-182.0,,1.0,541.825,0.0,0.73149275,0.0,0.724276446,1.0,0.305856907,0.0,0.281315057,False,,5d60e3350393f90001015529,,2230585,190,,evan-feature22,full_pf_a,,0
154,2759,191,,,,2,2,0.0,0.0,1.0,0.0,,0.0-183.0,,0.0,1687.425,1.0,0.7458732690000001,0.0,0.7336382459999999,0.0,0.272571964,0.0,0.266021999,False,,5d60e3350393f90001015529,,2242049,191,,evan-feature22,full_pf_a,,0
155,2760,192,,,,2,2,0.0,0.0,0.0,-1.0,,0.0-184.0,,0.0,2246.61,0.0,0.705579037,0.0,0.720778292,0.0,0.320238144,0.0,0.30971744,False,,5d60e3350393f90001015529,,2254075,192,,evan-feature22,full_pf_a,,0
156,2761,193,,,,SLOW,SLOW,,,0.0,-1.0,,0.0-185.0,,-3.0,,1.0,0.700425648,1.0,0.7198784009999999,0.0,0.272590393,0.0,0.304182931,False,,5d60e3350393f90001015529,,2259889,193,,evan-feature22,full_pf_a,,1
157,2762,194,,,,2,2,0.0,0.0,0.0,-1.0,,0.0-186.0,,0.0,1072.71,1.0,0.735590785,0.0,0.722714973,0.0,0.25,0.0,0.323421091,False,,5d60e3350393f90001015529,,2270737,194,,evan-feature22,full_pf_a,,1
158,2763,195,,,,1,1,1.0,0.0,0.0,-1.0,,0.0-187.0,,0.0,295.355,1.0,0.724807662,0.0,0.63146213,0.0,0.36836492600000004,0.0,0.34592153299999995,False,,5d60e3350393f90001015529,,2280813,195,,evan-feature22,full_pf_a,,1
159,2764,196,,,,2,2,0.0,0.0,1.0,0.0,,0.0-188.0,,0.0,686.695,1.0,0.7352796909999999,0.0,0.555111392,0.0,0.36003922,0.0,0.31433779999999995,False,,5d60e3350393f90001015529,,2291278,196,,evan-feature22,full_pf_a,,1
160,2765,197,notice,,,,,,,,,,0.0-189.0,"{""Q0"":""no""}",,19851.0,,,,,,,,,False,,5d60e3350393f90001015529,,2311131,197,Q,survey-text,full_pf_a,,1
161,2766,198,track1,,[1],,,,,,,,0.0-190.0,"{""Q0"":""no""}",,2840.0,,,,,,,,,False,,5d60e3350393f90001015529,,2313978,198,Q,evan-quiz,full_pf_a,,1
162,2767,199,track2,,[0],,,,,,,,0.0-191.0,"{""Q0"":""yes""}",,4291.0,,,,,,,,,False,,5d60e3350393f90001015529,,2318272,199,Q,evan-quiz,full_pf_a,,1
163,2768,200,strat,,,,,,,,,,0.0-192.0,"{""Q0"":""i picked at random until i got a point and then chose that door until it seemed that i was getting lots of 0 and -1, then i'd choose at random again until another point""}",,45355.0,,,,,,,,,False,,5d60e3350393f90001015529,,2363629,200,Q,survey-text,full_pf_a,,1
