,index,Unnamed: 0,Q_name,button_pressed,choice_idxs,chosen_pos,chosen_state,chosen_state_f_1_outcome,chosen_state_f_2_outcome,f_1_reward,f_2_reward,incor_questions,internal_node_id,responses,reward_received,rt,s_1_f_1_outcome,s_1_f_1_prob,s_1_f_2_outcome,s_1_f_2_prob,s_2_f_1_outcome,s_2_f_1_prob,s_2_f_2_outcome,s_2_f_2_prob,safe_first,stimulus,subjectID,success,time_elapsed,trial_index,trial_num,trial_type,version,view_history,switching
0,16514,35,,,,1,1,1.0,1.0,1.0,0.0,,0.0-27.0,,1.0,1064.115,1.0,0.6,1.0,0.6,0.0,0.4,0.0,0.4,True,,571cc797e1d2ec0012a689a0,,534152,35,,evan-feature22,full_rf_a,,0
1,16515,36,,,,1,1,1.0,1.0,1.0,0.0,,0.0-28.0,,1.0,376.37,1.0,0.608053294,1.0,0.63424552,1.0,0.397152172,0.0,0.347069101,True,,571cc797e1d2ec0012a689a0,,544304,36,,evan-feature22,full_rf_a,,0
2,16516,37,,,,2,2,1.0,0.0,1.0,0.0,,0.0-29.0,,1.0,696.06,1.0,0.642237155,1.0,0.648566321,1.0,0.389407674,0.0,0.285525717,True,,571cc797e1d2ec0012a689a0,,554774,37,,evan-feature22,full_rf_a,,1
3,16517,38,,,,2,2,0.0,0.0,1.0,0.0,,0.0-30.0,,0.0,822.01,1.0,0.661086576,1.0,0.630492543,0.0,0.399058924,0.0,0.25,True,,571cc797e1d2ec0012a689a0,,565365,38,,evan-feature22,full_rf_a,,0
4,16518,39,,,,1,1,1.0,0.0,0.0,-1.0,,0.0-31.0,,0.0,524.54,1.0,0.631324137,0.0,0.6269842929999999,1.0,0.38734784299999997,0.0,0.25,True,,571cc797e1d2ec0012a689a0,,575657,39,,evan-feature22,full_rf_a,,1
5,16519,40,,,,2,2,1.0,0.0,0.0,-1.0,,0.0-32.0,,0.0,755.215,1.0,0.6381991370000001,1.0,0.68987999,1.0,0.384107265,0.0,0.271332943,True,,571cc797e1d2ec0012a689a0,,586179,40,,evan-feature22,full_rf_a,,1
6,16520,41,,,,1,1,1.0,1.0,1.0,0.0,,0.0-33.0,,1.0,414.21,1.0,0.66034901,1.0,0.742641349,0.0,0.360225629,0.0,0.25,True,,571cc797e1d2ec0012a689a0,,596364,41,,evan-feature22,full_rf_a,,1
7,16521,42,,,,1,1,0.0,1.0,1.0,0.0,,0.0-34.0,,0.0,360.615,0.0,0.638612418,1.0,0.75,1.0,0.367273939,0.0,0.25,True,,571cc797e1d2ec0012a689a0,,606490,42,,evan-feature22,full_rf_a,,0
8,16522,43,,,,2,2,0.0,1.0,0.0,-1.0,,0.0-35.0,,-1.0,755.905,1.0,0.624340629,1.0,0.75,0.0,0.425829545,1.0,0.25,True,,571cc797e1d2ec0012a689a0,,617012,43,,evan-feature22,full_rf_a,,1
9,16523,44,,,,1,1,1.0,1.0,0.0,-1.0,,0.0-36.0,,-1.0,382.26,1.0,0.621999804,1.0,0.75,1.0,0.368609357,1.0,0.25,True,,571cc797e1d2ec0012a689a0,,627167,44,,evan-feature22,full_rf_a,,1
10,16524,45,,,,1,1,1.0,1.0,1.0,0.0,,0.0-37.0,,1.0,406.605,1.0,0.62666403,1.0,0.75,0.0,0.311151498,0.0,0.25,True,,571cc797e1d2ec0012a689a0,,637352,45,,evan-feature22,full_rf_a,,0
11,16525,46,,,,1,1,0.0,0.0,0.0,-1.0,,0.0-38.0,,0.0,343.625,0.0,0.6819650009999999,0.0,0.75,0.0,0.310763048,1.0,0.25,True,,571cc797e1d2ec0012a689a0,,647463,46,,evan-feature22,full_rf_a,,0
12,16526,47,,,,1,1,1.0,1.0,1.0,0.0,,0.0-39.0,,1.0,1067.945,1.0,0.740626951,1.0,0.75,0.0,0.25,0.0,0.25,True,,571cc797e1d2ec0012a689a0,,658303,47,,evan-feature22,full_rf_a,,0
13,16527,48,,,,1,1,1.0,0.0,1.0,0.0,,0.0-40.0,,1.0,551.73,1.0,0.739599242,0.0,0.742034978,0.0,0.25397114600000004,0.0,0.25,True,,571cc797e1d2ec0012a689a0,,668632,48,,evan-feature22,full_rf_a,,0
14,16528,49,,,,1,1,0.0,0.0,1.0,0.0,,0.0-41.0,,0.0,518.205,0.0,0.732341315,0.0,0.72735643,0.0,0.25,0.0,0.25,True,,571cc797e1d2ec0012a689a0,,678915,49,,evan-feature22,full_rf_a,,0
15,16529,50,,,,2,2,0.0,0.0,1.0,0.0,,0.0-42.0,,0.0,441.56,0.0,0.7062287770000001,1.0,0.75,0.0,0.29002151,0.0,0.288256649,True,,571cc797e1d2ec0012a689a0,,689126,50,,evan-feature22,full_rf_a,,1
16,16530,51,,,,1,1,1.0,0.0,1.0,0.0,,0.0-43.0,,1.0,486.435,1.0,0.7086029209999999,0.0,0.75,0.0,0.274129113,0.0,0.262851608,True,,571cc797e1d2ec0012a689a0,,699384,51,,evan-feature22,full_rf_a,,1
17,16531,52,,,,1,1,0.0,1.0,1.0,0.0,,0.0-44.0,,0.0,520.185,0.0,0.669189651,1.0,0.727614338,0.0,0.298444036,0.0,0.296944518,True,,571cc797e1d2ec0012a689a0,,709673,52,,evan-feature22,full_rf_a,,0
18,16532,53,,,,1,1,0.0,1.0,1.0,0.0,,0.0-45.0,,0.0,556.6,0.0,0.6819912929999999,1.0,0.7179434290000001,0.0,0.265003961,0.0,0.28157921199999997,True,,571cc797e1d2ec0012a689a0,,719998,53,,evan-feature22,full_rf_a,,0
19,16533,54,,,,2,2,1.0,0.0,0.0,-1.0,,0.0-46.0,,0.0,930.685,0.0,0.665275002,1.0,0.723065271,1.0,0.260414971,0.0,0.30973870000000003,True,,571cc797e1d2ec0012a689a0,,730697,54,,evan-feature22,full_rf_a,,1
20,16534,55,,,,2,2,0.0,0.0,1.0,0.0,,0.0-47.0,,0.0,978.375,1.0,0.6660593260000001,1.0,0.728032907,0.0,0.30922817,0.0,0.338778608,True,,571cc797e1d2ec0012a689a0,,741443,55,,evan-feature22,full_rf_a,,0
21,16535,56,,,,1,1,0.0,1.0,1.0,0.0,,0.0-48.0,,0.0,356.21,0.0,0.702068785,1.0,0.6528750879999999,0.0,0.287329608,1.0,0.35789613200000003,True,,571cc797e1d2ec0012a689a0,,751571,56,,evan-feature22,full_rf_a,,1
22,16536,57,,,,1,1,1.0,0.0,1.0,0.0,,0.0-49.0,,1.0,749.15,1.0,0.651939787,0.0,0.636725589,0.0,0.284834488,1.0,0.358563756,True,,571cc797e1d2ec0012a689a0,,762087,57,,evan-feature22,full_rf_a,,0
23,16537,58,,,,1,1,1.0,1.0,0.0,-1.0,,0.0-50.0,,-1.0,381.165,1.0,0.67573929,1.0,0.612550049,0.0,0.37130387600000003,1.0,0.383542402,True,,571cc797e1d2ec0012a689a0,,772236,58,,evan-feature22,full_rf_a,,0
24,16538,59,,,,2,2,1.0,1.0,0.0,-1.0,,0.0-51.0,,-1.0,687.77,0.0,0.620753801,1.0,0.60513644,1.0,0.385529434,1.0,0.340361743,True,,571cc797e1d2ec0012a689a0,,782692,59,,evan-feature22,full_rf_a,,1
25,16539,60,,,,1,1,1.0,1.0,0.0,-1.0,,0.0-52.0,,-1.0,370.775,1.0,0.673564893,1.0,0.672437924,1.0,0.292955382,0.0,0.337633795,True,,571cc797e1d2ec0012a689a0,,792831,60,,evan-feature22,full_rf_a,,1
26,16540,61,,,,1,1,0.0,0.0,1.0,0.0,,0.0-53.0,,0.0,429.855,0.0,0.6749427,0.0,0.724197502,1.0,0.32391132100000003,0.0,0.350995264,True,,571cc797e1d2ec0012a689a0,,803029,61,,evan-feature22,full_rf_a,,0
27,16541,62,,,,1,1,1.0,0.0,1.0,0.0,,0.0-54.0,,1.0,348.66,1.0,0.6940159379999999,0.0,0.75,0.0,0.31710554399999996,1.0,0.413450341,True,,571cc797e1d2ec0012a689a0,,813143,62,,evan-feature22,full_rf_a,,0
28,16542,63,,,,1,1,1.0,1.0,1.0,0.0,,0.0-55.0,,1.0,415.56,1.0,0.6916018270000001,1.0,0.69001187,0.0,0.261817804,0.0,0.40038635,True,,571cc797e1d2ec0012a689a0,,823332,63,,evan-feature22,full_rf_a,,0
29,16543,64,,,,1,1,0.0,1.0,1.0,0.0,,0.0-56.0,,0.0,422.36,0.0,0.641061544,1.0,0.71337992,1.0,0.277296461,1.0,0.47372791700000005,True,,571cc797e1d2ec0012a689a0,,833521,64,,evan-feature22,full_rf_a,,0
30,16544,65,,,,2,2,1.0,0.0,1.0,0.0,,0.0-57.0,,1.0,485.315,1.0,0.6082438520000001,1.0,0.708471106,1.0,0.28745137,0.0,0.564174476,True,,571cc797e1d2ec0012a689a0,,843783,65,,evan-feature22,full_rf_a,,1
31,16545,66,,,,1,1,0.0,1.0,1.0,0.0,,0.0-58.0,,0.0,382.37,0.0,0.6051112120000001,1.0,0.7118147229999999,0.0,0.272390611,1.0,0.5595149939999999,True,,571cc797e1d2ec0012a689a0,,853939,66,,evan-feature22,full_rf_a,,1
32,16546,67,,,,2,2,0.0,0.0,1.0,0.0,,0.0-59.0,,0.0,535.95,1.0,0.582420852,1.0,0.635867583,0.0,0.31089574,0.0,0.5227206520000001,True,,571cc797e1d2ec0012a689a0,,864240,67,,evan-feature22,full_rf_a,,1
33,16547,68,,,,1,1,1.0,1.0,0.0,-1.0,,0.0-60.0,,-1.0,352.785,1.0,0.623195575,1.0,0.655026044,0.0,0.25,1.0,0.560387538,True,,571cc797e1d2ec0012a689a0,,874369,68,,evan-feature22,full_rf_a,,1
34,16548,69,,,,1,1,1.0,1.0,1.0,0.0,,0.0-61.0,,1.0,602.955,1.0,0.601889598,1.0,0.678198724,1.0,0.25,0.0,0.559922936,True,,571cc797e1d2ec0012a689a0,,884750,69,,evan-feature22,full_rf_a,,0
35,16549,70,,,,1,1,1.0,0.0,1.0,0.0,,0.0-62.0,,1.0,1240.95,1.0,0.601259914,0.0,0.704681482,1.0,0.33908969299999997,0.0,0.505003715,True,,571cc797e1d2ec0012a689a0,,895759,70,,evan-feature22,full_rf_a,,0
36,16550,71,,,,1,1,0.0,1.0,1.0,0.0,,0.0-63.0,,0.0,383.51,0.0,0.59645454,1.0,0.710437172,1.0,0.327441879,1.0,0.391749613,True,,571cc797e1d2ec0012a689a0,,905909,71,,evan-feature22,full_rf_a,,0
37,16551,72,,,,2,2,0.0,0.0,1.0,0.0,,0.0-64.0,,0.0,870.885,1.0,0.529473,0.0,0.636758527,0.0,0.301338063,0.0,0.365661481,True,,571cc797e1d2ec0012a689a0,,916547,72,,evan-feature22,full_rf_a,,1
38,16552,73,,,,1,1,1.0,1.0,0.0,-1.0,,0.0-65.0,,-1.0,506.655,1.0,0.541657162,1.0,0.634541962,1.0,0.343535366,0.0,0.371763742,True,,571cc797e1d2ec0012a689a0,,926832,73,,evan-feature22,full_rf_a,,1
39,16553,74,,,,1,1,0.0,1.0,1.0,0.0,,0.0-66.0,,0.0,385.855,0.0,0.5707533260000001,1.0,0.589121171,0.0,0.326428396,0.0,0.43961622899999997,True,,571cc797e1d2ec0012a689a0,,936988,74,,evan-feature22,full_rf_a,,0
40,16554,75,,,,2,2,1.0,0.0,1.0,0.0,,0.0-67.0,,1.0,682.39,1.0,0.5707533260000001,0.0,0.589121171,1.0,0.326428396,0.0,0.43961622899999997,True,,571cc797e1d2ec0012a689a0,,947441,75,,evan-feature22,full_rf_a,,1
41,16555,76,,,,2,2,0.0,0.0,1.0,0.0,,0.0-68.0,,0.0,392.4,1.0,0.506271295,0.0,0.641775594,0.0,0.37149690700000004,0.0,0.404330166,True,,571cc797e1d2ec0012a689a0,,957603,76,,evan-feature22,full_rf_a,,0
42,16556,77,,,,2,2,0.0,0.0,0.0,-1.0,,0.0-69.0,,0.0,1569.565,0.0,0.455642565,1.0,0.623605825,0.0,0.358753011,0.0,0.346174041,True,,571cc797e1d2ec0012a689a0,,968938,77,,evan-feature22,full_rf_a,,0
43,16557,78,,,,1,1,0.0,0.0,0.0,-1.0,,0.0-70.0,,0.0,935.0,0.0,0.483677308,0.0,0.5904681070000001,0.0,0.402218411,0.0,0.35344697,True,,571cc797e1d2ec0012a689a0,,979635,78,,evan-feature22,full_rf_a,,1
44,16558,79,,,,1,1,1.0,1.0,0.0,-1.0,,0.0-71.0,,-1.0,333.55,1.0,0.394210977,1.0,0.558925494,1.0,0.540052017,0.0,0.35182128700000004,True,,571cc797e1d2ec0012a689a0,,989743,79,,evan-feature22,full_rf_a,,0
45,16559,80,,,,2,2,1.0,0.0,1.0,0.0,,0.0-72.0,,1.0,253.74,1.0,0.382300414,1.0,0.577670603,1.0,0.607608448,0.0,0.378261578,True,,571cc797e1d2ec0012a689a0,,999764,80,,evan-feature22,full_rf_a,,1
46,16560,81,,,,1,1,0.0,0.0,1.0,0.0,,0.0-73.0,,0.0,329.97,0.0,0.357596762,0.0,0.5929076529999999,1.0,0.6579790010000001,0.0,0.401326777,True,,571cc797e1d2ec0012a689a0,,1009859,81,,evan-feature22,full_rf_a,,1
47,16561,82,,,,2,2,0.0,0.0,1.0,0.0,,0.0-74.0,,0.0,320.705,0.0,0.362033495,1.0,0.582308608,0.0,0.649195052,0.0,0.355158505,True,,571cc797e1d2ec0012a689a0,,1019945,82,,evan-feature22,full_rf_a,,1
48,16562,83,,,,1,1,0.0,1.0,1.0,0.0,,0.0-75.0,,0.0,454.76,0.0,0.369620635,1.0,0.669100864,1.0,0.706059111,0.0,0.362516241,True,,571cc797e1d2ec0012a689a0,,1030166,83,,evan-feature22,full_rf_a,,1
49,16563,84,,,,2,2,1.0,0.0,1.0,0.0,,0.0-76.0,,1.0,372.575,1.0,0.41477751399999996,1.0,0.7284416779999999,1.0,0.7182656940000001,0.0,0.36228040899999997,True,,571cc797e1d2ec0012a689a0,,1040306,84,,evan-feature22,full_rf_a,,1
50,16564,85,,,,1,1,0.0,1.0,0.0,-1.0,,0.0-77.0,,-1.0,833.815,0.0,0.37675460299999997,1.0,0.703250285,1.0,0.75,1.0,0.461979164,True,,571cc797e1d2ec0012a689a0,,1050907,85,,evan-feature22,full_rf_a,,1
51,16565,86,,,,2,2,0.0,1.0,0.0,-1.0,,0.0-78.0,,-1.0,517.425,0.0,0.398716075,0.0,0.6723864890000001,0.0,0.674153818,1.0,0.519029516,True,,571cc797e1d2ec0012a689a0,,1061192,86,,evan-feature22,full_rf_a,,1
52,16566,87,,,,1,1,1.0,0.0,1.0,0.0,,0.0-79.0,,1.0,407.1,1.0,0.34677856700000004,0.0,0.69057175,1.0,0.6822438540000001,0.0,0.477292237,True,,571cc797e1d2ec0012a689a0,,1071367,87,,evan-feature22,full_rf_a,,1
53,16567,88,,,,1,1,0.0,1.0,0.0,-1.0,,0.0-80.0,,-1.0,375.005,0.0,0.28580469199999997,1.0,0.68408818,1.0,0.684207565,0.0,0.49780448299999996,True,,571cc797e1d2ec0012a689a0,,1081518,88,,evan-feature22,full_rf_a,,0
54,16569,90,,,,2,2,1.0,0.0,1.0,0.0,,0.0-82.0,,1.0,447.785,0.0,0.25,1.0,0.7405808970000001,1.0,0.679614108,0.0,0.436436964,True,,571cc797e1d2ec0012a689a0,,1094982,90,,evan-feature22,full_rf_a,,1
55,16570,91,,,,2,2,1.0,1.0,0.0,-1.0,,0.0-83.0,,-1.0,348.955,1.0,0.29890393,0.0,0.730505706,1.0,0.7328203320000001,1.0,0.439256938,True,,571cc797e1d2ec0012a689a0,,1105103,91,,evan-feature22,full_rf_a,,0
56,16571,92,,,,1,1,0.0,1.0,1.0,0.0,,0.0-84.0,,0.0,434.355,0.0,0.326762398,1.0,0.7148059609999999,1.0,0.75,0.0,0.44389608799999997,True,,571cc797e1d2ec0012a689a0,,1115304,92,,evan-feature22,full_rf_a,,1
57,16572,93,,,,1,1,0.0,1.0,1.0,0.0,,0.0-85.0,,0.0,660.1,0.0,0.295168515,1.0,0.739760854,1.0,0.719947008,1.0,0.35277284600000003,True,,571cc797e1d2ec0012a689a0,,1125736,93,,evan-feature22,full_rf_a,,0
58,16573,94,,,,2,2,1.0,0.0,1.0,0.0,,0.0-86.0,,1.0,381.725,1.0,0.25,0.0,0.70781482,1.0,0.75,0.0,0.286095925,True,,571cc797e1d2ec0012a689a0,,1135887,94,,evan-feature22,full_rf_a,,1
59,16574,95,,,,1,1,0.0,1.0,0.0,-1.0,,0.0-87.0,,-1.0,398.665,0.0,0.25638190899999996,1.0,0.704088163,1.0,0.75,1.0,0.26872601399999996,True,,571cc797e1d2ec0012a689a0,,1146067,95,,evan-feature22,full_rf_a,,1
60,16575,96,,,,2,2,1.0,0.0,0.0,-1.0,,0.0-88.0,,0.0,384.515,1.0,0.271581126,0.0,0.669760107,1.0,0.733896663,0.0,0.273244572,True,,571cc797e1d2ec0012a689a0,,1156224,96,,evan-feature22,full_rf_a,,1
61,16576,97,,,,2,2,1.0,0.0,0.0,-1.0,,0.0-89.0,,0.0,362.65,0.0,0.257144401,0.0,0.600575706,1.0,0.74488122,0.0,0.25,True,,571cc797e1d2ec0012a689a0,,1166356,97,,evan-feature22,full_rf_a,,0
62,16577,98,,,,2,2,1.0,0.0,1.0,0.0,,0.0-90.0,,1.0,310.55,0.0,0.25,1.0,0.616870026,1.0,0.723610234,0.0,0.25,True,,571cc797e1d2ec0012a689a0,,1176442,98,,evan-feature22,full_rf_a,,0
63,16578,99,,,,2,2,1.0,0.0,0.0,-1.0,,0.0-91.0,,0.0,279.045,0.0,0.25,0.0,0.583540187,1.0,0.7041042559999999,0.0,0.285961995,True,,571cc797e1d2ec0012a689a0,,1186487,99,,evan-feature22,full_rf_a,,0
64,16579,100,,,,2,2,1.0,0.0,1.0,0.0,,0.0-92.0,,1.0,617.39,0.0,0.27254536,0.0,0.53875765,1.0,0.693783448,0.0,0.284961652,True,,571cc797e1d2ec0012a689a0,,1196871,100,,evan-feature22,full_rf_a,,0
65,16580,101,,,,2,2,0.0,0.0,0.0,-1.0,,0.0-93.0,,0.0,388.77,0.0,0.25,0.0,0.548431252,0.0,0.734221895,0.0,0.279445214,True,,571cc797e1d2ec0012a689a0,,1207025,101,,evan-feature22,full_rf_a,,0
66,16581,102,,,,2,2,1.0,0.0,1.0,0.0,,0.0-94.0,,1.0,351.065,0.0,0.258640684,0.0,0.545878066,1.0,0.725245965,0.0,0.31487537,True,,571cc797e1d2ec0012a689a0,,1217157,102,,evan-feature22,full_rf_a,,0
67,16582,103,,,,2,2,0.0,0.0,1.0,0.0,,0.0-95.0,,0.0,295.605,1.0,0.251103711,1.0,0.5776290629999999,0.0,0.696320133,0.0,0.317831047,True,,571cc797e1d2ec0012a689a0,,1227218,103,,evan-feature22,full_rf_a,,0
68,16583,104,,,,1,1,0.0,1.0,1.0,0.0,,0.0-96.0,,0.0,397.095,0.0,0.276630292,1.0,0.617329858,1.0,0.73838088,1.0,0.261471582,True,,571cc797e1d2ec0012a689a0,,1237391,104,,evan-feature22,full_rf_a,,1
69,16584,105,,,,2,2,1.0,0.0,0.0,-1.0,,0.0-97.0,,0.0,620.985,1.0,0.297716424,0.0,0.618863717,1.0,0.7402358259999999,0.0,0.262600834,True,,571cc797e1d2ec0012a689a0,,1247779,105,,evan-feature22,full_rf_a,,1
70,16585,106,,,,2,2,0.0,0.0,1.0,0.0,,0.0-98.0,,0.0,403.48,0.0,0.290935512,1.0,0.695370945,0.0,0.706570507,0.0,0.280030553,True,,571cc797e1d2ec0012a689a0,,1257946,106,,evan-feature22,full_rf_a,,0
71,16586,107,,,,2,2,1.0,0.0,1.0,0.0,,0.0-99.0,,1.0,553.685,1.0,0.25,1.0,0.6465277079999999,1.0,0.67766682,0.0,0.25,True,,571cc797e1d2ec0012a689a0,,1268270,107,,evan-feature22,full_rf_a,,0
72,16587,108,,,,2,2,1.0,0.0,1.0,0.0,,0.0-100.0,,1.0,913.24,0.0,0.26463816,1.0,0.636100213,1.0,0.646048507,0.0,0.265607101,True,,571cc797e1d2ec0012a689a0,,1278949,108,,evan-feature22,full_rf_a,,0
73,16588,109,,,,2,2,1.0,0.0,1.0,0.0,,0.0-101.0,,1.0,382.48,1.0,0.314340707,0.0,0.667795927,1.0,0.613630805,0.0,0.25,True,,571cc797e1d2ec0012a689a0,,1289100,109,,evan-feature22,full_rf_a,,0
74,16589,110,,,,2,2,1.0,0.0,1.0,0.0,,0.0-102.0,,1.0,503.675,0.0,0.28685784,1.0,0.6622549529999999,1.0,0.652154117,0.0,0.25,True,,571cc797e1d2ec0012a689a0,,1299373,110,,evan-feature22,full_rf_a,,0
75,16590,111,,,,2,2,1.0,0.0,0.0,-1.0,,0.0-103.0,,0.0,798.86,1.0,0.304106554,0.0,0.631289538,1.0,0.707041942,0.0,0.29314237,True,,571cc797e1d2ec0012a689a0,,1309938,111,,evan-feature22,full_rf_a,,0
76,16591,112,,,,1,1,0.0,1.0,0.0,-1.0,,0.0-104.0,,-1.0,974.235,0.0,0.304806932,1.0,0.571167718,0.0,0.680472346,0.0,0.25,True,,571cc797e1d2ec0012a689a0,,1320680,112,,evan-feature22,full_rf_a,,1
77,16592,113,,,,2,2,1.0,0.0,0.0,-1.0,,0.0-105.0,,0.0,456.09,1.0,0.37919861,0.0,0.5724849710000001,1.0,0.705638003,0.0,0.30179300600000003,True,,571cc797e1d2ec0012a689a0,,1330903,113,,evan-feature22,full_rf_a,,1
78,16593,114,,,,1,1,1.0,1.0,0.0,-1.0,,0.0-106.0,,-1.0,486.16,1.0,0.464277969,1.0,0.554034373,1.0,0.7372627340000001,0.0,0.264699741,True,,571cc797e1d2ec0012a689a0,,1341155,114,,evan-feature22,full_rf_a,,1
79,16594,115,,,,2,2,0.0,1.0,1.0,0.0,,0.0-107.0,,0.0,484.915,1.0,0.465104323,1.0,0.530793115,0.0,0.75,1.0,0.31683071,True,,571cc797e1d2ec0012a689a0,,1351411,115,,evan-feature22,full_rf_a,,1
80,16595,116,,,,2,2,1.0,1.0,0.0,-1.0,,0.0-108.0,,-1.0,310.43,1.0,0.465104323,1.0,0.530793115,1.0,0.75,1.0,0.31683071,True,,571cc797e1d2ec0012a689a0,,1361497,116,,evan-feature22,full_rf_a,,0
81,16596,117,,,,1,1,0.0,1.0,0.0,-1.0,,0.0-109.0,,-1.0,502.445,0.0,0.46833986,1.0,0.570249239,0.0,0.7244472590000001,0.0,0.364114163,True,,571cc797e1d2ec0012a689a0,,1371782,117,,evan-feature22,full_rf_a,,1
82,16597,118,,,,2,2,1.0,0.0,0.0,-1.0,,0.0-110.0,,0.0,1140.125,1.0,0.445444024,0.0,0.649673355,1.0,0.6845441290000001,0.0,0.300660449,True,,571cc797e1d2ec0012a689a0,,1382691,118,,evan-feature22,full_rf_a,,1
83,16598,119,,,,2,2,1.0,0.0,0.0,-1.0,,0.0-111.0,,0.0,383.83,0.0,0.39909721299999995,1.0,0.6715179509999999,1.0,0.742310028,0.0,0.35496088299999995,True,,571cc797e1d2ec0012a689a0,,1392842,119,,evan-feature22,full_rf_a,,0
84,16599,120,,,,2,2,1.0,0.0,0.0,-1.0,,0.0-112.0,,0.0,1149.16,1.0,0.37956104799999996,0.0,0.694725302,1.0,0.7181651309999999,0.0,0.38726906299999997,True,,571cc797e1d2ec0012a689a0,,1403762,120,,evan-feature22,full_rf_a,,0
85,16600,121,,,,1,1,1.0,0.0,0.0,-1.0,,0.0-113.0,,0.0,694.57,1.0,0.404995034,0.0,0.724375412,1.0,0.6910946859999999,0.0,0.387187347,True,,571cc797e1d2ec0012a689a0,,1414233,121,,evan-feature22,full_rf_a,,1
86,16601,122,,,,1,1,0.0,1.0,0.0,-1.0,,0.0-114.0,,-1.0,658.96,0.0,0.461740803,1.0,0.75,0.0,0.75,0.0,0.34872038200000005,True,,571cc797e1d2ec0012a689a0,,1424659,122,,evan-feature22,full_rf_a,,0
87,16602,123,,,,2,2,1.0,0.0,1.0,0.0,,0.0-115.0,,1.0,507.37,0.0,0.43821380600000004,1.0,0.738833273,1.0,0.728286963,0.0,0.399538128,True,,571cc797e1d2ec0012a689a0,,1434934,123,,evan-feature22,full_rf_a,,1
88,16603,124,,,,2,2,1.0,0.0,0.0,-1.0,,0.0-116.0,,0.0,488.645,0.0,0.41709882,0.0,0.736666736,1.0,0.75,0.0,0.389095584,True,,571cc797e1d2ec0012a689a0,,1445190,124,,evan-feature22,full_rf_a,,0
89,16604,125,,,,2,2,1.0,0.0,0.0,-1.0,,0.0-117.0,,0.0,545.525,1.0,0.39749009799999996,1.0,0.744320029,1.0,0.75,0.0,0.363848678,True,,571cc797e1d2ec0012a689a0,,1455508,125,,evan-feature22,full_rf_a,,0
90,16605,126,,,,1,1,1.0,1.0,1.0,0.0,,0.0-118.0,,1.0,572.005,1.0,0.392653706,1.0,0.75,1.0,0.75,1.0,0.384386976,True,,571cc797e1d2ec0012a689a0,,1465856,126,,evan-feature22,full_rf_a,,1
91,16606,127,,,,1,1,1.0,1.0,1.0,0.0,,0.0-119.0,,1.0,1048.05,1.0,0.31190902600000003,1.0,0.75,1.0,0.732413819,1.0,0.413082932,True,,571cc797e1d2ec0012a689a0,,1476681,127,,evan-feature22,full_rf_a,,0
92,16607,128,,,,1,1,1.0,1.0,0.0,-1.0,,0.0-120.0,,-1.0,615.885,1.0,0.366917648,1.0,0.740073855,1.0,0.75,0.0,0.352861979,True,,571cc797e1d2ec0012a689a0,,1487071,128,,evan-feature22,full_rf_a,,0
93,16608,129,,,,2,2,1.0,0.0,0.0,-1.0,,0.0-121.0,,0.0,755.385,1.0,0.3645172,1.0,0.721770713,1.0,0.75,0.0,0.404074511,True,,571cc797e1d2ec0012a689a0,,1497593,129,,evan-feature22,full_rf_a,,1
94,16609,130,,,,1,1,0.0,1.0,0.0,-1.0,,0.0-122.0,,-1.0,799.12,0.0,0.35205600299999995,1.0,0.68983859,1.0,0.739735447,0.0,0.366895945,True,,571cc797e1d2ec0012a689a0,,1508161,130,,evan-feature22,full_rf_a,,1
95,16610,131,,,,2,2,0.0,1.0,0.0,-1.0,,0.0-123.0,,-1.0,494.8,1.0,0.40998722600000004,1.0,0.720859127,0.0,0.673854955,1.0,0.368528541,True,,571cc797e1d2ec0012a689a0,,1518422,131,,evan-feature22,full_rf_a,,1
96,16611,132,,,,1,1,0.0,1.0,1.0,0.0,,0.0-124.0,,0.0,534.81,0.0,0.353625316,1.0,0.75,1.0,0.695605473,0.0,0.38303674200000004,True,,571cc797e1d2ec0012a689a0,,1528733,132,,evan-feature22,full_rf_a,,1
97,16612,133,,,,2,2,0.0,1.0,0.0,-1.0,,0.0-125.0,,-1.0,445.3,0.0,0.359216989,0.0,0.75,0.0,0.6987915090000001,1.0,0.35169046200000004,True,,571cc797e1d2ec0012a689a0,,1538943,133,,evan-feature22,full_rf_a,,1
98,16613,134,,,,1,1,0.0,1.0,1.0,0.0,,0.0-126.0,,0.0,948.86,0.0,0.35834496899999996,1.0,0.75,1.0,0.707067742,1.0,0.416763636,True,,571cc797e1d2ec0012a689a0,,1549659,134,,evan-feature22,full_rf_a,,1
99,16614,135,,,,2,2,1.0,0.0,1.0,0.0,,0.0-127.0,,1.0,2163.91,0.0,0.38741613799999997,1.0,0.7177369570000001,1.0,0.734902455,0.0,0.49438664299999996,True,,571cc797e1d2ec0012a689a0,,1561589,135,,evan-feature22,full_rf_a,,1
100,16615,136,,,,2,2,1.0,1.0,0.0,-1.0,,0.0-128.0,,-1.0,694.08,0.0,0.405255252,0.0,0.7300466640000001,1.0,0.7027748070000001,1.0,0.504359668,True,,571cc797e1d2ec0012a689a0,,1572051,136,,evan-feature22,full_rf_a,,0
101,16616,137,,,,1,1,0.0,1.0,0.0,-1.0,,0.0-129.0,,-1.0,578.09,0.0,0.40697073,1.0,0.7260142190000001,0.0,0.724461982,0.0,0.522779179,True,,571cc797e1d2ec0012a689a0,,1582399,137,,evan-feature22,full_rf_a,,1
102,16617,138,,,,2,2,1.0,1.0,0.0,-1.0,,0.0-130.0,,-1.0,432.885,1.0,0.43906215299999996,0.0,0.7252802340000001,1.0,0.719079934,1.0,0.5712990579999999,True,,571cc797e1d2ec0012a689a0,,1592604,138,,evan-feature22,full_rf_a,,1
103,16618,139,,,,1,1,0.0,1.0,0.0,-1.0,,0.0-131.0,,-1.0,413.195,0.0,0.4076705,1.0,0.73280499,1.0,0.681313127,0.0,0.523891346,True,,571cc797e1d2ec0012a689a0,,1602787,139,,evan-feature22,full_rf_a,,1
104,16619,140,,,,2,2,1.0,0.0,0.0,-1.0,,0.0-132.0,,0.0,415.915,1.0,0.399102911,1.0,0.730498344,1.0,0.661080239,0.0,0.46742603,True,,571cc797e1d2ec0012a689a0,,1612968,140,,evan-feature22,full_rf_a,,1
105,16620,141,,,,2,2,1.0,1.0,1.0,0.0,,0.0-133.0,,1.0,515.715,0.0,0.356477282,1.0,0.712296395,1.0,0.641812684,1.0,0.44868414,True,,571cc797e1d2ec0012a689a0,,1623257,141,,evan-feature22,full_rf_a,,0
106,16621,142,,,,2,2,1.0,0.0,0.0,-1.0,,0.0-134.0,,0.0,379.4,0.0,0.462760722,1.0,0.692349322,1.0,0.700947931,0.0,0.394680266,True,,571cc797e1d2ec0012a689a0,,1633409,142,,evan-feature22,full_rf_a,,0
107,16622,143,,,,2,2,0.0,0.0,0.0,-1.0,,0.0-135.0,,0.0,464.69,0.0,0.422306413,1.0,0.718375916,0.0,0.706340917,0.0,0.367787185,True,,571cc797e1d2ec0012a689a0,,1643640,143,,evan-feature22,full_rf_a,,0
108,16624,145,,,,2,2,0.0,0.0,0.0,-1.0,,0.0-137.0,,0.0,478.15,0.0,0.4582233,1.0,0.643834117,0.0,0.75,0.0,0.39615823299999997,True,,571cc797e1d2ec0012a689a0,,1675369,145,,evan-feature22,full_rf_a,,0
109,16625,146,,,,2,2,1.0,0.0,0.0,-1.0,,0.0-138.0,,0.0,762.85,1.0,0.43813437899999996,1.0,0.651283804,1.0,0.729674191,0.0,0.37711048,True,,571cc797e1d2ec0012a689a0,,1685900,146,,evan-feature22,full_rf_a,,0
110,16626,147,,,,1,1,1.0,1.0,0.0,-1.0,,0.0-139.0,,-1.0,411.435,1.0,0.471199094,1.0,0.6470010979999999,1.0,0.715008097,1.0,0.410656191,True,,571cc797e1d2ec0012a689a0,,1696084,147,,evan-feature22,full_rf_a,,1
111,16627,148,,,,2,2,1.0,1.0,1.0,0.0,,0.0-140.0,,1.0,754.49,0.0,0.42486406,1.0,0.629771829,1.0,0.6550939960000001,1.0,0.459093873,True,,571cc797e1d2ec0012a689a0,,1706615,148,,evan-feature22,full_rf_a,,1
112,16628,149,,,,2,2,1.0,0.0,1.0,0.0,,0.0-141.0,,1.0,703.99,1.0,0.4803197,1.0,0.645842715,1.0,0.6421749920000001,0.0,0.443092151,True,,571cc797e1d2ec0012a689a0,,1717090,149,,evan-feature22,full_rf_a,,0
113,16629,150,,,,2,2,1.0,0.0,1.0,0.0,,0.0-142.0,,1.0,512.165,0.0,0.521848997,0.0,0.735801074,1.0,0.6691348460000001,0.0,0.45259351600000003,True,,571cc797e1d2ec0012a689a0,,1727368,150,,evan-feature22,full_rf_a,,0
114,16630,151,,,,2,2,1.0,0.0,0.0,-1.0,,0.0-143.0,,0.0,518.075,1.0,0.49565621299999996,1.0,0.742400847,1.0,0.661512553,0.0,0.483110831,True,,571cc797e1d2ec0012a689a0,,1737654,151,,evan-feature22,full_rf_a,,0
115,16631,152,,,,1,1,0.0,0.0,1.0,0.0,,0.0-144.0,,0.0,887.095,0.0,0.521564361,0.0,0.731078632,1.0,0.6774886809999999,1.0,0.483263956,True,,571cc797e1d2ec0012a689a0,,1748304,152,,evan-feature22,full_rf_a,,1
116,16632,153,,,,2,2,0.0,0.0,1.0,0.0,,0.0-145.0,,0.0,558.705,0.0,0.558893102,1.0,0.719810023,0.0,0.67461031,0.0,0.499349834,True,,571cc797e1d2ec0012a689a0,,1758630,153,,evan-feature22,full_rf_a,,1
117,16633,154,,,,2,2,1.0,0.0,0.0,-1.0,,0.0-146.0,,0.0,373.47,0.0,0.611031046,1.0,0.75,1.0,0.688072995,0.0,0.5321422729999999,True,,571cc797e1d2ec0012a689a0,,1768769,154,,evan-feature22,full_rf_a,,0
118,16634,155,,,,1,1,0.0,1.0,1.0,0.0,,0.0-147.0,,0.0,469.675,0.0,0.633223941,1.0,0.713567728,1.0,0.75,0.0,0.48185314700000004,True,,571cc797e1d2ec0012a689a0,,1779005,155,,evan-feature22,full_rf_a,,1
119,16635,156,,,,2,2,1.0,1.0,1.0,0.0,,0.0-148.0,,1.0,1331.535,0.0,0.664001694,1.0,0.705509768,1.0,0.75,1.0,0.500211065,True,,571cc797e1d2ec0012a689a0,,1790111,156,,evan-feature22,full_rf_a,,1
120,16636,157,,,,2,2,1.0,0.0,0.0,-1.0,,0.0-149.0,,0.0,1369.66,0.0,0.664001694,0.0,0.705509768,1.0,0.75,0.0,0.500211065,True,,571cc797e1d2ec0012a689a0,,1801247,157,,evan-feature22,full_rf_a,,0
121,16637,158,,,,SLOW,SLOW,,,0.0,-1.0,,0.0-150.0,,-3.0,,1.0,0.696508041,1.0,0.71066027,1.0,0.717028709,0.0,0.49792991,True,,571cc797e1d2ec0012a689a0,,1807062,158,,evan-feature22,full_rf_a,,1
122,16638,159,,,,2,2,1.0,1.0,1.0,0.0,,0.0-151.0,,1.0,550.995,1.0,0.699883272,1.0,0.75,1.0,0.713543895,1.0,0.496962643,True,,571cc797e1d2ec0012a689a0,,1817386,159,,evan-feature22,full_rf_a,,1
123,16639,160,,,,2,2,1.0,0.0,0.0,-1.0,,0.0-152.0,,0.0,632.68,1.0,0.741163419,1.0,0.75,1.0,0.64691024,0.0,0.513858197,True,,571cc797e1d2ec0012a689a0,,1827788,160,,evan-feature22,full_rf_a,,0
124,16640,161,,,,2,2,1.0,0.0,1.0,0.0,,0.0-153.0,,1.0,2388.89,0.0,0.75,0.0,0.70816558,1.0,0.594499079,0.0,0.48502124,True,,571cc797e1d2ec0012a689a0,,1839943,161,,evan-feature22,full_rf_a,,0
125,16641,162,,,,2,2,0.0,1.0,0.0,-1.0,,0.0-154.0,,-1.0,227.565,1.0,0.75,1.0,0.721848901,0.0,0.62197249,1.0,0.48263586399999997,True,,571cc797e1d2ec0012a689a0,,1849941,162,,evan-feature22,full_rf_a,,0
126,16642,163,,,,1,1,1.0,0.0,1.0,0.0,,0.0-155.0,,1.0,281.33,1.0,0.75,0.0,0.74813071,1.0,0.584357161,0.0,0.411477782,True,,571cc797e1d2ec0012a689a0,,1859997,163,,evan-feature22,full_rf_a,,1
127,16643,164,,,,1,1,0.0,1.0,0.0,-1.0,,0.0-156.0,,-1.0,2906.99,0.0,0.75,1.0,0.75,1.0,0.52287236,0.0,0.488290656,True,,571cc797e1d2ec0012a689a0,,1872672,164,,evan-feature22,full_rf_a,,0
128,16644,165,,,,2,2,0.0,1.0,0.0,-1.0,,0.0-157.0,,-1.0,448.89,1.0,0.75,0.0,0.75,0.0,0.544321581,1.0,0.53143059,True,,571cc797e1d2ec0012a689a0,,1882893,165,,evan-feature22,full_rf_a,,1
129,16645,166,,,,1,1,0.0,1.0,0.0,-1.0,,0.0-158.0,,-1.0,3701.975,0.0,0.726754564,1.0,0.75,0.0,0.5129306370000001,1.0,0.530592445,True,,571cc797e1d2ec0012a689a0,,1896357,166,,evan-feature22,full_rf_a,,1
130,16646,167,,,,2,2,1.0,1.0,1.0,0.0,,0.0-159.0,,1.0,201.905,0.0,0.75,1.0,0.7392590729999999,1.0,0.479875835,1.0,0.547007051,True,,571cc797e1d2ec0012a689a0,,1906328,167,,evan-feature22,full_rf_a,,1
131,16647,168,,,,SLOW,SLOW,,,1.0,0.0,,0.0-160.0,,-3.0,,0.0,0.75,1.0,0.7393376979999999,1.0,0.546045419,1.0,0.541267353,True,,571cc797e1d2ec0012a689a0,,1912144,168,,evan-feature22,full_rf_a,,1
132,16648,169,,,,2,2,1.0,1.0,1.0,0.0,,0.0-161.0,,1.0,589.88,0.0,0.75,0.0,0.75,1.0,0.485725895,1.0,0.527625395,True,,571cc797e1d2ec0012a689a0,,1922506,169,,evan-feature22,full_rf_a,,1
133,16649,170,,,,2,2,1.0,0.0,0.0,-1.0,,0.0-162.0,,0.0,446.315,1.0,0.75,0.0,0.725087974,1.0,0.488603595,0.0,0.504019206,True,,571cc797e1d2ec0012a689a0,,1932732,170,,evan-feature22,full_rf_a,,0
134,16650,171,,,,1,1,1.0,1.0,0.0,-1.0,,0.0-163.0,,-1.0,354.735,1.0,0.745504295,1.0,0.75,1.0,0.452379914,0.0,0.50131194,True,,571cc797e1d2ec0012a689a0,,1942848,171,,evan-feature22,full_rf_a,,1
135,16651,172,,,,2,2,0.0,1.0,0.0,-1.0,,0.0-164.0,,-1.0,36.45000001,1.0,0.728513874,1.0,0.75,0.0,0.44125567200000004,1.0,0.531454591,True,,571cc797e1d2ec0012a689a0,,1952650,172,,evan-feature22,full_rf_a,,1
136,16652,173,,,,1,1,1.0,1.0,1.0,0.0,,0.0-165.0,,1.0,357.74,1.0,0.73790804,1.0,0.75,0.0,0.413036656,1.0,0.524619035,True,,571cc797e1d2ec0012a689a0,,1962781,173,,evan-feature22,full_rf_a,,1
137,16653,174,,,,1,1,1.0,1.0,0.0,-1.0,,0.0-166.0,,-1.0,470.31,1.0,0.7080961309999999,1.0,0.708666865,0.0,0.431915581,0.0,0.481819489,True,,571cc797e1d2ec0012a689a0,,1973026,174,,evan-feature22,full_rf_a,,0
138,16654,175,,,,SLOW,SLOW,,,0.0,-1.0,,0.0-167.0,,-3.0,,1.0,0.721378003,0.0,0.71605913,0.0,0.36642387,1.0,0.5036739929999999,True,,571cc797e1d2ec0012a689a0,,1978836,175,,evan-feature22,full_rf_a,,1
139,16655,176,,,,2,2,0.0,1.0,0.0,-1.0,,0.0-168.0,,-1.0,1685.25,0.0,0.7340618959999999,0.0,0.699323252,0.0,0.35298046299999997,1.0,0.511241692,True,,571cc797e1d2ec0012a689a0,,1990285,176,,evan-feature22,full_rf_a,,1
140,16656,177,,,,1,1,1.0,1.0,1.0,0.0,,0.0-169.0,,1.0,2900.45,1.0,0.75,1.0,0.70412698,1.0,0.380734814,1.0,0.529580116,True,,571cc797e1d2ec0012a689a0,,2002964,177,,evan-feature22,full_rf_a,,1
141,16657,178,,,,1,1,1.0,0.0,0.0,-1.0,,0.0-170.0,,0.0,2457.44,1.0,0.7436654909999999,0.0,0.711182751,1.0,0.41125331,1.0,0.49554405,True,,571cc797e1d2ec0012a689a0,,2015197,178,,evan-feature22,full_rf_a,,0
142,16658,179,,,,1,1,0.0,0.0,0.0,-1.0,,0.0-171.0,,0.0,2749.355,0.0,0.731607915,0.0,0.651774583,1.0,0.35688023,1.0,0.45194491600000003,True,,571cc797e1d2ec0012a689a0,,2027713,179,,evan-feature22,full_rf_a,,0
143,16659,180,,,,2,2,1.0,0.0,1.0,0.0,,0.0-172.0,,1.0,195.92,1.0,0.75,0.0,0.75,1.0,0.283145374,0.0,0.528608005,True,,571cc797e1d2ec0012a689a0,,2037673,180,,evan-feature22,full_rf_a,,1
144,16660,181,,,,2,2,1.0,1.0,1.0,0.0,,0.0-173.0,,1.0,372.235,1.0,0.7491416890000001,1.0,0.7423785959999999,1.0,0.29135870399999997,1.0,0.498888318,True,,571cc797e1d2ec0012a689a0,,2047818,181,,evan-feature22,full_rf_a,,0
145,16661,182,,,,2,2,0.0,1.0,1.0,0.0,,0.0-174.0,,0.0,672.135,0.0,0.708569387,1.0,0.717682277,0.0,0.294421699,1.0,0.493838163,True,,571cc797e1d2ec0012a689a0,,2058257,182,,evan-feature22,full_rf_a,,0
146,16662,183,,,,2,2,1.0,1.0,0.0,-1.0,,0.0-175.0,,-1.0,476.615,1.0,0.75,1.0,0.7383382159999999,1.0,0.356098707,1.0,0.442533405,True,,571cc797e1d2ec0012a689a0,,2068500,183,,evan-feature22,full_rf_a,,0
147,16663,184,,,,1,1,1.0,0.0,0.0,-1.0,,0.0-176.0,,0.0,422.49,1.0,0.744527075,0.0,0.75,0.0,0.334127506,1.0,0.393165805,True,,571cc797e1d2ec0012a689a0,,2078688,184,,evan-feature22,full_rf_a,,1
148,16664,185,,,,2,2,1.0,0.0,0.0,-1.0,,0.0-177.0,,0.0,299.245,1.0,0.75,1.0,0.75,1.0,0.33571021799999995,0.0,0.350393962,True,,571cc797e1d2ec0012a689a0,,2088757,185,,evan-feature22,full_rf_a,,1
149,16665,186,,,,1,1,0.0,0.0,0.0,-1.0,,0.0-178.0,,0.0,248.135,0.0,0.75,0.0,0.75,0.0,0.313628297,1.0,0.36349657399999996,True,,571cc797e1d2ec0012a689a0,,2098769,186,,evan-feature22,full_rf_a,,1
150,16666,187,,,,1,1,0.0,1.0,1.0,0.0,,0.0-179.0,,0.0,256.32,0.0,0.75,1.0,0.734284182,0.0,0.262667667,1.0,0.380199119,True,,571cc797e1d2ec0012a689a0,,2108792,187,,evan-feature22,full_rf_a,,0
151,16667,188,,,,2,2,0.0,0.0,0.0,-1.0,,0.0-180.0,,0.0,401.945,1.0,0.75,1.0,0.75,0.0,0.25,0.0,0.394494013,True,,571cc797e1d2ec0012a689a0,,2118967,188,,evan-feature22,full_rf_a,,1
152,16668,189,,,,1,1,1.0,0.0,1.0,0.0,,0.0-181.0,,1.0,326.54,1.0,0.722298145,0.0,0.7357822340000001,0.0,0.25,1.0,0.319142121,True,,571cc797e1d2ec0012a689a0,,2129063,189,,evan-feature22,full_rf_a,,1
153,16669,190,,,,1,1,1.0,1.0,1.0,0.0,,0.0-182.0,,1.0,337.015,1.0,0.73149275,1.0,0.724276446,0.0,0.305856907,0.0,0.281315057,True,,571cc797e1d2ec0012a689a0,,2139173,190,,evan-feature22,full_rf_a,,0
154,16670,191,,,,1,1,1.0,1.0,0.0,-1.0,,0.0-183.0,,-1.0,567.31,1.0,0.7458732690000001,1.0,0.7336382459999999,1.0,0.272571964,0.0,0.266021999,True,,571cc797e1d2ec0012a689a0,,2149511,191,,evan-feature22,full_rf_a,,0
155,16671,192,,,,SLOW,SLOW,,,0.0,-1.0,,0.0-184.0,,-3.0,,1.0,0.705579037,0.0,0.720778292,1.0,0.320238144,1.0,0.30971744,True,,571cc797e1d2ec0012a689a0,,2155321,192,,evan-feature22,full_rf_a,,1
156,16672,193,,,,2,2,0.0,0.0,0.0,-1.0,,0.0-185.0,,0.0,496.28,0.0,0.700425648,1.0,0.7198784009999999,0.0,0.272590393,0.0,0.304182931,True,,571cc797e1d2ec0012a689a0,,2165582,193,,evan-feature22,full_rf_a,,1
157,16673,194,,,,1,1,0.0,1.0,0.0,-1.0,,0.0-186.0,,-1.0,753.865,0.0,0.735590785,1.0,0.722714973,1.0,0.25,0.0,0.323421091,True,,571cc797e1d2ec0012a689a0,,2176106,194,,evan-feature22,full_rf_a,,1
158,16674,195,,,,SLOW,SLOW,,,0.0,-1.0,,0.0-187.0,,-3.0,,1.0,0.724807662,0.0,0.63146213,0.0,0.36836492600000004,0.0,0.34592153299999995,True,,571cc797e1d2ec0012a689a0,,2181917,195,,evan-feature22,full_rf_a,,1
159,16675,196,,,,2,2,0.0,0.0,0.0,-1.0,,0.0-188.0,,0.0,497.76,1.0,0.7352796909999999,0.0,0.555111392,0.0,0.36003922,0.0,0.31433779999999995,True,,571cc797e1d2ec0012a689a0,,2192178,196,,evan-feature22,full_rf_a,,1
160,16676,197,notice,,,,,,,,,,0.0-189.0,"{""Q0"":""No""}",,6860.0,,,,,,,,,True,,571cc797e1d2ec0012a689a0,,2199042,197,Q,survey-text,full_rf_a,,1
161,16677,198,track1,,[1],,,,,,,,0.0-190.0,"{""Q0"":""no""}",,3470.0,,,,,,,,,True,,571cc797e1d2ec0012a689a0,,2202520,198,Q,evan-quiz,full_rf_a,,1
162,16678,199,track2,,[0],,,,,,,,0.0-191.0,"{""Q0"":""yes""}",,6838.0,,,,,,,,,True,,571cc797e1d2ec0012a689a0,,2209362,199,Q,evan-quiz,full_rf_a,,1
163,16679,200,strat,,,,,,,,,,0.0-192.0,"{""Q0"":""Not really""}",,7220.0,,,,,,,,,True,,571cc797e1d2ec0012a689a0,,2216587,200,Q,survey-text,full_rf_a,,1
