,index,Unnamed: 0,Q_name,button_pressed,choice_idxs,chosen_pos,chosen_state,chosen_state_f_1_outcome,chosen_state_f_2_outcome,f_1_reward,f_2_reward,incor_questions,internal_node_id,responses,reward_received,rt,s_1_f_1_outcome,s_1_f_1_prob,s_1_f_2_outcome,s_1_f_2_prob,s_2_f_1_outcome,s_2_f_1_prob,s_2_f_2_outcome,s_2_f_2_prob,safe_first,stimulus,subjectID,success,time_elapsed,trial_index,trial_num,trial_type,version,view_history,switching
0,47769,25,,,,2,2,1.0,1.0,1.0,0.0,,0.0-27.0,,1.0,1258.045,0.0,0.6,1.0,0.6,1.0,0.4,1.0,0.4,True,,5dc44b73900e3e31ef1e3294,,648727,25,,evan-feature22,full_rf_a,,0
1,47770,26,,,,2,2,0.0,0.0,1.0,0.0,,0.0-28.0,,0.0,706.1149998999999,1.0,0.608053294,0.0,0.63424552,0.0,0.397152172,0.0,0.347069101,True,,5dc44b73900e3e31ef1e3294,,659193,26,,evan-feature22,full_rf_a,,0
2,47771,27,,,,1,1,1.0,1.0,1.0,0.0,,0.0-29.0,,1.0,1232.335,1.0,0.642237155,1.0,0.648566321,1.0,0.389407674,0.0,0.285525717,True,,5dc44b73900e3e31ef1e3294,,670185,27,,evan-feature22,full_rf_a,,1
3,47772,28,,,,2,2,1.0,0.0,1.0,0.0,,0.0-30.0,,1.0,752.2150001,1.0,0.661086576,0.0,0.630492543,1.0,0.399058924,0.0,0.25,True,,5dc44b73900e3e31ef1e3294,,680697,28,,evan-feature22,full_rf_a,,1
4,47773,29,,,,2,2,1.0,1.0,0.0,-1.0,,0.0-31.0,,-1.0,1252.525,0.0,0.631324137,0.0,0.6269842929999999,1.0,0.38734784299999997,1.0,0.25,True,,5dc44b73900e3e31ef1e3294,,691707,29,,evan-feature22,full_rf_a,,0
5,47774,30,,,,1,1,1.0,0.0,0.0,-1.0,,0.0-32.0,,0.0,1411.5,1.0,0.6381991370000001,0.0,0.68987999,1.0,0.384107265,0.0,0.271332943,True,,5dc44b73900e3e31ef1e3294,,702877,30,,evan-feature22,full_rf_a,,1
6,47775,31,,,,2,2,0.0,1.0,1.0,0.0,,0.0-33.0,,0.0,816.84,0.0,0.66034901,1.0,0.742641349,0.0,0.360225629,1.0,0.25,True,,5dc44b73900e3e31ef1e3294,,713453,31,,evan-feature22,full_rf_a,,1
7,47776,32,,,,2,2,0.0,1.0,1.0,0.0,,0.0-34.0,,0.0,587.0749999,1.0,0.638612418,0.0,0.75,0.0,0.367273939,1.0,0.25,True,,5dc44b73900e3e31ef1e3294,,723800,32,,evan-feature22,full_rf_a,,0
8,47777,33,,,,1,1,0.0,1.0,0.0,-1.0,,0.0-35.0,,-1.0,881.4449999,0.0,0.624340629,1.0,0.75,1.0,0.425829545,1.0,0.25,True,,5dc44b73900e3e31ef1e3294,,734440,33,,evan-feature22,full_rf_a,,1
9,47778,34,,,,1,1,0.0,1.0,0.0,-1.0,,0.0-36.0,,-1.0,590.1349999,0.0,0.621999804,1.0,0.75,0.0,0.368609357,0.0,0.25,True,,5dc44b73900e3e31ef1e3294,,744788,34,,evan-feature22,full_rf_a,,0
10,47779,35,,,,2,2,0.0,0.0,1.0,0.0,,0.0-37.0,,0.0,1709.475,1.0,0.62666403,1.0,0.75,0.0,0.311151498,0.0,0.25,True,,5dc44b73900e3e31ef1e3294,,756256,35,,evan-feature22,full_rf_a,,1
11,47780,36,,,,2,2,1.0,0.0,0.0,-1.0,,0.0-38.0,,0.0,717.2449999,1.0,0.6819650009999999,1.0,0.75,1.0,0.310763048,0.0,0.25,True,,5dc44b73900e3e31ef1e3294,,766733,36,,evan-feature22,full_rf_a,,0
12,47781,37,,,,2,2,0.0,0.0,1.0,0.0,,0.0-39.0,,0.0,710.2599998,1.0,0.740626951,0.0,0.75,0.0,0.25,0.0,0.25,True,,5dc44b73900e3e31ef1e3294,,777203,37,,evan-feature22,full_rf_a,,0
13,47782,38,,,,1,1,0.0,1.0,1.0,0.0,,0.0-40.0,,0.0,628.9050002,0.0,0.739599242,1.0,0.742034978,0.0,0.25397114600000004,0.0,0.25,True,,5dc44b73900e3e31ef1e3294,,787593,38,,evan-feature22,full_rf_a,,1
14,47783,39,,,,1,1,0.0,0.0,1.0,0.0,,0.0-41.0,,0.0,622.5650001,0.0,0.732341315,0.0,0.72735643,0.0,0.25,0.0,0.25,True,,5dc44b73900e3e31ef1e3294,,797977,39,,evan-feature22,full_rf_a,,0
15,47784,40,,,,1,1,1.0,1.0,1.0,0.0,,0.0-42.0,,1.0,464.94499989999997,1.0,0.7062287770000001,1.0,0.75,0.0,0.29002151,0.0,0.288256649,True,,5dc44b73900e3e31ef1e3294,,808200,40,,evan-feature22,full_rf_a,,0
16,47785,41,,,,1,1,1.0,1.0,1.0,0.0,,0.0-43.0,,1.0,606.6100001,1.0,0.7086029209999999,1.0,0.75,1.0,0.274129113,0.0,0.262851608,True,,5dc44b73900e3e31ef1e3294,,818566,41,,evan-feature22,full_rf_a,,0
17,47786,42,,,,1,1,0.0,1.0,1.0,0.0,,0.0-44.0,,0.0,613.2499999,0.0,0.669189651,1.0,0.727614338,0.0,0.298444036,0.0,0.296944518,True,,5dc44b73900e3e31ef1e3294,,828938,42,,evan-feature22,full_rf_a,,0
18,47787,43,,,,1,1,1.0,1.0,1.0,0.0,,0.0-45.0,,1.0,453.6850001,1.0,0.6819912929999999,1.0,0.7179434290000001,1.0,0.265003961,1.0,0.28157921199999997,True,,5dc44b73900e3e31ef1e3294,,839151,43,,evan-feature22,full_rf_a,,0
19,47788,44,,,,2,2,0.0,1.0,0.0,-1.0,,0.0-46.0,,-1.0,754.0600002,0.0,0.665275002,0.0,0.723065271,0.0,0.260414971,1.0,0.30973870000000003,True,,5dc44b73900e3e31ef1e3294,,849669,44,,evan-feature22,full_rf_a,,1
20,47789,45,,,,1,1,1.0,0.0,1.0,0.0,,0.0-47.0,,1.0,582.5499999,1.0,0.6660593260000001,0.0,0.728032907,0.0,0.30922817,0.0,0.338778608,True,,5dc44b73900e3e31ef1e3294,,860009,45,,evan-feature22,full_rf_a,,1
21,47790,46,,,,1,1,1.0,0.0,1.0,0.0,,0.0-48.0,,1.0,563.475,1.0,0.702068785,0.0,0.6528750879999999,0.0,0.287329608,0.0,0.35789613200000003,True,,5dc44b73900e3e31ef1e3294,,870332,46,,evan-feature22,full_rf_a,,0
22,47791,47,,,,1,1,0.0,1.0,1.0,0.0,,0.0-49.0,,0.0,650.8250001,0.0,0.651939787,1.0,0.636725589,0.0,0.284834488,1.0,0.358563756,True,,5dc44b73900e3e31ef1e3294,,880744,47,,evan-feature22,full_rf_a,,0
23,47792,48,,,,2,2,1.0,0.0,0.0,-1.0,,0.0-50.0,,0.0,825.5100001000001,1.0,0.67573929,1.0,0.612550049,1.0,0.37130387600000003,0.0,0.383542402,True,,5dc44b73900e3e31ef1e3294,,891330,48,,evan-feature22,full_rf_a,,1
24,47793,49,,,,1,1,1.0,0.0,0.0,-1.0,,0.0-51.0,,0.0,772.0649999,1.0,0.620753801,0.0,0.60513644,0.0,0.385529434,0.0,0.340361743,True,,5dc44b73900e3e31ef1e3294,,901863,49,,evan-feature22,full_rf_a,,1
25,47794,50,,,,2,2,0.0,1.0,0.0,-1.0,,0.0-52.0,,-1.0,636.985,0.0,0.673564893,1.0,0.672437924,0.0,0.292955382,1.0,0.337633795,True,,5dc44b73900e3e31ef1e3294,,912259,50,,evan-feature22,full_rf_a,,1
26,47795,51,,,,1,1,1.0,1.0,1.0,0.0,,0.0-53.0,,1.0,551.1699999,1.0,0.6749427,1.0,0.724197502,0.0,0.32391132100000003,0.0,0.350995264,True,,5dc44b73900e3e31ef1e3294,,922570,51,,evan-feature22,full_rf_a,,1
27,47796,52,,,,1,1,0.0,1.0,1.0,0.0,,0.0-54.0,,0.0,892.8099999,0.0,0.6940159379999999,1.0,0.75,0.0,0.31710554399999996,0.0,0.413450341,True,,5dc44b73900e3e31ef1e3294,,933221,52,,evan-feature22,full_rf_a,,0
28,47797,53,,,,1,1,0.0,1.0,1.0,0.0,,0.0-55.0,,0.0,610.195,0.0,0.6916018270000001,1.0,0.69001187,1.0,0.261817804,1.0,0.40038635,True,,5dc44b73900e3e31ef1e3294,,943592,53,,evan-feature22,full_rf_a,,0
29,47798,54,,,,1,1,0.0,1.0,1.0,0.0,,0.0-56.0,,0.0,440.195,0.0,0.641061544,1.0,0.71337992,0.0,0.277296461,0.0,0.47372791700000005,True,,5dc44b73900e3e31ef1e3294,,953791,54,,evan-feature22,full_rf_a,,0
30,47799,55,,,,1,1,1.0,1.0,1.0,0.0,,0.0-57.0,,1.0,442.74000010000003,1.0,0.6082438520000001,1.0,0.708471106,0.0,0.28745137,1.0,0.564174476,True,,5dc44b73900e3e31ef1e3294,,963993,55,,evan-feature22,full_rf_a,,0
31,47800,56,,,,1,1,1.0,1.0,1.0,0.0,,0.0-58.0,,1.0,583.8949999,1.0,0.6051112120000001,1.0,0.7118147229999999,1.0,0.272390611,0.0,0.5595149939999999,True,,5dc44b73900e3e31ef1e3294,,974337,56,,evan-feature22,full_rf_a,,0
32,47801,57,,,,1,1,1.0,1.0,1.0,0.0,,0.0-59.0,,1.0,473.5349999,1.0,0.582420852,1.0,0.635867583,0.0,0.31089574,1.0,0.5227206520000001,True,,5dc44b73900e3e31ef1e3294,,984568,57,,evan-feature22,full_rf_a,,0
33,47802,58,,,,2,2,0.0,1.0,0.0,-1.0,,0.0-60.0,,-1.0,701.75,0.0,0.623195575,1.0,0.655026044,0.0,0.25,1.0,0.560387538,True,,5dc44b73900e3e31ef1e3294,,995027,58,,evan-feature22,full_rf_a,,1
34,47803,59,,,,1,1,1.0,0.0,1.0,0.0,,0.0-61.0,,1.0,885.665,1.0,0.601889598,0.0,0.678198724,0.0,0.25,1.0,0.559922936,True,,5dc44b73900e3e31ef1e3294,,1005672,59,,evan-feature22,full_rf_a,,1
35,47804,60,,,,1,1,1.0,1.0,1.0,0.0,,0.0-62.0,,1.0,530.1649999,1.0,0.601259914,1.0,0.704681482,0.0,0.33908969299999997,1.0,0.505003715,True,,5dc44b73900e3e31ef1e3294,,1015963,60,,evan-feature22,full_rf_a,,0
36,47805,61,,,,1,1,1.0,0.0,1.0,0.0,,0.0-63.0,,1.0,640.1449997999999,1.0,0.59645454,0.0,0.710437172,0.0,0.327441879,0.0,0.391749613,True,,5dc44b73900e3e31ef1e3294,,1026363,61,,evan-feature22,full_rf_a,,0
37,47806,62,,,,1,1,0.0,1.0,1.0,0.0,,0.0-64.0,,0.0,533.3699998,0.0,0.529473,1.0,0.636758527,0.0,0.301338063,1.0,0.365661481,True,,5dc44b73900e3e31ef1e3294,,1036654,62,,evan-feature22,full_rf_a,,0
38,47807,63,,,,2,2,0.0,0.0,0.0,-1.0,,0.0-65.0,,0.0,731.7649999,1.0,0.541657162,1.0,0.634541962,0.0,0.343535366,0.0,0.371763742,True,,5dc44b73900e3e31ef1e3294,,1047144,63,,evan-feature22,full_rf_a,,1
39,47808,64,,,,1,1,1.0,0.0,1.0,0.0,,0.0-66.0,,1.0,532.815,1.0,0.5707533260000001,0.0,0.589121171,1.0,0.326428396,1.0,0.43961622899999997,True,,5dc44b73900e3e31ef1e3294,,1057436,64,,evan-feature22,full_rf_a,,1
40,47809,65,,,,1,1,0.0,1.0,1.0,0.0,,0.0-67.0,,0.0,592.25,0.0,0.5707533260000001,1.0,0.589121171,0.0,0.326428396,1.0,0.43961622899999997,True,,5dc44b73900e3e31ef1e3294,,1067786,65,,evan-feature22,full_rf_a,,0
41,47810,66,,,,1,1,1.0,1.0,1.0,0.0,,0.0-68.0,,1.0,544.7500001,1.0,0.506271295,1.0,0.641775594,0.0,0.37149690700000004,0.0,0.404330166,True,,5dc44b73900e3e31ef1e3294,,1078090,66,,evan-feature22,full_rf_a,,0
42,47811,67,,,,2,2,1.0,0.0,0.0,-1.0,,0.0-69.0,,0.0,1144.825,0.0,0.455642565,0.0,0.623605825,1.0,0.358753011,0.0,0.346174041,True,,5dc44b73900e3e31ef1e3294,,1088996,67,,evan-feature22,full_rf_a,,1
43,47812,68,,,,2,2,0.0,0.0,0.0,-1.0,,0.0-70.0,,0.0,718.99,1.0,0.483677308,1.0,0.5904681070000001,0.0,0.402218411,0.0,0.35344697,True,,5dc44b73900e3e31ef1e3294,,1099474,68,,evan-feature22,full_rf_a,,0
44,47813,69,,,,2,2,0.0,1.0,0.0,-1.0,,0.0-71.0,,-1.0,691.3900001000001,1.0,0.394210977,1.0,0.558925494,0.0,0.540052017,1.0,0.35182128700000004,True,,5dc44b73900e3e31ef1e3294,,1109925,69,,evan-feature22,full_rf_a,,0
45,47814,70,,,,1,1,1.0,0.0,1.0,0.0,,0.0-72.0,,1.0,391.36,1.0,0.382300414,0.0,0.577670603,1.0,0.607608448,1.0,0.378261578,True,,5dc44b73900e3e31ef1e3294,,1120076,70,,evan-feature22,full_rf_a,,1
46,47815,71,,,,1,1,1.0,0.0,1.0,0.0,,0.0-73.0,,1.0,411.1499998,1.0,0.357596762,0.0,0.5929076529999999,1.0,0.6579790010000001,1.0,0.401326777,True,,5dc44b73900e3e31ef1e3294,,1130247,71,,evan-feature22,full_rf_a,,0
47,47816,72,,,,1,1,1.0,0.0,1.0,0.0,,0.0-74.0,,1.0,548.6350001000001,1.0,0.362033495,0.0,0.582308608,1.0,0.649195052,0.0,0.355158505,True,,5dc44b73900e3e31ef1e3294,,1140556,72,,evan-feature22,full_rf_a,,0
48,47817,73,,,,1,1,0.0,1.0,1.0,0.0,,0.0-75.0,,0.0,409.99000010000003,0.0,0.369620635,1.0,0.669100864,1.0,0.706059111,0.0,0.362516241,True,,5dc44b73900e3e31ef1e3294,,1150725,73,,evan-feature22,full_rf_a,,0
49,47818,74,,,,1,1,0.0,1.0,1.0,0.0,,0.0-76.0,,0.0,394.00999989999997,0.0,0.41477751399999996,1.0,0.7284416779999999,1.0,0.7182656940000001,1.0,0.36228040899999997,True,,5dc44b73900e3e31ef1e3294,,1160878,74,,evan-feature22,full_rf_a,,0
50,47819,75,,,,1,1,0.0,1.0,0.0,-1.0,,0.0-77.0,,-1.0,1334.015,0.0,0.37675460299999997,1.0,0.703250285,0.0,0.75,1.0,0.461979164,True,,5dc44b73900e3e31ef1e3294,,1171972,75,,evan-feature22,full_rf_a,,0
51,47820,76,,,,1,1,0.0,1.0,0.0,-1.0,,0.0-78.0,,-1.0,629.3000001,0.0,0.398716075,1.0,0.6723864890000001,1.0,0.674153818,0.0,0.519029516,True,,5dc44b73900e3e31ef1e3294,,1182360,76,,evan-feature22,full_rf_a,,0
52,47821,77,,,,2,2,1.0,0.0,1.0,0.0,,0.0-79.0,,1.0,1144.885,1.0,0.34677856700000004,1.0,0.69057175,1.0,0.6822438540000001,0.0,0.477292237,True,,5dc44b73900e3e31ef1e3294,,1193266,77,,evan-feature22,full_rf_a,,1
53,47822,78,,,,2,2,1.0,1.0,0.0,-1.0,,0.0-80.0,,-1.0,1021.175,0.0,0.28580469199999997,1.0,0.68408818,1.0,0.684207565,1.0,0.49780448299999996,True,,5dc44b73900e3e31ef1e3294,,1204047,78,,evan-feature22,full_rf_a,,0
54,47824,80,,,,2,2,0.0,1.0,1.0,0.0,,0.0-82.0,,0.0,922.695,1.0,0.25,0.0,0.7405808970000001,0.0,0.679614108,1.0,0.436436964,True,,5dc44b73900e3e31ef1e3294,,1220600,80,,evan-feature22,full_rf_a,,0
55,47825,81,,,,2,2,0.0,1.0,0.0,-1.0,,0.0-83.0,,-1.0,1129.855,0.0,0.29890393,1.0,0.730505706,0.0,0.7328203320000001,1.0,0.439256938,True,,5dc44b73900e3e31ef1e3294,,1231490,81,,evan-feature22,full_rf_a,,0
56,47826,82,,,,2,2,1.0,1.0,1.0,0.0,,0.0-84.0,,1.0,668.12,0.0,0.326762398,1.0,0.7148059609999999,1.0,0.75,1.0,0.44389608799999997,True,,5dc44b73900e3e31ef1e3294,,1241917,82,,evan-feature22,full_rf_a,,0
57,47827,83,,,,2,2,0.0,0.0,1.0,0.0,,0.0-85.0,,0.0,578.8850002,0.0,0.295168515,1.0,0.739760854,0.0,0.719947008,0.0,0.35277284600000003,True,,5dc44b73900e3e31ef1e3294,,1252254,83,,evan-feature22,full_rf_a,,0
58,47828,84,,,,2,2,1.0,1.0,1.0,0.0,,0.0-86.0,,1.0,462.7650001,1.0,0.25,1.0,0.70781482,1.0,0.75,1.0,0.286095925,True,,5dc44b73900e3e31ef1e3294,,1262477,84,,evan-feature22,full_rf_a,,0
59,47829,85,,,,2,2,1.0,0.0,0.0,-1.0,,0.0-87.0,,0.0,1001.835,0.0,0.25638190899999996,1.0,0.704088163,1.0,0.75,0.0,0.26872601399999996,True,,5dc44b73900e3e31ef1e3294,,1273238,85,,evan-feature22,full_rf_a,,0
60,47830,86,,,,2,2,1.0,0.0,0.0,-1.0,,0.0-88.0,,0.0,523.8650001,0.0,0.271581126,1.0,0.669760107,1.0,0.733896663,0.0,0.273244572,True,,5dc44b73900e3e31ef1e3294,,1283521,86,,evan-feature22,full_rf_a,,0
61,47831,87,,,,2,2,1.0,1.0,0.0,-1.0,,0.0-89.0,,-1.0,628.6800001,1.0,0.257144401,0.0,0.600575706,1.0,0.74488122,1.0,0.25,True,,5dc44b73900e3e31ef1e3294,,1293907,87,,evan-feature22,full_rf_a,,0
62,47832,88,,,,2,2,0.0,0.0,1.0,0.0,,0.0-90.0,,0.0,446.18,1.0,0.25,1.0,0.616870026,0.0,0.723610234,0.0,0.25,True,,5dc44b73900e3e31ef1e3294,,1304110,88,,evan-feature22,full_rf_a,,0
63,47833,89,,,,1,1,0.0,0.0,0.0,-1.0,,0.0-91.0,,0.0,949.605,0.0,0.25,0.0,0.583540187,0.0,0.7041042559999999,0.0,0.285961995,True,,5dc44b73900e3e31ef1e3294,,1314820,89,,evan-feature22,full_rf_a,,1
64,47834,90,,,,1,1,0.0,1.0,1.0,0.0,,0.0-92.0,,0.0,631.1300001,0.0,0.27254536,1.0,0.53875765,0.0,0.693783448,0.0,0.284961652,True,,5dc44b73900e3e31ef1e3294,,1325210,90,,evan-feature22,full_rf_a,,0
65,47835,91,,,,1,1,0.0,1.0,0.0,-1.0,,0.0-93.0,,-1.0,510.89,0.0,0.25,1.0,0.548431252,0.0,0.734221895,1.0,0.279445214,True,,5dc44b73900e3e31ef1e3294,,1335480,91,,evan-feature22,full_rf_a,,0
66,47836,92,,,,2,2,1.0,0.0,1.0,0.0,,0.0-94.0,,1.0,994.8499999,0.0,0.258640684,1.0,0.545878066,1.0,0.725245965,0.0,0.31487537,True,,5dc44b73900e3e31ef1e3294,,1346233,92,,evan-feature22,full_rf_a,,1
67,47837,93,,,,2,2,0.0,1.0,1.0,0.0,,0.0-95.0,,0.0,497.6300001,0.0,0.251103711,0.0,0.5776290629999999,0.0,0.696320133,1.0,0.317831047,True,,5dc44b73900e3e31ef1e3294,,1356489,93,,evan-feature22,full_rf_a,,0
68,47838,94,,,,2,2,0.0,0.0,1.0,0.0,,0.0-96.0,,0.0,483.68000010000003,1.0,0.276630292,1.0,0.617329858,0.0,0.73838088,0.0,0.261471582,True,,5dc44b73900e3e31ef1e3294,,1366731,94,,evan-feature22,full_rf_a,,0
69,47839,95,,,,2,2,0.0,0.0,0.0,-1.0,,0.0-97.0,,0.0,1065.72,0.0,0.297716424,0.0,0.618863717,0.0,0.7402358259999999,0.0,0.262600834,True,,5dc44b73900e3e31ef1e3294,,1377555,95,,evan-feature22,full_rf_a,,0
70,47840,96,,,,2,2,0.0,0.0,1.0,0.0,,0.0-98.0,,0.0,423.345,0.0,0.290935512,0.0,0.695370945,0.0,0.706570507,0.0,0.280030553,True,,5dc44b73900e3e31ef1e3294,,1387736,96,,evan-feature22,full_rf_a,,0
71,47841,97,,,,2,2,1.0,0.0,1.0,0.0,,0.0-99.0,,1.0,457.43,0.0,0.25,1.0,0.6465277079999999,1.0,0.67766682,0.0,0.25,True,,5dc44b73900e3e31ef1e3294,,1397955,97,,evan-feature22,full_rf_a,,0
72,47842,98,,,,2,2,1.0,1.0,1.0,0.0,,0.0-100.0,,1.0,682.4949998,0.0,0.26463816,1.0,0.636100213,1.0,0.646048507,1.0,0.265607101,True,,5dc44b73900e3e31ef1e3294,,1408396,98,,evan-feature22,full_rf_a,,0
73,47843,99,,,,2,2,1.0,0.0,1.0,0.0,,0.0-101.0,,1.0,639.1950001,0.0,0.314340707,0.0,0.667795927,1.0,0.613630805,0.0,0.25,True,,5dc44b73900e3e31ef1e3294,,1418794,99,,evan-feature22,full_rf_a,,0
74,47844,100,,,,2,2,1.0,0.0,1.0,0.0,,0.0-102.0,,1.0,505.87,0.0,0.28685784,1.0,0.6622549529999999,1.0,0.652154117,0.0,0.25,True,,5dc44b73900e3e31ef1e3294,,1429060,100,,evan-feature22,full_rf_a,,0
75,47845,101,,,,1,1,0.0,1.0,0.0,-1.0,,0.0-103.0,,-1.0,1068.975,0.0,0.304106554,1.0,0.631289538,1.0,0.707041942,0.0,0.29314237,True,,5dc44b73900e3e31ef1e3294,,1439886,101,,evan-feature22,full_rf_a,,1
76,47846,102,,,,2,2,0.0,0.0,0.0,-1.0,,0.0-104.0,,0.0,398.3550002,1.0,0.304806932,1.0,0.571167718,0.0,0.680472346,0.0,0.25,True,,5dc44b73900e3e31ef1e3294,,1450043,102,,evan-feature22,full_rf_a,,1
77,47847,103,,,,2,2,1.0,0.0,0.0,-1.0,,0.0-105.0,,0.0,431.9750001,1.0,0.37919861,1.0,0.5724849710000001,1.0,0.705638003,0.0,0.30179300600000003,True,,5dc44b73900e3e31ef1e3294,,1460231,103,,evan-feature22,full_rf_a,,0
78,47848,104,,,,2,2,1.0,1.0,0.0,-1.0,,0.0-106.0,,-1.0,494.555,0.0,0.464277969,0.0,0.554034373,1.0,0.7372627340000001,1.0,0.264699741,True,,5dc44b73900e3e31ef1e3294,,1470485,104,,evan-feature22,full_rf_a,,0
79,47849,105,,,,2,2,1.0,1.0,1.0,0.0,,0.0-107.0,,1.0,337.7100001,0.0,0.465104323,1.0,0.530793115,1.0,0.75,1.0,0.31683071,True,,5dc44b73900e3e31ef1e3294,,1480584,105,,evan-feature22,full_rf_a,,0
80,47850,106,,,,2,2,0.0,1.0,0.0,-1.0,,0.0-108.0,,-1.0,355.58,0.0,0.465104323,1.0,0.530793115,0.0,0.75,1.0,0.31683071,True,,5dc44b73900e3e31ef1e3294,,1490700,106,,evan-feature22,full_rf_a,,0
81,47851,107,,,,2,2,1.0,0.0,0.0,-1.0,,0.0-109.0,,0.0,358.975,0.0,0.46833986,0.0,0.570249239,1.0,0.7244472590000001,0.0,0.364114163,True,,5dc44b73900e3e31ef1e3294,,1500820,107,,evan-feature22,full_rf_a,,0
82,47852,108,,,,2,2,1.0,0.0,0.0,-1.0,,0.0-110.0,,0.0,353.015,0.0,0.445444024,0.0,0.649673355,1.0,0.6845441290000001,0.0,0.300660449,True,,5dc44b73900e3e31ef1e3294,,1510933,108,,evan-feature22,full_rf_a,,0
83,47853,109,,,,2,2,1.0,1.0,0.0,-1.0,,0.0-111.0,,-1.0,379.8549999,0.0,0.39909721299999995,1.0,0.6715179509999999,1.0,0.742310028,1.0,0.35496088299999995,True,,5dc44b73900e3e31ef1e3294,,1521072,109,,evan-feature22,full_rf_a,,0
84,47854,110,,,,2,2,0.0,1.0,0.0,-1.0,,0.0-112.0,,-1.0,367.6499999,0.0,0.37956104799999996,0.0,0.694725302,0.0,0.7181651309999999,1.0,0.38726906299999997,True,,5dc44b73900e3e31ef1e3294,,1531201,110,,evan-feature22,full_rf_a,,0
85,47855,111,,,,1,1,0.0,1.0,0.0,-1.0,,0.0-113.0,,-1.0,1173.555,0.0,0.404995034,1.0,0.724375412,0.0,0.6910946859999999,0.0,0.387187347,True,,5dc44b73900e3e31ef1e3294,,1542133,111,,evan-feature22,full_rf_a,,1
86,47856,112,,,,1,1,1.0,1.0,0.0,-1.0,,0.0-114.0,,-1.0,1240.345,1.0,0.461740803,1.0,0.75,1.0,0.75,0.0,0.34872038200000005,True,,5dc44b73900e3e31ef1e3294,,1553133,112,,evan-feature22,full_rf_a,,0
87,47857,113,,,,2,2,1.0,1.0,1.0,0.0,,0.0-115.0,,1.0,273.13999989999996,1.0,0.43821380600000004,0.0,0.738833273,1.0,0.728286963,1.0,0.399538128,True,,5dc44b73900e3e31ef1e3294,,1563167,113,,evan-feature22,full_rf_a,,1
88,47858,114,,,,2,2,1.0,1.0,0.0,-1.0,,0.0-116.0,,-1.0,306.875,0.0,0.41709882,0.0,0.736666736,1.0,0.75,1.0,0.389095584,True,,5dc44b73900e3e31ef1e3294,,1573234,114,,evan-feature22,full_rf_a,,0
89,47859,115,,,,1,1,0.0,1.0,0.0,-1.0,,0.0-117.0,,-1.0,1007.065,0.0,0.39749009799999996,1.0,0.744320029,1.0,0.75,1.0,0.363848678,True,,5dc44b73900e3e31ef1e3294,,1584000,115,,evan-feature22,full_rf_a,,1
90,47860,116,,,,2,2,1.0,1.0,1.0,0.0,,0.0-118.0,,1.0,777.58,1.0,0.392653706,0.0,0.75,1.0,0.75,1.0,0.384386976,True,,5dc44b73900e3e31ef1e3294,,1594537,116,,evan-feature22,full_rf_a,,1
91,47861,117,,,,2,2,0.0,0.0,1.0,0.0,,0.0-119.0,,0.0,401.115,0.0,0.31190902600000003,1.0,0.75,0.0,0.732413819,0.0,0.413082932,True,,5dc44b73900e3e31ef1e3294,,1604702,117,,evan-feature22,full_rf_a,,0
92,47862,118,,,,2,2,1.0,0.0,0.0,-1.0,,0.0-120.0,,0.0,314.34,1.0,0.366917648,0.0,0.740073855,1.0,0.75,0.0,0.352861979,True,,5dc44b73900e3e31ef1e3294,,1614776,118,,evan-feature22,full_rf_a,,0
93,47863,119,,,,2,2,1.0,1.0,0.0,-1.0,,0.0-121.0,,-1.0,409.5350001,1.0,0.3645172,1.0,0.721770713,1.0,0.75,1.0,0.404074511,True,,5dc44b73900e3e31ef1e3294,,1624945,119,,evan-feature22,full_rf_a,,0
94,47864,120,,,,2,2,1.0,0.0,0.0,-1.0,,0.0-122.0,,0.0,405.32499989999997,0.0,0.35205600299999995,1.0,0.68983859,1.0,0.739735447,0.0,0.366895945,True,,5dc44b73900e3e31ef1e3294,,1635111,120,,evan-feature22,full_rf_a,,0
95,47865,121,,,,2,2,0.0,0.0,0.0,-1.0,,0.0-123.0,,0.0,396.24000010000003,1.0,0.40998722600000004,0.0,0.720859127,0.0,0.673854955,0.0,0.368528541,True,,5dc44b73900e3e31ef1e3294,,1645266,121,,evan-feature22,full_rf_a,,0
96,47866,122,,,,2,2,0.0,0.0,1.0,0.0,,0.0-124.0,,0.0,361.915,0.0,0.353625316,1.0,0.75,0.0,0.695605473,0.0,0.38303674200000004,True,,5dc44b73900e3e31ef1e3294,,1655388,122,,evan-feature22,full_rf_a,,0
97,47867,123,,,,2,2,1.0,0.0,0.0,-1.0,,0.0-125.0,,0.0,374.0700001,0.0,0.359216989,1.0,0.75,1.0,0.6987915090000001,0.0,0.35169046200000004,True,,5dc44b73900e3e31ef1e3294,,1665523,123,,evan-feature22,full_rf_a,,0
98,47868,124,,,,2,2,1.0,1.0,1.0,0.0,,0.0-126.0,,1.0,250.16000010000002,0.0,0.35834496899999996,1.0,0.75,1.0,0.707067742,1.0,0.416763636,True,,5dc44b73900e3e31ef1e3294,,1675533,124,,evan-feature22,full_rf_a,,0
99,47869,125,,,,2,2,0.0,1.0,1.0,0.0,,0.0-127.0,,0.0,361.54,1.0,0.38741613799999997,1.0,0.7177369570000001,0.0,0.734902455,1.0,0.49438664299999996,True,,5dc44b73900e3e31ef1e3294,,1685654,125,,evan-feature22,full_rf_a,,0
100,47870,126,,,,2,2,1.0,0.0,0.0,-1.0,,0.0-128.0,,0.0,314.1350001,0.0,0.405255252,0.0,0.7300466640000001,1.0,0.7027748070000001,0.0,0.504359668,True,,5dc44b73900e3e31ef1e3294,,1695729,126,,evan-feature22,full_rf_a,,0
101,47871,127,,,,2,2,1.0,0.0,0.0,-1.0,,0.0-129.0,,0.0,298.47,0.0,0.40697073,0.0,0.7260142190000001,1.0,0.724461982,0.0,0.522779179,True,,5dc44b73900e3e31ef1e3294,,1705788,127,,evan-feature22,full_rf_a,,0
102,47872,128,,,,2,2,1.0,1.0,0.0,-1.0,,0.0-130.0,,-1.0,518.2,0.0,0.43906215299999996,1.0,0.7252802340000001,1.0,0.719079934,1.0,0.5712990579999999,True,,5dc44b73900e3e31ef1e3294,,1716065,128,,evan-feature22,full_rf_a,,0
103,47873,129,,,,2,2,1.0,0.0,0.0,-1.0,,0.0-131.0,,0.0,316.1500001,0.0,0.4076705,1.0,0.73280499,1.0,0.681313127,0.0,0.523891346,True,,5dc44b73900e3e31ef1e3294,,1726141,129,,evan-feature22,full_rf_a,,0
104,47874,130,,,,2,2,1.0,1.0,0.0,-1.0,,0.0-132.0,,-1.0,395.765,0.0,0.399102911,1.0,0.730498344,1.0,0.661080239,1.0,0.46742603,True,,5dc44b73900e3e31ef1e3294,,1736296,130,,evan-feature22,full_rf_a,,0
105,47875,131,,,,2,2,1.0,1.0,1.0,0.0,,0.0-133.0,,1.0,297.93000010000003,1.0,0.356477282,1.0,0.712296395,1.0,0.641812684,1.0,0.44868414,True,,5dc44b73900e3e31ef1e3294,,1746354,131,,evan-feature22,full_rf_a,,0
106,47876,132,,,,2,2,1.0,0.0,0.0,-1.0,,0.0-134.0,,0.0,443.645,0.0,0.462760722,1.0,0.692349322,1.0,0.700947931,0.0,0.394680266,True,,5dc44b73900e3e31ef1e3294,,1756557,132,,evan-feature22,full_rf_a,,0
107,47877,133,,,,2,2,1.0,1.0,0.0,-1.0,,0.0-135.0,,-1.0,212.355,1.0,0.422306413,0.0,0.718375916,1.0,0.706340917,1.0,0.367787185,True,,5dc44b73900e3e31ef1e3294,,1766526,133,,evan-feature22,full_rf_a,,0
108,47879,135,,,,2,2,1.0,1.0,0.0,-1.0,,0.0-137.0,,-1.0,2195.41,1.0,0.4582233,1.0,0.643834117,1.0,0.75,1.0,0.39615823299999997,True,,5dc44b73900e3e31ef1e3294,,1791591,135,,evan-feature22,full_rf_a,,0
109,47880,136,,,,2,2,0.0,0.0,0.0,-1.0,,0.0-138.0,,0.0,417.3900001,1.0,0.43813437899999996,0.0,0.651283804,0.0,0.729674191,0.0,0.37711048,True,,5dc44b73900e3e31ef1e3294,,1801768,136,,evan-feature22,full_rf_a,,0
110,47881,137,,,,2,2,1.0,1.0,0.0,-1.0,,0.0-139.0,,-1.0,356.165,1.0,0.471199094,1.0,0.6470010979999999,1.0,0.715008097,1.0,0.410656191,True,,5dc44b73900e3e31ef1e3294,,1811884,137,,evan-feature22,full_rf_a,,0
111,47882,138,,,,2,2,0.0,0.0,1.0,0.0,,0.0-140.0,,0.0,443.86499979999996,0.0,0.42486406,1.0,0.629771829,0.0,0.6550939960000001,0.0,0.459093873,True,,5dc44b73900e3e31ef1e3294,,1822086,138,,evan-feature22,full_rf_a,,0
112,47883,139,,,,2,2,0.0,1.0,1.0,0.0,,0.0-141.0,,0.0,286.695,0.0,0.4803197,0.0,0.645842715,0.0,0.6421749920000001,1.0,0.443092151,True,,5dc44b73900e3e31ef1e3294,,1832132,139,,evan-feature22,full_rf_a,,0
113,47884,140,,,,2,2,1.0,0.0,1.0,0.0,,0.0-142.0,,1.0,323.91500010000004,1.0,0.521848997,0.0,0.735801074,1.0,0.6691348460000001,0.0,0.45259351600000003,True,,5dc44b73900e3e31ef1e3294,,1842214,140,,evan-feature22,full_rf_a,,0
114,47885,141,,,,2,2,1.0,1.0,0.0,-1.0,,0.0-143.0,,-1.0,414.3950001,0.0,0.49565621299999996,1.0,0.742400847,1.0,0.661512553,1.0,0.483110831,True,,5dc44b73900e3e31ef1e3294,,1852388,141,,evan-feature22,full_rf_a,,0
115,47886,142,,,,2,2,1.0,0.0,1.0,0.0,,0.0-144.0,,1.0,278.2999999,0.0,0.521564361,1.0,0.731078632,1.0,0.6774886809999999,0.0,0.483263956,True,,5dc44b73900e3e31ef1e3294,,1862428,142,,evan-feature22,full_rf_a,,0
116,47887,143,,,,2,2,0.0,1.0,1.0,0.0,,0.0-145.0,,0.0,373.865,1.0,0.558893102,1.0,0.719810023,0.0,0.67461031,1.0,0.499349834,True,,5dc44b73900e3e31ef1e3294,,1872562,143,,evan-feature22,full_rf_a,,0
117,47888,144,,,,2,2,0.0,1.0,0.0,-1.0,,0.0-146.0,,-1.0,738.0649999,1.0,0.611031046,1.0,0.75,0.0,0.688072995,1.0,0.5321422729999999,True,,5dc44b73900e3e31ef1e3294,,1883060,144,,evan-feature22,full_rf_a,,0
118,47889,145,,,,2,2,1.0,1.0,1.0,0.0,,0.0-147.0,,1.0,337.2750001,0.0,0.633223941,1.0,0.713567728,1.0,0.75,1.0,0.48185314700000004,True,,5dc44b73900e3e31ef1e3294,,1893157,145,,evan-feature22,full_rf_a,,0
119,47890,146,,,,2,2,0.0,0.0,1.0,0.0,,0.0-148.0,,0.0,278.285,1.0,0.664001694,1.0,0.705509768,0.0,0.75,0.0,0.500211065,True,,5dc44b73900e3e31ef1e3294,,1903197,146,,evan-feature22,full_rf_a,,0
120,47891,147,,,,2,2,1.0,0.0,0.0,-1.0,,0.0-149.0,,0.0,648.545,0.0,0.664001694,0.0,0.705509768,1.0,0.75,0.0,0.500211065,True,,5dc44b73900e3e31ef1e3294,,1913606,147,,evan-feature22,full_rf_a,,0
121,47892,148,,,,2,2,1.0,0.0,0.0,-1.0,,0.0-150.0,,0.0,274.9049999,1.0,0.696508041,0.0,0.71066027,1.0,0.717028709,0.0,0.49792991,True,,5dc44b73900e3e31ef1e3294,,1923644,148,,evan-feature22,full_rf_a,,0
122,47893,149,,,,2,2,0.0,1.0,1.0,0.0,,0.0-151.0,,0.0,443.11000010000004,1.0,0.699883272,0.0,0.75,0.0,0.713543895,1.0,0.496962643,True,,5dc44b73900e3e31ef1e3294,,1933844,149,,evan-feature22,full_rf_a,,0
123,47894,150,,,,2,2,0.0,0.0,0.0,-1.0,,0.0-152.0,,0.0,304.855,0.0,0.741163419,1.0,0.75,0.0,0.64691024,0.0,0.513858197,True,,5dc44b73900e3e31ef1e3294,,1943909,150,,evan-feature22,full_rf_a,,0
124,47895,151,,,,2,2,0.0,1.0,1.0,0.0,,0.0-153.0,,0.0,406.5500002,0.0,0.75,0.0,0.70816558,0.0,0.594499079,1.0,0.48502124,True,,5dc44b73900e3e31ef1e3294,,1954073,151,,evan-feature22,full_rf_a,,0
125,47896,152,,,,2,2,1.0,1.0,0.0,-1.0,,0.0-154.0,,-1.0,400.7000001,1.0,0.75,1.0,0.721848901,1.0,0.62197249,1.0,0.48263586399999997,True,,5dc44b73900e3e31ef1e3294,,1964231,152,,evan-feature22,full_rf_a,,0
126,47897,153,,,,2,2,1.0,0.0,1.0,0.0,,0.0-155.0,,1.0,290.1099999,0.0,0.75,1.0,0.74813071,1.0,0.584357161,0.0,0.411477782,True,,5dc44b73900e3e31ef1e3294,,1974280,153,,evan-feature22,full_rf_a,,0
127,47898,154,,,,2,2,1.0,0.0,0.0,-1.0,,0.0-156.0,,0.0,362.23000010000004,1.0,0.75,1.0,0.75,1.0,0.52287236,0.0,0.488290656,True,,5dc44b73900e3e31ef1e3294,,1984401,154,,evan-feature22,full_rf_a,,0
128,47899,155,,,,2,2,1.0,1.0,0.0,-1.0,,0.0-157.0,,-1.0,428.015,1.0,0.75,0.0,0.75,1.0,0.544321581,1.0,0.53143059,True,,5dc44b73900e3e31ef1e3294,,1994589,155,,evan-feature22,full_rf_a,,0
129,47900,156,,,,2,2,0.0,0.0,0.0,-1.0,,0.0-158.0,,0.0,466.765,0.0,0.726754564,1.0,0.75,0.0,0.5129306370000001,0.0,0.530592445,True,,5dc44b73900e3e31ef1e3294,,2004814,156,,evan-feature22,full_rf_a,,0
130,47901,157,,,,2,2,0.0,1.0,1.0,0.0,,0.0-159.0,,0.0,429.275,1.0,0.75,1.0,0.7392590729999999,0.0,0.479875835,1.0,0.547007051,True,,5dc44b73900e3e31ef1e3294,,2015001,157,,evan-feature22,full_rf_a,,0
131,47902,158,,,,2,2,0.0,0.0,1.0,0.0,,0.0-160.0,,0.0,640.4550001,1.0,0.75,1.0,0.7393376979999999,0.0,0.546045419,0.0,0.541267353,True,,5dc44b73900e3e31ef1e3294,,2025402,158,,evan-feature22,full_rf_a,,0
132,47903,159,,,,2,2,1.0,0.0,1.0,0.0,,0.0-161.0,,1.0,379.3250001,1.0,0.75,1.0,0.75,1.0,0.485725895,0.0,0.527625395,True,,5dc44b73900e3e31ef1e3294,,2035541,159,,evan-feature22,full_rf_a,,0
133,47904,160,,,,2,2,1.0,1.0,0.0,-1.0,,0.0-162.0,,-1.0,644.9599999,1.0,0.75,1.0,0.725087974,1.0,0.488603595,1.0,0.504019206,True,,5dc44b73900e3e31ef1e3294,,2045944,160,,evan-feature22,full_rf_a,,0
134,47905,161,,,,2,2,0.0,1.0,0.0,-1.0,,0.0-163.0,,-1.0,407.8549999,0.0,0.745504295,1.0,0.75,0.0,0.452379914,1.0,0.50131194,True,,5dc44b73900e3e31ef1e3294,,2056111,161,,evan-feature22,full_rf_a,,0
135,47906,162,,,,2,2,1.0,0.0,0.0,-1.0,,0.0-164.0,,0.0,510.645,1.0,0.728513874,1.0,0.75,1.0,0.44125567200000004,0.0,0.531454591,True,,5dc44b73900e3e31ef1e3294,,2066379,162,,evan-feature22,full_rf_a,,0
136,47907,163,,,,2,2,0.0,1.0,1.0,0.0,,0.0-165.0,,0.0,307.0499999,1.0,0.73790804,1.0,0.75,0.0,0.413036656,1.0,0.524619035,True,,5dc44b73900e3e31ef1e3294,,2076445,163,,evan-feature22,full_rf_a,,0
137,47908,164,,,,2,2,0.0,0.0,0.0,-1.0,,0.0-166.0,,0.0,270.27000019999997,1.0,0.7080961309999999,0.0,0.708666865,0.0,0.431915581,0.0,0.481819489,True,,5dc44b73900e3e31ef1e3294,,2086473,164,,evan-feature22,full_rf_a,,0
138,47909,165,,,,2,2,1.0,1.0,0.0,-1.0,,0.0-167.0,,-1.0,360.355,1.0,0.721378003,1.0,0.71605913,1.0,0.36642387,1.0,0.5036739929999999,True,,5dc44b73900e3e31ef1e3294,,2096592,165,,evan-feature22,full_rf_a,,0
139,47910,166,,,,2,2,0.0,1.0,0.0,-1.0,,0.0-168.0,,-1.0,300.605,1.0,0.7340618959999999,0.0,0.699323252,0.0,0.35298046299999997,1.0,0.511241692,True,,5dc44b73900e3e31ef1e3294,,2106652,166,,evan-feature22,full_rf_a,,0
140,47911,167,,,,2,2,1.0,1.0,1.0,0.0,,0.0-169.0,,1.0,469.945,0.0,0.75,0.0,0.70412698,1.0,0.380734814,1.0,0.529580116,True,,5dc44b73900e3e31ef1e3294,,2116880,167,,evan-feature22,full_rf_a,,0
141,47912,168,,,,2,2,0.0,1.0,0.0,-1.0,,0.0-170.0,,-1.0,627.505,1.0,0.7436654909999999,1.0,0.711182751,0.0,0.41125331,1.0,0.49554405,True,,5dc44b73900e3e31ef1e3294,,2127271,168,,evan-feature22,full_rf_a,,0
142,47913,169,,,,2,2,1.0,0.0,0.0,-1.0,,0.0-171.0,,0.0,472.74500020000005,0.0,0.731607915,1.0,0.651774583,1.0,0.35688023,0.0,0.45194491600000003,True,,5dc44b73900e3e31ef1e3294,,2137502,169,,evan-feature22,full_rf_a,,0
143,47914,170,,,,2,2,0.0,1.0,1.0,0.0,,0.0-172.0,,0.0,395.44499989999997,1.0,0.75,0.0,0.75,0.0,0.283145374,1.0,0.528608005,True,,5dc44b73900e3e31ef1e3294,,2147657,170,,evan-feature22,full_rf_a,,0
144,47915,171,,,,2,2,1.0,0.0,1.0,0.0,,0.0-173.0,,1.0,330.9299999,1.0,0.7491416890000001,1.0,0.7423785959999999,1.0,0.29135870399999997,0.0,0.498888318,True,,5dc44b73900e3e31ef1e3294,,2157746,171,,evan-feature22,full_rf_a,,0
145,47916,172,,,,2,2,1.0,1.0,1.0,0.0,,0.0-174.0,,1.0,381.485,0.0,0.708569387,1.0,0.717682277,1.0,0.294421699,1.0,0.493838163,True,,5dc44b73900e3e31ef1e3294,,2167887,172,,evan-feature22,full_rf_a,,0
146,47917,173,,,,2,2,0.0,0.0,0.0,-1.0,,0.0-175.0,,0.0,252.85,1.0,0.75,0.0,0.7383382159999999,0.0,0.356098707,0.0,0.442533405,True,,5dc44b73900e3e31ef1e3294,,2177899,173,,evan-feature22,full_rf_a,,0
147,47918,174,,,,2,2,0.0,1.0,0.0,-1.0,,0.0-176.0,,-1.0,269.9199999,1.0,0.744527075,0.0,0.75,0.0,0.334127506,1.0,0.393165805,True,,5dc44b73900e3e31ef1e3294,,2187929,174,,evan-feature22,full_rf_a,,0
148,47919,175,,,,1,1,0.0,0.0,0.0,-1.0,,0.0-177.0,,0.0,1306.425,0.0,0.75,0.0,0.75,0.0,0.33571021799999995,0.0,0.350393962,True,,5dc44b73900e3e31ef1e3294,,2198994,175,,evan-feature22,full_rf_a,,1
149,47920,176,,,,1,1,1.0,0.0,0.0,-1.0,,0.0-178.0,,0.0,1149.105,1.0,0.75,0.0,0.75,1.0,0.313628297,1.0,0.36349657399999996,True,,5dc44b73900e3e31ef1e3294,,2209899,176,,evan-feature22,full_rf_a,,0
150,47921,177,,,,2,2,0.0,0.0,1.0,0.0,,0.0-179.0,,0.0,675.0899998,1.0,0.75,0.0,0.734284182,0.0,0.262667667,0.0,0.380199119,True,,5dc44b73900e3e31ef1e3294,,2220333,177,,evan-feature22,full_rf_a,,1
151,47922,178,,,,1,1,1.0,1.0,0.0,-1.0,,0.0-180.0,,-1.0,464.36000010000004,1.0,0.75,1.0,0.75,1.0,0.25,0.0,0.394494013,True,,5dc44b73900e3e31ef1e3294,,2230556,178,,evan-feature22,full_rf_a,,1
152,47923,179,,,,1,1,1.0,0.0,1.0,0.0,,0.0-181.0,,1.0,368.82,1.0,0.722298145,0.0,0.7357822340000001,0.0,0.25,1.0,0.319142121,True,,5dc44b73900e3e31ef1e3294,,2240684,179,,evan-feature22,full_rf_a,,0
153,47924,180,,,,1,1,0.0,1.0,1.0,0.0,,0.0-182.0,,0.0,491.75,0.0,0.73149275,1.0,0.724276446,0.0,0.305856907,0.0,0.281315057,True,,5dc44b73900e3e31ef1e3294,,2250934,180,,evan-feature22,full_rf_a,,0
154,47925,181,,,,1,1,1.0,1.0,0.0,-1.0,,0.0-183.0,,-1.0,334.44499989999997,1.0,0.7458732690000001,1.0,0.7336382459999999,0.0,0.272571964,0.0,0.266021999,True,,5dc44b73900e3e31ef1e3294,,2261027,181,,evan-feature22,full_rf_a,,0
155,47926,182,,,,1,1,0.0,1.0,0.0,-1.0,,0.0-184.0,,-1.0,337.7100001,0.0,0.705579037,1.0,0.720778292,0.0,0.320238144,0.0,0.30971744,True,,5dc44b73900e3e31ef1e3294,,2271124,182,,evan-feature22,full_rf_a,,0
156,47927,183,,,,1,1,1.0,1.0,0.0,-1.0,,0.0-185.0,,-1.0,487.4749999,1.0,0.700425648,1.0,0.7198784009999999,0.0,0.272590393,1.0,0.304182931,True,,5dc44b73900e3e31ef1e3294,,2281368,183,,evan-feature22,full_rf_a,,0
157,47928,184,,,,1,1,1.0,1.0,0.0,-1.0,,0.0-186.0,,-1.0,739.425,1.0,0.735590785,1.0,0.722714973,0.0,0.25,0.0,0.323421091,True,,5dc44b73900e3e31ef1e3294,,2291866,184,,evan-feature22,full_rf_a,,0
158,47929,185,,,,1,1,1.0,0.0,0.0,-1.0,,0.0-187.0,,0.0,364.7399999,1.0,0.724807662,0.0,0.63146213,0.0,0.36836492600000004,0.0,0.34592153299999995,True,,5dc44b73900e3e31ef1e3294,,2301990,185,,evan-feature22,full_rf_a,,0
159,47930,186,,,,1,1,0.0,0.0,0.0,-1.0,,0.0-188.0,,0.0,410.44999989999997,0.0,0.7352796909999999,0.0,0.555111392,0.0,0.36003922,0.0,0.31433779999999995,True,,5dc44b73900e3e31ef1e3294,,2312158,186,,evan-feature22,full_rf_a,,0
160,47931,187,notice,,,,,,,,,,0.0-189.0,"{""Q0"":""the left door was better at the start, then it switched to the other, then it switched back""}",,75515.0,,,,,,,,,True,,5dc44b73900e3e31ef1e3294,,2387674,187,Q,survey-text,full_rf_a,,1
161,47932,188,track1,,[0],,,,,,,,0.0-190.0,"{""Q0"":""yes""}",,5154.0,,,,,,,,,True,,5dc44b73900e3e31ef1e3294,,2392831,188,Q,evan-quiz,full_rf_a,,1
162,47933,189,track2,,[2],,,,,,,,0.0-191.0,"{""Q0"":""N/A""}",,7006.0,,,,,,,,,True,,5dc44b73900e3e31ef1e3294,,2399838,189,Q,evan-quiz,full_rf_a,,1
163,47934,190,strat,,,,,,,,,,0.0-192.0,"{""Q0"":""i kept notice of how often which door led to the best (gold) aliens and kept choosing that one, depending on the value of the aliens""}",,39222.0,,,,,,,,,True,,5dc44b73900e3e31ef1e3294,,2439062,190,Q,survey-text,full_rf_a,,1
