,index,Unnamed: 0,Q_name,button_pressed,choice_idxs,chosen_pos,chosen_state,chosen_state_f_1_outcome,chosen_state_f_2_outcome,f_1_reward,f_2_reward,incor_questions,internal_node_id,responses,reward_received,rt,s_1_f_1_outcome,s_1_f_1_prob,s_1_f_2_outcome,s_1_f_2_prob,s_2_f_1_outcome,s_2_f_1_prob,s_2_f_2_outcome,s_2_f_2_prob,safe_first,stimulus,subjectID,success,time_elapsed,trial_index,trial_num,trial_type,version,view_history,switching
0,40140,30,,,,1,1,0.0,0.0,0.0,1.0,,0.0-27.0,,0.0,1175.485,0.0,0.6,0.0,0.6,1.0,0.4,0.0,0.4,True,,5f86d7c687b0ad035967469f,,504668,30,,evan-feature22,full_rf_b,,0
1,40141,31,,,,2,2,0.0,1.0,0.0,1.0,,0.0-28.0,,1.0,3228.78,1.0,0.608053294,1.0,0.63424552,0.0,0.397152172,1.0,0.347069101,True,,5f86d7c687b0ad035967469f,,517688,31,,evan-feature22,full_rf_b,,1
2,40142,32,,,,1,1,1.0,0.0,0.0,1.0,,0.0-29.0,,0.0,3021.4,1.0,0.642237155,0.0,0.648566321,1.0,0.389407674,0.0,0.285525717,True,,5f86d7c687b0ad035967469f,,530517,32,,evan-feature22,full_rf_b,,1
3,40143,33,,,,2,2,1.0,0.0,0.0,1.0,,0.0-30.0,,0.0,1352.455,0.0,0.661086576,1.0,0.630492543,1.0,0.399058924,0.0,0.25,True,,5f86d7c687b0ad035967469f,,541691,33,,evan-feature22,full_rf_b,,1
4,40144,34,,,,1,1,1.0,1.0,0.0,1.0,,0.0-31.0,,1.0,1751.94,1.0,0.631324137,1.0,0.6269842929999999,0.0,0.38734784299999997,0.0,0.25,True,,5f86d7c687b0ad035967469f,,553240,34,,evan-feature22,full_rf_b,,1
5,40145,35,,,,1,1,1.0,0.0,0.0,1.0,,0.0-32.0,,0.0,475.8499999,1.0,0.6381991370000001,0.0,0.68987999,0.0,0.384107265,1.0,0.271332943,True,,5f86d7c687b0ad035967469f,,563530,35,,evan-feature22,full_rf_b,,0
6,40146,36,,,,2,2,0.0,0.0,0.0,1.0,,0.0-33.0,,0.0,382.295,1.0,0.66034901,1.0,0.742641349,0.0,0.360225629,0.0,0.25,True,,5f86d7c687b0ad035967469f,,573714,36,,evan-feature22,full_rf_b,,1
7,40147,37,,,,1,1,1.0,1.0,-1.0,0.0,,0.0-34.0,,-1.0,529.195,1.0,0.638612418,1.0,0.75,0.0,0.367273939,1.0,0.25,True,,5f86d7c687b0ad035967469f,,584045,37,,evan-feature22,full_rf_b,,1
8,40148,38,,,,2,2,0.0,1.0,0.0,1.0,,0.0-35.0,,1.0,2790.285,1.0,0.624340629,1.0,0.75,0.0,0.425829545,1.0,0.25,True,,5f86d7c687b0ad035967469f,,596676,38,,evan-feature22,full_rf_b,,1
9,40149,39,,,,2,2,1.0,0.0,0.0,1.0,,0.0-36.0,,0.0,1587.41,1.0,0.621999804,0.0,0.75,1.0,0.368609357,0.0,0.25,True,,5f86d7c687b0ad035967469f,,608058,39,,evan-feature22,full_rf_b,,0
10,40150,40,,,,2,2,1.0,0.0,-1.0,0.0,,0.0-37.0,,-1.0,2927.365,1.0,0.62666403,1.0,0.75,1.0,0.311151498,0.0,0.25,True,,5f86d7c687b0ad035967469f,,620798,40,,evan-feature22,full_rf_b,,0
11,40151,41,,,,1,1,1.0,1.0,-1.0,0.0,,0.0-38.0,,-1.0,2012.935,1.0,0.6819650009999999,1.0,0.75,0.0,0.310763048,0.0,0.25,True,,5f86d7c687b0ad035967469f,,632603,41,,evan-feature22,full_rf_b,,1
12,40152,42,,,,2,2,0.0,0.0,0.0,1.0,,0.0-39.0,,0.0,572.77,0.0,0.740626951,1.0,0.75,0.0,0.25,0.0,0.25,True,,5f86d7c687b0ad035967469f,,642965,42,,evan-feature22,full_rf_b,,1
13,40153,43,,,,1,1,1.0,1.0,0.0,1.0,,0.0-40.0,,1.0,719.47,1.0,0.739599242,1.0,0.742034978,0.0,0.25397114600000004,0.0,0.25,True,,5f86d7c687b0ad035967469f,,653490,43,,evan-feature22,full_rf_b,,1
14,40154,44,,,,2,2,0.0,0.0,0.0,1.0,,0.0-41.0,,0.0,846.715,1.0,0.732341315,1.0,0.72735643,0.0,0.25,0.0,0.25,True,,5f86d7c687b0ad035967469f,,664150,44,,evan-feature22,full_rf_b,,1
15,40155,45,,,,1,1,1.0,1.0,0.0,1.0,,0.0-42.0,,1.0,677.49,1.0,0.7062287770000001,1.0,0.75,0.0,0.29002151,0.0,0.288256649,True,,5f86d7c687b0ad035967469f,,674642,45,,evan-feature22,full_rf_b,,1
16,40156,46,,,,1,1,1.0,1.0,-1.0,0.0,,0.0-43.0,,-1.0,1085.09,1.0,0.7086029209999999,1.0,0.75,1.0,0.274129113,1.0,0.262851608,True,,5f86d7c687b0ad035967469f,,685514,46,,evan-feature22,full_rf_b,,0
17,40157,47,,,,SLOW,SLOW,,,0.0,1.0,,0.0-44.0,,-3.0,,0.0,0.669189651,1.0,0.727614338,1.0,0.298444036,1.0,0.296944518,True,,5f86d7c687b0ad035967469f,,691329,47,,evan-feature22,full_rf_b,,1
18,40158,48,,,,2,2,0.0,0.0,-1.0,0.0,,0.0-45.0,,0.0,1465.32,1.0,0.6819912929999999,1.0,0.7179434290000001,0.0,0.265003961,0.0,0.28157921199999997,True,,5f86d7c687b0ad035967469f,,702593,48,,evan-feature22,full_rf_b,,1
19,40159,49,,,,SLOW,SLOW,,,-1.0,0.0,,0.0-46.0,,-3.0,,1.0,0.665275002,1.0,0.723065271,1.0,0.260414971,1.0,0.30973870000000003,True,,5f86d7c687b0ad035967469f,,708435,49,,evan-feature22,full_rf_b,,1
20,40160,50,,,,2,2,0.0,0.0,0.0,1.0,,0.0-47.0,,0.0,504.8549999,1.0,0.6660593260000001,1.0,0.728032907,0.0,0.30922817,0.0,0.338778608,True,,5f86d7c687b0ad035967469f,,718735,50,,evan-feature22,full_rf_b,,1
21,40161,51,,,,1,1,1.0,1.0,0.0,1.0,,0.0-48.0,,1.0,648.605,1.0,0.702068785,1.0,0.6528750879999999,0.0,0.287329608,0.0,0.35789613200000003,True,,5f86d7c687b0ad035967469f,,729201,51,,evan-feature22,full_rf_b,,1
22,40162,52,,,,2,2,0.0,0.0,0.0,1.0,,0.0-49.0,,0.0,667.6899999,1.0,0.651939787,1.0,0.636725589,0.0,0.284834488,0.0,0.358563756,True,,5f86d7c687b0ad035967469f,,739695,52,,evan-feature22,full_rf_b,,1
23,40163,53,,,,1,1,1.0,0.0,0.0,1.0,,0.0-50.0,,0.0,1166.25,1.0,0.67573929,0.0,0.612550049,1.0,0.37130387600000003,1.0,0.383542402,True,,5f86d7c687b0ad035967469f,,750684,53,,evan-feature22,full_rf_b,,1
24,40164,54,,,,2,2,0.0,1.0,0.0,1.0,,0.0-51.0,,1.0,3688.535,1.0,0.620753801,1.0,0.60513644,0.0,0.385529434,1.0,0.340361743,True,,5f86d7c687b0ad035967469f,,764214,54,,evan-feature22,full_rf_b,,1
25,40165,55,,,,1,1,1.0,0.0,-1.0,0.0,,0.0-52.0,,-1.0,1002.395,1.0,0.673564893,0.0,0.672437924,0.0,0.292955382,0.0,0.337633795,True,,5f86d7c687b0ad035967469f,,775036,55,,evan-feature22,full_rf_b,,1
26,40166,56,,,,2,2,1.0,0.0,0.0,1.0,,0.0-53.0,,0.0,1891.435,1.0,0.6749427,1.0,0.724197502,1.0,0.32391132100000003,0.0,0.350995264,True,,5f86d7c687b0ad035967469f,,786739,56,,evan-feature22,full_rf_b,,1
27,40167,57,,,,2,2,0.0,0.0,0.0,1.0,,0.0-54.0,,0.0,1625.805,1.0,0.6940159379999999,1.0,0.75,0.0,0.31710554399999996,0.0,0.413450341,True,,5f86d7c687b0ad035967469f,,798148,57,,evan-feature22,full_rf_b,,0
28,40168,58,,,,SLOW,SLOW,,,0.0,1.0,,0.0-55.0,,-3.0,,1.0,0.6916018270000001,0.0,0.69001187,0.0,0.261817804,0.0,0.40038635,True,,5f86d7c687b0ad035967469f,,803983,58,,evan-feature22,full_rf_b,,1
29,40169,59,,,,2,2,0.0,0.0,0.0,1.0,,0.0-56.0,,0.0,287.10500010000004,0.0,0.641061544,1.0,0.71337992,0.0,0.277296461,0.0,0.47372791700000005,True,,5f86d7c687b0ad035967469f,,814091,59,,evan-feature22,full_rf_b,,1
30,40170,60,,,,1,1,1.0,0.0,0.0,1.0,,0.0-57.0,,0.0,856.8500001,1.0,0.6082438520000001,0.0,0.708471106,0.0,0.28745137,0.0,0.564174476,True,,5f86d7c687b0ad035967469f,,824772,60,,evan-feature22,full_rf_b,,1
31,40171,61,,,,2,2,1.0,0.0,-1.0,0.0,,0.0-58.0,,-1.0,767.025,1.0,0.6051112120000001,1.0,0.7118147229999999,1.0,0.272390611,0.0,0.5595149939999999,True,,5f86d7c687b0ad035967469f,,835365,61,,evan-feature22,full_rf_b,,1
32,40172,62,,,,1,1,1.0,1.0,-1.0,0.0,,0.0-59.0,,-1.0,1409.81,1.0,0.582420852,1.0,0.635867583,1.0,0.31089574,0.0,0.5227206520000001,True,,5f86d7c687b0ad035967469f,,846601,62,,evan-feature22,full_rf_b,,1
33,40173,63,,,,2,2,1.0,1.0,-1.0,0.0,,0.0-60.0,,-1.0,1335.48,1.0,0.623195575,1.0,0.655026044,1.0,0.25,1.0,0.560387538,True,,5f86d7c687b0ad035967469f,,857764,63,,evan-feature22,full_rf_b,,1
34,40174,64,,,,1,1,1.0,1.0,0.0,1.0,,0.0-61.0,,1.0,1849.075,1.0,0.601889598,1.0,0.678198724,0.0,0.25,0.0,0.559922936,True,,5f86d7c687b0ad035967469f,,869445,64,,evan-feature22,full_rf_b,,1
35,40175,65,,,,2,2,0.0,1.0,-1.0,0.0,,0.0-62.0,,0.0,1738.165,1.0,0.601259914,1.0,0.704681482,0.0,0.33908969299999997,1.0,0.505003715,True,,5f86d7c687b0ad035967469f,,881011,65,,evan-feature22,full_rf_b,,1
36,40176,66,,,,2,2,0.0,0.0,-1.0,0.0,,0.0-63.0,,0.0,1370.975,0.0,0.59645454,1.0,0.710437172,0.0,0.327441879,0.0,0.391749613,True,,5f86d7c687b0ad035967469f,,892204,66,,evan-feature22,full_rf_b,,0
37,40177,67,,,,1,1,1.0,1.0,0.0,1.0,,0.0-64.0,,1.0,2192.48,1.0,0.529473,1.0,0.636758527,0.0,0.301338063,0.0,0.365661481,True,,5f86d7c687b0ad035967469f,,904203,67,,evan-feature22,full_rf_b,,1
38,40178,68,,,,SLOW,SLOW,,,-1.0,0.0,,0.0-65.0,,-3.0,,1.0,0.541657162,1.0,0.634541962,0.0,0.343535366,0.0,0.371763742,True,,5f86d7c687b0ad035967469f,,910032,68,,evan-feature22,full_rf_b,,1
39,40179,69,,,,2,2,1.0,0.0,-1.0,0.0,,0.0-66.0,,-1.0,487.65,0.0,0.5707533260000001,1.0,0.589121171,1.0,0.326428396,0.0,0.43961622899999997,True,,5f86d7c687b0ad035967469f,,920322,69,,evan-feature22,full_rf_b,,1
40,40180,70,,,,1,1,0.0,1.0,0.0,1.0,,0.0-67.0,,1.0,554.5600001,0.0,0.5707533260000001,1.0,0.589121171,0.0,0.326428396,1.0,0.43961622899999997,True,,5f86d7c687b0ad035967469f,,930685,70,,evan-feature22,full_rf_b,,1
41,40181,71,,,,2,2,1.0,0.0,0.0,1.0,,0.0-68.0,,0.0,871.0,1.0,0.506271295,0.0,0.641775594,1.0,0.37149690700000004,0.0,0.404330166,True,,5f86d7c687b0ad035967469f,,941361,71,,evan-feature22,full_rf_b,,1
42,40182,72,,,,1,1,0.0,0.0,-1.0,0.0,,0.0-69.0,,0.0,1234.485,0.0,0.455642565,0.0,0.623605825,0.0,0.358753011,0.0,0.346174041,True,,5f86d7c687b0ad035967469f,,952395,72,,evan-feature22,full_rf_b,,1
43,40183,73,,,,2,2,0.0,1.0,0.0,1.0,,0.0-70.0,,1.0,239.47500010000002,0.0,0.483677308,1.0,0.5904681070000001,0.0,0.402218411,1.0,0.35344697,True,,5f86d7c687b0ad035967469f,,962442,73,,evan-feature22,full_rf_b,,1
44,40184,74,,,,1,1,0.0,0.0,-1.0,0.0,,0.0-71.0,,0.0,1117.3,0.0,0.394210977,0.0,0.558925494,0.0,0.540052017,0.0,0.35182128700000004,True,,5f86d7c687b0ad035967469f,,973364,74,,evan-feature22,full_rf_b,,1
45,40185,75,,,,1,1,0.0,1.0,0.0,1.0,,0.0-72.0,,1.0,1412.415,0.0,0.382300414,1.0,0.577670603,0.0,0.607608448,0.0,0.378261578,True,,5f86d7c687b0ad035967469f,,984580,75,,evan-feature22,full_rf_b,,0
46,40186,76,,,,1,1,0.0,1.0,-1.0,0.0,,0.0-73.0,,0.0,1513.005,0.0,0.357596762,1.0,0.5929076529999999,1.0,0.6579790010000001,1.0,0.401326777,True,,5f86d7c687b0ad035967469f,,995881,76,,evan-feature22,full_rf_b,,0
47,40187,77,,,,1,1,0.0,1.0,0.0,1.0,,0.0-74.0,,1.0,1682.34,0.0,0.362033495,1.0,0.582308608,1.0,0.649195052,0.0,0.355158505,True,,5f86d7c687b0ad035967469f,,1007362,77,,evan-feature22,full_rf_b,,0
48,40188,78,,,,2,2,0.0,1.0,0.0,1.0,,0.0-75.0,,1.0,1777.205,1.0,0.369620635,1.0,0.669100864,0.0,0.706059111,1.0,0.362516241,True,,5f86d7c687b0ad035967469f,,1018941,78,,evan-feature22,full_rf_b,,1
49,40189,79,,,,1,1,0.0,1.0,0.0,1.0,,0.0-76.0,,1.0,1777.41,0.0,0.41477751399999996,1.0,0.7284416779999999,1.0,0.7182656940000001,0.0,0.36228040899999997,True,,5f86d7c687b0ad035967469f,,1030506,79,,evan-feature22,full_rf_b,,1
50,40190,80,,,,2,2,1.0,0.0,-1.0,0.0,,0.0-77.0,,-1.0,351.54000010000004,0.0,0.37675460299999997,1.0,0.703250285,1.0,0.75,0.0,0.461979164,True,,5f86d7c687b0ad035967469f,,1040691,80,,evan-feature22,full_rf_b,,1
51,40191,81,,,,1,1,0.0,1.0,-1.0,0.0,,0.0-78.0,,0.0,1906.4,0.0,0.398716075,1.0,0.6723864890000001,1.0,0.674153818,0.0,0.519029516,True,,5f86d7c687b0ad035967469f,,1052405,81,,evan-feature22,full_rf_b,,1
52,40192,82,,,,2,2,1.0,0.0,-1.0,0.0,,0.0-79.0,,-1.0,1722.16,0.0,0.34677856700000004,1.0,0.69057175,1.0,0.6822438540000001,0.0,0.477292237,True,,5f86d7c687b0ad035967469f,,1063952,82,,evan-feature22,full_rf_b,,1
53,40193,83,,,,2,2,1.0,1.0,0.0,1.0,,0.0-80.0,,1.0,1894.015,0.0,0.28580469199999997,0.0,0.68408818,1.0,0.684207565,1.0,0.49780448299999996,True,,5f86d7c687b0ad035967469f,,1075653,83,,evan-feature22,full_rf_b,,0
54,40195,85,,,,2,2,1.0,0.0,0.0,1.0,,0.0-82.0,,0.0,1620.325,0.0,0.25,1.0,0.7405808970000001,1.0,0.679614108,0.0,0.436436964,True,,5f86d7c687b0ad035967469f,,1092628,85,,evan-feature22,full_rf_b,,0
55,40196,86,,,,1,1,0.0,1.0,0.0,1.0,,0.0-83.0,,1.0,2850.24,0.0,0.29890393,1.0,0.730505706,0.0,0.7328203320000001,1.0,0.439256938,True,,5f86d7c687b0ad035967469f,,1105285,86,,evan-feature22,full_rf_b,,1
56,40197,87,,,,2,2,1.0,0.0,-1.0,0.0,,0.0-84.0,,-1.0,320.34,0.0,0.326762398,1.0,0.7148059609999999,1.0,0.75,0.0,0.44389608799999997,True,,5f86d7c687b0ad035967469f,,1115430,87,,evan-feature22,full_rf_b,,1
57,40198,88,,,,2,2,1.0,1.0,0.0,1.0,,0.0-85.0,,1.0,448.11,0.0,0.295168515,0.0,0.739760854,1.0,0.719947008,1.0,0.35277284600000003,True,,5f86d7c687b0ad035967469f,,1125682,88,,evan-feature22,full_rf_b,,0
58,40199,89,,,,1,1,1.0,0.0,0.0,1.0,,0.0-86.0,,0.0,2243.845,1.0,0.25,0.0,0.70781482,1.0,0.75,1.0,0.286095925,True,,5f86d7c687b0ad035967469f,,1137751,89,,evan-feature22,full_rf_b,,1
59,40200,90,,,,1,1,0.0,1.0,0.0,1.0,,0.0-87.0,,1.0,1893.04,0.0,0.25638190899999996,1.0,0.704088163,1.0,0.75,0.0,0.26872601399999996,True,,5f86d7c687b0ad035967469f,,1149512,90,,evan-feature22,full_rf_b,,0
60,40201,91,,,,2,2,1.0,0.0,-1.0,0.0,,0.0-88.0,,-1.0,877.62,0.0,0.271581126,1.0,0.669760107,1.0,0.733896663,0.0,0.273244572,True,,5f86d7c687b0ad035967469f,,1160251,91,,evan-feature22,full_rf_b,,1
61,40202,92,,,,1,1,0.0,1.0,0.0,1.0,,0.0-89.0,,1.0,1219.63,0.0,0.257144401,1.0,0.600575706,1.0,0.74488122,0.0,0.25,True,,5f86d7c687b0ad035967469f,,1171269,92,,evan-feature22,full_rf_b,,1
62,40203,93,,,,2,2,1.0,1.0,0.0,1.0,,0.0-90.0,,1.0,791.8,0.0,0.25,0.0,0.616870026,1.0,0.723610234,1.0,0.25,True,,5f86d7c687b0ad035967469f,,1181825,93,,evan-feature22,full_rf_b,,1
63,40204,94,,,,2,2,0.0,1.0,-1.0,0.0,,0.0-91.0,,0.0,478.06,0.0,0.25,1.0,0.583540187,0.0,0.7041042559999999,1.0,0.285961995,True,,5f86d7c687b0ad035967469f,,1192068,94,,evan-feature22,full_rf_b,,0
64,40205,95,,,,1,1,0.0,0.0,-1.0,0.0,,0.0-92.0,,0.0,445.185,0.0,0.27254536,0.0,0.53875765,1.0,0.693783448,0.0,0.284961652,True,,5f86d7c687b0ad035967469f,,1202277,95,,evan-feature22,full_rf_b,,1
65,40206,96,,,,1,1,0.0,0.0,-1.0,0.0,,0.0-93.0,,0.0,3600.145,0.0,0.25,0.0,0.548431252,0.0,0.734221895,0.0,0.279445214,True,,5f86d7c687b0ad035967469f,,1215638,96,,evan-feature22,full_rf_b,,0
66,40207,97,,,,1,1,0.0,1.0,0.0,1.0,,0.0-94.0,,1.0,1202.875,0.0,0.258640684,1.0,0.545878066,1.0,0.725245965,0.0,0.31487537,True,,5f86d7c687b0ad035967469f,,1226605,97,,evan-feature22,full_rf_b,,0
67,40208,98,,,,2,2,1.0,0.0,0.0,1.0,,0.0-95.0,,0.0,1224.545,0.0,0.251103711,0.0,0.5776290629999999,1.0,0.696320133,0.0,0.317831047,True,,5f86d7c687b0ad035967469f,,1237597,98,,evan-feature22,full_rf_b,,1
68,40209,99,,,,1,1,0.0,0.0,0.0,1.0,,0.0-96.0,,0.0,1242.73,0.0,0.276630292,0.0,0.617329858,1.0,0.73838088,0.0,0.261471582,True,,5f86d7c687b0ad035967469f,,1248601,99,,evan-feature22,full_rf_b,,1
69,40210,100,,,,2,2,1.0,0.0,0.0,1.0,,0.0-97.0,,0.0,557.24,0.0,0.297716424,1.0,0.618863717,1.0,0.7402358259999999,0.0,0.262600834,True,,5f86d7c687b0ad035967469f,,1258921,100,,evan-feature22,full_rf_b,,1
70,40211,101,,,,1,1,1.0,1.0,-1.0,0.0,,0.0-98.0,,-1.0,2149.75,1.0,0.290935512,1.0,0.695370945,0.0,0.706570507,0.0,0.280030553,True,,5f86d7c687b0ad035967469f,,1270838,101,,evan-feature22,full_rf_b,,1
71,40212,102,,,,2,2,1.0,0.0,0.0,1.0,,0.0-99.0,,0.0,1082.75,0.0,0.25,1.0,0.6465277079999999,1.0,0.67766682,0.0,0.25,True,,5f86d7c687b0ad035967469f,,1281686,102,,evan-feature22,full_rf_b,,1
72,40213,103,,,,2,2,1.0,0.0,-1.0,0.0,,0.0-100.0,,-1.0,1037.355,0.0,0.26463816,1.0,0.636100213,1.0,0.646048507,0.0,0.265607101,True,,5f86d7c687b0ad035967469f,,1292487,103,,evan-feature22,full_rf_b,,0
73,40214,104,,,,1,1,0.0,1.0,-1.0,0.0,,0.0-101.0,,0.0,1742.1,0.0,0.314340707,1.0,0.667795927,0.0,0.613630805,0.0,0.25,True,,5f86d7c687b0ad035967469f,,1303992,104,,evan-feature22,full_rf_b,,1
74,40215,105,,,,2,2,1.0,1.0,0.0,1.0,,0.0-102.0,,1.0,3166.385,0.0,0.28685784,1.0,0.6622549529999999,1.0,0.652154117,1.0,0.25,True,,5f86d7c687b0ad035967469f,,1316929,105,,evan-feature22,full_rf_b,,1
75,40216,106,,,,1,1,0.0,1.0,0.0,1.0,,0.0-103.0,,1.0,1517.685,0.0,0.304106554,1.0,0.631289538,1.0,0.707041942,1.0,0.29314237,True,,5f86d7c687b0ad035967469f,,1328211,106,,evan-feature22,full_rf_b,,1
76,40217,107,,,,2,2,1.0,1.0,0.0,1.0,,0.0-104.0,,1.0,1958.94,0.0,0.304806932,0.0,0.571167718,1.0,0.680472346,1.0,0.25,True,,5f86d7c687b0ad035967469f,,1339934,107,,evan-feature22,full_rf_b,,1
77,40218,108,,,,2,2,1.0,0.0,0.0,1.0,,0.0-105.0,,0.0,1371.715,0.0,0.37919861,0.0,0.5724849710000001,1.0,0.705638003,0.0,0.30179300600000003,True,,5f86d7c687b0ad035967469f,,1351069,108,,evan-feature22,full_rf_b,,0
78,40219,109,,,,2,2,0.0,0.0,0.0,1.0,,0.0-106.0,,0.0,1012.295,1.0,0.464277969,0.0,0.554034373,0.0,0.7372627340000001,0.0,0.264699741,True,,5f86d7c687b0ad035967469f,,1361843,109,,evan-feature22,full_rf_b,,0
79,40220,110,,,,2,2,1.0,0.0,0.0,1.0,,0.0-107.0,,0.0,374.67500010000003,0.0,0.465104323,1.0,0.530793115,1.0,0.75,0.0,0.31683071,True,,5f86d7c687b0ad035967469f,,1371978,110,,evan-feature22,full_rf_b,,0
80,40221,111,,,,1,1,1.0,1.0,-1.0,0.0,,0.0-108.0,,-1.0,2679.845,1.0,0.465104323,1.0,0.530793115,1.0,0.75,0.0,0.31683071,True,,5f86d7c687b0ad035967469f,,1384421,111,,evan-feature22,full_rf_b,,1
81,40222,112,,,,2,2,0.0,1.0,-1.0,0.0,,0.0-109.0,,0.0,881.435,1.0,0.46833986,0.0,0.570249239,0.0,0.7244472590000001,1.0,0.364114163,True,,5f86d7c687b0ad035967469f,,1395068,112,,evan-feature22,full_rf_b,,1
82,40223,113,,,,2,2,1.0,0.0,-1.0,0.0,,0.0-110.0,,-1.0,2721.965,0.0,0.445444024,0.0,0.649673355,1.0,0.6845441290000001,0.0,0.300660449,True,,5f86d7c687b0ad035967469f,,1407552,113,,evan-feature22,full_rf_b,,0
83,40224,114,,,,1,1,0.0,0.0,-1.0,0.0,,0.0-111.0,,0.0,998.705,0.0,0.39909721299999995,0.0,0.6715179509999999,1.0,0.742310028,0.0,0.35496088299999995,True,,5f86d7c687b0ad035967469f,,1418312,114,,evan-feature22,full_rf_b,,1
84,40225,115,,,,2,2,1.0,1.0,0.0,1.0,,0.0-112.0,,1.0,1459.45,1.0,0.37956104799999996,0.0,0.694725302,1.0,0.7181651309999999,1.0,0.38726906299999997,True,,5f86d7c687b0ad035967469f,,1429536,115,,evan-feature22,full_rf_b,,1
85,40226,116,,,,2,2,0.0,0.0,0.0,1.0,,0.0-113.0,,0.0,1749.47,0.0,0.404995034,1.0,0.724375412,0.0,0.6910946859999999,0.0,0.387187347,True,,5f86d7c687b0ad035967469f,,1441048,116,,evan-feature22,full_rf_b,,0
86,40227,117,,,,2,2,1.0,1.0,-1.0,0.0,,0.0-114.0,,-1.0,2379.62,0.0,0.461740803,1.0,0.75,1.0,0.75,1.0,0.34872038200000005,True,,5f86d7c687b0ad035967469f,,1453194,117,,evan-feature22,full_rf_b,,0
87,40228,118,,,,SLOW,SLOW,,,-1.0,0.0,,0.0-115.0,,-3.0,,1.0,0.43821380600000004,1.0,0.738833273,0.0,0.728286963,0.0,0.399538128,True,,5f86d7c687b0ad035967469f,,1459000,118,,evan-feature22,full_rf_b,,1
88,40229,119,,,,1,1,1.0,1.0,0.0,1.0,,0.0-116.0,,1.0,1060.475,1.0,0.41709882,1.0,0.736666736,1.0,0.75,1.0,0.389095584,True,,5f86d7c687b0ad035967469f,,1469825,119,,evan-feature22,full_rf_b,,1
89,40230,120,,,,1,1,1.0,1.0,0.0,1.0,,0.0-117.0,,1.0,1112.54,1.0,0.39749009799999996,1.0,0.744320029,1.0,0.75,0.0,0.363848678,True,,5f86d7c687b0ad035967469f,,1480700,120,,evan-feature22,full_rf_b,,0
90,40231,121,,,,2,2,0.0,0.0,-1.0,0.0,,0.0-118.0,,0.0,1837.995,0.0,0.392653706,0.0,0.75,0.0,0.75,0.0,0.384386976,True,,5f86d7c687b0ad035967469f,,1492299,121,,evan-feature22,full_rf_b,,1
91,40232,122,,,,2,2,1.0,1.0,0.0,1.0,,0.0-119.0,,1.0,1767.535,0.0,0.31190902600000003,1.0,0.75,1.0,0.732413819,1.0,0.413082932,True,,5f86d7c687b0ad035967469f,,1503832,122,,evan-feature22,full_rf_b,,0
92,40233,123,,,,1,1,0.0,1.0,-1.0,0.0,,0.0-120.0,,0.0,1956.51,0.0,0.366917648,1.0,0.740073855,1.0,0.75,0.0,0.352861979,True,,5f86d7c687b0ad035967469f,,1515556,123,,evan-feature22,full_rf_b,,1
93,40234,124,,,,2,2,1.0,0.0,-1.0,0.0,,0.0-121.0,,-1.0,435.48000010000004,1.0,0.3645172,1.0,0.721770713,1.0,0.75,0.0,0.404074511,True,,5f86d7c687b0ad035967469f,,1525755,124,,evan-feature22,full_rf_b,,1
94,40235,125,,,,1,1,0.0,1.0,-1.0,0.0,,0.0-122.0,,0.0,1723.275,0.0,0.35205600299999995,1.0,0.68983859,0.0,0.739735447,0.0,0.366895945,True,,5f86d7c687b0ad035967469f,,1537243,125,,evan-feature22,full_rf_b,,1
95,40236,126,,,,1,1,0.0,1.0,-1.0,0.0,,0.0-123.0,,0.0,1260.135,0.0,0.40998722600000004,1.0,0.720859127,1.0,0.673854955,1.0,0.368528541,True,,5f86d7c687b0ad035967469f,,1548266,126,,evan-feature22,full_rf_b,,0
96,40237,127,,,,1,1,1.0,1.0,-1.0,0.0,,0.0-124.0,,-1.0,1082.045,1.0,0.353625316,1.0,0.75,1.0,0.695605473,0.0,0.38303674200000004,True,,5f86d7c687b0ad035967469f,,1559115,127,,evan-feature22,full_rf_b,,0
97,40238,128,,,,SLOW,SLOW,,,-1.0,0.0,,0.0-125.0,,-3.0,,0.0,0.359216989,0.0,0.75,1.0,0.6987915090000001,1.0,0.35169046200000004,True,,5f86d7c687b0ad035967469f,,1564922,128,,evan-feature22,full_rf_b,,1
98,40239,129,,,,2,2,1.0,0.0,-1.0,0.0,,0.0-126.0,,-1.0,740.87,1.0,0.35834496899999996,1.0,0.75,1.0,0.707067742,0.0,0.416763636,True,,5f86d7c687b0ad035967469f,,1575428,129,,evan-feature22,full_rf_b,,1
99,40240,130,,,,1,1,0.0,1.0,0.0,1.0,,0.0-127.0,,1.0,548.125,0.0,0.38741613799999997,1.0,0.7177369570000001,1.0,0.734902455,0.0,0.49438664299999996,True,,5f86d7c687b0ad035967469f,,1585739,130,,evan-feature22,full_rf_b,,1
100,40241,131,,,,2,2,1.0,0.0,-1.0,0.0,,0.0-128.0,,-1.0,1703.075,0.0,0.405255252,1.0,0.7300466640000001,1.0,0.7027748070000001,0.0,0.504359668,True,,5f86d7c687b0ad035967469f,,1597205,131,,evan-feature22,full_rf_b,,1
101,40242,132,,,,1,1,1.0,1.0,-1.0,0.0,,0.0-129.0,,-1.0,973.1600001,1.0,0.40697073,1.0,0.7260142190000001,1.0,0.724461982,1.0,0.522779179,True,,5f86d7c687b0ad035967469f,,1607945,132,,evan-feature22,full_rf_b,,1
102,40243,133,,,,2,2,1.0,0.0,-1.0,0.0,,0.0-130.0,,-1.0,675.06,1.0,0.43906215299999996,1.0,0.7252802340000001,1.0,0.719079934,0.0,0.5712990579999999,True,,5f86d7c687b0ad035967469f,,1618387,133,,evan-feature22,full_rf_b,,1
103,40244,134,,,,2,2,1.0,0.0,0.0,1.0,,0.0-131.0,,0.0,2126.655,0.0,0.4076705,1.0,0.73280499,1.0,0.681313127,0.0,0.523891346,True,,5f86d7c687b0ad035967469f,,1630281,134,,evan-feature22,full_rf_b,,0
104,40245,135,,,,1,1,0.0,1.0,0.0,1.0,,0.0-132.0,,1.0,3605.555,0.0,0.399102911,1.0,0.730498344,0.0,0.661080239,1.0,0.46742603,True,,5f86d7c687b0ad035967469f,,1643657,135,,evan-feature22,full_rf_b,,1
105,40246,136,,,,2,2,0.0,0.0,0.0,1.0,,0.0-133.0,,0.0,2557.255,0.0,0.356477282,1.0,0.712296395,0.0,0.641812684,0.0,0.44868414,True,,5f86d7c687b0ad035967469f,,1655977,136,,evan-feature22,full_rf_b,,1
106,40247,137,,,,1,1,1.0,1.0,-1.0,0.0,,0.0-134.0,,-1.0,1747.245,1.0,0.462760722,1.0,0.692349322,0.0,0.700947931,0.0,0.394680266,True,,5f86d7c687b0ad035967469f,,1667489,137,,evan-feature22,full_rf_b,,1
107,40248,138,,,,SLOW,SLOW,,,-1.0,0.0,,0.0-135.0,,-3.0,,1.0,0.422306413,0.0,0.718375916,1.0,0.706340917,0.0,0.367787185,True,,5f86d7c687b0ad035967469f,,1673297,138,,evan-feature22,full_rf_b,,1
108,40250,140,,,,2,2,1.0,1.0,-1.0,0.0,,0.0-137.0,,-1.0,1042.305,1.0,0.4582233,0.0,0.643834117,1.0,0.75,1.0,0.39615823299999997,True,,5f86d7c687b0ad035967469f,,1688357,140,,evan-feature22,full_rf_b,,1
109,40251,141,,,,1,1,0.0,1.0,-1.0,0.0,,0.0-138.0,,0.0,417.7999999,0.0,0.43813437899999996,1.0,0.651283804,1.0,0.729674191,0.0,0.37711048,True,,5f86d7c687b0ad035967469f,,1698541,141,,evan-feature22,full_rf_b,,1
110,40252,142,,,,1,1,1.0,1.0,-1.0,0.0,,0.0-139.0,,-1.0,1131.08,1.0,0.471199094,1.0,0.6470010979999999,1.0,0.715008097,0.0,0.410656191,True,,5f86d7c687b0ad035967469f,,1709438,142,,evan-feature22,full_rf_b,,0
111,40253,143,,,,2,2,1.0,1.0,-1.0,0.0,,0.0-140.0,,-1.0,2449.0,0.0,0.42486406,1.0,0.629771829,1.0,0.6550939960000001,1.0,0.459093873,True,,5f86d7c687b0ad035967469f,,1721649,143,,evan-feature22,full_rf_b,,1
112,40254,144,,,,1,1,1.0,1.0,-1.0,0.0,,0.0-141.0,,-1.0,2477.265,1.0,0.4803197,1.0,0.645842715,1.0,0.6421749920000001,1.0,0.443092151,True,,5f86d7c687b0ad035967469f,,1733889,144,,evan-feature22,full_rf_b,,1
113,40255,145,,,,2,2,1.0,0.0,0.0,1.0,,0.0-142.0,,0.0,1751.615,1.0,0.521848997,1.0,0.735801074,1.0,0.6691348460000001,0.0,0.45259351600000003,True,,5f86d7c687b0ad035967469f,,1745405,145,,evan-feature22,full_rf_b,,1
114,40256,146,,,,2,2,1.0,0.0,-1.0,0.0,,0.0-143.0,,-1.0,664.2049999,0.0,0.49565621299999996,1.0,0.742400847,1.0,0.661512553,0.0,0.483110831,True,,5f86d7c687b0ad035967469f,,1755833,146,,evan-feature22,full_rf_b,,0
115,40257,147,,,,1,1,0.0,1.0,-1.0,0.0,,0.0-144.0,,0.0,1329.5,0.0,0.521564361,1.0,0.731078632,1.0,0.6774886809999999,0.0,0.483263956,True,,5f86d7c687b0ad035967469f,,1766925,147,,evan-feature22,full_rf_b,,1
116,40258,148,,,,1,1,1.0,1.0,-1.0,0.0,,0.0-145.0,,-1.0,685.39,1.0,0.558893102,1.0,0.719810023,1.0,0.67461031,0.0,0.499349834,True,,5f86d7c687b0ad035967469f,,1777373,148,,evan-feature22,full_rf_b,,0
117,40259,149,,,,2,2,0.0,1.0,-1.0,0.0,,0.0-146.0,,0.0,522.8,0.0,0.611031046,0.0,0.75,0.0,0.688072995,1.0,0.5321422729999999,True,,5f86d7c687b0ad035967469f,,1787659,149,,evan-feature22,full_rf_b,,1
118,40260,150,,,,2,2,0.0,1.0,0.0,1.0,,0.0-147.0,,1.0,1038.585,1.0,0.633223941,0.0,0.713567728,0.0,0.75,1.0,0.48185314700000004,True,,5f86d7c687b0ad035967469f,,1798462,150,,evan-feature22,full_rf_b,,0
119,40261,151,,,,2,2,1.0,1.0,-1.0,0.0,,0.0-148.0,,-1.0,1448.07,1.0,0.664001694,0.0,0.705509768,1.0,0.75,1.0,0.500211065,True,,5f86d7c687b0ad035967469f,,1809676,151,,evan-feature22,full_rf_b,,0
120,40262,152,,,,1,1,1.0,0.0,-1.0,0.0,,0.0-149.0,,-1.0,2573.77,1.0,0.664001694,0.0,0.705509768,1.0,0.75,1.0,0.500211065,True,,5f86d7c687b0ad035967469f,,1822014,152,,evan-feature22,full_rf_b,,1
121,40263,153,,,,2,2,1.0,1.0,-1.0,0.0,,0.0-150.0,,-1.0,1664.02,0.0,0.696508041,1.0,0.71066027,1.0,0.717028709,1.0,0.49792991,True,,5f86d7c687b0ad035967469f,,1833445,153,,evan-feature22,full_rf_b,,1
122,40264,154,,,,1,1,1.0,1.0,0.0,1.0,,0.0-151.0,,1.0,2308.345,1.0,0.699883272,1.0,0.75,0.0,0.713543895,0.0,0.496962643,True,,5f86d7c687b0ad035967469f,,1845518,154,,evan-feature22,full_rf_b,,1
123,40265,155,,,,2,2,1.0,1.0,0.0,1.0,,0.0-152.0,,1.0,1643.745,1.0,0.741163419,1.0,0.75,1.0,0.64691024,1.0,0.513858197,True,,5f86d7c687b0ad035967469f,,1856927,155,,evan-feature22,full_rf_b,,1
124,40266,156,,,,1,1,1.0,0.0,0.0,1.0,,0.0-153.0,,0.0,1408.79,1.0,0.75,0.0,0.70816558,0.0,0.594499079,1.0,0.48502124,True,,5f86d7c687b0ad035967469f,,1868100,156,,evan-feature22,full_rf_b,,1
125,40267,157,,,,2,2,1.0,1.0,-1.0,0.0,,0.0-154.0,,-1.0,785.75,1.0,0.75,1.0,0.721848901,1.0,0.62197249,1.0,0.48263586399999997,True,,5f86d7c687b0ad035967469f,,1878652,157,,evan-feature22,full_rf_b,,1
126,40268,158,,,,1,1,1.0,1.0,-1.0,0.0,,0.0-155.0,,-1.0,369.1799999,1.0,0.75,1.0,0.74813071,0.0,0.584357161,0.0,0.411477782,True,,5f86d7c687b0ad035967469f,,1888782,158,,evan-feature22,full_rf_b,,1
127,40269,159,,,,2,2,0.0,0.0,-1.0,0.0,,0.0-156.0,,0.0,917.775,1.0,0.75,0.0,0.75,0.0,0.52287236,0.0,0.488290656,True,,5f86d7c687b0ad035967469f,,1899464,159,,evan-feature22,full_rf_b,,1
128,40270,160,,,,2,2,0.0,1.0,-1.0,0.0,,0.0-157.0,,0.0,760.165,1.0,0.75,1.0,0.75,0.0,0.544321581,1.0,0.53143059,True,,5f86d7c687b0ad035967469f,,1909989,160,,evan-feature22,full_rf_b,,0
129,40271,161,,,,1,1,1.0,1.0,-1.0,0.0,,0.0-158.0,,-1.0,1813.855,1.0,0.726754564,1.0,0.75,0.0,0.5129306370000001,0.0,0.530592445,True,,5f86d7c687b0ad035967469f,,1921566,161,,evan-feature22,full_rf_b,,1
130,40272,162,,,,2,2,1.0,0.0,0.0,1.0,,0.0-159.0,,0.0,530.0500001,1.0,0.75,1.0,0.7392590729999999,1.0,0.479875835,0.0,0.547007051,True,,5f86d7c687b0ad035967469f,,1931860,162,,evan-feature22,full_rf_b,,1
131,40273,163,,,,2,2,1.0,1.0,0.0,1.0,,0.0-160.0,,1.0,1001.29,1.0,0.75,1.0,0.7393376979999999,1.0,0.546045419,1.0,0.541267353,True,,5f86d7c687b0ad035967469f,,1942626,163,,evan-feature22,full_rf_b,,0
132,40274,164,,,,1,1,1.0,0.0,-1.0,0.0,,0.0-161.0,,-1.0,2173.16,1.0,0.75,0.0,0.75,0.0,0.485725895,0.0,0.527625395,True,,5f86d7c687b0ad035967469f,,1954564,164,,evan-feature22,full_rf_b,,1
133,40275,165,,,,SLOW,SLOW,,,0.0,1.0,,0.0-162.0,,-3.0,,1.0,0.75,1.0,0.725087974,1.0,0.488603595,0.0,0.504019206,True,,5f86d7c687b0ad035967469f,,1960371,165,,evan-feature22,full_rf_b,,1
134,40276,166,,,,2,2,1.0,0.0,-1.0,0.0,,0.0-163.0,,-1.0,1322.455,1.0,0.745504295,1.0,0.75,1.0,0.452379914,0.0,0.50131194,True,,5f86d7c687b0ad035967469f,,1971457,166,,evan-feature22,full_rf_b,,1
135,40277,167,,,,2,2,1.0,1.0,0.0,1.0,,0.0-164.0,,1.0,2824.985,0.0,0.728513874,1.0,0.75,1.0,0.44125567200000004,1.0,0.531454591,True,,5f86d7c687b0ad035967469f,,1984047,167,,evan-feature22,full_rf_b,,0
136,40278,168,,,,1,1,0.0,0.0,-1.0,0.0,,0.0-165.0,,0.0,1255.8,0.0,0.73790804,0.0,0.75,0.0,0.413036656,1.0,0.524619035,True,,5f86d7c687b0ad035967469f,,1995064,168,,evan-feature22,full_rf_b,,1
137,40279,169,,,,2,2,1.0,0.0,-1.0,0.0,,0.0-166.0,,-1.0,1656.9,0.0,0.7080961309999999,0.0,0.708666865,1.0,0.431915581,0.0,0.481819489,True,,5f86d7c687b0ad035967469f,,2006484,169,,evan-feature22,full_rf_b,,1
138,40280,170,,,,2,2,1.0,1.0,-1.0,0.0,,0.0-167.0,,-1.0,3003.65,0.0,0.721378003,1.0,0.71605913,1.0,0.36642387,1.0,0.5036739929999999,True,,5f86d7c687b0ad035967469f,,2019254,170,,evan-feature22,full_rf_b,,0
139,40281,171,,,,2,2,0.0,0.0,0.0,1.0,,0.0-168.0,,0.0,459.915,1.0,0.7340618959999999,1.0,0.699323252,0.0,0.35298046299999997,0.0,0.511241692,True,,5f86d7c687b0ad035967469f,,2029476,171,,evan-feature22,full_rf_b,,0
140,40282,172,,,,1,1,1.0,1.0,0.0,1.0,,0.0-169.0,,1.0,740.5200001000001,1.0,0.75,1.0,0.70412698,0.0,0.380734814,1.0,0.529580116,True,,5f86d7c687b0ad035967469f,,2039982,172,,evan-feature22,full_rf_b,,1
141,40283,173,,,,2,2,0.0,0.0,0.0,1.0,,0.0-170.0,,0.0,912.7249999,1.0,0.7436654909999999,1.0,0.711182751,0.0,0.41125331,0.0,0.49554405,True,,5f86d7c687b0ad035967469f,,2050661,173,,evan-feature22,full_rf_b,,1
142,40284,174,,,,2,2,1.0,1.0,-1.0,0.0,,0.0-171.0,,-1.0,2493.51,1.0,0.731607915,0.0,0.651774583,1.0,0.35688023,1.0,0.45194491600000003,True,,5f86d7c687b0ad035967469f,,2062917,174,,evan-feature22,full_rf_b,,0
143,40285,175,,,,1,1,1.0,1.0,0.0,1.0,,0.0-172.0,,1.0,793.93,1.0,0.75,1.0,0.75,0.0,0.283145374,1.0,0.528608005,True,,5f86d7c687b0ad035967469f,,2073476,175,,evan-feature22,full_rf_b,,1
144,40286,176,,,,2,2,0.0,1.0,-1.0,0.0,,0.0-173.0,,0.0,2497.505,0.0,0.7491416890000001,1.0,0.7423785959999999,0.0,0.29135870399999997,1.0,0.498888318,True,,5f86d7c687b0ad035967469f,,2085736,176,,evan-feature22,full_rf_b,,1
145,40287,177,,,,2,2,1.0,1.0,0.0,1.0,,0.0-174.0,,1.0,1614.19,0.0,0.708569387,0.0,0.717682277,1.0,0.294421699,1.0,0.493838163,True,,5f86d7c687b0ad035967469f,,2097113,177,,evan-feature22,full_rf_b,,0
146,40288,178,,,,SLOW,SLOW,,,-1.0,0.0,,0.0-175.0,,-3.0,,1.0,0.75,1.0,0.7383382159999999,0.0,0.356098707,0.0,0.442533405,True,,5f86d7c687b0ad035967469f,,2102920,178,,evan-feature22,full_rf_b,,1
147,40289,179,,,,2,2,0.0,0.0,-1.0,0.0,,0.0-176.0,,0.0,562.28,1.0,0.744527075,1.0,0.75,0.0,0.334127506,0.0,0.393165805,True,,5f86d7c687b0ad035967469f,,2113243,179,,evan-feature22,full_rf_b,,1
148,40290,180,,,,2,2,0.0,0.0,-1.0,0.0,,0.0-177.0,,0.0,555.96,1.0,0.75,1.0,0.75,0.0,0.33571021799999995,0.0,0.350393962,True,,5f86d7c687b0ad035967469f,,2123560,180,,evan-feature22,full_rf_b,,0
149,40291,181,,,,1,1,1.0,0.0,0.0,1.0,,0.0-178.0,,0.0,804.17,1.0,0.75,0.0,0.75,0.0,0.313628297,1.0,0.36349657399999996,True,,5f86d7c687b0ad035967469f,,2134126,181,,evan-feature22,full_rf_b,,1
150,40292,182,,,,2,2,0.0,1.0,-1.0,0.0,,0.0-179.0,,0.0,964.71,1.0,0.75,1.0,0.734284182,0.0,0.262667667,1.0,0.380199119,True,,5f86d7c687b0ad035967469f,,2144853,182,,evan-feature22,full_rf_b,,1
151,40293,183,,,,2,2,1.0,1.0,-1.0,0.0,,0.0-180.0,,-1.0,2307.02,1.0,0.75,1.0,0.75,1.0,0.25,1.0,0.394494013,True,,5f86d7c687b0ad035967469f,,2156927,183,,evan-feature22,full_rf_b,,0
152,40294,184,,,,1,1,1.0,0.0,-1.0,0.0,,0.0-181.0,,-1.0,2793.9,1.0,0.722298145,0.0,0.7357822340000001,0.0,0.25,0.0,0.319142121,True,,5f86d7c687b0ad035967469f,,2169487,184,,evan-feature22,full_rf_b,,1
153,40295,185,,,,2,2,1.0,1.0,-1.0,0.0,,0.0-182.0,,-1.0,730.365,1.0,0.73149275,1.0,0.724276446,1.0,0.305856907,1.0,0.281315057,True,,5f86d7c687b0ad035967469f,,2179983,185,,evan-feature22,full_rf_b,,1
154,40296,186,,,,1,1,1.0,1.0,-1.0,0.0,,0.0-183.0,,-1.0,427.26499989999996,1.0,0.7458732690000001,1.0,0.7336382459999999,1.0,0.272571964,0.0,0.266021999,True,,5f86d7c687b0ad035967469f,,2190176,186,,evan-feature22,full_rf_b,,1
155,40297,187,,,,2,2,0.0,1.0,0.0,1.0,,0.0-184.0,,1.0,404.86,1.0,0.705579037,1.0,0.720778292,0.0,0.320238144,1.0,0.30971744,True,,5f86d7c687b0ad035967469f,,2200347,187,,evan-feature22,full_rf_b,,1
156,40298,188,,,,2,2,0.0,1.0,0.0,1.0,,0.0-185.0,,1.0,1186.64,1.0,0.700425648,1.0,0.7198784009999999,0.0,0.272590393,1.0,0.304182931,True,,5f86d7c687b0ad035967469f,,2211297,188,,evan-feature22,full_rf_b,,0
157,40299,189,,,,2,2,0.0,1.0,0.0,1.0,,0.0-186.0,,1.0,3352.455,1.0,0.735590785,1.0,0.722714973,0.0,0.25,1.0,0.323421091,True,,5f86d7c687b0ad035967469f,,2224414,189,,evan-feature22,full_rf_b,,0
158,40300,190,,,,2,2,0.0,0.0,0.0,1.0,,0.0-187.0,,0.0,1512.375,0.0,0.724807662,0.0,0.63146213,0.0,0.36836492600000004,0.0,0.34592153299999995,True,,5f86d7c687b0ad035967469f,,2235690,190,,evan-feature22,full_rf_b,,0
159,40301,191,,,,2,2,0.0,1.0,-1.0,0.0,,0.0-188.0,,0.0,3017.56,1.0,0.7352796909999999,1.0,0.555111392,0.0,0.36003922,1.0,0.31433779999999995,True,,5f86d7c687b0ad035967469f,,2248473,191,,evan-feature22,full_rf_b,,0
160,40302,192,notice,,,,,,,,,,0.0-189.0,"{""Q0"":""It was more difficult to score points in the second half""}",,22743.0,,,,,,,,,True,,5f86d7c687b0ad035967469f,,2271218,192,Q,survey-text,full_rf_b,,1
161,40303,193,track1,,[1],,,,,,,,0.0-190.0,"{""Q0"":""no""}",,2946.0,,,,,,,,,True,,5f86d7c687b0ad035967469f,,2274170,193,Q,evan-quiz,full_rf_b,,1
162,40304,194,track2,,[0],,,,,,,,0.0-191.0,"{""Q0"":""yes""}",,3510.0,,,,,,,,,True,,5f86d7c687b0ad035967469f,,2277682,194,Q,evan-quiz,full_rf_b,,1
163,40305,195,strat,,,,,,,,,,0.0-192.0,"{""Q0"":""Concentrated on just noting a few of the patterns""}",,18475.0,,,,,,,,,True,,5f86d7c687b0ad035967469f,,2296159,195,Q,survey-text,full_rf_b,,1
