,index,Unnamed: 0,Q_name,button_pressed,choice_idxs,chosen_pos,chosen_state,chosen_state_f_1_outcome,chosen_state_f_2_outcome,f_1_reward,f_2_reward,incor_questions,internal_node_id,responses,reward_received,rt,s_1_f_1_outcome,s_1_f_1_prob,s_1_f_2_outcome,s_1_f_2_prob,s_2_f_1_outcome,s_2_f_1_prob,s_2_f_2_outcome,s_2_f_2_prob,safe_first,stimulus,subjectID,success,time_elapsed,trial_index,trial_num,trial_type,version,view_history,switching
0,45452,25,,,,1,1,0.0,0.0,0.0,1.0,,0.0-27.0,,0.0,2963.835,0.0,0.6,0.0,0.6,1.0,0.4,0.0,0.4,True,,5e0cbe8919232d467b08ac4c,,515108,25,,evan-feature22,full_rf_b,,0
1,45453,26,,,,1,1,1.0,0.0,0.0,1.0,,0.0-28.0,,0.0,1750.4,1.0,0.608053294,0.0,0.63424552,0.0,0.397152172,0.0,0.347069101,True,,5e0cbe8919232d467b08ac4c,,526631,26,,evan-feature22,full_rf_b,,0
2,45454,27,,,,SLOW,SLOW,,,0.0,1.0,,0.0-29.0,,-3.0,,1.0,0.642237155,0.0,0.648566321,1.0,0.389407674,0.0,0.285525717,True,,5e0cbe8919232d467b08ac4c,,532440,27,,evan-feature22,full_rf_b,,1
3,45455,28,,,,1,1,0.0,1.0,0.0,1.0,,0.0-30.0,,1.0,834.795,0.0,0.661086576,1.0,0.630492543,1.0,0.399058924,0.0,0.25,True,,5e0cbe8919232d467b08ac4c,,543042,28,,evan-feature22,full_rf_b,,1
4,45456,29,,,,1,1,1.0,1.0,0.0,1.0,,0.0-31.0,,1.0,3155.45,1.0,0.631324137,1.0,0.6269842929999999,0.0,0.38734784299999997,0.0,0.25,True,,5e0cbe8919232d467b08ac4c,,555970,29,,evan-feature22,full_rf_b,,0
5,45457,30,,,,2,2,0.0,0.0,0.0,1.0,,0.0-32.0,,0.0,2061.53,0.0,0.6381991370000001,1.0,0.68987999,0.0,0.384107265,0.0,0.271332943,True,,5e0cbe8919232d467b08ac4c,,567796,30,,evan-feature22,full_rf_b,,1
6,45458,31,,,,1,1,0.0,0.0,0.0,1.0,,0.0-33.0,,0.0,683.0350002,0.0,0.66034901,0.0,0.742641349,0.0,0.360225629,0.0,0.25,True,,5e0cbe8919232d467b08ac4c,,578243,31,,evan-feature22,full_rf_b,,1
7,45459,32,,,,2,2,1.0,0.0,-1.0,0.0,,0.0-34.0,,-1.0,1232.51,1.0,0.638612418,1.0,0.75,1.0,0.367273939,0.0,0.25,True,,5e0cbe8919232d467b08ac4c,,589247,32,,evan-feature22,full_rf_b,,1
8,45460,33,,,,1,1,0.0,1.0,0.0,1.0,,0.0-35.0,,1.0,1268.07,0.0,0.624340629,1.0,0.75,1.0,0.425829545,1.0,0.25,True,,5e0cbe8919232d467b08ac4c,,600282,33,,evan-feature22,full_rf_b,,1
9,45461,34,,,,2,2,0.0,0.0,0.0,1.0,,0.0-36.0,,0.0,2826.295,1.0,0.621999804,1.0,0.75,0.0,0.368609357,0.0,0.25,True,,5e0cbe8919232d467b08ac4c,,612873,34,,evan-feature22,full_rf_b,,1
10,45462,35,,,,1,1,1.0,1.0,-1.0,0.0,,0.0-37.0,,-1.0,2000.33,1.0,0.62666403,1.0,0.75,0.0,0.311151498,1.0,0.25,True,,5e0cbe8919232d467b08ac4c,,624646,35,,evan-feature22,full_rf_b,,1
11,45463,36,,,,2,2,0.0,0.0,-1.0,0.0,,0.0-38.0,,0.0,1849.98,1.0,0.6819650009999999,1.0,0.75,0.0,0.310763048,0.0,0.25,True,,5e0cbe8919232d467b08ac4c,,636264,36,,evan-feature22,full_rf_b,,1
12,45464,37,,,,1,1,1.0,1.0,0.0,1.0,,0.0-39.0,,1.0,2039.24,1.0,0.740626951,1.0,0.75,0.0,0.25,1.0,0.25,True,,5e0cbe8919232d467b08ac4c,,648076,37,,evan-feature22,full_rf_b,,1
13,45465,38,,,,SLOW,SLOW,,,0.0,1.0,,0.0-40.0,,-3.0,,1.0,0.739599242,1.0,0.742034978,0.0,0.25397114600000004,1.0,0.25,True,,5e0cbe8919232d467b08ac4c,,653885,38,,evan-feature22,full_rf_b,,1
14,45466,39,,,,1,1,1.0,1.0,0.0,1.0,,0.0-41.0,,1.0,1126.885,1.0,0.732341315,1.0,0.72735643,0.0,0.25,0.0,0.25,True,,5e0cbe8919232d467b08ac4c,,664781,39,,evan-feature22,full_rf_b,,1
15,45467,40,,,,1,1,1.0,1.0,0.0,1.0,,0.0-42.0,,1.0,356.6950001,1.0,0.7062287770000001,1.0,0.75,0.0,0.29002151,1.0,0.288256649,True,,5e0cbe8919232d467b08ac4c,,674907,40,,evan-feature22,full_rf_b,,0
16,45468,41,,,,1,1,0.0,0.0,-1.0,0.0,,0.0-43.0,,0.0,1523.455,0.0,0.7086029209999999,0.0,0.75,1.0,0.274129113,0.0,0.262851608,True,,5e0cbe8919232d467b08ac4c,,686197,41,,evan-feature22,full_rf_b,,0
17,45469,42,,,,1,1,0.0,0.0,0.0,1.0,,0.0-44.0,,0.0,1089.7,0.0,0.669189651,0.0,0.727614338,1.0,0.298444036,0.0,0.296944518,True,,5e0cbe8919232d467b08ac4c,,697052,42,,evan-feature22,full_rf_b,,0
18,45470,43,,,,1,1,1.0,1.0,-1.0,0.0,,0.0-45.0,,-1.0,858.3849999,1.0,0.6819912929999999,1.0,0.7179434290000001,0.0,0.265003961,0.0,0.28157921199999997,True,,5e0cbe8919232d467b08ac4c,,707680,43,,evan-feature22,full_rf_b,,0
19,45471,44,,,,2,2,0.0,0.0,-1.0,0.0,,0.0-46.0,,0.0,1620.925,0.0,0.665275002,0.0,0.723065271,0.0,0.260414971,0.0,0.30973870000000003,True,,5e0cbe8919232d467b08ac4c,,719063,44,,evan-feature22,full_rf_b,,1
20,45472,45,,,,1,1,0.0,1.0,0.0,1.0,,0.0-47.0,,1.0,695.3400001,0.0,0.6660593260000001,1.0,0.728032907,0.0,0.30922817,1.0,0.338778608,True,,5e0cbe8919232d467b08ac4c,,729528,45,,evan-feature22,full_rf_b,,1
21,45473,46,,,,1,1,0.0,0.0,0.0,1.0,,0.0-48.0,,0.0,1192.37,0.0,0.702068785,0.0,0.6528750879999999,0.0,0.287329608,0.0,0.35789613200000003,True,,5e0cbe8919232d467b08ac4c,,740483,46,,evan-feature22,full_rf_b,,0
22,45474,47,,,,2,2,1.0,0.0,0.0,1.0,,0.0-49.0,,0.0,945.1049998999999,1.0,0.651939787,1.0,0.636725589,1.0,0.284834488,0.0,0.358563756,True,,5e0cbe8919232d467b08ac4c,,751198,47,,evan-feature22,full_rf_b,,1
23,45475,48,,,,1,1,1.0,1.0,0.0,1.0,,0.0-50.0,,1.0,879.6850001,1.0,0.67573929,1.0,0.612550049,0.0,0.37130387600000003,0.0,0.383542402,True,,5e0cbe8919232d467b08ac4c,,761848,48,,evan-feature22,full_rf_b,,1
24,45476,49,,,,1,1,1.0,1.0,0.0,1.0,,0.0-51.0,,1.0,412.6750003,1.0,0.620753801,1.0,0.60513644,0.0,0.385529434,0.0,0.340361743,True,,5e0cbe8919232d467b08ac4c,,772029,49,,evan-feature22,full_rf_b,,0
25,45477,50,,,,1,1,0.0,1.0,-1.0,0.0,,0.0-52.0,,0.0,726.485,0.0,0.673564893,1.0,0.672437924,0.0,0.292955382,1.0,0.337633795,True,,5e0cbe8919232d467b08ac4c,,782526,50,,evan-feature22,full_rf_b,,0
26,45478,51,,,,1,1,1.0,1.0,0.0,1.0,,0.0-53.0,,1.0,806.165,1.0,0.6749427,1.0,0.724197502,0.0,0.32391132100000003,1.0,0.350995264,True,,5e0cbe8919232d467b08ac4c,,793105,51,,evan-feature22,full_rf_b,,0
27,45479,52,,,,1,1,1.0,1.0,0.0,1.0,,0.0-54.0,,1.0,512.1999998,1.0,0.6940159379999999,1.0,0.75,0.0,0.31710554399999996,1.0,0.413450341,True,,5e0cbe8919232d467b08ac4c,,803388,52,,evan-feature22,full_rf_b,,0
28,45480,53,,,,1,1,1.0,1.0,0.0,1.0,,0.0-55.0,,1.0,562.6450004,1.0,0.6916018270000001,1.0,0.69001187,0.0,0.261817804,1.0,0.40038635,True,,5e0cbe8919232d467b08ac4c,,813725,53,,evan-feature22,full_rf_b,,0
29,45481,54,,,,1,1,0.0,0.0,0.0,1.0,,0.0-56.0,,0.0,664.235,0.0,0.641061544,0.0,0.71337992,0.0,0.277296461,0.0,0.47372791700000005,True,,5e0cbe8919232d467b08ac4c,,824155,54,,evan-feature22,full_rf_b,,0
30,45482,55,,,,1,1,1.0,0.0,0.0,1.0,,0.0-57.0,,0.0,691.5799999,1.0,0.6082438520000001,0.0,0.708471106,1.0,0.28745137,0.0,0.564174476,True,,5e0cbe8919232d467b08ac4c,,834616,55,,evan-feature22,full_rf_b,,0
31,45483,56,,,,1,1,0.0,1.0,-1.0,0.0,,0.0-58.0,,0.0,756.8999999,0.0,0.6051112120000001,1.0,0.7118147229999999,0.0,0.272390611,0.0,0.5595149939999999,True,,5e0cbe8919232d467b08ac4c,,845146,56,,evan-feature22,full_rf_b,,0
32,45484,57,,,,1,1,1.0,1.0,-1.0,0.0,,0.0-59.0,,-1.0,1632.33,1.0,0.582420852,1.0,0.635867583,1.0,0.31089574,1.0,0.5227206520000001,True,,5e0cbe8919232d467b08ac4c,,856550,57,,evan-feature22,full_rf_b,,0
33,45485,58,,,,1,1,1.0,1.0,-1.0,0.0,,0.0-60.0,,-1.0,966.7099998,1.0,0.623195575,1.0,0.655026044,0.0,0.25,0.0,0.560387538,True,,5e0cbe8919232d467b08ac4c,,867289,58,,evan-feature22,full_rf_b,,0
34,45486,59,,,,1,1,0.0,1.0,0.0,1.0,,0.0-61.0,,1.0,1246.78,0.0,0.601889598,1.0,0.678198724,0.0,0.25,0.0,0.559922936,True,,5e0cbe8919232d467b08ac4c,,878306,59,,evan-feature22,full_rf_b,,0
35,45487,60,,,,1,1,0.0,1.0,-1.0,0.0,,0.0-62.0,,0.0,1407.785,0.0,0.601259914,1.0,0.704681482,1.0,0.33908969299999997,1.0,0.505003715,True,,5e0cbe8919232d467b08ac4c,,889480,60,,evan-feature22,full_rf_b,,0
36,45488,61,,,,1,1,1.0,1.0,-1.0,0.0,,0.0-63.0,,-1.0,1598.265,1.0,0.59645454,1.0,0.710437172,1.0,0.327441879,1.0,0.391749613,True,,5e0cbe8919232d467b08ac4c,,900848,61,,evan-feature22,full_rf_b,,0
37,45489,62,,,,1,1,1.0,0.0,0.0,1.0,,0.0-64.0,,0.0,725.505,1.0,0.529473,0.0,0.636758527,0.0,0.301338063,0.0,0.365661481,True,,5e0cbe8919232d467b08ac4c,,911342,62,,evan-feature22,full_rf_b,,0
38,45490,63,,,,2,2,0.0,1.0,-1.0,0.0,,0.0-65.0,,0.0,1547.675,0.0,0.541657162,1.0,0.634541962,0.0,0.343535366,1.0,0.371763742,True,,5e0cbe8919232d467b08ac4c,,922660,63,,evan-feature22,full_rf_b,,1
39,45491,64,,,,2,2,0.0,1.0,-1.0,0.0,,0.0-66.0,,0.0,933.04,1.0,0.5707533260000001,1.0,0.589121171,0.0,0.326428396,1.0,0.43961622899999997,True,,5e0cbe8919232d467b08ac4c,,933359,64,,evan-feature22,full_rf_b,,0
40,45492,65,,,,2,2,0.0,0.0,0.0,1.0,,0.0-67.0,,0.0,753.4699999,1.0,0.5707533260000001,1.0,0.589121171,0.0,0.326428396,0.0,0.43961622899999997,True,,5e0cbe8919232d467b08ac4c,,943878,65,,evan-feature22,full_rf_b,,0
41,45493,66,,,,1,1,0.0,1.0,0.0,1.0,,0.0-68.0,,1.0,699.1349999,0.0,0.506271295,1.0,0.641775594,1.0,0.37149690700000004,0.0,0.404330166,True,,5e0cbe8919232d467b08ac4c,,954346,66,,evan-feature22,full_rf_b,,1
42,45494,67,,,,2,2,1.0,0.0,-1.0,0.0,,0.0-69.0,,-1.0,1541.16,1.0,0.455642565,0.0,0.623605825,1.0,0.358753011,0.0,0.346174041,True,,5e0cbe8919232d467b08ac4c,,965654,67,,evan-feature22,full_rf_b,,1
43,45495,68,,,,1,1,0.0,0.0,0.0,1.0,,0.0-70.0,,0.0,765.1849999,0.0,0.483677308,0.0,0.5904681070000001,1.0,0.402218411,0.0,0.35344697,True,,5e0cbe8919232d467b08ac4c,,976184,68,,evan-feature22,full_rf_b,,1
44,45496,69,,,,2,2,1.0,0.0,-1.0,0.0,,0.0-71.0,,-1.0,1683.52,0.0,0.394210977,0.0,0.558925494,1.0,0.540052017,0.0,0.35182128700000004,True,,5e0cbe8919232d467b08ac4c,,987635,69,,evan-feature22,full_rf_b,,1
45,45497,70,,,,1,1,0.0,0.0,0.0,1.0,,0.0-72.0,,0.0,982.2850004000001,0.0,0.382300414,0.0,0.577670603,1.0,0.607608448,0.0,0.378261578,True,,5e0cbe8919232d467b08ac4c,,998386,70,,evan-feature22,full_rf_b,,1
46,45498,71,,,,2,2,1.0,0.0,-1.0,0.0,,0.0-73.0,,-1.0,1182.88,1.0,0.357596762,0.0,0.5929076529999999,1.0,0.6579790010000001,0.0,0.401326777,True,,5e0cbe8919232d467b08ac4c,,1009338,71,,evan-feature22,full_rf_b,,1
47,45499,72,,,,1,1,1.0,0.0,0.0,1.0,,0.0-74.0,,0.0,1156.405,1.0,0.362033495,0.0,0.582308608,1.0,0.649195052,0.0,0.355158505,True,,5e0cbe8919232d467b08ac4c,,1020263,72,,evan-feature22,full_rf_b,,1
48,45500,73,,,,2,2,0.0,0.0,0.0,1.0,,0.0-75.0,,0.0,1451.93,0.0,0.369620635,1.0,0.669100864,0.0,0.706059111,0.0,0.362516241,True,,5e0cbe8919232d467b08ac4c,,1031480,73,,evan-feature22,full_rf_b,,1
49,45501,74,,,,2,2,1.0,1.0,0.0,1.0,,0.0-76.0,,1.0,1550.865,0.0,0.41477751399999996,1.0,0.7284416779999999,1.0,0.7182656940000001,1.0,0.36228040899999997,True,,5e0cbe8919232d467b08ac4c,,1042800,74,,evan-feature22,full_rf_b,,0
50,45502,75,,,,1,1,1.0,0.0,-1.0,0.0,,0.0-77.0,,-1.0,410.3950001,1.0,0.37675460299999997,0.0,0.703250285,1.0,0.75,1.0,0.461979164,True,,5e0cbe8919232d467b08ac4c,,1052978,75,,evan-feature22,full_rf_b,,1
51,45503,76,,,,2,2,0.0,0.0,-1.0,0.0,,0.0-78.0,,0.0,564.7800001,1.0,0.398716075,0.0,0.6723864890000001,0.0,0.674153818,0.0,0.519029516,True,,5e0cbe8919232d467b08ac4c,,1063310,76,,evan-feature22,full_rf_b,,1
52,45504,77,,,,2,2,1.0,1.0,-1.0,0.0,,0.0-79.0,,-1.0,1715.14,1.0,0.34677856700000004,0.0,0.69057175,1.0,0.6822438540000001,1.0,0.477292237,True,,5e0cbe8919232d467b08ac4c,,1074797,77,,evan-feature22,full_rf_b,,0
53,45505,78,,,,1,1,0.0,1.0,0.0,1.0,,0.0-80.0,,1.0,546.97,0.0,0.28580469199999997,1.0,0.68408818,0.0,0.684207565,1.0,0.49780448299999996,True,,5e0cbe8919232d467b08ac4c,,1085114,78,,evan-feature22,full_rf_b,,1
54,45507,80,,,,2,2,0.0,1.0,0.0,1.0,,0.0-82.0,,1.0,1905.925,0.0,0.25,1.0,0.7405808970000001,0.0,0.679614108,1.0,0.436436964,True,,5e0cbe8919232d467b08ac4c,,1100717,80,,evan-feature22,full_rf_b,,1
55,45508,81,,,,1,1,0.0,1.0,0.0,1.0,,0.0-83.0,,1.0,959.3599997000001,0.0,0.29890393,1.0,0.730505706,1.0,0.7328203320000001,1.0,0.439256938,True,,5e0cbe8919232d467b08ac4c,,1111447,81,,evan-feature22,full_rf_b,,1
56,45509,82,,,,1,1,1.0,0.0,-1.0,0.0,,0.0-84.0,,-1.0,438.1300001,1.0,0.326762398,0.0,0.7148059609999999,1.0,0.75,1.0,0.44389608799999997,True,,5e0cbe8919232d467b08ac4c,,1121655,82,,evan-feature22,full_rf_b,,0
57,45510,83,,,,2,2,0.0,1.0,0.0,1.0,,0.0-85.0,,1.0,514.2100002000001,0.0,0.295168515,1.0,0.739760854,0.0,0.719947008,1.0,0.35277284600000003,True,,5e0cbe8919232d467b08ac4c,,1131940,83,,evan-feature22,full_rf_b,,1
58,45511,84,,,,1,1,0.0,1.0,0.0,1.0,,0.0-86.0,,1.0,223.54999980000002,0.0,0.25,1.0,0.70781482,0.0,0.75,0.0,0.286095925,True,,5e0cbe8919232d467b08ac4c,,1141933,84,,evan-feature22,full_rf_b,,1
59,45512,85,,,,1,1,0.0,1.0,0.0,1.0,,0.0-87.0,,1.0,389.0650002,0.0,0.25638190899999996,1.0,0.704088163,1.0,0.75,0.0,0.26872601399999996,True,,5e0cbe8919232d467b08ac4c,,1152094,85,,evan-feature22,full_rf_b,,0
60,45513,86,,,,1,1,0.0,0.0,-1.0,0.0,,0.0-88.0,,0.0,504.76500020000003,0.0,0.271581126,0.0,0.669760107,0.0,0.733896663,0.0,0.273244572,True,,5e0cbe8919232d467b08ac4c,,1162362,86,,evan-feature22,full_rf_b,,0
61,45514,87,,,,1,1,0.0,1.0,0.0,1.0,,0.0-89.0,,1.0,640.6150004,0.0,0.257144401,1.0,0.600575706,1.0,0.74488122,0.0,0.25,True,,5e0cbe8919232d467b08ac4c,,1172773,87,,evan-feature22,full_rf_b,,0
62,45515,88,,,,1,1,0.0,1.0,0.0,1.0,,0.0-90.0,,1.0,401.90500019999996,0.0,0.25,1.0,0.616870026,0.0,0.723610234,0.0,0.25,True,,5e0cbe8919232d467b08ac4c,,1182944,88,,evan-feature22,full_rf_b,,0
63,45516,89,,,,2,2,0.0,0.0,-1.0,0.0,,0.0-91.0,,0.0,390.78499980000004,1.0,0.25,0.0,0.583540187,0.0,0.7041042559999999,0.0,0.285961995,True,,5e0cbe8919232d467b08ac4c,,1193099,89,,evan-feature22,full_rf_b,,1
64,45517,90,,,,1,1,0.0,1.0,-1.0,0.0,,0.0-92.0,,0.0,287.4099999,0.0,0.27254536,1.0,0.53875765,0.0,0.693783448,0.0,0.284961652,True,,5e0cbe8919232d467b08ac4c,,1203156,90,,evan-feature22,full_rf_b,,1
65,45518,91,,,,1,1,0.0,1.0,-1.0,0.0,,0.0-93.0,,0.0,409.4499997,0.0,0.25,1.0,0.548431252,1.0,0.734221895,0.0,0.279445214,True,,5e0cbe8919232d467b08ac4c,,1213336,91,,evan-feature22,full_rf_b,,0
66,45519,92,,,,1,1,0.0,0.0,0.0,1.0,,0.0-94.0,,0.0,258.7200003,0.0,0.258640684,0.0,0.545878066,1.0,0.725245965,0.0,0.31487537,True,,5e0cbe8919232d467b08ac4c,,1223359,92,,evan-feature22,full_rf_b,,0
67,45520,93,,,,1,1,0.0,0.0,0.0,1.0,,0.0-95.0,,0.0,552.8350002000001,0.0,0.251103711,0.0,0.5776290629999999,1.0,0.696320133,0.0,0.317831047,True,,5e0cbe8919232d467b08ac4c,,1233678,93,,evan-feature22,full_rf_b,,0
68,45521,94,,,,1,1,0.0,1.0,0.0,1.0,,0.0-96.0,,1.0,394.3150002,0.0,0.276630292,1.0,0.617329858,1.0,0.73838088,0.0,0.261471582,True,,5e0cbe8919232d467b08ac4c,,1243841,94,,evan-feature22,full_rf_b,,0
69,45522,95,,,,1,1,0.0,0.0,0.0,1.0,,0.0-97.0,,0.0,436.38999989999996,0.0,0.297716424,0.0,0.618863717,0.0,0.7402358259999999,0.0,0.262600834,True,,5e0cbe8919232d467b08ac4c,,1254043,95,,evan-feature22,full_rf_b,,0
70,45523,96,,,,2,2,1.0,0.0,-1.0,0.0,,0.0-98.0,,-1.0,271.9799997,0.0,0.290935512,1.0,0.695370945,1.0,0.706570507,0.0,0.280030553,True,,5e0cbe8919232d467b08ac4c,,1264085,96,,evan-feature22,full_rf_b,,1
71,45524,97,,,,1,1,0.0,1.0,0.0,1.0,,0.0-99.0,,1.0,1003.235,0.0,0.25,1.0,0.6465277079999999,1.0,0.67766682,1.0,0.25,True,,5e0cbe8919232d467b08ac4c,,1274860,97,,evan-feature22,full_rf_b,,1
72,45525,98,,,,2,2,0.0,0.0,-1.0,0.0,,0.0-100.0,,0.0,616.44,0.0,0.26463816,0.0,0.636100213,0.0,0.646048507,0.0,0.265607101,True,,5e0cbe8919232d467b08ac4c,,1285241,98,,evan-feature22,full_rf_b,,1
73,45526,99,,,,2,2,0.0,0.0,-1.0,0.0,,0.0-101.0,,0.0,394.1300004,1.0,0.314340707,1.0,0.667795927,0.0,0.613630805,0.0,0.25,True,,5e0cbe8919232d467b08ac4c,,1295400,99,,evan-feature22,full_rf_b,,0
74,45527,100,,,,2,2,0.0,1.0,0.0,1.0,,0.0-102.0,,1.0,607.0399997000001,1.0,0.28685784,1.0,0.6622549529999999,0.0,0.652154117,1.0,0.25,True,,5e0cbe8919232d467b08ac4c,,1305777,100,,evan-feature22,full_rf_b,,0
75,45528,101,,,,1,1,0.0,1.0,0.0,1.0,,0.0-103.0,,1.0,698.3749997,0.0,0.304106554,1.0,0.631289538,1.0,0.707041942,0.0,0.29314237,True,,5e0cbe8919232d467b08ac4c,,1316246,101,,evan-feature22,full_rf_b,,1
76,45529,102,,,,1,1,0.0,1.0,0.0,1.0,,0.0-104.0,,1.0,656.8050003,0.0,0.304806932,1.0,0.571167718,1.0,0.680472346,1.0,0.25,True,,5e0cbe8919232d467b08ac4c,,1326673,102,,evan-feature22,full_rf_b,,0
77,45530,103,,,,1,1,0.0,0.0,0.0,1.0,,0.0-105.0,,0.0,850.6400002999999,0.0,0.37919861,0.0,0.5724849710000001,0.0,0.705638003,0.0,0.30179300600000003,True,,5e0cbe8919232d467b08ac4c,,1337289,103,,evan-feature22,full_rf_b,,0
78,45531,104,,,,1,1,0.0,1.0,0.0,1.0,,0.0-106.0,,1.0,442.7149999,0.0,0.464277969,1.0,0.554034373,1.0,0.7372627340000001,1.0,0.264699741,True,,5e0cbe8919232d467b08ac4c,,1347504,104,,evan-feature22,full_rf_b,,0
79,45532,105,,,,2,2,1.0,0.0,0.0,1.0,,0.0-107.0,,0.0,308.065,1.0,0.465104323,1.0,0.530793115,1.0,0.75,0.0,0.31683071,True,,5e0cbe8919232d467b08ac4c,,1357582,105,,evan-feature22,full_rf_b,,1
80,45533,106,,,,1,1,0.0,0.0,-1.0,0.0,,0.0-108.0,,0.0,551.0849999,0.0,0.465104323,0.0,0.530793115,0.0,0.75,0.0,0.31683071,True,,5e0cbe8919232d467b08ac4c,,1367897,106,,evan-feature22,full_rf_b,,1
81,45534,107,,,,1,1,0.0,0.0,-1.0,0.0,,0.0-109.0,,0.0,482.77999969999996,0.0,0.46833986,0.0,0.570249239,1.0,0.7244472590000001,1.0,0.364114163,True,,5e0cbe8919232d467b08ac4c,,1378146,107,,evan-feature22,full_rf_b,,0
82,45535,108,,,,1,1,0.0,0.0,-1.0,0.0,,0.0-110.0,,0.0,618.6549999,0.0,0.445444024,0.0,0.649673355,1.0,0.6845441290000001,0.0,0.300660449,True,,5e0cbe8919232d467b08ac4c,,1388533,108,,evan-feature22,full_rf_b,,0
83,45536,109,,,,1,1,1.0,1.0,-1.0,0.0,,0.0-111.0,,-1.0,281.9599998,1.0,0.39909721299999995,1.0,0.6715179509999999,1.0,0.742310028,0.0,0.35496088299999995,True,,5e0cbe8919232d467b08ac4c,,1398586,109,,evan-feature22,full_rf_b,,0
84,45537,110,,,,1,1,0.0,1.0,0.0,1.0,,0.0-112.0,,1.0,298.4350002,0.0,0.37956104799999996,1.0,0.694725302,1.0,0.7181651309999999,0.0,0.38726906299999997,True,,5e0cbe8919232d467b08ac4c,,1408655,110,,evan-feature22,full_rf_b,,0
85,45538,111,,,,1,1,0.0,0.0,0.0,1.0,,0.0-113.0,,0.0,426.17500010000003,0.0,0.404995034,0.0,0.724375412,1.0,0.6910946859999999,1.0,0.387187347,True,,5e0cbe8919232d467b08ac4c,,1418849,111,,evan-feature22,full_rf_b,,0
86,45539,112,,,,1,1,0.0,0.0,-1.0,0.0,,0.0-114.0,,0.0,444.5750001,0.0,0.461740803,0.0,0.75,1.0,0.75,1.0,0.34872038200000005,True,,5e0cbe8919232d467b08ac4c,,1429060,112,,evan-feature22,full_rf_b,,0
87,45540,113,,,,1,1,0.0,1.0,-1.0,0.0,,0.0-115.0,,0.0,744.3799996,0.0,0.43821380600000004,1.0,0.738833273,1.0,0.728286963,0.0,0.399538128,True,,5e0cbe8919232d467b08ac4c,,1439572,113,,evan-feature22,full_rf_b,,0
88,45541,114,,,,1,1,0.0,1.0,0.0,1.0,,0.0-116.0,,1.0,664.295,0.0,0.41709882,1.0,0.736666736,1.0,0.75,1.0,0.389095584,True,,5e0cbe8919232d467b08ac4c,,1450006,114,,evan-feature22,full_rf_b,,0
89,45542,115,,,,1,1,0.0,1.0,0.0,1.0,,0.0-117.0,,1.0,444.55000010000003,0.0,0.39749009799999996,1.0,0.744320029,1.0,0.75,0.0,0.363848678,True,,5e0cbe8919232d467b08ac4c,,1460220,115,,evan-feature22,full_rf_b,,0
90,45543,116,,,,1,1,1.0,1.0,-1.0,0.0,,0.0-118.0,,-1.0,313.8050004,1.0,0.392653706,1.0,0.75,0.0,0.75,1.0,0.384386976,True,,5e0cbe8919232d467b08ac4c,,1470305,116,,evan-feature22,full_rf_b,,0
91,45544,117,,,,1,1,0.0,1.0,0.0,1.0,,0.0-119.0,,1.0,371.9500001,0.0,0.31190902600000003,1.0,0.75,1.0,0.732413819,0.0,0.413082932,True,,5e0cbe8919232d467b08ac4c,,1480933,117,,evan-feature22,full_rf_b,,0
92,45545,118,,,,1,1,0.0,0.0,-1.0,0.0,,0.0-120.0,,0.0,1553.74,0.0,0.366917648,0.0,0.740073855,1.0,0.75,0.0,0.352861979,True,,5e0cbe8919232d467b08ac4c,,1493253,118,,evan-feature22,full_rf_b,,0
93,45546,119,,,,1,1,0.0,1.0,-1.0,0.0,,0.0-121.0,,0.0,324.99000010000003,0.0,0.3645172,1.0,0.721770713,1.0,0.75,0.0,0.404074511,True,,5e0cbe8919232d467b08ac4c,,1503353,119,,evan-feature22,full_rf_b,,0
94,45547,120,,,,1,1,1.0,1.0,-1.0,0.0,,0.0-122.0,,-1.0,472.9350004,1.0,0.35205600299999995,1.0,0.68983859,1.0,0.739735447,1.0,0.366895945,True,,5e0cbe8919232d467b08ac4c,,1513596,120,,evan-feature22,full_rf_b,,0
95,45548,121,,,,1,1,1.0,1.0,-1.0,0.0,,0.0-123.0,,-1.0,324.9399997,1.0,0.40998722600000004,1.0,0.720859127,1.0,0.673854955,0.0,0.368528541,True,,5e0cbe8919232d467b08ac4c,,1523692,121,,evan-feature22,full_rf_b,,0
96,45549,122,,,,1,1,1.0,1.0,-1.0,0.0,,0.0-124.0,,-1.0,338.6050002,1.0,0.353625316,1.0,0.75,1.0,0.695605473,0.0,0.38303674200000004,True,,5e0cbe8919232d467b08ac4c,,1533803,122,,evan-feature22,full_rf_b,,0
97,45550,123,,,,1,1,0.0,1.0,-1.0,0.0,,0.0-125.0,,0.0,515.8549998999999,0.0,0.359216989,1.0,0.75,1.0,0.6987915090000001,0.0,0.35169046200000004,True,,5e0cbe8919232d467b08ac4c,,1544088,123,,evan-feature22,full_rf_b,,0
98,45551,124,,,,1,1,1.0,1.0,-1.0,0.0,,0.0-126.0,,-1.0,559.6449999,1.0,0.35834496899999996,1.0,0.75,1.0,0.707067742,0.0,0.416763636,True,,5e0cbe8919232d467b08ac4c,,1554417,124,,evan-feature22,full_rf_b,,0
99,45552,125,,,,1,1,0.0,0.0,0.0,1.0,,0.0-127.0,,0.0,405.6000002,0.0,0.38741613799999997,0.0,0.7177369570000001,0.0,0.734902455,1.0,0.49438664299999996,True,,5e0cbe8919232d467b08ac4c,,1564588,125,,evan-feature22,full_rf_b,,0
100,45553,126,,,,1,1,0.0,0.0,-1.0,0.0,,0.0-128.0,,0.0,449.83000030000005,0.0,0.405255252,0.0,0.7300466640000001,1.0,0.7027748070000001,0.0,0.504359668,True,,5e0cbe8919232d467b08ac4c,,1574802,126,,evan-feature22,full_rf_b,,0
101,45554,127,,,,1,1,1.0,1.0,-1.0,0.0,,0.0-129.0,,-1.0,319.985,1.0,0.40697073,1.0,0.7260142190000001,1.0,0.724461982,1.0,0.522779179,True,,5e0cbe8919232d467b08ac4c,,1584899,127,,evan-feature22,full_rf_b,,0
102,45555,128,,,,1,1,0.0,0.0,-1.0,0.0,,0.0-130.0,,0.0,363.165,0.0,0.43906215299999996,0.0,0.7252802340000001,1.0,0.719079934,0.0,0.5712990579999999,True,,5e0cbe8919232d467b08ac4c,,1595027,128,,evan-feature22,full_rf_b,,0
103,45556,129,,,,1,1,0.0,1.0,0.0,1.0,,0.0-131.0,,1.0,328.305,0.0,0.4076705,1.0,0.73280499,0.0,0.681313127,0.0,0.523891346,True,,5e0cbe8919232d467b08ac4c,,1605126,129,,evan-feature22,full_rf_b,,0
104,45557,130,,,,1,1,0.0,1.0,0.0,1.0,,0.0-132.0,,1.0,901.91,0.0,0.399102911,1.0,0.730498344,1.0,0.661080239,1.0,0.46742603,True,,5e0cbe8919232d467b08ac4c,,1615801,130,,evan-feature22,full_rf_b,,0
105,45558,131,,,,1,1,0.0,1.0,0.0,1.0,,0.0-133.0,,1.0,351.3599997,0.0,0.356477282,1.0,0.712296395,1.0,0.641812684,0.0,0.44868414,True,,5e0cbe8919232d467b08ac4c,,1625921,131,,evan-feature22,full_rf_b,,0
106,45559,132,,,,1,1,0.0,1.0,-1.0,0.0,,0.0-134.0,,0.0,649.71,0.0,0.462760722,1.0,0.692349322,1.0,0.700947931,0.0,0.394680266,True,,5e0cbe8919232d467b08ac4c,,1636340,132,,evan-feature22,full_rf_b,,0
107,45560,133,,,,2,2,1.0,1.0,-1.0,0.0,,0.0-135.0,,-1.0,3234.41,1.0,0.422306413,1.0,0.718375916,1.0,0.706340917,1.0,0.367787185,True,,5e0cbe8919232d467b08ac4c,,1649344,133,,evan-feature22,full_rf_b,,1
108,45562,135,,,,1,1,0.0,0.0,-1.0,0.0,,0.0-137.0,,0.0,514.345,0.0,0.4582233,0.0,0.643834117,1.0,0.75,0.0,0.39615823299999997,True,,5e0cbe8919232d467b08ac4c,,1873628,135,,evan-feature22,full_rf_b,,1
109,45563,136,,,,2,2,0.0,0.0,-1.0,0.0,,0.0-138.0,,0.0,875.8399999,0.0,0.43813437899999996,1.0,0.651283804,0.0,0.729674191,0.0,0.37711048,True,,5e0cbe8919232d467b08ac4c,,1884266,136,,evan-feature22,full_rf_b,,1
110,45564,137,,,,2,2,1.0,1.0,-1.0,0.0,,0.0-139.0,,-1.0,409.405,1.0,0.471199094,1.0,0.6470010979999999,1.0,0.715008097,1.0,0.410656191,True,,5e0cbe8919232d467b08ac4c,,1894444,137,,evan-feature22,full_rf_b,,0
111,45565,138,,,,1,1,0.0,0.0,-1.0,0.0,,0.0-140.0,,0.0,1046.475,0.0,0.42486406,0.0,0.629771829,1.0,0.6550939960000001,0.0,0.459093873,True,,5e0cbe8919232d467b08ac4c,,1905257,138,,evan-feature22,full_rf_b,,1
112,45566,139,,,,1,1,1.0,0.0,-1.0,0.0,,0.0-141.0,,-1.0,460.88999979999994,1.0,0.4803197,0.0,0.645842715,1.0,0.6421749920000001,1.0,0.443092151,True,,5e0cbe8919232d467b08ac4c,,1915486,139,,evan-feature22,full_rf_b,,0
113,45567,140,,,,1,1,1.0,1.0,0.0,1.0,,0.0-142.0,,1.0,650.715,1.0,0.521848997,1.0,0.735801074,1.0,0.6691348460000001,0.0,0.45259351600000003,True,,5e0cbe8919232d467b08ac4c,,1925904,140,,evan-feature22,full_rf_b,,0
114,45568,141,,,,1,1,0.0,1.0,-1.0,0.0,,0.0-143.0,,0.0,755.4800002999999,0.0,0.49565621299999996,1.0,0.742400847,0.0,0.661512553,1.0,0.483110831,True,,5e0cbe8919232d467b08ac4c,,1936432,141,,evan-feature22,full_rf_b,,0
115,45569,142,,,,1,1,1.0,1.0,-1.0,0.0,,0.0-144.0,,-1.0,518.135,1.0,0.521564361,1.0,0.731078632,1.0,0.6774886809999999,1.0,0.483263956,True,,5e0cbe8919232d467b08ac4c,,1946719,142,,evan-feature22,full_rf_b,,0
116,45570,143,,,,2,2,1.0,0.0,-1.0,0.0,,0.0-145.0,,-1.0,401.0049999,1.0,0.558893102,1.0,0.719810023,1.0,0.67461031,0.0,0.499349834,True,,5e0cbe8919232d467b08ac4c,,1956891,143,,evan-feature22,full_rf_b,,1
117,45571,144,,,,2,2,0.0,0.0,-1.0,0.0,,0.0-146.0,,0.0,357.8699999,0.0,0.611031046,0.0,0.75,0.0,0.688072995,0.0,0.5321422729999999,True,,5e0cbe8919232d467b08ac4c,,1967012,144,,evan-feature22,full_rf_b,,0
118,45572,145,,,,2,2,1.0,0.0,0.0,1.0,,0.0-147.0,,0.0,417.8549997,1.0,0.633223941,1.0,0.713567728,1.0,0.75,0.0,0.48185314700000004,True,,5e0cbe8919232d467b08ac4c,,1977200,145,,evan-feature22,full_rf_b,,0
119,45573,146,,,,2,2,1.0,1.0,-1.0,0.0,,0.0-148.0,,-1.0,289.2999998,1.0,0.664001694,0.0,0.705509768,1.0,0.75,1.0,0.500211065,True,,5e0cbe8919232d467b08ac4c,,1987259,146,,evan-feature22,full_rf_b,,0
120,45574,147,,,,2,2,1.0,0.0,-1.0,0.0,,0.0-149.0,,-1.0,501.9100001,1.0,0.664001694,0.0,0.705509768,1.0,0.75,0.0,0.500211065,True,,5e0cbe8919232d467b08ac4c,,1997530,147,,evan-feature22,full_rf_b,,0
121,45575,148,,,,2,2,0.0,0.0,-1.0,0.0,,0.0-150.0,,0.0,497.12500020000004,0.0,0.696508041,1.0,0.71066027,0.0,0.717028709,0.0,0.49792991,True,,5e0cbe8919232d467b08ac4c,,2007793,148,,evan-feature22,full_rf_b,,0
122,45576,149,,,,2,2,1.0,0.0,0.0,1.0,,0.0-151.0,,0.0,589.315,1.0,0.699883272,0.0,0.75,1.0,0.713543895,0.0,0.496962643,True,,5e0cbe8919232d467b08ac4c,,2018153,149,,evan-feature22,full_rf_b,,0
123,45577,150,,,,2,2,1.0,0.0,0.0,1.0,,0.0-152.0,,0.0,523.205,1.0,0.741163419,1.0,0.75,1.0,0.64691024,0.0,0.513858197,True,,5e0cbe8919232d467b08ac4c,,2028446,150,,evan-feature22,full_rf_b,,0
124,45578,151,,,,2,2,1.0,0.0,0.0,1.0,,0.0-153.0,,0.0,481.1499999,0.0,0.75,0.0,0.70816558,1.0,0.594499079,0.0,0.48502124,True,,5e0cbe8919232d467b08ac4c,,2038695,151,,evan-feature22,full_rf_b,,0
125,45579,152,,,,2,2,1.0,0.0,-1.0,0.0,,0.0-154.0,,-1.0,303.5400002,1.0,0.75,0.0,0.721848901,1.0,0.62197249,0.0,0.48263586399999997,True,,5e0cbe8919232d467b08ac4c,,2048768,152,,evan-feature22,full_rf_b,,0
126,45580,153,,,,2,2,0.0,0.0,-1.0,0.0,,0.0-155.0,,0.0,811.4149999,1.0,0.75,0.0,0.74813071,0.0,0.584357161,0.0,0.411477782,True,,5e0cbe8919232d467b08ac4c,,2059345,153,,evan-feature22,full_rf_b,,0
127,45581,154,,,,2,2,0.0,0.0,-1.0,0.0,,0.0-156.0,,0.0,1447.705,1.0,0.75,1.0,0.75,0.0,0.52287236,0.0,0.488290656,True,,5e0cbe8919232d467b08ac4c,,2070558,154,,evan-feature22,full_rf_b,,0
128,45582,155,,,,2,2,1.0,0.0,-1.0,0.0,,0.0-157.0,,-1.0,685.885,1.0,0.75,1.0,0.75,1.0,0.544321581,0.0,0.53143059,True,,5e0cbe8919232d467b08ac4c,,2081012,155,,evan-feature22,full_rf_b,,0
129,45583,156,,,,2,2,0.0,1.0,-1.0,0.0,,0.0-158.0,,0.0,934.9699998,0.0,0.726754564,0.0,0.75,0.0,0.5129306370000001,1.0,0.530592445,True,,5e0cbe8919232d467b08ac4c,,2091720,156,,evan-feature22,full_rf_b,,0
130,45584,157,,,,2,2,0.0,0.0,0.0,1.0,,0.0-159.0,,0.0,308.59,1.0,0.75,1.0,0.7392590729999999,0.0,0.479875835,0.0,0.547007051,True,,5e0cbe8919232d467b08ac4c,,2101793,157,,evan-feature22,full_rf_b,,0
131,45585,158,,,,1,1,1.0,0.0,0.0,1.0,,0.0-160.0,,0.0,632.6700002,1.0,0.75,0.0,0.7393376979999999,1.0,0.546045419,1.0,0.541267353,True,,5e0cbe8919232d467b08ac4c,,2112198,158,,evan-feature22,full_rf_b,,1
132,45586,159,,,,2,2,0.0,0.0,-1.0,0.0,,0.0-161.0,,0.0,279.8100002,1.0,0.75,1.0,0.75,0.0,0.485725895,0.0,0.527625395,True,,5e0cbe8919232d467b08ac4c,,2122243,159,,evan-feature22,full_rf_b,,1
133,45587,160,,,,2,2,1.0,0.0,0.0,1.0,,0.0-162.0,,0.0,318.11500010000003,1.0,0.75,1.0,0.725087974,1.0,0.488603595,0.0,0.504019206,True,,5e0cbe8919232d467b08ac4c,,2132330,160,,evan-feature22,full_rf_b,,0
134,45588,161,,,,2,2,1.0,0.0,-1.0,0.0,,0.0-163.0,,-1.0,421.0000001,1.0,0.745504295,1.0,0.75,1.0,0.452379914,0.0,0.50131194,True,,5e0cbe8919232d467b08ac4c,,2142521,161,,evan-feature22,full_rf_b,,0
135,45589,162,,,,1,1,1.0,0.0,0.0,1.0,,0.0-164.0,,0.0,542.7600001000001,1.0,0.728513874,0.0,0.75,0.0,0.44125567200000004,1.0,0.531454591,True,,5e0cbe8919232d467b08ac4c,,2152835,162,,evan-feature22,full_rf_b,,1
136,45590,163,,,,1,1,1.0,1.0,-1.0,0.0,,0.0-165.0,,-1.0,487.0650005,1.0,0.73790804,1.0,0.75,0.0,0.413036656,0.0,0.524619035,True,,5e0cbe8919232d467b08ac4c,,2163091,163,,evan-feature22,full_rf_b,,0
137,45591,164,,,,1,1,1.0,1.0,-1.0,0.0,,0.0-166.0,,-1.0,498.8250001,1.0,0.7080961309999999,1.0,0.708666865,0.0,0.431915581,1.0,0.481819489,True,,5e0cbe8919232d467b08ac4c,,2173363,164,,evan-feature22,full_rf_b,,0
138,45592,165,,,,1,1,0.0,1.0,-1.0,0.0,,0.0-167.0,,0.0,520.4399996000001,0.0,0.721378003,1.0,0.71605913,1.0,0.36642387,0.0,0.5036739929999999,True,,5e0cbe8919232d467b08ac4c,,2183651,165,,evan-feature22,full_rf_b,,0
139,45593,166,,,,2,2,0.0,0.0,0.0,1.0,,0.0-168.0,,0.0,577.4899996,1.0,0.7340618959999999,1.0,0.699323252,0.0,0.35298046299999997,0.0,0.511241692,True,,5e0cbe8919232d467b08ac4c,,2194009,166,,evan-feature22,full_rf_b,,1
140,45594,167,,,,1,1,1.0,0.0,0.0,1.0,,0.0-169.0,,0.0,432.275,1.0,0.75,0.0,0.70412698,1.0,0.380734814,0.0,0.529580116,True,,5e0cbe8919232d467b08ac4c,,2204208,167,,evan-feature22,full_rf_b,,1
141,45595,168,,,,1,1,1.0,1.0,0.0,1.0,,0.0-170.0,,1.0,1113.975,1.0,0.7436654909999999,1.0,0.711182751,1.0,0.41125331,0.0,0.49554405,True,,5e0cbe8919232d467b08ac4c,,2215095,168,,evan-feature22,full_rf_b,,0
142,45596,169,,,,2,2,0.0,0.0,-1.0,0.0,,0.0-171.0,,0.0,472.58000030000005,0.0,0.731607915,0.0,0.651774583,0.0,0.35688023,0.0,0.45194491600000003,True,,5e0cbe8919232d467b08ac4c,,2225331,169,,evan-feature22,full_rf_b,,1
143,45597,170,,,,1,1,1.0,1.0,0.0,1.0,,0.0-172.0,,1.0,341.8049999,1.0,0.75,1.0,0.75,0.0,0.283145374,1.0,0.528608005,True,,5e0cbe8919232d467b08ac4c,,2235443,170,,evan-feature22,full_rf_b,,1
144,45598,171,,,,2,2,1.0,0.0,-1.0,0.0,,0.0-173.0,,-1.0,304.3750003,1.0,0.7491416890000001,0.0,0.7423785959999999,1.0,0.29135870399999997,0.0,0.498888318,True,,5e0cbe8919232d467b08ac4c,,2245515,171,,evan-feature22,full_rf_b,,1
145,45599,172,,,,1,1,1.0,1.0,0.0,1.0,,0.0-174.0,,1.0,1234.74,1.0,0.708569387,1.0,0.717682277,0.0,0.294421699,0.0,0.493838163,True,,5e0cbe8919232d467b08ac4c,,2256521,172,,evan-feature22,full_rf_b,,1
146,45600,173,,,,2,2,0.0,0.0,-1.0,0.0,,0.0-175.0,,0.0,471.60000030000003,1.0,0.75,0.0,0.7383382159999999,0.0,0.356098707,0.0,0.442533405,True,,5e0cbe8919232d467b08ac4c,,2266758,173,,evan-feature22,full_rf_b,,1
147,45601,174,,,,1,1,0.0,1.0,-1.0,0.0,,0.0-176.0,,0.0,290.945,0.0,0.744527075,1.0,0.75,0.0,0.334127506,0.0,0.393165805,True,,5e0cbe8919232d467b08ac4c,,2276816,174,,evan-feature22,full_rf_b,,1
148,45602,175,,,,2,2,1.0,0.0,-1.0,0.0,,0.0-177.0,,-1.0,372.645,0.0,0.75,1.0,0.75,1.0,0.33571021799999995,0.0,0.350393962,True,,5e0cbe8919232d467b08ac4c,,2286959,175,,evan-feature22,full_rf_b,,1
149,45603,176,,,,2,2,0.0,0.0,0.0,1.0,,0.0-178.0,,0.0,331.185,1.0,0.75,1.0,0.75,0.0,0.313628297,0.0,0.36349657399999996,True,,5e0cbe8919232d467b08ac4c,,2297058,176,,evan-feature22,full_rf_b,,0
150,45604,177,,,,2,2,0.0,0.0,-1.0,0.0,,0.0-179.0,,0.0,405.3149996,0.0,0.75,1.0,0.734284182,0.0,0.262667667,0.0,0.380199119,True,,5e0cbe8919232d467b08ac4c,,2307228,177,,evan-feature22,full_rf_b,,0
151,45605,178,,,,2,2,1.0,0.0,-1.0,0.0,,0.0-180.0,,-1.0,763.76,1.0,0.75,1.0,0.75,1.0,0.25,0.0,0.394494013,True,,5e0cbe8919232d467b08ac4c,,2317764,178,,evan-feature22,full_rf_b,,0
152,45606,179,,,,2,2,0.0,0.0,-1.0,0.0,,0.0-181.0,,0.0,514.9500002,1.0,0.722298145,0.0,0.7357822340000001,0.0,0.25,0.0,0.319142121,True,,5e0cbe8919232d467b08ac4c,,2328044,179,,evan-feature22,full_rf_b,,0
153,45607,180,,,,1,1,0.0,1.0,-1.0,0.0,,0.0-182.0,,0.0,867.8900002999999,0.0,0.73149275,1.0,0.724276446,1.0,0.305856907,0.0,0.281315057,True,,5e0cbe8919232d467b08ac4c,,2338680,180,,evan-feature22,full_rf_b,,1
154,45608,181,,,,1,1,1.0,0.0,-1.0,0.0,,0.0-183.0,,-1.0,560.3400002999999,1.0,0.7458732690000001,0.0,0.7336382459999999,0.0,0.272571964,0.0,0.266021999,True,,5e0cbe8919232d467b08ac4c,,2349008,181,,evan-feature22,full_rf_b,,0
155,45609,182,,,,2,2,0.0,0.0,0.0,1.0,,0.0-184.0,,0.0,503.3100001,0.0,0.705579037,0.0,0.720778292,0.0,0.320238144,0.0,0.30971744,True,,5e0cbe8919232d467b08ac4c,,2359276,182,,evan-feature22,full_rf_b,,1
156,45610,183,,,,2,2,0.0,1.0,0.0,1.0,,0.0-185.0,,1.0,338.7449998,1.0,0.700425648,1.0,0.7198784009999999,0.0,0.272590393,1.0,0.304182931,True,,5e0cbe8919232d467b08ac4c,,2369387,183,,evan-feature22,full_rf_b,,0
157,45611,184,,,,2,2,1.0,0.0,0.0,1.0,,0.0-186.0,,0.0,483.885,0.0,0.735590785,1.0,0.722714973,1.0,0.25,0.0,0.323421091,True,,5e0cbe8919232d467b08ac4c,,2379642,184,,evan-feature22,full_rf_b,,0
158,45612,185,,,,2,2,1.0,0.0,0.0,1.0,,0.0-187.0,,0.0,515.96,1.0,0.724807662,1.0,0.63146213,1.0,0.36836492600000004,0.0,0.34592153299999995,True,,5e0cbe8919232d467b08ac4c,,2389925,185,,evan-feature22,full_rf_b,,0
159,45613,186,,,,2,2,0.0,0.0,-1.0,0.0,,0.0-188.0,,0.0,551.2000001,0.0,0.7352796909999999,0.0,0.555111392,0.0,0.36003922,0.0,0.31433779999999995,True,,5e0cbe8919232d467b08ac4c,,2400240,186,,evan-feature22,full_rf_b,,0
160,45614,187,notice,,,,,,,,,,0.0-189.0,"{""Q0"":""no""}",,11960.0,,,,,,,,,True,,5e0cbe8919232d467b08ac4c,,2412203,187,Q,survey-text,full_rf_b,,1
161,45615,188,track1,,[1],,,,,,,,0.0-190.0,"{""Q0"":""no""}",,4451.0,,,,,,,,,True,,5e0cbe8919232d467b08ac4c,,2416660,188,Q,evan-quiz,full_rf_b,,1
162,45616,189,track2,,[0],,,,,,,,0.0-191.0,"{""Q0"":""yes""}",,7492.0,,,,,,,,,True,,5e0cbe8919232d467b08ac4c,,2424156,189,Q,evan-quiz,full_rf_b,,1
163,45617,190,strat,,,,,,,,,,0.0-192.0,"{""Q0"":""just random""}",,9763.0,,,,,,,,,True,,5e0cbe8919232d467b08ac4c,,2433923,190,Q,survey-text,full_rf_b,,1
