,index,Unnamed: 0,Q_name,button_pressed,choice_idxs,chosen_pos,chosen_state,chosen_state_f_1_outcome,chosen_state_f_2_outcome,f_1_reward,f_2_reward,incor_questions,internal_node_id,responses,reward_received,rt,s_1_f_1_outcome,s_1_f_1_prob,s_1_f_2_outcome,s_1_f_2_prob,s_2_f_1_outcome,s_2_f_1_prob,s_2_f_2_outcome,s_2_f_2_prob,safe_first,stimulus,subjectID,success,time_elapsed,trial_index,trial_num,trial_type,version,view_history,switching
0,26165,25,,,,1,1,0.0,1.0,-1.0,0.0,,0.0-27.0,,0.0,1816.73,0.0,0.6,1.0,0.6,0.0,0.4,0.0,0.4,False,,5f2c16aabf114905864692f9,,390269,25,,evan-feature22,full_pf_b,,0
1,26166,26,,,,2,2,0.0,0.0,-1.0,0.0,,0.0-28.0,,0.0,1374.925,1.0,0.608053294,1.0,0.63424552,0.0,0.397152172,0.0,0.347069101,False,,5f2c16aabf114905864692f9,,401410,26,,evan-feature22,full_pf_b,,1
2,26167,27,,,,2,2,0.0,1.0,-1.0,0.0,,0.0-29.0,,0.0,454.68,0.0,0.642237155,0.0,0.648566321,0.0,0.389407674,1.0,0.285525717,False,,5f2c16aabf114905864692f9,,411626,27,,evan-feature22,full_pf_b,,0
3,26168,28,,,,2,2,0.0,1.0,-1.0,0.0,,0.0-30.0,,0.0,954.37,1.0,0.661086576,0.0,0.630492543,0.0,0.399058924,1.0,0.25,False,,5f2c16aabf114905864692f9,,422344,28,,evan-feature22,full_pf_b,,0
4,26169,29,,,,1,1,0.0,1.0,0.0,1.0,,0.0-31.0,,1.0,1372.28,0.0,0.631324137,1.0,0.6269842929999999,0.0,0.38734784299999997,1.0,0.25,False,,5f2c16aabf114905864692f9,,433482,29,,evan-feature22,full_pf_b,,1
5,26170,30,,,,1,1,0.0,1.0,0.0,1.0,,0.0-32.0,,1.0,3782.325,0.0,0.6381991370000001,1.0,0.68987999,0.0,0.384107265,0.0,0.271332943,False,,5f2c16aabf114905864692f9,,447030,30,,evan-feature22,full_pf_b,,0
6,26171,31,,,,1,1,0.0,1.0,-1.0,0.0,,0.0-33.0,,0.0,2755.045,0.0,0.66034901,1.0,0.742641349,1.0,0.360225629,0.0,0.25,False,,5f2c16aabf114905864692f9,,459547,31,,evan-feature22,full_pf_b,,0
7,26172,32,,,,1,1,1.0,0.0,-1.0,0.0,,0.0-34.0,,-1.0,2362.51,1.0,0.638612418,0.0,0.75,1.0,0.367273939,0.0,0.25,False,,5f2c16aabf114905864692f9,,471672,32,,evan-feature22,full_pf_b,,0
8,26173,33,,,,1,1,0.0,1.0,0.0,1.0,,0.0-35.0,,1.0,2901.635,0.0,0.624340629,1.0,0.75,0.0,0.425829545,0.0,0.25,False,,5f2c16aabf114905864692f9,,484339,33,,evan-feature22,full_pf_b,,0
9,26174,34,,,,1,1,1.0,1.0,0.0,1.0,,0.0-36.0,,1.0,1919.835,1.0,0.621999804,1.0,0.75,0.0,0.368609357,0.0,0.25,False,,5f2c16aabf114905864692f9,,496024,34,,evan-feature22,full_pf_b,,0
10,26175,35,,,,SLOW,SLOW,,,-1.0,0.0,,0.0-37.0,,-3.0,,1.0,0.62666403,1.0,0.75,1.0,0.311151498,0.0,0.25,False,,5f2c16aabf114905864692f9,,501832,35,,evan-feature22,full_pf_b,,1
11,26176,36,,,,1,1,0.0,1.0,0.0,1.0,,0.0-38.0,,1.0,1399.93,0.0,0.6819650009999999,1.0,0.75,0.0,0.310763048,0.0,0.25,False,,5f2c16aabf114905864692f9,,512995,36,,evan-feature22,full_pf_b,,1
12,26177,37,,,,2,2,0.0,1.0,-1.0,0.0,,0.0-39.0,,0.0,1110.19,1.0,0.740626951,1.0,0.75,0.0,0.25,1.0,0.25,False,,5f2c16aabf114905864692f9,,523870,37,,evan-feature22,full_pf_b,,1
13,26178,38,,,,2,2,1.0,0.0,-1.0,0.0,,0.0-40.0,,-1.0,1360.68,0.0,0.739599242,1.0,0.742034978,1.0,0.25397114600000004,0.0,0.25,False,,5f2c16aabf114905864692f9,,534996,38,,evan-feature22,full_pf_b,,0
14,26179,39,,,,1,1,1.0,1.0,-1.0,0.0,,0.0-41.0,,-1.0,1047.21,1.0,0.732341315,1.0,0.72735643,0.0,0.25,0.0,0.25,False,,5f2c16aabf114905864692f9,,545808,39,,evan-feature22,full_pf_b,,1
15,26180,40,,,,1,1,0.0,0.0,-1.0,0.0,,0.0-42.0,,0.0,1049.685,0.0,0.7062287770000001,0.0,0.75,0.0,0.29002151,1.0,0.288256649,False,,5f2c16aabf114905864692f9,,556621,40,,evan-feature22,full_pf_b,,0
16,26181,41,,,,2,2,1.0,0.0,-1.0,0.0,,0.0-43.0,,-1.0,1261.27,0.0,0.7086029209999999,0.0,0.75,1.0,0.274129113,0.0,0.262851608,False,,5f2c16aabf114905864692f9,,567640,41,,evan-feature22,full_pf_b,,1
17,26182,42,,,,2,2,0.0,1.0,-1.0,0.0,,0.0-44.0,,0.0,1721.235,1.0,0.669189651,1.0,0.727614338,0.0,0.298444036,1.0,0.296944518,False,,5f2c16aabf114905864692f9,,579123,42,,evan-feature22,full_pf_b,,0
18,26183,43,,,,1,1,1.0,1.0,-1.0,0.0,,0.0-45.0,,-1.0,1523.33,1.0,0.6819912929999999,1.0,0.7179434290000001,0.0,0.265003961,1.0,0.28157921199999997,False,,5f2c16aabf114905864692f9,,590410,43,,evan-feature22,full_pf_b,,1
19,26184,44,,,,1,1,1.0,0.0,0.0,1.0,,0.0-46.0,,0.0,1251.63,1.0,0.665275002,0.0,0.723065271,1.0,0.260414971,0.0,0.30973870000000003,False,,5f2c16aabf114905864692f9,,601424,44,,evan-feature22,full_pf_b,,0
20,26185,45,,,,1,1,1.0,1.0,-1.0,0.0,,0.0-47.0,,-1.0,1581.505,1.0,0.6660593260000001,1.0,0.728032907,1.0,0.30922817,0.0,0.338778608,False,,5f2c16aabf114905864692f9,,612771,45,,evan-feature22,full_pf_b,,0
21,26186,46,,,,1,1,1.0,0.0,-1.0,0.0,,0.0-48.0,,-1.0,1323.9,1.0,0.702068785,0.0,0.6528750879999999,1.0,0.287329608,0.0,0.35789613200000003,False,,5f2c16aabf114905864692f9,,623857,46,,evan-feature22,full_pf_b,,0
22,26187,47,,,,2,2,1.0,0.0,-1.0,0.0,,0.0-49.0,,-1.0,925.56,0.0,0.651939787,1.0,0.636725589,1.0,0.284834488,0.0,0.358563756,False,,5f2c16aabf114905864692f9,,634545,47,,evan-feature22,full_pf_b,,1
23,26188,48,,,,1,1,0.0,1.0,0.0,1.0,,0.0-50.0,,1.0,666.04,0.0,0.67573929,1.0,0.612550049,1.0,0.37130387600000003,0.0,0.383542402,False,,5f2c16aabf114905864692f9,,644982,48,,evan-feature22,full_pf_b,,1
24,26189,49,,,,1,1,0.0,1.0,0.0,1.0,,0.0-51.0,,1.0,506.81,0.0,0.620753801,1.0,0.60513644,0.0,0.385529434,1.0,0.340361743,False,,5f2c16aabf114905864692f9,,655252,49,,evan-feature22,full_pf_b,,0
25,26190,50,,,,1,1,1.0,1.0,0.0,1.0,,0.0-52.0,,1.0,678.655,1.0,0.673564893,1.0,0.672437924,0.0,0.292955382,0.0,0.337633795,False,,5f2c16aabf114905864692f9,,665690,50,,evan-feature22,full_pf_b,,0
26,26191,51,,,,1,1,0.0,0.0,-1.0,0.0,,0.0-53.0,,0.0,1593.605,0.0,0.6749427,0.0,0.724197502,1.0,0.32391132100000003,0.0,0.350995264,False,,5f2c16aabf114905864692f9,,677046,51,,evan-feature22,full_pf_b,,0
27,26192,52,,,,2,2,1.0,1.0,-1.0,0.0,,0.0-54.0,,-1.0,1858.79,0.0,0.6940159379999999,1.0,0.75,1.0,0.31710554399999996,1.0,0.413450341,False,,5f2c16aabf114905864692f9,,688672,52,,evan-feature22,full_pf_b,,1
28,26193,53,,,,1,1,0.0,0.0,-1.0,0.0,,0.0-55.0,,0.0,1317.65,0.0,0.6916018270000001,0.0,0.69001187,0.0,0.261817804,0.0,0.40038635,False,,5f2c16aabf114905864692f9,,699749,53,,evan-feature22,full_pf_b,,1
29,26194,54,,,,1,1,1.0,0.0,-1.0,0.0,,0.0-56.0,,-1.0,886.155,1.0,0.641061544,0.0,0.71337992,0.0,0.277296461,0.0,0.47372791700000005,False,,5f2c16aabf114905864692f9,,710398,54,,evan-feature22,full_pf_b,,0
30,26195,55,,,,1,1,1.0,1.0,-1.0,0.0,,0.0-57.0,,-1.0,1050.155,1.0,0.6082438520000001,1.0,0.708471106,1.0,0.28745137,0.0,0.564174476,False,,5f2c16aabf114905864692f9,,721214,55,,evan-feature22,full_pf_b,,0
31,26196,56,,,,1,1,0.0,1.0,-1.0,0.0,,0.0-58.0,,0.0,2403.885,0.0,0.6051112120000001,1.0,0.7118147229999999,1.0,0.272390611,0.0,0.5595149939999999,False,,5f2c16aabf114905864692f9,,733384,56,,evan-feature22,full_pf_b,,0
32,26197,57,,,,2,2,0.0,0.0,-1.0,0.0,,0.0-59.0,,0.0,2413.965,1.0,0.582420852,1.0,0.635867583,0.0,0.31089574,0.0,0.5227206520000001,False,,5f2c16aabf114905864692f9,,745558,57,,evan-feature22,full_pf_b,,1
33,26198,58,,,,1,1,0.0,1.0,0.0,1.0,,0.0-60.0,,1.0,1167.065,0.0,0.623195575,1.0,0.655026044,0.0,0.25,0.0,0.560387538,False,,5f2c16aabf114905864692f9,,756487,58,,evan-feature22,full_pf_b,,1
34,26199,59,,,,1,1,1.0,0.0,-1.0,0.0,,0.0-61.0,,-1.0,2103.46,1.0,0.601889598,0.0,0.678198724,0.0,0.25,0.0,0.559922936,False,,5f2c16aabf114905864692f9,,768352,59,,evan-feature22,full_pf_b,,0
35,26200,60,,,,2,2,1.0,1.0,-1.0,0.0,,0.0-62.0,,-1.0,1361.52,1.0,0.601259914,0.0,0.704681482,1.0,0.33908969299999997,1.0,0.505003715,False,,5f2c16aabf114905864692f9,,779476,60,,evan-feature22,full_pf_b,,1
36,26201,61,,,,1,1,0.0,0.0,-1.0,0.0,,0.0-63.0,,0.0,540.775,0.0,0.59645454,0.0,0.710437172,1.0,0.327441879,1.0,0.391749613,False,,5f2c16aabf114905864692f9,,789779,61,,evan-feature22,full_pf_b,,1
37,26202,62,,,,1,1,0.0,0.0,-1.0,0.0,,0.0-64.0,,0.0,793.09,0.0,0.529473,0.0,0.636758527,0.0,0.301338063,0.0,0.365661481,False,,5f2c16aabf114905864692f9,,800334,62,,evan-feature22,full_pf_b,,0
38,26203,63,,,,1,1,1.0,1.0,0.0,1.0,,0.0-65.0,,1.0,354.895,1.0,0.541657162,1.0,0.634541962,0.0,0.343535366,0.0,0.371763742,False,,5f2c16aabf114905864692f9,,810455,63,,evan-feature22,full_pf_b,,0
39,26204,64,,,,1,1,0.0,1.0,-1.0,0.0,,0.0-66.0,,0.0,546.43,0.0,0.5707533260000001,1.0,0.589121171,1.0,0.326428396,0.0,0.43961622899999997,False,,5f2c16aabf114905864692f9,,820764,64,,evan-feature22,full_pf_b,,0
40,26205,65,,,,1,1,1.0,1.0,-1.0,0.0,,0.0-67.0,,-1.0,765.92,1.0,0.5707533260000001,1.0,0.589121171,0.0,0.326428396,1.0,0.43961622899999997,False,,5f2c16aabf114905864692f9,,831298,65,,evan-feature22,full_pf_b,,0
41,26206,66,,,,2,2,0.0,1.0,-1.0,0.0,,0.0-68.0,,0.0,624.485,0.0,0.506271295,1.0,0.641775594,0.0,0.37149690700000004,1.0,0.404330166,False,,5f2c16aabf114905864692f9,,841690,66,,evan-feature22,full_pf_b,,1
42,26207,67,,,,1,1,1.0,0.0,0.0,1.0,,0.0-69.0,,0.0,504.965,1.0,0.455642565,0.0,0.623605825,1.0,0.358753011,1.0,0.346174041,False,,5f2c16aabf114905864692f9,,851962,67,,evan-feature22,full_pf_b,,1
43,26208,68,,,,1,1,0.0,1.0,0.0,1.0,,0.0-70.0,,1.0,794.34,0.0,0.483677308,1.0,0.5904681070000001,1.0,0.402218411,0.0,0.35344697,False,,5f2c16aabf114905864692f9,,862521,68,,evan-feature22,full_pf_b,,0
44,26209,69,,,,1,1,0.0,0.0,0.0,1.0,,0.0-71.0,,0.0,524.05,0.0,0.394210977,0.0,0.558925494,1.0,0.540052017,0.0,0.35182128700000004,False,,5f2c16aabf114905864692f9,,872805,69,,evan-feature22,full_pf_b,,0
45,26210,70,,,,2,2,0.0,0.0,-1.0,0.0,,0.0-72.0,,0.0,728.945,1.0,0.382300414,1.0,0.577670603,0.0,0.607608448,0.0,0.378261578,False,,5f2c16aabf114905864692f9,,883293,70,,evan-feature22,full_pf_b,,1
46,26211,71,,,,1,1,0.0,0.0,-1.0,0.0,,0.0-73.0,,0.0,497.86,0.0,0.357596762,0.0,0.5929076529999999,0.0,0.6579790010000001,1.0,0.401326777,False,,5f2c16aabf114905864692f9,,893554,71,,evan-feature22,full_pf_b,,1
47,26212,72,,,,2,2,1.0,1.0,-1.0,0.0,,0.0-74.0,,-1.0,1876.22,0.0,0.362033495,1.0,0.582308608,1.0,0.649195052,1.0,0.355158505,False,,5f2c16aabf114905864692f9,,905194,72,,evan-feature22,full_pf_b,,1
48,26213,73,,,,1,1,1.0,1.0,-1.0,0.0,,0.0-75.0,,-1.0,660.345,1.0,0.369620635,1.0,0.669100864,1.0,0.706059111,1.0,0.362516241,False,,5f2c16aabf114905864692f9,,915622,73,,evan-feature22,full_pf_b,,1
49,26214,74,,,,1,1,0.0,1.0,-1.0,0.0,,0.0-76.0,,0.0,887.565,0.0,0.41477751399999996,1.0,0.7284416779999999,0.0,0.7182656940000001,1.0,0.36228040899999997,False,,5f2c16aabf114905864692f9,,926272,74,,evan-feature22,full_pf_b,,0
50,26215,75,,,,1,1,1.0,0.0,0.0,1.0,,0.0-77.0,,0.0,730.575,1.0,0.37675460299999997,0.0,0.703250285,0.0,0.75,0.0,0.461979164,False,,5f2c16aabf114905864692f9,,936766,75,,evan-feature22,full_pf_b,,0
51,26216,76,,,,1,1,1.0,0.0,0.0,1.0,,0.0-78.0,,0.0,483.915,1.0,0.398716075,0.0,0.6723864890000001,1.0,0.674153818,1.0,0.519029516,False,,5f2c16aabf114905864692f9,,947016,76,,evan-feature22,full_pf_b,,0
52,26217,77,,,,1,1,1.0,1.0,-1.0,0.0,,0.0-79.0,,-1.0,2066.37,1.0,0.34677856700000004,1.0,0.69057175,1.0,0.6822438540000001,0.0,0.477292237,False,,5f2c16aabf114905864692f9,,958850,77,,evan-feature22,full_pf_b,,0
53,26218,78,,,,1,1,1.0,1.0,0.0,1.0,,0.0-80.0,,1.0,1362.18,1.0,0.28580469199999997,1.0,0.68408818,1.0,0.684207565,1.0,0.49780448299999996,False,,5f2c16aabf114905864692f9,,969979,78,,evan-feature22,full_pf_b,,0
54,26220,80,,,,1,1,1.0,1.0,-1.0,0.0,,0.0-82.0,,-1.0,1056.375,1.0,0.25,1.0,0.7405808970000001,1.0,0.679614108,1.0,0.436436964,False,,5f2c16aabf114905864692f9,,984218,80,,evan-feature22,full_pf_b,,0
55,26221,81,,,,1,1,0.0,0.0,0.0,1.0,,0.0-83.0,,0.0,1267.73,0.0,0.29890393,0.0,0.730505706,0.0,0.7328203320000001,1.0,0.439256938,False,,5f2c16aabf114905864692f9,,995249,81,,evan-feature22,full_pf_b,,0
56,26222,82,,,,1,1,0.0,1.0,-1.0,0.0,,0.0-84.0,,0.0,1991.705,0.0,0.326762398,1.0,0.7148059609999999,0.0,0.75,1.0,0.44389608799999997,False,,5f2c16aabf114905864692f9,,1007002,82,,evan-feature22,full_pf_b,,0
57,26223,83,,,,1,1,0.0,0.0,-1.0,0.0,,0.0-85.0,,0.0,270.635,0.0,0.295168515,0.0,0.739760854,1.0,0.719947008,0.0,0.35277284600000003,False,,5f2c16aabf114905864692f9,,1017038,83,,evan-feature22,full_pf_b,,0
58,26224,84,,,,1,1,1.0,1.0,-1.0,0.0,,0.0-86.0,,-1.0,906.265,1.0,0.25,1.0,0.70781482,1.0,0.75,0.0,0.286095925,False,,5f2c16aabf114905864692f9,,1027712,84,,evan-feature22,full_pf_b,,0
59,26225,85,,,,1,1,0.0,0.0,0.0,1.0,,0.0-87.0,,0.0,1671.07,0.0,0.25638190899999996,0.0,0.704088163,1.0,0.75,0.0,0.26872601399999996,False,,5f2c16aabf114905864692f9,,1039146,85,,evan-feature22,full_pf_b,,0
60,26226,86,,,,1,1,1.0,0.0,0.0,1.0,,0.0-88.0,,0.0,537.535,1.0,0.271581126,0.0,0.669760107,0.0,0.733896663,0.0,0.273244572,False,,5f2c16aabf114905864692f9,,1049447,86,,evan-feature22,full_pf_b,,0
61,26227,87,,,,1,1,0.0,0.0,0.0,1.0,,0.0-89.0,,0.0,1211.305,0.0,0.257144401,0.0,0.600575706,1.0,0.74488122,0.0,0.25,False,,5f2c16aabf114905864692f9,,1060423,87,,evan-feature22,full_pf_b,,0
62,26228,88,,,,2,2,1.0,0.0,-1.0,0.0,,0.0-90.0,,-1.0,1742.7,1.0,0.25,1.0,0.616870026,1.0,0.723610234,0.0,0.25,False,,5f2c16aabf114905864692f9,,1071929,88,,evan-feature22,full_pf_b,,1
63,26229,89,,,,1,1,0.0,1.0,0.0,1.0,,0.0-91.0,,1.0,1012.45,0.0,0.25,1.0,0.583540187,1.0,0.7041042559999999,0.0,0.285961995,False,,5f2c16aabf114905864692f9,,1082702,89,,evan-feature22,full_pf_b,,1
64,26230,90,,,,2,2,1.0,0.0,-1.0,0.0,,0.0-92.0,,-1.0,1393.905,0.0,0.27254536,0.0,0.53875765,1.0,0.693783448,0.0,0.284961652,False,,5f2c16aabf114905864692f9,,1093857,90,,evan-feature22,full_pf_b,,1
65,26231,91,,,,1,1,0.0,0.0,0.0,1.0,,0.0-93.0,,0.0,606.005,0.0,0.25,0.0,0.548431252,1.0,0.734221895,1.0,0.279445214,False,,5f2c16aabf114905864692f9,,1104223,91,,evan-feature22,full_pf_b,,1
66,26232,92,,,,1,1,1.0,1.0,-1.0,0.0,,0.0-94.0,,-1.0,223.97,1.0,0.258640684,1.0,0.545878066,1.0,0.725245965,1.0,0.31487537,False,,5f2c16aabf114905864692f9,,1114211,92,,evan-feature22,full_pf_b,,0
67,26233,93,,,,1,1,0.0,1.0,-1.0,0.0,,0.0-95.0,,0.0,693.395,0.0,0.251103711,1.0,0.5776290629999999,1.0,0.696320133,0.0,0.317831047,False,,5f2c16aabf114905864692f9,,1124669,93,,evan-feature22,full_pf_b,,0
68,26234,94,,,,1,1,0.0,1.0,-1.0,0.0,,0.0-96.0,,0.0,793.73,0.0,0.276630292,1.0,0.617329858,1.0,0.73838088,1.0,0.261471582,False,,5f2c16aabf114905864692f9,,1135225,94,,evan-feature22,full_pf_b,,0
69,26235,95,,,,1,1,0.0,1.0,0.0,1.0,,0.0-97.0,,1.0,406.345,0.0,0.297716424,1.0,0.618863717,0.0,0.7402358259999999,0.0,0.262600834,False,,5f2c16aabf114905864692f9,,1145391,95,,evan-feature22,full_pf_b,,0
70,26236,96,,,,1,1,0.0,1.0,-1.0,0.0,,0.0-98.0,,0.0,412.165,0.0,0.290935512,1.0,0.695370945,0.0,0.706570507,0.0,0.280030553,False,,5f2c16aabf114905864692f9,,1155567,96,,evan-feature22,full_pf_b,,0
71,26237,97,,,,1,1,1.0,1.0,-1.0,0.0,,0.0-99.0,,-1.0,353.605,1.0,0.25,1.0,0.6465277079999999,1.0,0.67766682,0.0,0.25,False,,5f2c16aabf114905864692f9,,1165689,97,,evan-feature22,full_pf_b,,0
72,26238,98,,,,1,1,0.0,0.0,-1.0,0.0,,0.0-100.0,,0.0,260.825,0.0,0.26463816,0.0,0.636100213,0.0,0.646048507,0.0,0.265607101,False,,5f2c16aabf114905864692f9,,1175714,98,,evan-feature22,full_pf_b,,0
73,26239,99,,,,1,1,1.0,1.0,-1.0,0.0,,0.0-101.0,,-1.0,267.425,1.0,0.314340707,1.0,0.667795927,1.0,0.613630805,0.0,0.25,False,,5f2c16aabf114905864692f9,,1185749,99,,evan-feature22,full_pf_b,,0
74,26240,100,,,,1,1,1.0,1.0,-1.0,0.0,,0.0-102.0,,-1.0,2174.065,1.0,0.28685784,1.0,0.6622549529999999,1.0,0.652154117,0.0,0.25,False,,5f2c16aabf114905864692f9,,1197688,100,,evan-feature22,full_pf_b,,0
75,26241,101,,,,1,1,1.0,0.0,0.0,1.0,,0.0-103.0,,0.0,1205.775,1.0,0.304106554,0.0,0.631289538,1.0,0.707041942,1.0,0.29314237,False,,5f2c16aabf114905864692f9,,1208659,101,,evan-feature22,full_pf_b,,0
76,26242,102,,,,2,2,1.0,0.0,0.0,1.0,,0.0-104.0,,0.0,1593.03,1.0,0.304806932,1.0,0.571167718,1.0,0.680472346,0.0,0.25,False,,5f2c16aabf114905864692f9,,1220015,102,,evan-feature22,full_pf_b,,1
77,26243,103,,,,1,1,0.0,0.0,0.0,1.0,,0.0-105.0,,0.0,917.75,0.0,0.37919861,0.0,0.5724849710000001,0.0,0.705638003,0.0,0.30179300600000003,False,,5f2c16aabf114905864692f9,,1230695,103,,evan-feature22,full_pf_b,,1
78,26244,104,,,,1,1,0.0,0.0,0.0,1.0,,0.0-106.0,,0.0,1902.8,0.0,0.464277969,0.0,0.554034373,1.0,0.7372627340000001,0.0,0.264699741,False,,5f2c16aabf114905864692f9,,1242358,104,,evan-feature22,full_pf_b,,0
79,26245,105,,,,1,1,1.0,1.0,-1.0,0.0,,0.0-107.0,,-1.0,1122.295,1.0,0.465104323,1.0,0.530793115,1.0,0.75,0.0,0.31683071,False,,5f2c16aabf114905864692f9,,1253250,105,,evan-feature22,full_pf_b,,0
80,26246,106,,,,1,1,1.0,1.0,0.0,1.0,,0.0-108.0,,1.0,920.74,1.0,0.465104323,1.0,0.530793115,1.0,0.75,0.0,0.31683071,False,,5f2c16aabf114905864692f9,,1263936,106,,evan-feature22,full_pf_b,,0
81,26247,107,,,,1,1,0.0,1.0,0.0,1.0,,0.0-109.0,,1.0,1067.05,0.0,0.46833986,1.0,0.570249239,0.0,0.7244472590000001,0.0,0.364114163,False,,5f2c16aabf114905864692f9,,1274766,107,,evan-feature22,full_pf_b,,0
82,26248,108,,,,1,1,0.0,0.0,0.0,1.0,,0.0-110.0,,0.0,284.995,0.0,0.445444024,0.0,0.649673355,1.0,0.6845441290000001,1.0,0.300660449,False,,5f2c16aabf114905864692f9,,1284811,108,,evan-feature22,full_pf_b,,0
83,26249,109,,,,1,1,0.0,1.0,0.0,1.0,,0.0-111.0,,1.0,3936.895,0.0,0.39909721299999995,1.0,0.6715179509999999,1.0,0.742310028,0.0,0.35496088299999995,False,,5f2c16aabf114905864692f9,,1298511,109,,evan-feature22,full_pf_b,,0
84,26250,110,,,,1,1,0.0,1.0,0.0,1.0,,0.0-112.0,,1.0,871.13,0.0,0.37956104799999996,1.0,0.694725302,1.0,0.7181651309999999,0.0,0.38726906299999997,False,,5f2c16aabf114905864692f9,,1309147,110,,evan-feature22,full_pf_b,,0
85,26251,111,,,,1,1,0.0,1.0,0.0,1.0,,0.0-113.0,,1.0,1078.12,0.0,0.404995034,1.0,0.724375412,1.0,0.6910946859999999,0.0,0.387187347,False,,5f2c16aabf114905864692f9,,1319986,111,,evan-feature22,full_pf_b,,0
86,26252,112,,,,1,1,1.0,0.0,0.0,1.0,,0.0-114.0,,0.0,1498.205,1.0,0.461740803,0.0,0.75,1.0,0.75,1.0,0.34872038200000005,False,,5f2c16aabf114905864692f9,,1331246,112,,evan-feature22,full_pf_b,,0
87,26253,113,,,,1,1,0.0,1.0,-1.0,0.0,,0.0-115.0,,0.0,1119.97,0.0,0.43821380600000004,1.0,0.738833273,0.0,0.728286963,0.0,0.399538128,False,,5f2c16aabf114905864692f9,,1342127,113,,evan-feature22,full_pf_b,,0
88,26254,114,,,,1,1,1.0,0.0,0.0,1.0,,0.0-116.0,,0.0,373.255,1.0,0.41709882,0.0,0.736666736,1.0,0.75,0.0,0.389095584,False,,5f2c16aabf114905864692f9,,1352266,114,,evan-feature22,full_pf_b,,0
89,26255,115,,,,1,1,0.0,1.0,0.0,1.0,,0.0-117.0,,1.0,376.165,0.0,0.39749009799999996,1.0,0.744320029,1.0,0.75,0.0,0.363848678,False,,5f2c16aabf114905864692f9,,1362403,115,,evan-feature22,full_pf_b,,0
90,26256,116,,,,1,1,1.0,1.0,-1.0,0.0,,0.0-118.0,,-1.0,1240.72,1.0,0.392653706,1.0,0.75,1.0,0.75,0.0,0.384386976,False,,5f2c16aabf114905864692f9,,1373405,116,,evan-feature22,full_pf_b,,0
91,26257,117,,,,1,1,1.0,1.0,-1.0,0.0,,0.0-119.0,,-1.0,2134.03,1.0,0.31190902600000003,1.0,0.75,1.0,0.732413819,0.0,0.413082932,False,,5f2c16aabf114905864692f9,,1385305,117,,evan-feature22,full_pf_b,,0
92,26258,118,,,,1,1,1.0,1.0,0.0,1.0,,0.0-120.0,,1.0,1399.81,1.0,0.366917648,1.0,0.740073855,0.0,0.75,0.0,0.352861979,False,,5f2c16aabf114905864692f9,,1396472,118,,evan-feature22,full_pf_b,,0
93,26259,119,,,,1,1,0.0,1.0,0.0,1.0,,0.0-121.0,,1.0,2170.625,0.0,0.3645172,1.0,0.721770713,1.0,0.75,1.0,0.404074511,False,,5f2c16aabf114905864692f9,,1408406,119,,evan-feature22,full_pf_b,,0
94,26260,120,,,,1,1,1.0,1.0,0.0,1.0,,0.0-122.0,,1.0,597.685,1.0,0.35205600299999995,1.0,0.68983859,1.0,0.739735447,0.0,0.366895945,False,,5f2c16aabf114905864692f9,,1418766,120,,evan-feature22,full_pf_b,,0
95,26261,121,,,,1,1,0.0,1.0,0.0,1.0,,0.0-123.0,,1.0,1233.19,0.0,0.40998722600000004,1.0,0.720859127,1.0,0.673854955,0.0,0.368528541,False,,5f2c16aabf114905864692f9,,1429761,121,,evan-feature22,full_pf_b,,0
96,26262,122,,,,1,1,0.0,1.0,-1.0,0.0,,0.0-124.0,,0.0,587.625,0.0,0.353625316,1.0,0.75,1.0,0.695605473,0.0,0.38303674200000004,False,,5f2c16aabf114905864692f9,,1440109,122,,evan-feature22,full_pf_b,,0
97,26263,123,,,,1,1,1.0,0.0,0.0,1.0,,0.0-125.0,,0.0,547.16,1.0,0.359216989,0.0,0.75,1.0,0.6987915090000001,0.0,0.35169046200000004,False,,5f2c16aabf114905864692f9,,1450419,123,,evan-feature22,full_pf_b,,0
98,26264,124,,,,1,1,1.0,1.0,-1.0,0.0,,0.0-126.0,,-1.0,1021.64,1.0,0.35834496899999996,1.0,0.75,0.0,0.707067742,0.0,0.416763636,False,,5f2c16aabf114905864692f9,,1461205,124,,evan-feature22,full_pf_b,,0
99,26265,125,,,,1,1,1.0,1.0,-1.0,0.0,,0.0-127.0,,-1.0,1033.815,1.0,0.38741613799999997,1.0,0.7177369570000001,1.0,0.734902455,1.0,0.49438664299999996,False,,5f2c16aabf114905864692f9,,1472003,125,,evan-feature22,full_pf_b,,0
100,26266,126,,,,SLOW,SLOW,,,0.0,1.0,,0.0-128.0,,-3.0,,1.0,0.405255252,1.0,0.7300466640000001,1.0,0.7027748070000001,1.0,0.504359668,False,,5f2c16aabf114905864692f9,,1477811,126,,evan-feature22,full_pf_b,,1
101,26267,127,,,,1,1,0.0,1.0,0.0,1.0,,0.0-129.0,,1.0,2297.13,0.0,0.40697073,1.0,0.7260142190000001,1.0,0.724461982,0.0,0.522779179,False,,5f2c16aabf114905864692f9,,1489874,127,,evan-feature22,full_pf_b,,1
102,26268,128,,,,1,1,1.0,0.0,0.0,1.0,,0.0-130.0,,0.0,941.385,1.0,0.43906215299999996,0.0,0.7252802340000001,0.0,0.719079934,1.0,0.5712990579999999,False,,5f2c16aabf114905864692f9,,1500581,128,,evan-feature22,full_pf_b,,0
103,26269,129,,,,1,1,0.0,1.0,0.0,1.0,,0.0-131.0,,1.0,739.695,0.0,0.4076705,1.0,0.73280499,1.0,0.681313127,1.0,0.523891346,False,,5f2c16aabf114905864692f9,,1511084,129,,evan-feature22,full_pf_b,,0
104,26270,130,,,,1,1,1.0,1.0,0.0,1.0,,0.0-132.0,,1.0,1058.99,1.0,0.399102911,1.0,0.730498344,1.0,0.661080239,1.0,0.46742603,False,,5f2c16aabf114905864692f9,,1521904,130,,evan-feature22,full_pf_b,,0
105,26271,131,,,,2,2,1.0,1.0,-1.0,0.0,,0.0-133.0,,-1.0,1931.365,0.0,0.356477282,1.0,0.712296395,1.0,0.641812684,1.0,0.44868414,False,,5f2c16aabf114905864692f9,,1533600,131,,evan-feature22,full_pf_b,,1
106,26272,132,,,,1,1,0.0,0.0,0.0,1.0,,0.0-134.0,,0.0,233.615,0.0,0.462760722,0.0,0.692349322,1.0,0.700947931,0.0,0.394680266,False,,5f2c16aabf114905864692f9,,1543596,132,,evan-feature22,full_pf_b,,1
107,26273,133,,,,1,1,0.0,1.0,0.0,1.0,,0.0-135.0,,1.0,378.67,0.0,0.422306413,1.0,0.718375916,1.0,0.706340917,1.0,0.367787185,False,,5f2c16aabf114905864692f9,,1553739,133,,evan-feature22,full_pf_b,,0
108,26275,135,,,,1,1,0.0,1.0,0.0,1.0,,0.0-137.0,,1.0,424.48,0.0,0.4582233,1.0,0.643834117,1.0,0.75,0.0,0.39615823299999997,False,,5f2c16aabf114905864692f9,,1568072,135,,evan-feature22,full_pf_b,,0
109,26276,136,,,,1,1,0.0,1.0,0.0,1.0,,0.0-138.0,,1.0,3262.01,0.0,0.43813437899999996,1.0,0.651283804,1.0,0.729674191,0.0,0.37711048,False,,5f2c16aabf114905864692f9,,1581096,136,,evan-feature22,full_pf_b,,0
110,26277,137,,,,1,1,1.0,1.0,0.0,1.0,,0.0-139.0,,1.0,1321.96,1.0,0.471199094,1.0,0.6470010979999999,1.0,0.715008097,1.0,0.410656191,False,,5f2c16aabf114905864692f9,,1592181,137,,evan-feature22,full_pf_b,,0
111,26278,138,,,,1,1,0.0,0.0,-1.0,0.0,,0.0-140.0,,0.0,465.635,0.0,0.42486406,0.0,0.629771829,1.0,0.6550939960000001,1.0,0.459093873,False,,5f2c16aabf114905864692f9,,1602412,138,,evan-feature22,full_pf_b,,0
112,26279,139,,,,1,1,1.0,0.0,-1.0,0.0,,0.0-141.0,,-1.0,2351.965,1.0,0.4803197,0.0,0.645842715,0.0,0.6421749920000001,1.0,0.443092151,False,,5f2c16aabf114905864692f9,,1614530,139,,evan-feature22,full_pf_b,,0
113,26280,140,,,,1,1,1.0,0.0,-1.0,0.0,,0.0-142.0,,-1.0,1390.87,1.0,0.521848997,0.0,0.735801074,0.0,0.6691348460000001,0.0,0.45259351600000003,False,,5f2c16aabf114905864692f9,,1625683,140,,evan-feature22,full_pf_b,,0
114,26281,141,,,,1,1,0.0,1.0,0.0,1.0,,0.0-143.0,,1.0,657.18,0.0,0.49565621299999996,1.0,0.742400847,0.0,0.661512553,1.0,0.483110831,False,,5f2c16aabf114905864692f9,,1636103,141,,evan-feature22,full_pf_b,,0
115,26282,142,,,,1,1,0.0,1.0,-1.0,0.0,,0.0-144.0,,0.0,452.525,0.0,0.521564361,1.0,0.731078632,1.0,0.6774886809999999,0.0,0.483263956,False,,5f2c16aabf114905864692f9,,1646319,142,,evan-feature22,full_pf_b,,0
116,26283,143,,,,2,2,1.0,0.0,-1.0,0.0,,0.0-145.0,,-1.0,285.205,1.0,0.558893102,1.0,0.719810023,1.0,0.67461031,0.0,0.499349834,False,,5f2c16aabf114905864692f9,,1656368,143,,evan-feature22,full_pf_b,,1
117,26284,144,,,,1,1,0.0,0.0,0.0,1.0,,0.0-146.0,,0.0,162.25,0.0,0.611031046,0.0,0.75,0.0,0.688072995,1.0,0.5321422729999999,False,,5f2c16aabf114905864692f9,,1666294,144,,evan-feature22,full_pf_b,,1
118,26285,145,,,,1,1,0.0,1.0,-1.0,0.0,,0.0-147.0,,0.0,2518.97,0.0,0.633223941,1.0,0.713567728,1.0,0.75,1.0,0.48185314700000004,False,,5f2c16aabf114905864692f9,,1678577,145,,evan-feature22,full_pf_b,,0
119,26286,146,,,,1,1,1.0,1.0,-1.0,0.0,,0.0-148.0,,-1.0,396.85,1.0,0.664001694,1.0,0.705509768,0.0,0.75,1.0,0.500211065,False,,5f2c16aabf114905864692f9,,1688739,146,,evan-feature22,full_pf_b,,0
120,26287,147,,,,1,1,0.0,0.0,0.0,1.0,,0.0-149.0,,0.0,704.77,0.0,0.664001694,0.0,0.705509768,1.0,0.75,0.0,0.500211065,False,,5f2c16aabf114905864692f9,,1699206,147,,evan-feature22,full_pf_b,,0
121,26288,148,,,,1,1,1.0,0.0,0.0,1.0,,0.0-150.0,,0.0,726.895,1.0,0.696508041,0.0,0.71066027,0.0,0.717028709,0.0,0.49792991,False,,5f2c16aabf114905864692f9,,1709696,148,,evan-feature22,full_pf_b,,0
122,26289,149,,,,1,1,0.0,1.0,-1.0,0.0,,0.0-151.0,,0.0,206.705,0.0,0.699883272,1.0,0.75,1.0,0.713543895,0.0,0.496962643,False,,5f2c16aabf114905864692f9,,1719667,149,,evan-feature22,full_pf_b,,0
123,26290,150,,,,1,1,1.0,1.0,0.0,1.0,,0.0-152.0,,1.0,253.725,1.0,0.741163419,1.0,0.75,0.0,0.64691024,0.0,0.513858197,False,,5f2c16aabf114905864692f9,,1729684,150,,evan-feature22,full_pf_b,,0
124,26291,151,,,,1,1,1.0,1.0,-1.0,0.0,,0.0-153.0,,-1.0,550.58,1.0,0.75,1.0,0.70816558,1.0,0.594499079,0.0,0.48502124,False,,5f2c16aabf114905864692f9,,1739994,151,,evan-feature22,full_pf_b,,0
125,26292,152,,,,1,1,0.0,1.0,0.0,1.0,,0.0-154.0,,1.0,436.9,0.0,0.75,1.0,0.721848901,1.0,0.62197249,0.0,0.48263586399999997,False,,5f2c16aabf114905864692f9,,1750191,152,,evan-feature22,full_pf_b,,0
126,26293,153,,,,1,1,1.0,1.0,-1.0,0.0,,0.0-155.0,,-1.0,572.165,1.0,0.75,1.0,0.74813071,1.0,0.584357161,1.0,0.411477782,False,,5f2c16aabf114905864692f9,,1760531,153,,evan-feature22,full_pf_b,,0
127,26294,154,,,,SLOW,SLOW,,,0.0,1.0,,0.0-156.0,,-3.0,,0.0,0.75,0.0,0.75,1.0,0.52287236,1.0,0.488290656,False,,5f2c16aabf114905864692f9,,1766340,154,,evan-feature22,full_pf_b,,1
128,26295,155,,,,1,1,1.0,0.0,0.0,1.0,,0.0-157.0,,0.0,690.785,1.0,0.75,0.0,0.75,0.0,0.544321581,0.0,0.53143059,False,,5f2c16aabf114905864692f9,,1776792,155,,evan-feature22,full_pf_b,,1
129,26296,156,,,,1,1,1.0,1.0,0.0,1.0,,0.0-158.0,,1.0,1702.545,1.0,0.726754564,1.0,0.75,1.0,0.5129306370000001,0.0,0.530592445,False,,5f2c16aabf114905864692f9,,1788259,156,,evan-feature22,full_pf_b,,0
130,26297,157,,,,1,1,0.0,1.0,-1.0,0.0,,0.0-159.0,,0.0,77.3,0.0,0.75,1.0,0.7392590729999999,1.0,0.479875835,1.0,0.547007051,False,,5f2c16aabf114905864692f9,,1798097,157,,evan-feature22,full_pf_b,,0
131,26298,158,,,,1,1,1.0,0.0,-1.0,0.0,,0.0-160.0,,-1.0,220.655,1.0,0.75,0.0,0.7393376979999999,0.0,0.546045419,1.0,0.541267353,False,,5f2c16aabf114905864692f9,,1808084,158,,evan-feature22,full_pf_b,,0
132,26299,159,,,,1,1,1.0,1.0,-1.0,0.0,,0.0-161.0,,-1.0,347.185,1.0,0.75,1.0,0.75,0.0,0.485725895,1.0,0.527625395,False,,5f2c16aabf114905864692f9,,1818197,159,,evan-feature22,full_pf_b,,0
133,26300,160,,,,1,1,1.0,0.0,0.0,1.0,,0.0-162.0,,0.0,10.02,1.0,0.75,0.0,0.725087974,0.0,0.488603595,1.0,0.504019206,False,,5f2c16aabf114905864692f9,,1827969,160,,evan-feature22,full_pf_b,,0
134,26301,161,,,,1,1,1.0,0.0,0.0,1.0,,0.0-163.0,,0.0,408.99,1.0,0.745504295,0.0,0.75,1.0,0.452379914,0.0,0.50131194,False,,5f2c16aabf114905864692f9,,1838141,161,,evan-feature22,full_pf_b,,0
135,26302,162,,,,1,1,1.0,1.0,0.0,1.0,,0.0-164.0,,1.0,55.87,1.0,0.728513874,1.0,0.75,0.0,0.44125567200000004,1.0,0.531454591,False,,5f2c16aabf114905864692f9,,1847959,162,,evan-feature22,full_pf_b,,0
136,26303,163,,,,1,1,1.0,1.0,-1.0,0.0,,0.0-165.0,,-1.0,264.695,1.0,0.73790804,1.0,0.75,1.0,0.413036656,0.0,0.524619035,False,,5f2c16aabf114905864692f9,,1857987,163,,evan-feature22,full_pf_b,,0
137,26304,164,,,,1,1,1.0,1.0,0.0,1.0,,0.0-166.0,,1.0,594.415,1.0,0.7080961309999999,1.0,0.708666865,1.0,0.431915581,0.0,0.481819489,False,,5f2c16aabf114905864692f9,,1868344,164,,evan-feature22,full_pf_b,,0
138,26305,165,,,,1,1,1.0,1.0,0.0,1.0,,0.0-167.0,,1.0,679.945,1.0,0.721378003,1.0,0.71605913,1.0,0.36642387,0.0,0.5036739929999999,False,,5f2c16aabf114905864692f9,,1878789,165,,evan-feature22,full_pf_b,,0
139,26306,166,,,,1,1,1.0,1.0,0.0,1.0,,0.0-168.0,,1.0,955.085,1.0,0.7340618959999999,1.0,0.699323252,0.0,0.35298046299999997,1.0,0.511241692,False,,5f2c16aabf114905864692f9,,1889510,166,,evan-feature22,full_pf_b,,0
140,26307,167,,,,2,2,0.0,1.0,-1.0,0.0,,0.0-169.0,,0.0,703.26,1.0,0.75,1.0,0.70412698,0.0,0.380734814,1.0,0.529580116,False,,5f2c16aabf114905864692f9,,1899976,167,,evan-feature22,full_pf_b,,1
141,26308,168,,,,1,1,1.0,1.0,0.0,1.0,,0.0-170.0,,1.0,1533.135,1.0,0.7436654909999999,1.0,0.711182751,0.0,0.41125331,1.0,0.49554405,False,,5f2c16aabf114905864692f9,,1911280,168,,evan-feature22,full_pf_b,,1
142,26309,169,,,,1,1,1.0,0.0,0.0,1.0,,0.0-171.0,,0.0,512.915,1.0,0.731607915,0.0,0.651774583,0.0,0.35688023,0.0,0.45194491600000003,False,,5f2c16aabf114905864692f9,,1921555,169,,evan-feature22,full_pf_b,,0
143,26310,170,,,,2,2,0.0,0.0,-1.0,0.0,,0.0-172.0,,0.0,557.875,1.0,0.75,1.0,0.75,0.0,0.283145374,0.0,0.528608005,False,,5f2c16aabf114905864692f9,,1931873,170,,evan-feature22,full_pf_b,,1
144,26311,171,,,,2,2,0.0,0.0,-1.0,0.0,,0.0-173.0,,0.0,780.72,0.0,0.7491416890000001,1.0,0.7423785959999999,0.0,0.29135870399999997,0.0,0.498888318,False,,5f2c16aabf114905864692f9,,1942417,171,,evan-feature22,full_pf_b,,0
145,26312,172,,,,1,1,1.0,1.0,-1.0,0.0,,0.0-174.0,,-1.0,615.96,1.0,0.708569387,1.0,0.717682277,1.0,0.294421699,0.0,0.493838163,False,,5f2c16aabf114905864692f9,,1952795,172,,evan-feature22,full_pf_b,,1
146,26313,173,,,,1,1,1.0,1.0,0.0,1.0,,0.0-175.0,,1.0,615.73,1.0,0.75,1.0,0.7383382159999999,1.0,0.356098707,0.0,0.442533405,False,,5f2c16aabf114905864692f9,,1963176,173,,evan-feature22,full_pf_b,,0
147,26314,174,,,,1,1,1.0,1.0,0.0,1.0,,0.0-176.0,,1.0,848.465,1.0,0.744527075,1.0,0.75,0.0,0.334127506,1.0,0.393165805,False,,5f2c16aabf114905864692f9,,1973787,174,,evan-feature22,full_pf_b,,0
148,26315,175,,,,1,1,1.0,0.0,0.0,1.0,,0.0-177.0,,0.0,446.41,1.0,0.75,0.0,0.75,1.0,0.33571021799999995,1.0,0.350393962,False,,5f2c16aabf114905864692f9,,1983993,175,,evan-feature22,full_pf_b,,0
149,26316,176,,,,1,1,1.0,1.0,0.0,1.0,,0.0-178.0,,1.0,363.935,1.0,0.75,1.0,0.75,0.0,0.313628297,0.0,0.36349657399999996,False,,5f2c16aabf114905864692f9,,1994118,176,,evan-feature22,full_pf_b,,0
150,26317,177,,,,1,1,1.0,1.0,-1.0,0.0,,0.0-179.0,,-1.0,350.485,1.0,0.75,1.0,0.734284182,0.0,0.262667667,1.0,0.380199119,False,,5f2c16aabf114905864692f9,,2004234,177,,evan-feature22,full_pf_b,,0
151,26318,178,,,,1,1,1.0,0.0,0.0,1.0,,0.0-180.0,,0.0,1037.755,1.0,0.75,0.0,0.75,0.0,0.25,0.0,0.394494013,False,,5f2c16aabf114905864692f9,,2015036,178,,evan-feature22,full_pf_b,,0
152,26319,179,,,,2,2,0.0,0.0,-1.0,0.0,,0.0-181.0,,0.0,1225.45,1.0,0.722298145,1.0,0.7357822340000001,0.0,0.25,0.0,0.319142121,False,,5f2c16aabf114905864692f9,,2026024,179,,evan-feature22,full_pf_b,,1
153,26320,180,,,,2,2,1.0,1.0,-1.0,0.0,,0.0-182.0,,-1.0,932.875,1.0,0.73149275,1.0,0.724276446,1.0,0.305856907,1.0,0.281315057,False,,5f2c16aabf114905864692f9,,2036722,180,,evan-feature22,full_pf_b,,0
154,26321,181,,,,1,1,0.0,1.0,0.0,1.0,,0.0-183.0,,1.0,589.415,0.0,0.7458732690000001,1.0,0.7336382459999999,1.0,0.272571964,0.0,0.266021999,False,,5f2c16aabf114905864692f9,,2047073,181,,evan-feature22,full_pf_b,,1
155,26322,182,,,,1,1,1.0,1.0,0.0,1.0,,0.0-184.0,,1.0,849.155,1.0,0.705579037,1.0,0.720778292,1.0,0.320238144,0.0,0.30971744,False,,5f2c16aabf114905864692f9,,2057683,182,,evan-feature22,full_pf_b,,0
156,26323,183,,,,1,1,1.0,0.0,0.0,1.0,,0.0-185.0,,0.0,865.27,1.0,0.700425648,0.0,0.7198784009999999,0.0,0.272590393,0.0,0.304182931,False,,5f2c16aabf114905864692f9,,2068310,183,,evan-feature22,full_pf_b,,0
157,26324,184,,,,1,1,0.0,1.0,0.0,1.0,,0.0-186.0,,1.0,1453.695,0.0,0.735590785,1.0,0.722714973,0.0,0.25,0.0,0.323421091,False,,5f2c16aabf114905864692f9,,2079527,184,,evan-feature22,full_pf_b,,0
158,26325,185,,,,1,1,1.0,0.0,0.0,1.0,,0.0-187.0,,0.0,1507.495,1.0,0.724807662,0.0,0.63146213,1.0,0.36836492600000004,1.0,0.34592153299999995,False,,5f2c16aabf114905864692f9,,2090797,185,,evan-feature22,full_pf_b,,0
159,26326,186,,,,1,1,1.0,0.0,0.0,1.0,,0.0-188.0,,0.0,467.43,1.0,0.7352796909999999,0.0,0.555111392,0.0,0.36003922,1.0,0.31433779999999995,False,,5f2c16aabf114905864692f9,,2101030,186,,evan-feature22,full_pf_b,,0
160,26327,187,notice,,,,,,,,,,0.0-189.0,"{""Q0"":""""}",,5931.0,,,,,,,,,False,,5f2c16aabf114905864692f9,,2106963,187,Q,survey-text,full_pf_b,,1
161,26328,188,track1,,[1],,,,,,,,0.0-190.0,"{""Q0"":""no""}",,2536.0,,,,,,,,,False,,5f2c16aabf114905864692f9,,2109504,188,Q,evan-quiz,full_pf_b,,1
162,26329,189,track2,,[0],,,,,,,,0.0-191.0,"{""Q0"":""yes""}",,4698.0,,,,,,,,,False,,5f2c16aabf114905864692f9,,2114208,189,Q,evan-quiz,full_pf_b,,1
163,26330,190,strat,,,,,,,,,,0.0-192.0,"{""Q0"":""More chance of blacks on left hand side""}",,17759.0,,,,,,,,,False,,5f2c16aabf114905864692f9,,2131972,190,Q,survey-text,full_pf_b,,1
