,index,Unnamed: 0,Q_name,button_pressed,choice_idxs,chosen_pos,chosen_state,chosen_state_f_1_outcome,chosen_state_f_2_outcome,f_1_reward,f_2_reward,incor_questions,internal_node_id,responses,reward_received,rt,s_1_f_1_outcome,s_1_f_1_prob,s_1_f_2_outcome,s_1_f_2_prob,s_2_f_1_outcome,s_2_f_1_prob,s_2_f_2_outcome,s_2_f_2_prob,safe_first,stimulus,subjectID,success,time_elapsed,trial_index,trial_num,trial_type,version,view_history,switching
0,42281,35,,,,1,1,1.0,1.0,0.0,-1.0,,0.0-27.0,,-1.0,757.29,1.0,0.6,1.0,0.6,1.0,0.4,0.0,0.4,False,,5e7c7bf3ca18002bd9cf6eca,,567471,35,,evan-feature22,full_pf_a,,0
1,42282,36,,,,2,2,0.0,0.0,0.0,-1.0,,0.0-28.0,,0.0,15.915,1.0,0.608053294,1.0,0.63424552,0.0,0.397152172,0.0,0.347069101,False,,5e7c7bf3ca18002bd9cf6eca,,577245,36,,evan-feature22,full_pf_a,,1
2,42283,37,,,,1,1,0.0,1.0,0.0,-1.0,,0.0-29.0,,-1.0,802.61,0.0,0.642237155,1.0,0.648566321,1.0,0.389407674,1.0,0.285525717,False,,5e7c7bf3ca18002bd9cf6eca,,587808,37,,evan-feature22,full_pf_a,,1
3,42284,38,,,,2,2,0.0,0.0,0.0,-1.0,,0.0-30.0,,0.0,655.885,0.0,0.661086576,1.0,0.630492543,0.0,0.399058924,0.0,0.25,False,,5e7c7bf3ca18002bd9cf6eca,,598223,38,,evan-feature22,full_pf_a,,1
4,42285,39,,,,1,1,1.0,0.0,0.0,-1.0,,0.0-31.0,,0.0,417.405,1.0,0.631324137,0.0,0.6269842929999999,0.0,0.38734784299999997,0.0,0.25,False,,5e7c7bf3ca18002bd9cf6eca,,608399,39,,evan-feature22,full_pf_a,,1
5,42286,40,,,,1,1,0.0,1.0,0.0,-1.0,,0.0-32.0,,-1.0,256.79,0.0,0.6381991370000001,1.0,0.68987999,1.0,0.384107265,1.0,0.271332943,False,,5e7c7bf3ca18002bd9cf6eca,,618414,40,,evan-feature22,full_pf_a,,0
6,42287,41,,,,2,2,1.0,1.0,0.0,-1.0,,0.0-33.0,,-1.0,881.955,1.0,0.66034901,0.0,0.742641349,1.0,0.360225629,1.0,0.25,False,,5e7c7bf3ca18002bd9cf6eca,,629055,41,,evan-feature22,full_pf_a,,1
7,42288,42,,,,2,2,0.0,0.0,1.0,0.0,,0.0-34.0,,0.0,528.455,1.0,0.638612418,0.0,0.75,0.0,0.367273939,0.0,0.25,False,,5e7c7bf3ca18002bd9cf6eca,,639343,42,,evan-feature22,full_pf_a,,0
8,42289,43,,,,2,2,1.0,0.0,0.0,-1.0,,0.0-35.0,,0.0,592.565,1.0,0.624340629,1.0,0.75,1.0,0.425829545,0.0,0.25,False,,5e7c7bf3ca18002bd9cf6eca,,649694,43,,evan-feature22,full_pf_a,,0
9,42290,44,,,,1,1,1.0,1.0,0.0,-1.0,,0.0-36.0,,-1.0,369.375,1.0,0.621999804,1.0,0.75,0.0,0.368609357,0.0,0.25,False,,5e7c7bf3ca18002bd9cf6eca,,659823,44,,evan-feature22,full_pf_a,,1
10,42291,45,,,,1,1,1.0,1.0,1.0,0.0,,0.0-37.0,,1.0,223.535,1.0,0.62666403,1.0,0.75,1.0,0.311151498,0.0,0.25,False,,5e7c7bf3ca18002bd9cf6eca,,669806,45,,evan-feature22,full_pf_a,,0
11,42292,46,,,,2,2,1.0,0.0,1.0,0.0,,0.0-38.0,,1.0,288.22,1.0,0.6819650009999999,1.0,0.75,1.0,0.310763048,0.0,0.25,False,,5e7c7bf3ca18002bd9cf6eca,,679854,46,,evan-feature22,full_pf_a,,1
12,42293,47,,,,2,2,0.0,0.0,0.0,-1.0,,0.0-39.0,,0.0,144.395,1.0,0.740626951,1.0,0.75,0.0,0.25,0.0,0.25,False,,5e7c7bf3ca18002bd9cf6eca,,689757,47,,evan-feature22,full_pf_a,,0
13,42294,48,,,,1,1,0.0,0.0,0.0,-1.0,,0.0-40.0,,0.0,257.265,0.0,0.739599242,0.0,0.742034978,0.0,0.25397114600000004,0.0,0.25,False,,5e7c7bf3ca18002bd9cf6eca,,699774,48,,evan-feature22,full_pf_a,,1
14,42295,49,,,,2,2,0.0,1.0,0.0,-1.0,,0.0-41.0,,-1.0,304.66,0.0,0.732341315,1.0,0.72735643,0.0,0.25,1.0,0.25,False,,5e7c7bf3ca18002bd9cf6eca,,709839,49,,evan-feature22,full_pf_a,,1
15,42296,50,,,,1,1,1.0,0.0,0.0,-1.0,,0.0-42.0,,0.0,241.73,1.0,0.7062287770000001,0.0,0.75,0.0,0.29002151,0.0,0.288256649,False,,5e7c7bf3ca18002bd9cf6eca,,719838,50,,evan-feature22,full_pf_a,,1
16,42297,51,,,,2,2,0.0,0.0,1.0,0.0,,0.0-43.0,,0.0,146.34,1.0,0.7086029209999999,0.0,0.75,0.0,0.274129113,0.0,0.262851608,False,,5e7c7bf3ca18002bd9cf6eca,,729742,51,,evan-feature22,full_pf_a,,1
17,42298,52,,,,2,2,1.0,0.0,0.0,-1.0,,0.0-44.0,,0.0,1697.76,1.0,0.669189651,1.0,0.727614338,1.0,0.298444036,0.0,0.296944518,False,,5e7c7bf3ca18002bd9cf6eca,,741199,52,,evan-feature22,full_pf_a,,0
18,42299,53,,,,1,1,1.0,1.0,1.0,0.0,,0.0-45.0,,1.0,16.85499999,1.0,0.6819912929999999,1.0,0.7179434290000001,0.0,0.265003961,1.0,0.28157921199999997,False,,5e7c7bf3ca18002bd9cf6eca,,750974,53,,evan-feature22,full_pf_a,,1
19,42300,54,,,,2,2,0.0,0.0,1.0,0.0,,0.0-46.0,,0.0,144.72,1.0,0.665275002,1.0,0.723065271,0.0,0.260414971,0.0,0.30973870000000003,False,,5e7c7bf3ca18002bd9cf6eca,,760878,54,,evan-feature22,full_pf_a,,1
20,42301,55,,,,2,2,1.0,0.0,0.0,-1.0,,0.0-47.0,,0.0,832.995,0.0,0.6660593260000001,1.0,0.728032907,1.0,0.30922817,0.0,0.338778608,False,,5e7c7bf3ca18002bd9cf6eca,,771471,55,,evan-feature22,full_pf_a,,0
21,42302,56,,,,1,1,1.0,1.0,0.0,-1.0,,0.0-48.0,,-1.0,304.6,1.0,0.702068785,1.0,0.6528750879999999,0.0,0.287329608,1.0,0.35789613200000003,False,,5e7c7bf3ca18002bd9cf6eca,,781535,56,,evan-feature22,full_pf_a,,1
22,42303,57,,,,1,1,0.0,1.0,0.0,-1.0,,0.0-49.0,,-1.0,159.395,0.0,0.651939787,1.0,0.636725589,0.0,0.284834488,1.0,0.358563756,False,,5e7c7bf3ca18002bd9cf6eca,,791454,57,,evan-feature22,full_pf_a,,0
23,42304,58,,,,2,2,1.0,1.0,0.0,-1.0,,0.0-50.0,,-1.0,145.235,1.0,0.67573929,1.0,0.612550049,1.0,0.37130387600000003,1.0,0.383542402,False,,5e7c7bf3ca18002bd9cf6eca,,801359,58,,evan-feature22,full_pf_a,,1
24,42305,59,,,,1,1,1.0,1.0,0.0,-1.0,,0.0-51.0,,-1.0,351.815,1.0,0.620753801,1.0,0.60513644,0.0,0.385529434,0.0,0.340361743,False,,5e7c7bf3ca18002bd9cf6eca,,811470,59,,evan-feature22,full_pf_a,,1
25,42306,60,,,,1,1,0.0,1.0,1.0,0.0,,0.0-52.0,,0.0,401.15,0.0,0.673564893,1.0,0.672437924,0.0,0.292955382,1.0,0.337633795,False,,5e7c7bf3ca18002bd9cf6eca,,821631,60,,evan-feature22,full_pf_a,,0
26,42307,61,,,,2,2,1.0,1.0,0.0,-1.0,,0.0-53.0,,-1.0,591.835,1.0,0.6749427,1.0,0.724197502,1.0,0.32391132100000003,1.0,0.350995264,False,,5e7c7bf3ca18002bd9cf6eca,,831983,61,,evan-feature22,full_pf_a,,1
27,42308,62,,,,1,1,1.0,1.0,0.0,-1.0,,0.0-54.0,,-1.0,79.8,1.0,0.6940159379999999,1.0,0.75,0.0,0.31710554399999996,1.0,0.413450341,False,,5e7c7bf3ca18002bd9cf6eca,,841822,62,,evan-feature22,full_pf_a,,1
28,42309,63,,,,1,1,1.0,1.0,0.0,-1.0,,0.0-55.0,,-1.0,274.65,1.0,0.6916018270000001,1.0,0.69001187,1.0,0.261817804,0.0,0.40038635,False,,5e7c7bf3ca18002bd9cf6eca,,851855,63,,evan-feature22,full_pf_a,,0
29,42310,64,,,,2,2,1.0,1.0,0.0,-1.0,,0.0-56.0,,-1.0,224.425,0.0,0.641061544,0.0,0.71337992,1.0,0.277296461,1.0,0.47372791700000005,False,,5e7c7bf3ca18002bd9cf6eca,,861840,64,,evan-feature22,full_pf_a,,1
30,42311,65,,,,2,2,0.0,1.0,0.0,-1.0,,0.0-57.0,,-1.0,159.685,1.0,0.6082438520000001,1.0,0.708471106,0.0,0.28745137,1.0,0.564174476,False,,5e7c7bf3ca18002bd9cf6eca,,871758,65,,evan-feature22,full_pf_a,,0
31,42312,66,,,,2,2,1.0,1.0,1.0,0.0,,0.0-58.0,,1.0,0.41500000200000003,0.0,0.6051112120000001,1.0,0.7118147229999999,1.0,0.272390611,1.0,0.5595149939999999,False,,5e7c7bf3ca18002bd9cf6eca,,881518,66,,evan-feature22,full_pf_a,,0
32,42313,67,,,,1,1,1.0,1.0,1.0,0.0,,0.0-59.0,,1.0,672.34,1.0,0.582420852,1.0,0.635867583,0.0,0.31089574,0.0,0.5227206520000001,False,,5e7c7bf3ca18002bd9cf6eca,,891952,67,,evan-feature22,full_pf_a,,1
33,42314,68,,,,1,1,0.0,0.0,1.0,0.0,,0.0-60.0,,0.0,1199.765,0.0,0.623195575,0.0,0.655026044,0.0,0.25,1.0,0.560387538,False,,5e7c7bf3ca18002bd9cf6eca,,902910,68,,evan-feature22,full_pf_a,,0
34,42315,69,,,,2,2,1.0,1.0,0.0,-1.0,,0.0-61.0,,-1.0,929.265,1.0,0.601889598,1.0,0.678198724,1.0,0.25,1.0,0.559922936,False,,5e7c7bf3ca18002bd9cf6eca,,913600,69,,evan-feature22,full_pf_a,,1
35,42316,70,,,,2,2,0.0,1.0,1.0,0.0,,0.0-62.0,,0.0,703.545,1.0,0.601259914,1.0,0.704681482,0.0,0.33908969299999997,1.0,0.505003715,False,,5e7c7bf3ca18002bd9cf6eca,,924064,70,,evan-feature22,full_pf_a,,0
36,42317,71,,,,2,2,0.0,1.0,1.0,0.0,,0.0-63.0,,0.0,495.035,0.0,0.59645454,1.0,0.710437172,0.0,0.327441879,1.0,0.391749613,False,,5e7c7bf3ca18002bd9cf6eca,,934319,71,,evan-feature22,full_pf_a,,0
37,42318,72,,,,1,1,0.0,0.0,0.0,-1.0,,0.0-64.0,,0.0,608.315,0.0,0.529473,0.0,0.636758527,0.0,0.301338063,0.0,0.365661481,False,,5e7c7bf3ca18002bd9cf6eca,,944685,72,,evan-feature22,full_pf_a,,1
38,42319,73,,,,2,2,0.0,1.0,1.0,0.0,,0.0-65.0,,0.0,386.595,0.0,0.541657162,1.0,0.634541962,0.0,0.343535366,1.0,0.371763742,False,,5e7c7bf3ca18002bd9cf6eca,,954830,73,,evan-feature22,full_pf_a,,1
39,42320,74,,,,1,1,0.0,0.0,1.0,0.0,,0.0-66.0,,0.0,305.115,0.0,0.5707533260000001,0.0,0.589121171,1.0,0.326428396,0.0,0.43961622899999997,False,,5e7c7bf3ca18002bd9cf6eca,,964894,74,,evan-feature22,full_pf_a,,1
40,42321,75,,,,2,2,1.0,1.0,0.0,-1.0,,0.0-67.0,,-1.0,306.525,1.0,0.5707533260000001,1.0,0.589121171,1.0,0.326428396,1.0,0.43961622899999997,False,,5e7c7bf3ca18002bd9cf6eca,,974960,75,,evan-feature22,full_pf_a,,1
41,42322,76,,,,1,1,0.0,1.0,0.0,-1.0,,0.0-68.0,,-1.0,350.115,0.0,0.506271295,1.0,0.641775594,0.0,0.37149690700000004,1.0,0.404330166,False,,5e7c7bf3ca18002bd9cf6eca,,985072,76,,evan-feature22,full_pf_a,,1
42,42323,77,,,,2,2,0.0,0.0,1.0,0.0,,0.0-69.0,,0.0,527.38,1.0,0.455642565,0.0,0.623605825,0.0,0.358753011,0.0,0.346174041,False,,5e7c7bf3ca18002bd9cf6eca,,995358,77,,evan-feature22,full_pf_a,,1
43,42324,78,,,,1,1,0.0,0.0,0.0,-1.0,,0.0-70.0,,0.0,1105.975,0.0,0.483677308,0.0,0.5904681070000001,0.0,0.402218411,1.0,0.35344697,False,,5e7c7bf3ca18002bd9cf6eca,,1006221,78,,evan-feature22,full_pf_a,,1
44,42325,79,,,,2,2,1.0,0.0,1.0,0.0,,0.0-71.0,,1.0,322.055,0.0,0.394210977,1.0,0.558925494,1.0,0.540052017,0.0,0.35182128700000004,False,,5e7c7bf3ca18002bd9cf6eca,,1016304,79,,evan-feature22,full_pf_a,,1
45,42326,80,,,,2,2,1.0,0.0,0.0,-1.0,,0.0-72.0,,0.0,256.665,0.0,0.382300414,1.0,0.577670603,1.0,0.607608448,0.0,0.378261578,False,,5e7c7bf3ca18002bd9cf6eca,,1026321,80,,evan-feature22,full_pf_a,,0
46,42327,81,,,,1,1,0.0,1.0,1.0,0.0,,0.0-73.0,,0.0,383.03,0.0,0.357596762,1.0,0.5929076529999999,1.0,0.6579790010000001,0.0,0.401326777,False,,5e7c7bf3ca18002bd9cf6eca,,1036463,81,,evan-feature22,full_pf_a,,1
47,42328,82,,,,1,1,0.0,1.0,0.0,-1.0,,0.0-74.0,,-1.0,304.7,0.0,0.362033495,1.0,0.582308608,0.0,0.649195052,0.0,0.355158505,False,,5e7c7bf3ca18002bd9cf6eca,,1046527,82,,evan-feature22,full_pf_a,,0
48,42329,83,,,,2,2,1.0,0.0,0.0,-1.0,,0.0-75.0,,0.0,416.75,0.0,0.369620635,1.0,0.669100864,1.0,0.706059111,0.0,0.362516241,False,,5e7c7bf3ca18002bd9cf6eca,,1056703,83,,evan-feature22,full_pf_a,,1
49,42330,84,,,,1,1,1.0,0.0,0.0,-1.0,,0.0-76.0,,0.0,433.395,1.0,0.41477751399999996,0.0,0.7284416779999999,1.0,0.7182656940000001,0.0,0.36228040899999997,False,,5e7c7bf3ca18002bd9cf6eca,,1066894,84,,evan-feature22,full_pf_a,,1
50,42331,85,,,,1,1,0.0,0.0,1.0,0.0,,0.0-77.0,,0.0,640.79,0.0,0.37675460299999997,0.0,0.703250285,1.0,0.75,1.0,0.461979164,False,,5e7c7bf3ca18002bd9cf6eca,,1077293,85,,evan-feature22,full_pf_a,,0
51,42332,86,,,,2,2,1.0,1.0,1.0,0.0,,0.0-78.0,,1.0,434.31,1.0,0.398716075,0.0,0.6723864890000001,1.0,0.674153818,1.0,0.519029516,False,,5e7c7bf3ca18002bd9cf6eca,,1087487,86,,evan-feature22,full_pf_a,,1
52,42333,87,,,,1,1,1.0,0.0,1.0,0.0,,0.0-79.0,,1.0,623.725,1.0,0.34677856700000004,0.0,0.69057175,1.0,0.6822438540000001,1.0,0.477292237,False,,5e7c7bf3ca18002bd9cf6eca,,1097871,87,,evan-feature22,full_pf_a,,1
53,42334,88,,,,2,2,0.0,0.0,0.0,-1.0,,0.0-80.0,,0.0,656.87,1.0,0.28580469199999997,0.0,0.68408818,0.0,0.684207565,0.0,0.49780448299999996,False,,5e7c7bf3ca18002bd9cf6eca,,1108286,88,,evan-feature22,full_pf_a,,1
54,42336,90,,,,2,2,1.0,0.0,0.0,-1.0,,0.0-82.0,,0.0,125.19,0.0,0.25,1.0,0.7405808970000001,1.0,0.679614108,0.0,0.436436964,False,,5e7c7bf3ca18002bd9cf6eca,,1120814,90,,evan-feature22,full_pf_a,,0
55,42337,91,,,,1,1,1.0,1.0,0.0,-1.0,,0.0-83.0,,-1.0,273.71,1.0,0.29890393,1.0,0.730505706,0.0,0.7328203320000001,1.0,0.439256938,False,,5e7c7bf3ca18002bd9cf6eca,,1130847,91,,evan-feature22,full_pf_a,,1
56,42338,92,,,,2,2,0.0,1.0,1.0,0.0,,0.0-84.0,,0.0,225.02,0.0,0.326762398,1.0,0.7148059609999999,0.0,0.75,1.0,0.44389608799999997,False,,5e7c7bf3ca18002bd9cf6eca,,1140830,92,,evan-feature22,full_pf_a,,1
57,42339,93,,,,1,1,0.0,1.0,0.0,-1.0,,0.0-85.0,,-1.0,241.65,0.0,0.295168515,1.0,0.739760854,1.0,0.719947008,0.0,0.35277284600000003,False,,5e7c7bf3ca18002bd9cf6eca,,1150830,93,,evan-feature22,full_pf_a,,1
58,42340,94,,,,2,2,1.0,1.0,0.0,-1.0,,0.0-86.0,,-1.0,97.7,1.0,0.25,0.0,0.70781482,1.0,0.75,1.0,0.286095925,False,,5e7c7bf3ca18002bd9cf6eca,,1160688,94,,evan-feature22,full_pf_a,,1
59,42341,95,,,,2,2,1.0,1.0,0.0,-1.0,,0.0-87.0,,-1.0,256.24,0.0,0.25638190899999996,1.0,0.704088163,1.0,0.75,1.0,0.26872601399999996,False,,5e7c7bf3ca18002bd9cf6eca,,1170703,95,,evan-feature22,full_pf_a,,0
60,42342,96,,,,1,1,0.0,0.0,1.0,0.0,,0.0-88.0,,0.0,209.03,0.0,0.271581126,0.0,0.669760107,1.0,0.733896663,0.0,0.273244572,False,,5e7c7bf3ca18002bd9cf6eca,,1180670,96,,evan-feature22,full_pf_a,,1
61,42343,97,,,,1,1,0.0,0.0,0.0,-1.0,,0.0-89.0,,0.0,737.04,0.0,0.257144401,0.0,0.600575706,0.0,0.74488122,0.0,0.25,False,,5e7c7bf3ca18002bd9cf6eca,,1191168,97,,evan-feature22,full_pf_a,,0
62,42344,98,,,,2,2,1.0,0.0,0.0,-1.0,,0.0-90.0,,0.0,319.715,0.0,0.25,1.0,0.616870026,1.0,0.723610234,0.0,0.25,False,,5e7c7bf3ca18002bd9cf6eca,,1201247,98,,evan-feature22,full_pf_a,,1
63,42345,99,,,,2,2,0.0,0.0,1.0,0.0,,0.0-91.0,,0.0,256.135,0.0,0.25,0.0,0.583540187,0.0,0.7041042559999999,0.0,0.285961995,False,,5e7c7bf3ca18002bd9cf6eca,,1211263,99,,evan-feature22,full_pf_a,,0
64,42346,100,,,,1,1,0.0,1.0,1.0,0.0,,0.0-92.0,,0.0,304.835,0.0,0.27254536,1.0,0.53875765,0.0,0.693783448,0.0,0.284961652,False,,5e7c7bf3ca18002bd9cf6eca,,1221327,100,,evan-feature22,full_pf_a,,1
65,42347,101,,,,2,2,1.0,0.0,1.0,0.0,,0.0-93.0,,1.0,305.05,0.0,0.25,0.0,0.548431252,1.0,0.734221895,0.0,0.279445214,False,,5e7c7bf3ca18002bd9cf6eca,,1231392,101,,evan-feature22,full_pf_a,,1
66,42348,102,,,,1,1,0.0,0.0,0.0,-1.0,,0.0-94.0,,0.0,992.335,0.0,0.258640684,0.0,0.545878066,0.0,0.725245965,0.0,0.31487537,False,,5e7c7bf3ca18002bd9cf6eca,,1242142,102,,evan-feature22,full_pf_a,,1
67,42349,103,,,,2,2,1.0,1.0,0.0,-1.0,,0.0-95.0,,-1.0,848.97,1.0,0.251103711,0.0,0.5776290629999999,1.0,0.696320133,1.0,0.317831047,False,,5e7c7bf3ca18002bd9cf6eca,,1252752,103,,evan-feature22,full_pf_a,,1
68,42350,104,,,,1,1,0.0,0.0,0.0,-1.0,,0.0-96.0,,0.0,513.465,0.0,0.276630292,0.0,0.617329858,1.0,0.73838088,0.0,0.261471582,False,,5e7c7bf3ca18002bd9cf6eca,,1263023,104,,evan-feature22,full_pf_a,,1
69,42351,105,,,,2,2,1.0,1.0,0.0,-1.0,,0.0-97.0,,-1.0,769.785,0.0,0.297716424,1.0,0.618863717,1.0,0.7402358259999999,1.0,0.262600834,False,,5e7c7bf3ca18002bd9cf6eca,,1273554,105,,evan-feature22,full_pf_a,,1
70,42352,106,,,,1,1,0.0,1.0,1.0,0.0,,0.0-98.0,,0.0,189.97,0.0,0.290935512,1.0,0.695370945,0.0,0.706570507,1.0,0.280030553,False,,5e7c7bf3ca18002bd9cf6eca,,1283502,106,,evan-feature22,full_pf_a,,1
71,42353,107,,,,1,1,0.0,1.0,0.0,-1.0,,0.0-99.0,,-1.0,433.57,0.0,0.25,1.0,0.6465277079999999,1.0,0.67766682,0.0,0.25,False,,5e7c7bf3ca18002bd9cf6eca,,1293694,107,,evan-feature22,full_pf_a,,0
72,42354,108,,,,1,1,0.0,1.0,1.0,0.0,,0.0-100.0,,0.0,258.03,0.0,0.26463816,1.0,0.636100213,1.0,0.646048507,0.0,0.265607101,False,,5e7c7bf3ca18002bd9cf6eca,,1303711,108,,evan-feature22,full_pf_a,,0
73,42355,109,,,,2,2,1.0,0.0,1.0,0.0,,0.0-101.0,,1.0,528.375,1.0,0.314340707,1.0,0.667795927,1.0,0.613630805,0.0,0.25,False,,5e7c7bf3ca18002bd9cf6eca,,1313999,109,,evan-feature22,full_pf_a,,1
74,42356,110,,,,1,1,1.0,1.0,0.0,-1.0,,0.0-102.0,,-1.0,1777.965,1.0,0.28685784,1.0,0.6622549529999999,1.0,0.652154117,1.0,0.25,False,,5e7c7bf3ca18002bd9cf6eca,,1325535,110,,evan-feature22,full_pf_a,,1
75,42357,111,,,,1,1,0.0,0.0,0.0,-1.0,,0.0-103.0,,0.0,545.295,0.0,0.304106554,0.0,0.631289538,0.0,0.707041942,0.0,0.29314237,False,,5e7c7bf3ca18002bd9cf6eca,,1335838,111,,evan-feature22,full_pf_a,,0
76,42358,112,,,,2,2,1.0,0.0,0.0,-1.0,,0.0-104.0,,0.0,369.74,1.0,0.304806932,0.0,0.571167718,1.0,0.680472346,0.0,0.25,False,,5e7c7bf3ca18002bd9cf6eca,,1345967,112,,evan-feature22,full_pf_a,,1
77,42359,113,,,,2,2,0.0,0.0,0.0,-1.0,,0.0-105.0,,0.0,256.945,1.0,0.37919861,0.0,0.5724849710000001,0.0,0.705638003,0.0,0.30179300600000003,False,,5e7c7bf3ca18002bd9cf6eca,,1355982,113,,evan-feature22,full_pf_a,,0
78,42360,114,,,,1,1,0.0,1.0,0.0,-1.0,,0.0-106.0,,-1.0,306.495,0.0,0.464277969,1.0,0.554034373,0.0,0.7372627340000001,0.0,0.264699741,False,,5e7c7bf3ca18002bd9cf6eca,,1366046,114,,evan-feature22,full_pf_a,,1
79,42361,115,,,,2,2,0.0,1.0,0.0,-1.0,,0.0-107.0,,-1.0,705.62,1.0,0.465104323,1.0,0.530793115,0.0,0.75,1.0,0.31683071,False,,5e7c7bf3ca18002bd9cf6eca,,1376510,115,,evan-feature22,full_pf_a,,1
80,42362,116,,,,1,1,1.0,0.0,1.0,0.0,,0.0-108.0,,1.0,368.95,1.0,0.465104323,0.0,0.530793115,1.0,0.75,0.0,0.31683071,False,,5e7c7bf3ca18002bd9cf6eca,,1386639,116,,evan-feature22,full_pf_a,,1
81,42363,117,,,,1,1,0.0,1.0,1.0,0.0,,0.0-109.0,,0.0,528.51,0.0,0.46833986,1.0,0.570249239,1.0,0.7244472590000001,0.0,0.364114163,False,,5e7c7bf3ca18002bd9cf6eca,,1396927,117,,evan-feature22,full_pf_a,,0
82,42364,118,,,,2,2,0.0,0.0,1.0,0.0,,0.0-110.0,,0.0,704.945,1.0,0.445444024,1.0,0.649673355,0.0,0.6845441290000001,0.0,0.300660449,False,,5e7c7bf3ca18002bd9cf6eca,,1407391,118,,evan-feature22,full_pf_a,,1
83,42365,119,,,,1,1,0.0,1.0,1.0,0.0,,0.0-111.0,,0.0,704.25,0.0,0.39909721299999995,1.0,0.6715179509999999,1.0,0.742310028,0.0,0.35496088299999995,False,,5e7c7bf3ca18002bd9cf6eca,,1417857,119,,evan-feature22,full_pf_a,,1
84,42366,120,,,,2,2,1.0,0.0,0.0,-1.0,,0.0-112.0,,0.0,926.0,0.0,0.37956104799999996,0.0,0.694725302,1.0,0.7181651309999999,0.0,0.38726906299999997,False,,5e7c7bf3ca18002bd9cf6eca,,1428542,120,,evan-feature22,full_pf_a,,1
85,42367,121,,,,1,1,1.0,1.0,0.0,-1.0,,0.0-113.0,,-1.0,496.905,1.0,0.404995034,1.0,0.724375412,0.0,0.6910946859999999,0.0,0.387187347,False,,5e7c7bf3ca18002bd9cf6eca,,1438800,121,,evan-feature22,full_pf_a,,1
86,42368,122,,,,2,2,1.0,1.0,1.0,0.0,,0.0-114.0,,1.0,239.65,1.0,0.461740803,1.0,0.75,1.0,0.75,1.0,0.34872038200000005,False,,5e7c7bf3ca18002bd9cf6eca,,1448800,122,,evan-feature22,full_pf_a,,1
87,42369,123,,,,1,1,1.0,1.0,1.0,0.0,,0.0-115.0,,1.0,240.095,1.0,0.43821380600000004,1.0,0.738833273,1.0,0.728286963,0.0,0.399538128,False,,5e7c7bf3ca18002bd9cf6eca,,1458799,123,,evan-feature22,full_pf_a,,1
88,42370,124,,,,2,2,1.0,0.0,0.0,-1.0,,0.0-116.0,,0.0,832.75,1.0,0.41709882,1.0,0.736666736,1.0,0.75,0.0,0.389095584,False,,5e7c7bf3ca18002bd9cf6eca,,1469390,124,,evan-feature22,full_pf_a,,1
89,42371,125,,,,1,1,0.0,1.0,0.0,-1.0,,0.0-117.0,,-1.0,496.775,0.0,0.39749009799999996,1.0,0.744320029,1.0,0.75,0.0,0.363848678,False,,5e7c7bf3ca18002bd9cf6eca,,1479648,125,,evan-feature22,full_pf_a,,1
90,42372,126,,,,1,1,0.0,0.0,1.0,0.0,,0.0-118.0,,0.0,911.86,0.0,0.392653706,0.0,0.75,1.0,0.75,0.0,0.384386976,False,,5e7c7bf3ca18002bd9cf6eca,,1490320,126,,evan-feature22,full_pf_a,,0
91,42373,127,,,,1,1,1.0,0.0,0.0,-1.0,,0.0-119.0,,0.0,367.94,1.0,0.31190902600000003,0.0,0.75,0.0,0.732413819,1.0,0.413082932,False,,5e7c7bf3ca18002bd9cf6eca,,1500446,127,,evan-feature22,full_pf_a,,0
92,42374,128,,,,1,1,1.0,1.0,1.0,0.0,,0.0-120.0,,1.0,290.395,1.0,0.366917648,1.0,0.740073855,1.0,0.75,0.0,0.352861979,False,,5e7c7bf3ca18002bd9cf6eca,,1510497,128,,evan-feature22,full_pf_a,,0
93,42375,129,,,,1,1,1.0,1.0,1.0,0.0,,0.0-121.0,,1.0,286.87,1.0,0.3645172,1.0,0.721770713,1.0,0.75,0.0,0.404074511,False,,5e7c7bf3ca18002bd9cf6eca,,1520543,129,,evan-feature22,full_pf_a,,0
94,42376,130,,,,1,1,0.0,1.0,1.0,0.0,,0.0-122.0,,0.0,257.35,0.0,0.35205600299999995,1.0,0.68983859,1.0,0.739735447,0.0,0.366895945,False,,5e7c7bf3ca18002bd9cf6eca,,1530561,130,,evan-feature22,full_pf_a,,0
95,42377,131,,,,2,2,1.0,0.0,1.0,0.0,,0.0-123.0,,1.0,575.47,1.0,0.40998722600000004,1.0,0.720859127,1.0,0.673854955,0.0,0.368528541,False,,5e7c7bf3ca18002bd9cf6eca,,1540894,131,,evan-feature22,full_pf_a,,1
96,42378,132,,,,1,1,0.0,1.0,1.0,0.0,,0.0-124.0,,0.0,353.255,0.0,0.353625316,1.0,0.75,0.0,0.695605473,1.0,0.38303674200000004,False,,5e7c7bf3ca18002bd9cf6eca,,1551007,132,,evan-feature22,full_pf_a,,1
97,42379,133,,,,1,1,1.0,0.0,1.0,0.0,,0.0-125.0,,1.0,16.375,1.0,0.359216989,0.0,0.75,1.0,0.6987915090000001,0.0,0.35169046200000004,False,,5e7c7bf3ca18002bd9cf6eca,,1560783,133,,evan-feature22,full_pf_a,,0
98,42380,134,,,,2,2,1.0,0.0,1.0,0.0,,0.0-126.0,,1.0,384.66,1.0,0.35834496899999996,1.0,0.75,1.0,0.707067742,0.0,0.416763636,False,,5e7c7bf3ca18002bd9cf6eca,,1570926,134,,evan-feature22,full_pf_a,,1
99,42381,135,,,,2,2,0.0,0.0,0.0,-1.0,,0.0-127.0,,0.0,241.93,1.0,0.38741613799999997,1.0,0.7177369570000001,0.0,0.734902455,0.0,0.49438664299999996,False,,5e7c7bf3ca18002bd9cf6eca,,1580926,135,,evan-feature22,full_pf_a,,0
100,42382,136,,,,1,1,1.0,0.0,1.0,0.0,,0.0-128.0,,1.0,144.845,1.0,0.405255252,0.0,0.7300466640000001,1.0,0.7027748070000001,0.0,0.504359668,False,,5e7c7bf3ca18002bd9cf6eca,,1590830,136,,evan-feature22,full_pf_a,,1
101,42383,137,,,,2,2,1.0,1.0,1.0,0.0,,0.0-129.0,,1.0,431.805,1.0,0.40697073,1.0,0.7260142190000001,1.0,0.724461982,1.0,0.522779179,False,,5e7c7bf3ca18002bd9cf6eca,,1601023,137,,evan-feature22,full_pf_a,,1
102,42384,138,,,,2,2,1.0,1.0,1.0,0.0,,0.0-130.0,,1.0,351.89,0.0,0.43906215299999996,0.0,0.7252802340000001,1.0,0.719079934,1.0,0.5712990579999999,False,,5e7c7bf3ca18002bd9cf6eca,,1611136,138,,evan-feature22,full_pf_a,,0
103,42385,139,,,,1,1,0.0,1.0,0.0,-1.0,,0.0-131.0,,-1.0,561.195,0.0,0.4076705,1.0,0.73280499,0.0,0.681313127,0.0,0.523891346,False,,5e7c7bf3ca18002bd9cf6eca,,1621455,139,,evan-feature22,full_pf_a,,1
104,42386,140,,,,1,1,1.0,1.0,0.0,-1.0,,0.0-132.0,,-1.0,320.645,1.0,0.399102911,1.0,0.730498344,0.0,0.661080239,1.0,0.46742603,False,,5e7c7bf3ca18002bd9cf6eca,,1631536,140,,evan-feature22,full_pf_a,,0
105,42387,141,,,,1,1,1.0,1.0,0.0,-1.0,,0.0-133.0,,-1.0,576.02,1.0,0.356477282,1.0,0.712296395,1.0,0.641812684,0.0,0.44868414,False,,5e7c7bf3ca18002bd9cf6eca,,1641872,141,,evan-feature22,full_pf_a,,0
106,42388,142,,,,2,2,1.0,0.0,1.0,0.0,,0.0-134.0,,1.0,608.38,1.0,0.462760722,0.0,0.692349322,1.0,0.700947931,0.0,0.394680266,False,,5e7c7bf3ca18002bd9cf6eca,,1652238,142,,evan-feature22,full_pf_a,,1
107,42389,143,,,,1,1,0.0,1.0,1.0,0.0,,0.0-135.0,,0.0,753.82,0.0,0.422306413,1.0,0.718375916,0.0,0.706340917,1.0,0.367787185,False,,5e7c7bf3ca18002bd9cf6eca,,1662749,143,,evan-feature22,full_pf_a,,1
108,42391,145,,,,1,1,1.0,1.0,1.0,0.0,,0.0-137.0,,1.0,77.92,1.0,0.4582233,1.0,0.643834117,1.0,0.75,0.0,0.39615823299999997,False,,5e7c7bf3ca18002bd9cf6eca,,1674511,145,,evan-feature22,full_pf_a,,0
109,42392,146,,,,1,1,0.0,1.0,1.0,0.0,,0.0-138.0,,0.0,353.685,0.0,0.43813437899999996,1.0,0.651283804,1.0,0.729674191,0.0,0.37711048,False,,5e7c7bf3ca18002bd9cf6eca,,1684624,146,,evan-feature22,full_pf_a,,0
110,42393,147,,,,1,1,1.0,0.0,1.0,0.0,,0.0-139.0,,1.0,432.9,1.0,0.471199094,0.0,0.6470010979999999,1.0,0.715008097,0.0,0.410656191,False,,5e7c7bf3ca18002bd9cf6eca,,1694814,147,,evan-feature22,full_pf_a,,0
111,42394,148,,,,1,1,0.0,1.0,1.0,0.0,,0.0-140.0,,0.0,705.545,0.0,0.42486406,1.0,0.629771829,1.0,0.6550939960000001,0.0,0.459093873,False,,5e7c7bf3ca18002bd9cf6eca,,1705279,148,,evan-feature22,full_pf_a,,0
112,42395,149,,,,2,2,1.0,1.0,1.0,0.0,,0.0-141.0,,1.0,544.85,1.0,0.4803197,1.0,0.645842715,1.0,0.6421749920000001,1.0,0.443092151,False,,5e7c7bf3ca18002bd9cf6eca,,1715584,149,,evan-feature22,full_pf_a,,1
113,42396,150,,,,1,1,0.0,0.0,0.0,-1.0,,0.0-142.0,,0.0,640.24,0.0,0.521848997,0.0,0.735801074,1.0,0.6691348460000001,1.0,0.45259351600000003,False,,5e7c7bf3ca18002bd9cf6eca,,1725982,150,,evan-feature22,full_pf_a,,1
114,42397,151,,,,2,2,1.0,1.0,1.0,0.0,,0.0-143.0,,1.0,353.705,1.0,0.49565621299999996,1.0,0.742400847,1.0,0.661512553,1.0,0.483110831,False,,5e7c7bf3ca18002bd9cf6eca,,1736096,151,,evan-feature22,full_pf_a,,1
115,42398,152,,,,1,1,1.0,1.0,1.0,0.0,,0.0-144.0,,1.0,240.825,1.0,0.521564361,1.0,0.731078632,0.0,0.6774886809999999,0.0,0.483263956,False,,5e7c7bf3ca18002bd9cf6eca,,1746096,152,,evan-feature22,full_pf_a,,1
116,42399,153,,,,1,1,0.0,1.0,1.0,0.0,,0.0-145.0,,0.0,528.575,0.0,0.558893102,1.0,0.719810023,1.0,0.67461031,1.0,0.499349834,False,,5e7c7bf3ca18002bd9cf6eca,,1756383,153,,evan-feature22,full_pf_a,,0
117,42400,154,,,,1,1,1.0,0.0,1.0,0.0,,0.0-146.0,,1.0,528.825,1.0,0.611031046,0.0,0.75,1.0,0.688072995,1.0,0.5321422729999999,False,,5e7c7bf3ca18002bd9cf6eca,,1766672,154,,evan-feature22,full_pf_a,,0
118,42401,155,,,,2,2,1.0,0.0,0.0,-1.0,,0.0-147.0,,0.0,256.415,1.0,0.633223941,1.0,0.713567728,1.0,0.75,0.0,0.48185314700000004,False,,5e7c7bf3ca18002bd9cf6eca,,1776688,155,,evan-feature22,full_pf_a,,1
119,42402,156,,,,1,1,0.0,1.0,1.0,0.0,,0.0-148.0,,0.0,335.615,0.0,0.664001694,1.0,0.705509768,1.0,0.75,0.0,0.500211065,False,,5e7c7bf3ca18002bd9cf6eca,,1786782,156,,evan-feature22,full_pf_a,,1
120,42403,157,,,,1,1,0.0,1.0,1.0,0.0,,0.0-149.0,,0.0,321.22,0.0,0.664001694,1.0,0.705509768,0.0,0.75,1.0,0.500211065,False,,5e7c7bf3ca18002bd9cf6eca,,1796865,157,,evan-feature22,full_pf_a,,0
121,42404,158,,,,1,1,1.0,1.0,1.0,0.0,,0.0-150.0,,1.0,253.605,1.0,0.696508041,1.0,0.71066027,1.0,0.717028709,0.0,0.49792991,False,,5e7c7bf3ca18002bd9cf6eca,,1806880,158,,evan-feature22,full_pf_a,,0
122,42405,159,,,,1,1,1.0,1.0,0.0,-1.0,,0.0-151.0,,-1.0,321.135,1.0,0.699883272,1.0,0.75,0.0,0.713543895,1.0,0.496962643,False,,5e7c7bf3ca18002bd9cf6eca,,1816960,159,,evan-feature22,full_pf_a,,0
123,42406,160,,,,1,1,0.0,0.0,0.0,-1.0,,0.0-152.0,,0.0,383.755,0.0,0.741163419,0.0,0.75,1.0,0.64691024,1.0,0.513858197,False,,5e7c7bf3ca18002bd9cf6eca,,1827103,160,,evan-feature22,full_pf_a,,0
124,42407,161,,,,2,2,0.0,1.0,0.0,-1.0,,0.0-153.0,,-1.0,849.995,1.0,0.75,0.0,0.70816558,0.0,0.594499079,1.0,0.48502124,False,,5e7c7bf3ca18002bd9cf6eca,,1837710,161,,evan-feature22,full_pf_a,,1
125,42408,162,,,,1,1,1.0,0.0,1.0,0.0,,0.0-154.0,,1.0,353.395,1.0,0.75,0.0,0.721848901,1.0,0.62197249,0.0,0.48263586399999997,False,,5e7c7bf3ca18002bd9cf6eca,,1847823,162,,evan-feature22,full_pf_a,,1
126,42409,163,,,,1,1,1.0,1.0,1.0,0.0,,0.0-155.0,,1.0,384.805,1.0,0.75,1.0,0.74813071,1.0,0.584357161,0.0,0.411477782,False,,5e7c7bf3ca18002bd9cf6eca,,1857968,163,,evan-feature22,full_pf_a,,0
127,42410,164,,,,2,2,0.0,0.0,1.0,0.0,,0.0-156.0,,0.0,304.395,1.0,0.75,1.0,0.75,0.0,0.52287236,0.0,0.488290656,False,,5e7c7bf3ca18002bd9cf6eca,,1868031,164,,evan-feature22,full_pf_a,,1
128,42411,165,,,,2,2,1.0,0.0,1.0,0.0,,0.0-157.0,,1.0,353.695,1.0,0.75,1.0,0.75,1.0,0.544321581,0.0,0.53143059,False,,5e7c7bf3ca18002bd9cf6eca,,1878143,165,,evan-feature22,full_pf_a,,0
129,42412,166,,,,2,2,1.0,0.0,1.0,0.0,,0.0-158.0,,1.0,465.945,0.0,0.726754564,0.0,0.75,1.0,0.5129306370000001,0.0,0.530592445,False,,5e7c7bf3ca18002bd9cf6eca,,1888368,166,,evan-feature22,full_pf_a,,0
130,42413,167,,,,2,2,0.0,0.0,0.0,-1.0,,0.0-159.0,,0.0,527.095,1.0,0.75,1.0,0.7392590729999999,0.0,0.479875835,0.0,0.547007051,False,,5e7c7bf3ca18002bd9cf6eca,,1898654,167,,evan-feature22,full_pf_a,,0
131,42414,168,,,,1,1,1.0,1.0,0.0,-1.0,,0.0-160.0,,-1.0,337.785,1.0,0.75,1.0,0.7393376979999999,1.0,0.546045419,1.0,0.541267353,False,,5e7c7bf3ca18002bd9cf6eca,,1908751,168,,evan-feature22,full_pf_a,,1
132,42415,169,,,,1,1,0.0,0.0,1.0,0.0,,0.0-161.0,,0.0,385.295,0.0,0.75,0.0,0.75,1.0,0.485725895,0.0,0.527625395,False,,5e7c7bf3ca18002bd9cf6eca,,1918896,169,,evan-feature22,full_pf_a,,0
133,42416,170,,,,2,2,0.0,0.0,0.0,-1.0,,0.0-162.0,,0.0,337.695,1.0,0.75,1.0,0.725087974,0.0,0.488603595,0.0,0.504019206,False,,5e7c7bf3ca18002bd9cf6eca,,1928991,170,,evan-feature22,full_pf_a,,1
134,42417,171,,,,2,2,1.0,1.0,1.0,0.0,,0.0-163.0,,1.0,290.145,1.0,0.745504295,1.0,0.75,1.0,0.452379914,1.0,0.50131194,False,,5e7c7bf3ca18002bd9cf6eca,,1939041,171,,evan-feature22,full_pf_a,,0
135,42418,172,,,,1,1,1.0,0.0,0.0,-1.0,,0.0-164.0,,0.0,256.11,1.0,0.728513874,0.0,0.75,0.0,0.44125567200000004,0.0,0.531454591,False,,5e7c7bf3ca18002bd9cf6eca,,1949056,172,,evan-feature22,full_pf_a,,1
136,42419,173,,,,2,2,0.0,0.0,1.0,0.0,,0.0-165.0,,0.0,352.955,1.0,0.73790804,1.0,0.75,0.0,0.413036656,0.0,0.524619035,False,,5e7c7bf3ca18002bd9cf6eca,,1959166,173,,evan-feature22,full_pf_a,,1
137,42420,174,,,,2,2,0.0,0.0,1.0,0.0,,0.0-166.0,,0.0,290.595,1.0,0.7080961309999999,0.0,0.708666865,0.0,0.431915581,0.0,0.481819489,False,,5e7c7bf3ca18002bd9cf6eca,,1969215,174,,evan-feature22,full_pf_a,,0
138,42421,175,,,,1,1,1.0,1.0,1.0,0.0,,0.0-167.0,,1.0,448.955,1.0,0.721378003,1.0,0.71605913,0.0,0.36642387,0.0,0.5036739929999999,False,,5e7c7bf3ca18002bd9cf6eca,,1979423,175,,evan-feature22,full_pf_a,,1
139,42422,176,,,,2,2,0.0,0.0,0.0,-1.0,,0.0-168.0,,0.0,193.925,1.0,0.7340618959999999,0.0,0.699323252,0.0,0.35298046299999997,0.0,0.511241692,False,,5e7c7bf3ca18002bd9cf6eca,,1989375,176,,evan-feature22,full_pf_a,,1
140,42423,177,,,,2,2,1.0,0.0,0.0,-1.0,,0.0-169.0,,0.0,273.97,1.0,0.75,0.0,0.70412698,1.0,0.380734814,0.0,0.529580116,False,,5e7c7bf3ca18002bd9cf6eca,,1999408,177,,evan-feature22,full_pf_a,,0
141,42424,178,,,,1,1,0.0,0.0,0.0,-1.0,,0.0-170.0,,0.0,208.09,0.0,0.7436654909999999,0.0,0.711182751,1.0,0.41125331,0.0,0.49554405,False,,5e7c7bf3ca18002bd9cf6eca,,2009376,178,,evan-feature22,full_pf_a,,1
142,42425,179,,,,1,1,0.0,1.0,1.0,0.0,,0.0-171.0,,0.0,608.7,0.0,0.731607915,1.0,0.651774583,0.0,0.35688023,0.0,0.45194491600000003,False,,5e7c7bf3ca18002bd9cf6eca,,2019743,179,,evan-feature22,full_pf_a,,0
143,42426,180,,,,1,1,1.0,1.0,0.0,-1.0,,0.0-172.0,,-1.0,354.04,1.0,0.75,1.0,0.75,0.0,0.283145374,0.0,0.528608005,False,,5e7c7bf3ca18002bd9cf6eca,,2029856,180,,evan-feature22,full_pf_a,,0
144,42427,181,,,,2,2,1.0,1.0,1.0,0.0,,0.0-173.0,,1.0,431.53,1.0,0.7491416890000001,1.0,0.7423785959999999,1.0,0.29135870399999997,1.0,0.498888318,False,,5e7c7bf3ca18002bd9cf6eca,,2040049,181,,evan-feature22,full_pf_a,,1
145,42428,182,,,,2,2,1.0,1.0,0.0,-1.0,,0.0-174.0,,-1.0,320.85,1.0,0.708569387,1.0,0.717682277,1.0,0.294421699,1.0,0.493838163,False,,5e7c7bf3ca18002bd9cf6eca,,2050130,182,,evan-feature22,full_pf_a,,0
146,42429,183,,,,1,1,1.0,1.0,1.0,0.0,,0.0-175.0,,1.0,319.54,1.0,0.75,1.0,0.7383382159999999,0.0,0.356098707,0.0,0.442533405,False,,5e7c7bf3ca18002bd9cf6eca,,2060209,183,,evan-feature22,full_pf_a,,1
147,42430,184,,,,1,1,1.0,0.0,1.0,0.0,,0.0-176.0,,1.0,575.94,1.0,0.744527075,0.0,0.75,0.0,0.334127506,0.0,0.393165805,False,,5e7c7bf3ca18002bd9cf6eca,,2070544,184,,evan-feature22,full_pf_a,,0
148,42431,185,,,,1,1,1.0,1.0,1.0,0.0,,0.0-177.0,,1.0,336.44,1.0,0.75,1.0,0.75,1.0,0.33571021799999995,0.0,0.350393962,False,,5e7c7bf3ca18002bd9cf6eca,,2080642,185,,evan-feature22,full_pf_a,,0
149,42432,186,,,,1,1,0.0,1.0,0.0,-1.0,,0.0-178.0,,-1.0,574.455,0.0,0.75,1.0,0.75,1.0,0.313628297,0.0,0.36349657399999996,False,,5e7c7bf3ca18002bd9cf6eca,,2090977,186,,evan-feature22,full_pf_a,,0
150,42433,187,,,,2,2,0.0,1.0,1.0,0.0,,0.0-179.0,,0.0,335.13,1.0,0.75,0.0,0.734284182,0.0,0.262667667,1.0,0.380199119,False,,5e7c7bf3ca18002bd9cf6eca,,2101072,187,,evan-feature22,full_pf_a,,1
151,42434,188,,,,1,1,0.0,1.0,1.0,0.0,,0.0-180.0,,0.0,95.225,0.0,0.75,1.0,0.75,0.0,0.25,0.0,0.394494013,False,,5e7c7bf3ca18002bd9cf6eca,,2110927,188,,evan-feature22,full_pf_a,,1
152,42435,189,,,,1,1,1.0,1.0,1.0,0.0,,0.0-181.0,,1.0,401.675,1.0,0.722298145,1.0,0.7357822340000001,0.0,0.25,0.0,0.319142121,False,,5e7c7bf3ca18002bd9cf6eca,,2121088,189,,evan-feature22,full_pf_a,,0
153,42436,190,,,,1,1,1.0,1.0,1.0,0.0,,0.0-182.0,,1.0,529.355,1.0,0.73149275,1.0,0.724276446,0.0,0.305856907,0.0,0.281315057,False,,5e7c7bf3ca18002bd9cf6eca,,2131375,190,,evan-feature22,full_pf_a,,0
154,42437,191,,,,2,2,0.0,1.0,1.0,0.0,,0.0-183.0,,0.0,321.77,1.0,0.7458732690000001,0.0,0.7336382459999999,0.0,0.272571964,1.0,0.266021999,False,,5e7c7bf3ca18002bd9cf6eca,,2141455,191,,evan-feature22,full_pf_a,,1
155,42438,192,,,,2,2,1.0,0.0,0.0,-1.0,,0.0-184.0,,0.0,321.295,1.0,0.705579037,1.0,0.720778292,1.0,0.320238144,0.0,0.30971744,False,,5e7c7bf3ca18002bd9cf6eca,,2151536,192,,evan-feature22,full_pf_a,,0
156,42439,193,,,,1,1,1.0,1.0,0.0,-1.0,,0.0-185.0,,-1.0,305.45,1.0,0.700425648,1.0,0.7198784009999999,0.0,0.272590393,0.0,0.304182931,False,,5e7c7bf3ca18002bd9cf6eca,,2161600,193,,evan-feature22,full_pf_a,,1
157,42440,194,,,,1,1,1.0,1.0,0.0,-1.0,,0.0-186.0,,-1.0,544.01,1.0,0.735590785,1.0,0.722714973,0.0,0.25,0.0,0.323421091,False,,5e7c7bf3ca18002bd9cf6eca,,2171905,194,,evan-feature22,full_pf_a,,0
158,42441,195,,,,2,2,1.0,0.0,0.0,-1.0,,0.0-187.0,,0.0,302.67,1.0,0.724807662,1.0,0.63146213,1.0,0.36836492600000004,0.0,0.34592153299999995,False,,5e7c7bf3ca18002bd9cf6eca,,2181967,195,,evan-feature22,full_pf_a,,1
159,42442,196,,,,2,2,1.0,0.0,1.0,0.0,,0.0-188.0,,1.0,48.77,0.0,0.7352796909999999,0.0,0.555111392,1.0,0.36003922,0.0,0.31433779999999995,False,,5e7c7bf3ca18002bd9cf6eca,,2191775,196,,evan-feature22,full_pf_a,,0
160,42443,197,notice,,,,,,,,,,0.0-189.0,"{""Q0"":""Very little different, ""}",,19498.0,,,,,,,,,False,,5e7c7bf3ca18002bd9cf6eca,,2211275,197,Q,survey-text,full_pf_a,,1
161,42444,198,track1,,[0],,,,,,,,0.0-190.0,"{""Q0"":""yes""}",,5918.0,,,,,,,,,False,,5e7c7bf3ca18002bd9cf6eca,,2217196,198,Q,evan-quiz,full_pf_a,,1
162,42445,199,track2,,[1],,,,,,,,0.0-191.0,"{""Q0"":""no""}",,5451.0,,,,,,,,,False,,5e7c7bf3ca18002bd9cf6eca,,2222652,199,Q,evan-quiz,full_pf_a,,1
163,42446,200,strat,,,,,,,,,,0.0-192.0,"{""Q0"":""To begin with i tried to gauge which door was resulting in more positive points then it developed to become more alternative as it appeared some of response would result in negative points.""}",,59713.0,,,,,,,,,False,,5e7c7bf3ca18002bd9cf6eca,,2282371,200,Q,survey-text,full_pf_a,,1
