,index,Unnamed: 0,Q_name,button_pressed,choice_idxs,chosen_pos,chosen_state,chosen_state_f_1_outcome,chosen_state_f_2_outcome,f_1_reward,f_2_reward,incor_questions,internal_node_id,responses,reward_received,rt,s_1_f_1_outcome,s_1_f_1_prob,s_1_f_2_outcome,s_1_f_2_prob,s_2_f_1_outcome,s_2_f_1_prob,s_2_f_2_outcome,s_2_f_2_prob,safe_first,stimulus,subjectID,success,time_elapsed,trial_index,trial_num,trial_type,version,view_history,switching
0,39944,35,,,,1,1,0.0,1.0,0.0,-1.0,,0.0-27.0,,-1.0,2397.31,0.0,0.6,1.0,0.6,0.0,0.4,0.0,0.4,False,,5f846dd4e962ce0bf61b95fb,,700797,35,,evan-feature22,full_pf_a,,0
1,39945,36,,,,2,2,0.0,0.0,0.0,-1.0,,0.0-28.0,,0.0,2297.995,0.0,0.608053294,0.0,0.63424552,0.0,0.397152172,0.0,0.347069101,False,,5f846dd4e962ce0bf61b95fb,,712876,36,,evan-feature22,full_pf_a,,1
2,39946,37,,,,2,2,0.0,0.0,0.0,-1.0,,0.0-29.0,,0.0,2444.165,0.0,0.642237155,1.0,0.648566321,0.0,0.389407674,0.0,0.285525717,False,,5f846dd4e962ce0bf61b95fb,,725103,37,,evan-feature22,full_pf_a,,0
3,39947,38,,,,2,2,1.0,0.0,0.0,-1.0,,0.0-30.0,,0.0,1516.13,1.0,0.661086576,1.0,0.630492543,1.0,0.399058924,0.0,0.25,False,,5f846dd4e962ce0bf61b95fb,,736400,38,,evan-feature22,full_pf_a,,0
4,39948,39,,,,1,1,0.0,0.0,0.0,-1.0,,0.0-31.0,,0.0,1329.6,0.0,0.631324137,0.0,0.6269842929999999,1.0,0.38734784299999997,0.0,0.25,False,,5f846dd4e962ce0bf61b95fb,,747518,39,,evan-feature22,full_pf_a,,1
5,39949,40,,,,2,2,1.0,0.0,0.0,-1.0,,0.0-32.0,,0.0,1558.595,0.0,0.6381991370000001,1.0,0.68987999,1.0,0.384107265,0.0,0.271332943,False,,5f846dd4e962ce0bf61b95fb,,758859,40,,evan-feature22,full_pf_a,,1
6,39950,41,,,,2,2,0.0,0.0,0.0,-1.0,,0.0-33.0,,0.0,1233.48,0.0,0.66034901,1.0,0.742641349,0.0,0.360225629,0.0,0.25,False,,5f846dd4e962ce0bf61b95fb,,769861,41,,evan-feature22,full_pf_a,,0
7,39951,42,,,,1,1,1.0,1.0,1.0,0.0,,0.0-34.0,,1.0,1557.03,1.0,0.638612418,1.0,0.75,1.0,0.367273939,0.0,0.25,False,,5f846dd4e962ce0bf61b95fb,,781203,42,,evan-feature22,full_pf_a,,1
8,39952,43,,,,2,2,0.0,0.0,0.0,-1.0,,0.0-35.0,,0.0,2149.295,0.0,0.624340629,1.0,0.75,0.0,0.425829545,0.0,0.25,False,,5f846dd4e962ce0bf61b95fb,,793132,43,,evan-feature22,full_pf_a,,1
9,39953,44,,,,2,2,0.0,0.0,0.0,-1.0,,0.0-36.0,,0.0,2122.11,1.0,0.621999804,1.0,0.75,0.0,0.368609357,0.0,0.25,False,,5f846dd4e962ce0bf61b95fb,,805040,44,,evan-feature22,full_pf_a,,0
10,39954,45,,,,1,1,1.0,0.0,1.0,0.0,,0.0-37.0,,1.0,1409.62,1.0,0.62666403,0.0,0.75,0.0,0.311151498,0.0,0.25,False,,5f846dd4e962ce0bf61b95fb,,816230,45,,evan-feature22,full_pf_a,,1
11,39955,46,,,,1,1,1.0,1.0,1.0,0.0,,0.0-38.0,,1.0,921.05,1.0,0.6819650009999999,1.0,0.75,0.0,0.310763048,0.0,0.25,False,,5f846dd4e962ce0bf61b95fb,,826931,46,,evan-feature22,full_pf_a,,0
12,39956,47,,,,1,1,1.0,1.0,0.0,-1.0,,0.0-39.0,,-1.0,1079.505,1.0,0.740626951,1.0,0.75,0.0,0.25,0.0,0.25,False,,5f846dd4e962ce0bf61b95fb,,837787,47,,evan-feature22,full_pf_a,,0
13,39957,48,,,,2,2,0.0,1.0,0.0,-1.0,,0.0-40.0,,-1.0,1893.46,1.0,0.739599242,0.0,0.742034978,0.0,0.25397114600000004,1.0,0.25,False,,5f846dd4e962ce0bf61b95fb,,849464,48,,evan-feature22,full_pf_a,,1
14,39958,49,,,,1,1,1.0,1.0,0.0,-1.0,,0.0-41.0,,-1.0,994.52,1.0,0.732341315,1.0,0.72735643,0.0,0.25,0.0,0.25,False,,5f846dd4e962ce0bf61b95fb,,860241,49,,evan-feature22,full_pf_a,,1
15,39959,50,,,,1,1,1.0,1.0,0.0,-1.0,,0.0-42.0,,-1.0,1348.305,1.0,0.7062287770000001,1.0,0.75,0.0,0.29002151,0.0,0.288256649,False,,5f846dd4e962ce0bf61b95fb,,871369,50,,evan-feature22,full_pf_a,,0
16,39960,51,,,,1,1,1.0,1.0,1.0,0.0,,0.0-43.0,,1.0,1385.235,1.0,0.7086029209999999,1.0,0.75,0.0,0.274129113,0.0,0.262851608,False,,5f846dd4e962ce0bf61b95fb,,882531,51,,evan-feature22,full_pf_a,,0
17,39961,52,,,,2,2,0.0,1.0,0.0,-1.0,,0.0-44.0,,-1.0,1434.62,1.0,0.669189651,1.0,0.727614338,0.0,0.298444036,1.0,0.296944518,False,,5f846dd4e962ce0bf61b95fb,,893744,52,,evan-feature22,full_pf_a,,1
18,39962,53,,,,1,1,0.0,1.0,1.0,0.0,,0.0-45.0,,0.0,746.11,0.0,0.6819912929999999,1.0,0.7179434290000001,0.0,0.265003961,0.0,0.28157921199999997,False,,5f846dd4e962ce0bf61b95fb,,904270,53,,evan-feature22,full_pf_a,,1
19,39963,54,,,,1,1,0.0,0.0,1.0,0.0,,0.0-46.0,,0.0,2628.385,0.0,0.665275002,0.0,0.723065271,1.0,0.260414971,0.0,0.30973870000000003,False,,5f846dd4e962ce0bf61b95fb,,916685,54,,evan-feature22,full_pf_a,,0
20,39964,55,,,,2,2,0.0,0.0,0.0,-1.0,,0.0-47.0,,0.0,1690.46,0.0,0.6660593260000001,1.0,0.728032907,0.0,0.30922817,0.0,0.338778608,False,,5f846dd4e962ce0bf61b95fb,,928152,55,,evan-feature22,full_pf_a,,1
21,39965,56,,,,2,2,0.0,1.0,0.0,-1.0,,0.0-48.0,,-1.0,773.265,1.0,0.702068785,1.0,0.6528750879999999,0.0,0.287329608,1.0,0.35789613200000003,False,,5f846dd4e962ce0bf61b95fb,,938701,56,,evan-feature22,full_pf_a,,0
22,39966,57,,,,2,2,0.0,1.0,0.0,-1.0,,0.0-49.0,,-1.0,1497.86,1.0,0.651939787,1.0,0.636725589,0.0,0.284834488,1.0,0.358563756,False,,5f846dd4e962ce0bf61b95fb,,949989,57,,evan-feature22,full_pf_a,,0
23,39967,58,,,,1,1,0.0,1.0,0.0,-1.0,,0.0-50.0,,-1.0,2592.94,0.0,0.67573929,1.0,0.612550049,0.0,0.37130387600000003,0.0,0.383542402,False,,5f846dd4e962ce0bf61b95fb,,962361,58,,evan-feature22,full_pf_a,,1
24,39968,59,,,,2,2,0.0,0.0,0.0,-1.0,,0.0-51.0,,0.0,1455.93,1.0,0.620753801,1.0,0.60513644,0.0,0.385529434,0.0,0.340361743,False,,5f846dd4e962ce0bf61b95fb,,973594,59,,evan-feature22,full_pf_a,,1
25,39969,60,,,,1,1,1.0,0.0,1.0,0.0,,0.0-52.0,,1.0,1704.455,1.0,0.673564893,0.0,0.672437924,0.0,0.292955382,0.0,0.337633795,False,,5f846dd4e962ce0bf61b95fb,,985083,60,,evan-feature22,full_pf_a,,1
26,39970,61,,,,1,1,1.0,1.0,0.0,-1.0,,0.0-53.0,,-1.0,1223.435,1.0,0.6749427,1.0,0.724197502,1.0,0.32391132100000003,0.0,0.350995264,False,,5f846dd4e962ce0bf61b95fb,,996094,61,,evan-feature22,full_pf_a,,0
27,39971,62,,,,2,2,0.0,1.0,0.0,-1.0,,0.0-54.0,,-1.0,1006.44,0.0,0.6940159379999999,1.0,0.75,0.0,0.31710554399999996,1.0,0.413450341,False,,5f846dd4e962ce0bf61b95fb,,1006884,62,,evan-feature22,full_pf_a,,1
28,39972,63,,,,2,2,0.0,1.0,0.0,-1.0,,0.0-55.0,,-1.0,2977.19,1.0,0.6916018270000001,0.0,0.69001187,0.0,0.261817804,1.0,0.40038635,False,,5f846dd4e962ce0bf61b95fb,,1019646,63,,evan-feature22,full_pf_a,,0
29,39973,64,,,,1,1,0.0,1.0,0.0,-1.0,,0.0-56.0,,-1.0,733.865,0.0,0.641061544,1.0,0.71337992,0.0,0.277296461,1.0,0.47372791700000005,False,,5f846dd4e962ce0bf61b95fb,,1030148,64,,evan-feature22,full_pf_a,,1
30,39974,65,,,,1,1,1.0,0.0,0.0,-1.0,,0.0-57.0,,0.0,695.795,1.0,0.6082438520000001,0.0,0.708471106,1.0,0.28745137,0.0,0.564174476,False,,5f846dd4e962ce0bf61b95fb,,1040619,65,,evan-feature22,full_pf_a,,0
31,39975,66,,,,1,1,1.0,1.0,1.0,0.0,,0.0-58.0,,1.0,889.855,1.0,0.6051112120000001,1.0,0.7118147229999999,0.0,0.272390611,1.0,0.5595149939999999,False,,5f846dd4e962ce0bf61b95fb,,1051288,66,,evan-feature22,full_pf_a,,0
32,39976,67,,,,1,1,0.0,0.0,1.0,0.0,,0.0-59.0,,0.0,911.985,0.0,0.582420852,0.0,0.635867583,0.0,0.31089574,1.0,0.5227206520000001,False,,5f846dd4e962ce0bf61b95fb,,1061969,67,,evan-feature22,full_pf_a,,0
33,39977,68,,,,1,1,1.0,1.0,1.0,0.0,,0.0-60.0,,1.0,1896.9,1.0,0.623195575,1.0,0.655026044,1.0,0.25,1.0,0.560387538,False,,5f846dd4e962ce0bf61b95fb,,1073649,68,,evan-feature22,full_pf_a,,0
34,39978,69,,,,1,1,1.0,1.0,0.0,-1.0,,0.0-61.0,,-1.0,2055.425,1.0,0.601889598,1.0,0.678198724,0.0,0.25,0.0,0.559922936,False,,5f846dd4e962ce0bf61b95fb,,1085475,69,,evan-feature22,full_pf_a,,0
35,39979,70,,,,2,2,0.0,1.0,1.0,0.0,,0.0-62.0,,0.0,1487.74,1.0,0.601259914,1.0,0.704681482,0.0,0.33908969299999997,1.0,0.505003715,False,,5f846dd4e962ce0bf61b95fb,,1096737,70,,evan-feature22,full_pf_a,,1
36,39980,71,,,,1,1,0.0,1.0,1.0,0.0,,0.0-63.0,,0.0,2492.825,0.0,0.59645454,1.0,0.710437172,0.0,0.327441879,1.0,0.391749613,False,,5f846dd4e962ce0bf61b95fb,,1109017,71,,evan-feature22,full_pf_a,,1
37,39981,72,,,,2,2,1.0,0.0,0.0,-1.0,,0.0-64.0,,0.0,1288.995,1.0,0.529473,0.0,0.636758527,1.0,0.301338063,0.0,0.365661481,False,,5f846dd4e962ce0bf61b95fb,,1120084,72,,evan-feature22,full_pf_a,,1
38,39982,73,,,,2,2,0.0,0.0,1.0,0.0,,0.0-65.0,,0.0,1192.54,1.0,0.541657162,1.0,0.634541962,0.0,0.343535366,0.0,0.371763742,False,,5f846dd4e962ce0bf61b95fb,,1131059,73,,evan-feature22,full_pf_a,,0
39,39983,74,,,,1,1,1.0,0.0,1.0,0.0,,0.0-66.0,,1.0,2010.38,1.0,0.5707533260000001,0.0,0.589121171,0.0,0.326428396,1.0,0.43961622899999997,False,,5f846dd4e962ce0bf61b95fb,,1142842,74,,evan-feature22,full_pf_a,,1
40,39984,75,,,,1,1,1.0,0.0,0.0,-1.0,,0.0-67.0,,0.0,1453.925,1.0,0.5707533260000001,0.0,0.589121171,0.0,0.326428396,0.0,0.43961622899999997,False,,5f846dd4e962ce0bf61b95fb,,1154077,75,,evan-feature22,full_pf_a,,0
41,39985,76,,,,1,1,1.0,1.0,0.0,-1.0,,0.0-68.0,,-1.0,1214.525,1.0,0.506271295,1.0,0.641775594,1.0,0.37149690700000004,1.0,0.404330166,False,,5f846dd4e962ce0bf61b95fb,,1165077,76,,evan-feature22,full_pf_a,,0
42,39986,77,,,,2,2,0.0,0.0,1.0,0.0,,0.0-69.0,,0.0,2008.69,0.0,0.455642565,1.0,0.623605825,0.0,0.358753011,0.0,0.346174041,False,,5f846dd4e962ce0bf61b95fb,,1176854,77,,evan-feature22,full_pf_a,,1
43,39987,78,,,,2,2,1.0,1.0,0.0,-1.0,,0.0-70.0,,-1.0,1359.08,0.0,0.483677308,1.0,0.5904681070000001,1.0,0.402218411,1.0,0.35344697,False,,5f846dd4e962ce0bf61b95fb,,1187987,78,,evan-feature22,full_pf_a,,0
44,39988,79,,,,1,1,0.0,0.0,1.0,0.0,,0.0-71.0,,0.0,1385.02,0.0,0.394210977,0.0,0.558925494,1.0,0.540052017,1.0,0.35182128700000004,False,,5f846dd4e962ce0bf61b95fb,,1199153,79,,evan-feature22,full_pf_a,,1
45,39989,80,,,,1,1,0.0,1.0,0.0,-1.0,,0.0-72.0,,-1.0,1693.825,0.0,0.382300414,1.0,0.577670603,0.0,0.607608448,0.0,0.378261578,False,,5f846dd4e962ce0bf61b95fb,,1210626,80,,evan-feature22,full_pf_a,,0
46,39990,81,,,,2,2,1.0,0.0,1.0,0.0,,0.0-73.0,,1.0,1085.99,0.0,0.357596762,0.0,0.5929076529999999,1.0,0.6579790010000001,0.0,0.401326777,False,,5f846dd4e962ce0bf61b95fb,,1221490,81,,evan-feature22,full_pf_a,,1
47,39991,82,,,,2,2,0.0,0.0,0.0,-1.0,,0.0-74.0,,0.0,1090.625,0.0,0.362033495,0.0,0.582308608,0.0,0.649195052,0.0,0.355158505,False,,5f846dd4e962ce0bf61b95fb,,1232354,82,,evan-feature22,full_pf_a,,0
48,39992,83,,,,2,2,0.0,1.0,0.0,-1.0,,0.0-75.0,,-1.0,1374.235,0.0,0.369620635,1.0,0.669100864,0.0,0.706059111,1.0,0.362516241,False,,5f846dd4e962ce0bf61b95fb,,1243500,83,,evan-feature22,full_pf_a,,0
49,39993,84,,,,1,1,1.0,1.0,0.0,-1.0,,0.0-76.0,,-1.0,1328.675,1.0,0.41477751399999996,1.0,0.7284416779999999,1.0,0.7182656940000001,0.0,0.36228040899999997,False,,5f846dd4e962ce0bf61b95fb,,1254604,84,,evan-feature22,full_pf_a,,1
50,39994,85,,,,2,2,1.0,1.0,1.0,0.0,,0.0-77.0,,1.0,736.66,0.0,0.37675460299999997,1.0,0.703250285,1.0,0.75,1.0,0.461979164,False,,5f846dd4e962ce0bf61b95fb,,1265119,85,,evan-feature22,full_pf_a,,1
51,39995,86,,,,2,2,1.0,0.0,1.0,0.0,,0.0-78.0,,1.0,932.71,1.0,0.398716075,0.0,0.6723864890000001,1.0,0.674153818,0.0,0.519029516,False,,5f846dd4e962ce0bf61b95fb,,1275838,86,,evan-feature22,full_pf_a,,0
52,39996,87,,,,2,2,1.0,0.0,1.0,0.0,,0.0-79.0,,1.0,565.055,0.0,0.34677856700000004,1.0,0.69057175,1.0,0.6822438540000001,0.0,0.477292237,False,,5f846dd4e962ce0bf61b95fb,,1286185,87,,evan-feature22,full_pf_a,,0
53,39997,88,,,,2,2,1.0,1.0,0.0,-1.0,,0.0-80.0,,-1.0,1302.47,0.0,0.28580469199999997,0.0,0.68408818,1.0,0.684207565,1.0,0.49780448299999996,False,,5f846dd4e962ce0bf61b95fb,,1297261,88,,evan-feature22,full_pf_a,,0
54,39999,90,,,,1,1,1.0,0.0,0.0,-1.0,,0.0-82.0,,0.0,2204.21,1.0,0.25,0.0,0.7405808970000001,1.0,0.679614108,0.0,0.436436964,False,,5f846dd4e962ce0bf61b95fb,,1314781,90,,evan-feature22,full_pf_a,,1
55,40000,91,,,,1,1,0.0,0.0,0.0,-1.0,,0.0-83.0,,0.0,1216.88,0.0,0.29890393,0.0,0.730505706,1.0,0.7328203320000001,0.0,0.439256938,False,,5f846dd4e962ce0bf61b95fb,,1325783,91,,evan-feature22,full_pf_a,,0
56,40001,92,,,,2,2,0.0,0.0,1.0,0.0,,0.0-84.0,,0.0,1048.875,0.0,0.326762398,1.0,0.7148059609999999,0.0,0.75,0.0,0.44389608799999997,False,,5f846dd4e962ce0bf61b95fb,,1336618,92,,evan-feature22,full_pf_a,,1
57,40002,93,,,,2,2,1.0,1.0,0.0,-1.0,,0.0-85.0,,-1.0,1133.865,0.0,0.295168515,1.0,0.739760854,1.0,0.719947008,1.0,0.35277284600000003,False,,5f846dd4e962ce0bf61b95fb,,1347534,93,,evan-feature22,full_pf_a,,0
58,40003,94,,,,1,1,0.0,1.0,0.0,-1.0,,0.0-86.0,,-1.0,1838.77,0.0,0.25,1.0,0.70781482,0.0,0.75,0.0,0.286095925,False,,5f846dd4e962ce0bf61b95fb,,1359146,94,,evan-feature22,full_pf_a,,1
59,40004,95,,,,2,2,1.0,0.0,0.0,-1.0,,0.0-87.0,,0.0,1092.52,1.0,0.25638190899999996,0.0,0.704088163,1.0,0.75,0.0,0.26872601399999996,False,,5f846dd4e962ce0bf61b95fb,,1370020,95,,evan-feature22,full_pf_a,,1
60,40005,96,,,,1,1,0.0,1.0,1.0,0.0,,0.0-88.0,,0.0,934.235,0.0,0.271581126,1.0,0.669760107,1.0,0.733896663,1.0,0.273244572,False,,5f846dd4e962ce0bf61b95fb,,1380732,96,,evan-feature22,full_pf_a,,1
61,40006,97,,,,1,1,0.0,1.0,0.0,-1.0,,0.0-89.0,,-1.0,1655.135,0.0,0.257144401,1.0,0.600575706,1.0,0.74488122,0.0,0.25,False,,5f846dd4e962ce0bf61b95fb,,1392169,97,,evan-feature22,full_pf_a,,0
62,40007,98,,,,2,2,0.0,0.0,0.0,-1.0,,0.0-90.0,,0.0,632.255,0.0,0.25,1.0,0.616870026,0.0,0.723610234,0.0,0.25,False,,5f846dd4e962ce0bf61b95fb,,1402585,98,,evan-feature22,full_pf_a,,1
63,40008,99,,,,2,2,0.0,0.0,1.0,0.0,,0.0-91.0,,0.0,1645.155,0.0,0.25,1.0,0.583540187,0.0,0.7041042559999999,0.0,0.285961995,False,,5f846dd4e962ce0bf61b95fb,,1414007,99,,evan-feature22,full_pf_a,,0
64,40009,100,,,,2,2,1.0,0.0,1.0,0.0,,0.0-92.0,,1.0,1441.995,0.0,0.27254536,1.0,0.53875765,1.0,0.693783448,0.0,0.284961652,False,,5f846dd4e962ce0bf61b95fb,,1425221,100,,evan-feature22,full_pf_a,,0
65,40010,101,,,,2,2,1.0,0.0,1.0,0.0,,0.0-93.0,,1.0,1086.94,0.0,0.25,0.0,0.548431252,1.0,0.734221895,0.0,0.279445214,False,,5f846dd4e962ce0bf61b95fb,,1436094,101,,evan-feature22,full_pf_a,,0
66,40011,102,,,,2,2,1.0,0.0,0.0,-1.0,,0.0-94.0,,0.0,810.65,0.0,0.258640684,0.0,0.545878066,1.0,0.725245965,0.0,0.31487537,False,,5f846dd4e962ce0bf61b95fb,,1446687,102,,evan-feature22,full_pf_a,,0
67,40012,103,,,,2,2,0.0,0.0,0.0,-1.0,,0.0-95.0,,0.0,674.92,1.0,0.251103711,0.0,0.5776290629999999,0.0,0.696320133,0.0,0.317831047,False,,5f846dd4e962ce0bf61b95fb,,1457151,103,,evan-feature22,full_pf_a,,0
68,40013,104,,,,1,1,1.0,0.0,0.0,-1.0,,0.0-96.0,,0.0,678.495,1.0,0.276630292,0.0,0.617329858,1.0,0.73838088,1.0,0.261471582,False,,5f846dd4e962ce0bf61b95fb,,1467608,104,,evan-feature22,full_pf_a,,1
69,40014,105,,,,1,1,0.0,0.0,0.0,-1.0,,0.0-97.0,,0.0,1391.76,0.0,0.297716424,0.0,0.618863717,1.0,0.7402358259999999,0.0,0.262600834,False,,5f846dd4e962ce0bf61b95fb,,1478782,105,,evan-feature22,full_pf_a,,0
70,40015,106,,,,2,2,1.0,1.0,1.0,0.0,,0.0-98.0,,1.0,579.885,0.0,0.290935512,0.0,0.695370945,1.0,0.706570507,1.0,0.280030553,False,,5f846dd4e962ce0bf61b95fb,,1489148,106,,evan-feature22,full_pf_a,,1
71,40016,107,,,,1,1,0.0,1.0,0.0,-1.0,,0.0-99.0,,-1.0,984.055,0.0,0.25,1.0,0.6465277079999999,1.0,0.67766682,0.0,0.25,False,,5f846dd4e962ce0bf61b95fb,,1499911,107,,evan-feature22,full_pf_a,,1
72,40017,108,,,,2,2,1.0,0.0,1.0,0.0,,0.0-100.0,,1.0,826.21,0.0,0.26463816,1.0,0.636100213,1.0,0.646048507,0.0,0.265607101,False,,5f846dd4e962ce0bf61b95fb,,1510520,108,,evan-feature22,full_pf_a,,1
73,40018,109,,,,2,2,0.0,1.0,1.0,0.0,,0.0-101.0,,0.0,952.14,1.0,0.314340707,0.0,0.667795927,0.0,0.613630805,1.0,0.25,False,,5f846dd4e962ce0bf61b95fb,,1521258,109,,evan-feature22,full_pf_a,,0
74,40019,110,,,,1,1,1.0,1.0,0.0,-1.0,,0.0-102.0,,-1.0,1318.23,1.0,0.28685784,1.0,0.6622549529999999,1.0,0.652154117,1.0,0.25,False,,5f846dd4e962ce0bf61b95fb,,1532357,110,,evan-feature22,full_pf_a,,1
75,40020,111,,,,1,1,0.0,0.0,0.0,-1.0,,0.0-103.0,,0.0,1448.855,0.0,0.304106554,0.0,0.631289538,1.0,0.707041942,0.0,0.29314237,False,,5f846dd4e962ce0bf61b95fb,,1543592,111,,evan-feature22,full_pf_a,,0
76,40021,112,,,,2,2,0.0,0.0,0.0,-1.0,,0.0-104.0,,0.0,1093.12,0.0,0.304806932,0.0,0.571167718,0.0,0.680472346,0.0,0.25,False,,5f846dd4e962ce0bf61b95fb,,1554466,112,,evan-feature22,full_pf_a,,1
77,40022,113,,,,2,2,1.0,0.0,0.0,-1.0,,0.0-105.0,,0.0,1321.155,0.0,0.37919861,1.0,0.5724849710000001,1.0,0.705638003,0.0,0.30179300600000003,False,,5f846dd4e962ce0bf61b95fb,,1565571,113,,evan-feature22,full_pf_a,,0
78,40023,114,,,,2,2,0.0,0.0,0.0,-1.0,,0.0-106.0,,0.0,1154.54,0.0,0.464277969,0.0,0.554034373,0.0,0.7372627340000001,0.0,0.264699741,False,,5f846dd4e962ce0bf61b95fb,,1576514,114,,evan-feature22,full_pf_a,,0
79,40024,115,,,,2,2,1.0,0.0,0.0,-1.0,,0.0-107.0,,0.0,1308.91,1.0,0.465104323,1.0,0.530793115,1.0,0.75,0.0,0.31683071,False,,5f846dd4e962ce0bf61b95fb,,1587600,115,,evan-feature22,full_pf_a,,0
80,40025,116,,,,2,2,1.0,0.0,1.0,0.0,,0.0-108.0,,1.0,966.555,0.0,0.465104323,1.0,0.530793115,1.0,0.75,0.0,0.31683071,False,,5f846dd4e962ce0bf61b95fb,,1598342,116,,evan-feature22,full_pf_a,,0
81,40026,117,,,,2,2,1.0,0.0,1.0,0.0,,0.0-109.0,,1.0,544.15,0.0,0.46833986,1.0,0.570249239,1.0,0.7244472590000001,0.0,0.364114163,False,,5f846dd4e962ce0bf61b95fb,,1608663,117,,evan-feature22,full_pf_a,,0
82,40027,118,,,,2,2,1.0,0.0,1.0,0.0,,0.0-110.0,,1.0,1074.65,1.0,0.445444024,0.0,0.649673355,1.0,0.6845441290000001,0.0,0.300660449,False,,5f846dd4e962ce0bf61b95fb,,1619508,118,,evan-feature22,full_pf_a,,0
83,40028,119,,,,2,2,1.0,0.0,1.0,0.0,,0.0-111.0,,1.0,844.485,0.0,0.39909721299999995,1.0,0.6715179509999999,1.0,0.742310028,0.0,0.35496088299999995,False,,5f846dd4e962ce0bf61b95fb,,1630135,119,,evan-feature22,full_pf_a,,0
84,40029,120,,,,2,2,1.0,1.0,0.0,-1.0,,0.0-112.0,,-1.0,1127.04,1.0,0.37956104799999996,1.0,0.694725302,1.0,0.7181651309999999,1.0,0.38726906299999997,False,,5f846dd4e962ce0bf61b95fb,,1641030,120,,evan-feature22,full_pf_a,,0
85,40030,121,,,,2,2,0.0,1.0,0.0,-1.0,,0.0-113.0,,-1.0,772.52,0.0,0.404995034,0.0,0.724375412,0.0,0.6910946859999999,1.0,0.387187347,False,,5f846dd4e962ce0bf61b95fb,,1651582,121,,evan-feature22,full_pf_a,,0
86,40031,122,,,,1,1,0.0,1.0,1.0,0.0,,0.0-114.0,,0.0,932.83,0.0,0.461740803,1.0,0.75,0.0,0.75,0.0,0.34872038200000005,False,,5f846dd4e962ce0bf61b95fb,,1662299,122,,evan-feature22,full_pf_a,,1
87,40032,123,,,,2,2,0.0,0.0,1.0,0.0,,0.0-115.0,,0.0,1165.855,1.0,0.43821380600000004,1.0,0.738833273,0.0,0.728286963,0.0,0.399538128,False,,5f846dd4e962ce0bf61b95fb,,1673244,123,,evan-feature22,full_pf_a,,1
88,40033,124,,,,2,2,1.0,0.0,0.0,-1.0,,0.0-116.0,,0.0,2275.94,1.0,0.41709882,0.0,0.736666736,1.0,0.75,0.0,0.389095584,False,,5f846dd4e962ce0bf61b95fb,,1685298,124,,evan-feature22,full_pf_a,,0
89,40034,125,,,,2,2,1.0,0.0,0.0,-1.0,,0.0-117.0,,0.0,1631.53,0.0,0.39749009799999996,1.0,0.744320029,1.0,0.75,0.0,0.363848678,False,,5f846dd4e962ce0bf61b95fb,,1696707,125,,evan-feature22,full_pf_a,,0
90,40035,126,,,,2,2,1.0,0.0,1.0,0.0,,0.0-118.0,,1.0,1096.55,0.0,0.392653706,1.0,0.75,1.0,0.75,0.0,0.384386976,False,,5f846dd4e962ce0bf61b95fb,,1707586,126,,evan-feature22,full_pf_a,,0
91,40036,127,,,,2,2,1.0,0.0,0.0,-1.0,,0.0-119.0,,0.0,1612.255,0.0,0.31190902600000003,1.0,0.75,1.0,0.732413819,0.0,0.413082932,False,,5f846dd4e962ce0bf61b95fb,,1718984,127,,evan-feature22,full_pf_a,,0
92,40037,128,,,,2,2,0.0,0.0,1.0,0.0,,0.0-120.0,,0.0,1184.76,1.0,0.366917648,1.0,0.740073855,0.0,0.75,0.0,0.352861979,False,,5f846dd4e962ce0bf61b95fb,,1729949,128,,evan-feature22,full_pf_a,,0
93,40038,129,,,,1,1,0.0,1.0,1.0,0.0,,0.0-121.0,,0.0,1679.325,0.0,0.3645172,1.0,0.721770713,0.0,0.75,0.0,0.404074511,False,,5f846dd4e962ce0bf61b95fb,,1741410,129,,evan-feature22,full_pf_a,,1
94,40039,130,,,,1,1,1.0,1.0,1.0,0.0,,0.0-122.0,,1.0,743.31,1.0,0.35205600299999995,1.0,0.68983859,0.0,0.739735447,0.0,0.366895945,False,,5f846dd4e962ce0bf61b95fb,,1751935,130,,evan-feature22,full_pf_a,,0
95,40040,131,,,,1,1,0.0,1.0,1.0,0.0,,0.0-123.0,,0.0,504.285,0.0,0.40998722600000004,1.0,0.720859127,1.0,0.673854955,1.0,0.368528541,False,,5f846dd4e962ce0bf61b95fb,,1762228,131,,evan-feature22,full_pf_a,,0
96,40041,132,,,,2,2,1.0,0.0,1.0,0.0,,0.0-124.0,,1.0,777.24,0.0,0.353625316,0.0,0.75,1.0,0.695605473,0.0,0.38303674200000004,False,,5f846dd4e962ce0bf61b95fb,,1772788,132,,evan-feature22,full_pf_a,,1
97,40042,133,,,,2,2,1.0,1.0,1.0,0.0,,0.0-125.0,,1.0,1345.515,0.0,0.359216989,1.0,0.75,1.0,0.6987915090000001,1.0,0.35169046200000004,False,,5f846dd4e962ce0bf61b95fb,,1783917,133,,evan-feature22,full_pf_a,,0
98,40043,134,,,,2,2,1.0,1.0,1.0,0.0,,0.0-126.0,,1.0,1314.615,1.0,0.35834496899999996,1.0,0.75,1.0,0.707067742,1.0,0.416763636,False,,5f846dd4e962ce0bf61b95fb,,1795013,134,,evan-feature22,full_pf_a,,0
99,40044,135,,,,2,2,1.0,0.0,0.0,-1.0,,0.0-127.0,,0.0,2311.35,0.0,0.38741613799999997,1.0,0.7177369570000001,1.0,0.734902455,0.0,0.49438664299999996,False,,5f846dd4e962ce0bf61b95fb,,1807104,135,,evan-feature22,full_pf_a,,0
100,40045,136,,,,2,2,1.0,1.0,1.0,0.0,,0.0-128.0,,1.0,1007.25,1.0,0.405255252,1.0,0.7300466640000001,1.0,0.7027748070000001,1.0,0.504359668,False,,5f846dd4e962ce0bf61b95fb,,1817882,136,,evan-feature22,full_pf_a,,0
101,40046,137,,,,2,2,1.0,0.0,1.0,0.0,,0.0-129.0,,1.0,486.82,1.0,0.40697073,1.0,0.7260142190000001,1.0,0.724461982,0.0,0.522779179,False,,5f846dd4e962ce0bf61b95fb,,1828155,137,,evan-feature22,full_pf_a,,0
102,40047,138,,,,2,2,1.0,1.0,1.0,0.0,,0.0-130.0,,1.0,868.3,0.0,0.43906215299999996,0.0,0.7252802340000001,1.0,0.719079934,1.0,0.5712990579999999,False,,5f846dd4e962ce0bf61b95fb,,1838808,138,,evan-feature22,full_pf_a,,0
103,40048,139,,,,1,1,0.0,1.0,0.0,-1.0,,0.0-131.0,,-1.0,682.99,0.0,0.4076705,1.0,0.73280499,1.0,0.681313127,1.0,0.523891346,False,,5f846dd4e962ce0bf61b95fb,,1849271,139,,evan-feature22,full_pf_a,,1
104,40049,140,,,,2,2,1.0,0.0,0.0,-1.0,,0.0-132.0,,0.0,1952.21,1.0,0.399102911,1.0,0.730498344,1.0,0.661080239,0.0,0.46742603,False,,5f846dd4e962ce0bf61b95fb,,1861003,140,,evan-feature22,full_pf_a,,1
105,40050,141,,,,2,2,0.0,0.0,0.0,-1.0,,0.0-133.0,,0.0,1877.765,0.0,0.356477282,1.0,0.712296395,0.0,0.641812684,0.0,0.44868414,False,,5f846dd4e962ce0bf61b95fb,,1872656,141,,evan-feature22,full_pf_a,,0
106,40051,142,,,,2,2,1.0,1.0,1.0,0.0,,0.0-134.0,,1.0,1657.805,0.0,0.462760722,0.0,0.692349322,1.0,0.700947931,1.0,0.394680266,False,,5f846dd4e962ce0bf61b95fb,,1884098,142,,evan-feature22,full_pf_a,,0
107,40052,143,,,,2,2,1.0,0.0,1.0,0.0,,0.0-135.0,,1.0,1708.98,1.0,0.422306413,1.0,0.718375916,1.0,0.706340917,0.0,0.367787185,False,,5f846dd4e962ce0bf61b95fb,,1895575,143,,evan-feature22,full_pf_a,,0
108,40054,145,,,,1,1,1.0,1.0,1.0,0.0,,0.0-137.0,,1.0,2163.825,1.0,0.4582233,1.0,0.643834117,0.0,0.75,0.0,0.39615823299999997,False,,5f846dd4e962ce0bf61b95fb,,1921962,145,,evan-feature22,full_pf_a,,1
109,40055,146,,,,1,1,0.0,0.0,1.0,0.0,,0.0-138.0,,0.0,1423.075,0.0,0.43813437899999996,0.0,0.651283804,1.0,0.729674191,0.0,0.37711048,False,,5f846dd4e962ce0bf61b95fb,,1933169,146,,evan-feature22,full_pf_a,,0
110,40056,147,,,,2,2,1.0,1.0,1.0,0.0,,0.0-139.0,,1.0,778.555,0.0,0.471199094,0.0,0.6470010979999999,1.0,0.715008097,1.0,0.410656191,False,,5f846dd4e962ce0bf61b95fb,,1943728,147,,evan-feature22,full_pf_a,,1
111,40057,148,,,,2,2,1.0,0.0,1.0,0.0,,0.0-140.0,,1.0,1392.205,0.0,0.42486406,0.0,0.629771829,1.0,0.6550939960000001,0.0,0.459093873,False,,5f846dd4e962ce0bf61b95fb,,1954890,148,,evan-feature22,full_pf_a,,0
112,40058,149,,,,2,2,0.0,0.0,1.0,0.0,,0.0-141.0,,0.0,570.72,0.0,0.4803197,1.0,0.645842715,0.0,0.6421749920000001,0.0,0.443092151,False,,5f846dd4e962ce0bf61b95fb,,1965234,149,,evan-feature22,full_pf_a,,0
113,40059,150,,,,2,2,1.0,1.0,0.0,-1.0,,0.0-142.0,,-1.0,642.915,0.0,0.521848997,1.0,0.735801074,1.0,0.6691348460000001,1.0,0.45259351600000003,False,,5f846dd4e962ce0bf61b95fb,,1975654,150,,evan-feature22,full_pf_a,,0
114,40060,151,,,,1,1,1.0,1.0,1.0,0.0,,0.0-143.0,,1.0,1277.435,1.0,0.49565621299999996,1.0,0.742400847,1.0,0.661512553,0.0,0.483110831,False,,5f846dd4e962ce0bf61b95fb,,1986705,151,,evan-feature22,full_pf_a,,1
115,40061,152,,,,1,1,1.0,1.0,1.0,0.0,,0.0-144.0,,1.0,1954.75,1.0,0.521564361,1.0,0.731078632,0.0,0.6774886809999999,0.0,0.483263956,False,,5f846dd4e962ce0bf61b95fb,,1998438,152,,evan-feature22,full_pf_a,,0
116,40062,153,,,,1,1,1.0,0.0,1.0,0.0,,0.0-145.0,,1.0,1178.685,1.0,0.558893102,0.0,0.719810023,1.0,0.67461031,0.0,0.499349834,False,,5f846dd4e962ce0bf61b95fb,,2009397,153,,evan-feature22,full_pf_a,,0
117,40063,154,,,,2,2,1.0,1.0,1.0,0.0,,0.0-146.0,,1.0,1130.265,0.0,0.611031046,0.0,0.75,1.0,0.688072995,1.0,0.5321422729999999,False,,5f846dd4e962ce0bf61b95fb,,2020310,154,,evan-feature22,full_pf_a,,1
118,40064,155,,,,1,1,1.0,1.0,0.0,-1.0,,0.0-147.0,,-1.0,1223.865,1.0,0.633223941,1.0,0.713567728,1.0,0.75,0.0,0.48185314700000004,False,,5f846dd4e962ce0bf61b95fb,,2031305,155,,evan-feature22,full_pf_a,,1
119,40065,156,,,,2,2,0.0,1.0,1.0,0.0,,0.0-148.0,,0.0,1007.78,1.0,0.664001694,0.0,0.705509768,0.0,0.75,1.0,0.500211065,False,,5f846dd4e962ce0bf61b95fb,,2042095,156,,evan-feature22,full_pf_a,,1
120,40066,157,,,,1,1,1.0,0.0,1.0,0.0,,0.0-149.0,,1.0,664.875,1.0,0.664001694,0.0,0.705509768,1.0,0.75,0.0,0.500211065,False,,5f846dd4e962ce0bf61b95fb,,2052535,157,,evan-feature22,full_pf_a,,1
121,40067,158,,,,1,1,1.0,1.0,1.0,0.0,,0.0-150.0,,1.0,938.5,1.0,0.696508041,1.0,0.71066027,1.0,0.717028709,0.0,0.49792991,False,,5f846dd4e962ce0bf61b95fb,,2063254,158,,evan-feature22,full_pf_a,,0
122,40068,159,,,,2,2,0.0,0.0,0.0,-1.0,,0.0-151.0,,0.0,1197.175,1.0,0.699883272,1.0,0.75,0.0,0.713543895,0.0,0.496962643,False,,5f846dd4e962ce0bf61b95fb,,2074219,159,,evan-feature22,full_pf_a,,1
123,40069,160,,,,2,2,1.0,1.0,0.0,-1.0,,0.0-152.0,,-1.0,1322.415,1.0,0.741163419,1.0,0.75,1.0,0.64691024,1.0,0.513858197,False,,5f846dd4e962ce0bf61b95fb,,2085314,160,,evan-feature22,full_pf_a,,0
124,40070,161,,,,1,1,1.0,0.0,0.0,-1.0,,0.0-153.0,,0.0,744.685,1.0,0.75,0.0,0.70816558,0.0,0.594499079,1.0,0.48502124,False,,5f846dd4e962ce0bf61b95fb,,2095836,161,,evan-feature22,full_pf_a,,1
125,40071,162,,,,1,1,1.0,0.0,1.0,0.0,,0.0-154.0,,1.0,695.08,1.0,0.75,0.0,0.721848901,0.0,0.62197249,0.0,0.48263586399999997,False,,5f846dd4e962ce0bf61b95fb,,2106313,162,,evan-feature22,full_pf_a,,0
126,40072,163,,,,1,1,1.0,0.0,1.0,0.0,,0.0-155.0,,1.0,505.98,1.0,0.75,0.0,0.74813071,1.0,0.584357161,0.0,0.411477782,False,,5f846dd4e962ce0bf61b95fb,,2116606,163,,evan-feature22,full_pf_a,,0
127,40073,164,,,,1,1,1.0,1.0,1.0,0.0,,0.0-156.0,,1.0,786.425,1.0,0.75,1.0,0.75,0.0,0.52287236,1.0,0.488290656,False,,5f846dd4e962ce0bf61b95fb,,2127176,164,,evan-feature22,full_pf_a,,0
128,40074,165,,,,1,1,1.0,1.0,1.0,0.0,,0.0-157.0,,1.0,404.32,1.0,0.75,1.0,0.75,1.0,0.544321581,0.0,0.53143059,False,,5f846dd4e962ce0bf61b95fb,,2137366,165,,evan-feature22,full_pf_a,,0
129,40075,166,,,,1,1,1.0,0.0,1.0,0.0,,0.0-158.0,,1.0,487.24,1.0,0.726754564,0.0,0.75,1.0,0.5129306370000001,0.0,0.530592445,False,,5f846dd4e962ce0bf61b95fb,,2147638,166,,evan-feature22,full_pf_a,,0
130,40076,167,,,,2,2,1.0,0.0,0.0,-1.0,,0.0-159.0,,0.0,681.855,1.0,0.75,0.0,0.7392590729999999,1.0,0.479875835,0.0,0.547007051,False,,5f846dd4e962ce0bf61b95fb,,2158102,167,,evan-feature22,full_pf_a,,1
131,40077,168,,,,2,2,0.0,0.0,0.0,-1.0,,0.0-160.0,,0.0,1020.58,0.0,0.75,0.0,0.7393376979999999,0.0,0.546045419,0.0,0.541267353,False,,5f846dd4e962ce0bf61b95fb,,2168905,168,,evan-feature22,full_pf_a,,0
132,40078,169,,,,1,1,0.0,1.0,1.0,0.0,,0.0-161.0,,0.0,842.255,0.0,0.75,1.0,0.75,1.0,0.485725895,0.0,0.527625395,False,,5f846dd4e962ce0bf61b95fb,,2179529,169,,evan-feature22,full_pf_a,,1
133,40079,170,,,,2,2,1.0,0.0,0.0,-1.0,,0.0-162.0,,0.0,732.72,1.0,0.75,1.0,0.725087974,1.0,0.488603595,0.0,0.504019206,False,,5f846dd4e962ce0bf61b95fb,,2190038,170,,evan-feature22,full_pf_a,,1
134,40080,171,,,,2,2,0.0,0.0,1.0,0.0,,0.0-163.0,,0.0,663.84,1.0,0.745504295,1.0,0.75,0.0,0.452379914,0.0,0.50131194,False,,5f846dd4e962ce0bf61b95fb,,2200476,171,,evan-feature22,full_pf_a,,0
135,40081,172,,,,2,2,0.0,0.0,0.0,-1.0,,0.0-164.0,,0.0,1197.37,0.0,0.728513874,1.0,0.75,0.0,0.44125567200000004,0.0,0.531454591,False,,5f846dd4e962ce0bf61b95fb,,2211456,172,,evan-feature22,full_pf_a,,0
136,40082,173,,,,1,1,1.0,1.0,1.0,0.0,,0.0-165.0,,1.0,1135.315,1.0,0.73790804,1.0,0.75,0.0,0.413036656,0.0,0.524619035,False,,5f846dd4e962ce0bf61b95fb,,2222368,173,,evan-feature22,full_pf_a,,1
137,40083,174,,,,1,1,1.0,1.0,1.0,0.0,,0.0-166.0,,1.0,478.96,1.0,0.7080961309999999,1.0,0.708666865,1.0,0.431915581,0.0,0.481819489,False,,5f846dd4e962ce0bf61b95fb,,2232625,174,,evan-feature22,full_pf_a,,0
138,40084,175,,,,1,1,0.0,1.0,1.0,0.0,,0.0-167.0,,0.0,495.285,0.0,0.721378003,1.0,0.71605913,1.0,0.36642387,1.0,0.5036739929999999,False,,5f846dd4e962ce0bf61b95fb,,2242898,175,,evan-feature22,full_pf_a,,0
139,40085,176,,,,2,2,0.0,1.0,0.0,-1.0,,0.0-168.0,,-1.0,769.63,1.0,0.7340618959999999,1.0,0.699323252,0.0,0.35298046299999997,1.0,0.511241692,False,,5f846dd4e962ce0bf61b95fb,,2253445,176,,evan-feature22,full_pf_a,,1
140,40086,177,,,,2,2,0.0,0.0,0.0,-1.0,,0.0-169.0,,0.0,2192.145,1.0,0.75,1.0,0.70412698,0.0,0.380734814,0.0,0.529580116,False,,5f846dd4e962ce0bf61b95fb,,2265426,177,,evan-feature22,full_pf_a,,0
141,40087,178,,,,2,2,1.0,1.0,0.0,-1.0,,0.0-170.0,,-1.0,1094.39,0.0,0.7436654909999999,1.0,0.711182751,1.0,0.41125331,1.0,0.49554405,False,,5f846dd4e962ce0bf61b95fb,,2276308,178,,evan-feature22,full_pf_a,,0
142,40088,179,,,,2,2,1.0,0.0,1.0,0.0,,0.0-171.0,,1.0,1510.81,1.0,0.731607915,1.0,0.651774583,1.0,0.35688023,0.0,0.45194491600000003,False,,5f846dd4e962ce0bf61b95fb,,2287604,179,,evan-feature22,full_pf_a,,0
143,40089,180,,,,1,1,1.0,1.0,0.0,-1.0,,0.0-172.0,,-1.0,1229.64,1.0,0.75,1.0,0.75,1.0,0.283145374,1.0,0.528608005,False,,5f846dd4e962ce0bf61b95fb,,2298617,180,,evan-feature22,full_pf_a,,1
144,40090,181,,,,2,2,0.0,1.0,1.0,0.0,,0.0-173.0,,0.0,943.745,1.0,0.7491416890000001,1.0,0.7423785959999999,0.0,0.29135870399999997,1.0,0.498888318,False,,5f846dd4e962ce0bf61b95fb,,2309347,181,,evan-feature22,full_pf_a,,1
145,40091,182,,,,1,1,0.0,1.0,0.0,-1.0,,0.0-174.0,,-1.0,1910.63,0.0,0.708569387,1.0,0.717682277,0.0,0.294421699,0.0,0.493838163,False,,5f846dd4e962ce0bf61b95fb,,2321039,182,,evan-feature22,full_pf_a,,1
146,40092,183,,,,1,1,1.0,0.0,1.0,0.0,,0.0-175.0,,1.0,1066.775,1.0,0.75,0.0,0.7383382159999999,0.0,0.356098707,0.0,0.442533405,False,,5f846dd4e962ce0bf61b95fb,,2331887,183,,evan-feature22,full_pf_a,,0
147,40093,184,,,,1,1,1.0,1.0,1.0,0.0,,0.0-176.0,,1.0,877.805,1.0,0.744527075,1.0,0.75,0.0,0.334127506,0.0,0.393165805,False,,5f846dd4e962ce0bf61b95fb,,2342540,184,,evan-feature22,full_pf_a,,0
148,40094,185,,,,1,1,1.0,1.0,1.0,0.0,,0.0-177.0,,1.0,971.39,1.0,0.75,1.0,0.75,0.0,0.33571021799999995,0.0,0.350393962,False,,5f846dd4e962ce0bf61b95fb,,2353289,185,,evan-feature22,full_pf_a,,0
149,40095,186,,,,2,2,1.0,0.0,0.0,-1.0,,0.0-178.0,,0.0,653.035,1.0,0.75,1.0,0.75,1.0,0.313628297,0.0,0.36349657399999996,False,,5f846dd4e962ce0bf61b95fb,,2363719,186,,evan-feature22,full_pf_a,,1
150,40096,187,,,,1,1,1.0,1.0,1.0,0.0,,0.0-179.0,,1.0,782.825,1.0,0.75,1.0,0.734284182,1.0,0.262667667,0.0,0.380199119,False,,5f846dd4e962ce0bf61b95fb,,2374284,187,,evan-feature22,full_pf_a,,1
151,40097,188,,,,1,1,1.0,0.0,1.0,0.0,,0.0-180.0,,1.0,612.725,1.0,0.75,0.0,0.75,1.0,0.25,0.0,0.394494013,False,,5f846dd4e962ce0bf61b95fb,,2384673,188,,evan-feature22,full_pf_a,,0
152,40098,189,,,,1,1,1.0,0.0,1.0,0.0,,0.0-181.0,,1.0,568.615,1.0,0.722298145,0.0,0.7357822340000001,0.0,0.25,0.0,0.319142121,False,,5f846dd4e962ce0bf61b95fb,,2395019,189,,evan-feature22,full_pf_a,,0
153,40099,190,,,,1,1,1.0,1.0,1.0,0.0,,0.0-182.0,,1.0,514.415,1.0,0.73149275,1.0,0.724276446,0.0,0.305856907,0.0,0.281315057,False,,5f846dd4e962ce0bf61b95fb,,2405311,190,,evan-feature22,full_pf_a,,0
154,40100,191,,,,1,1,1.0,1.0,1.0,0.0,,0.0-183.0,,1.0,726.51,1.0,0.7458732690000001,1.0,0.7336382459999999,0.0,0.272571964,0.0,0.266021999,False,,5f846dd4e962ce0bf61b95fb,,2415808,191,,evan-feature22,full_pf_a,,0
155,40101,192,,,,2,2,0.0,0.0,0.0,-1.0,,0.0-184.0,,0.0,1405.315,0.0,0.705579037,1.0,0.720778292,0.0,0.320238144,0.0,0.30971744,False,,5f846dd4e962ce0bf61b95fb,,2426996,192,,evan-feature22,full_pf_a,,1
156,40102,193,,,,2,2,1.0,0.0,0.0,-1.0,,0.0-185.0,,0.0,740.85,1.0,0.700425648,0.0,0.7198784009999999,1.0,0.272590393,0.0,0.304182931,False,,5f846dd4e962ce0bf61b95fb,,2437519,193,,evan-feature22,full_pf_a,,0
157,40103,194,,,,2,2,1.0,0.0,0.0,-1.0,,0.0-186.0,,0.0,965.1,1.0,0.735590785,1.0,0.722714973,1.0,0.25,0.0,0.323421091,False,,5f846dd4e962ce0bf61b95fb,,2448261,194,,evan-feature22,full_pf_a,,0
158,40104,195,,,,2,2,0.0,1.0,0.0,-1.0,,0.0-187.0,,-1.0,1135.72,0.0,0.724807662,1.0,0.63146213,0.0,0.36836492600000004,1.0,0.34592153299999995,False,,5f846dd4e962ce0bf61b95fb,,2459182,195,,evan-feature22,full_pf_a,,0
159,40105,196,,,,1,1,0.0,0.0,1.0,0.0,,0.0-188.0,,0.0,573.835,0.0,0.7352796909999999,0.0,0.555111392,1.0,0.36003922,0.0,0.31433779999999995,False,,5f846dd4e962ce0bf61b95fb,,2469531,196,,evan-feature22,full_pf_a,,1
160,40106,197,notice,,,,,,,,,,0.0-189.0,"{""Q0"":""a pattern""}",,13201.0,,,,,,,,,False,,5f846dd4e962ce0bf61b95fb,,2482734,197,Q,survey-text,full_pf_a,,1
161,40107,198,track1,,[1],,,,,,,,0.0-190.0,"{""Q0"":""no""}",,3533.0,,,,,,,,,False,,5f846dd4e962ce0bf61b95fb,,2486272,198,Q,evan-quiz,full_pf_a,,1
162,40108,199,track2,,[0],,,,,,,,0.0-191.0,"{""Q0"":""yes""}",,13428.0,,,,,,,,,False,,5f846dd4e962ce0bf61b95fb,,2499704,199,Q,evan-quiz,full_pf_a,,1
163,40109,200,strat,,,,,,,,,,0.0-192.0,"{""Q0"":""I focused my answer on the outcome of the previous task""}",,15886.0,,,,,,,,,False,,5f846dd4e962ce0bf61b95fb,,2515595,200,Q,survey-text,full_pf_a,,1
