,index,Unnamed: 0,Q_name,button_pressed,choice_idxs,chosen_pos,chosen_state,chosen_state_f_1_outcome,chosen_state_f_2_outcome,f_1_reward,f_2_reward,incor_questions,internal_node_id,responses,reward_received,rt,s_1_f_1_outcome,s_1_f_1_prob,s_1_f_2_outcome,s_1_f_2_prob,s_2_f_1_outcome,s_2_f_1_prob,s_2_f_2_outcome,s_2_f_2_prob,safe_first,stimulus,subjectID,success,time_elapsed,trial_index,trial_num,trial_type,version,view_history,switching
0,28284,25,,,,2,2,1.0,0.0,1.0,0.0,,0.0-27.0,,1.0,1808.0,0.0,0.6,1.0,0.6,1.0,0.4,0.0,0.4,True,,5f3ed1b521b5231766f7fef5,,494483,25,,evan-feature22,full_rf_a,,0
1,28285,26,,,,1,1,1.0,1.0,1.0,0.0,,0.0-28.0,,1.0,1181.0,1.0,0.608053294,1.0,0.63424552,1.0,0.397152172,1.0,0.347069101,True,,5f3ed1b521b5231766f7fef5,,505427,26,,evan-feature22,full_rf_a,,1
2,28286,27,,,,1,1,1.0,1.0,1.0,0.0,,0.0-29.0,,1.0,712.0,1.0,0.642237155,1.0,0.648566321,1.0,0.389407674,0.0,0.285525717,True,,5f3ed1b521b5231766f7fef5,,515901,27,,evan-feature22,full_rf_a,,0
3,28287,28,,,,1,1,1.0,0.0,1.0,0.0,,0.0-30.0,,1.0,1515.0,1.0,0.661086576,0.0,0.630492543,0.0,0.399058924,0.0,0.25,True,,5f3ed1b521b5231766f7fef5,,527179,28,,evan-feature22,full_rf_a,,0
4,28288,29,,,,2,2,0.0,0.0,0.0,-1.0,,0.0-31.0,,0.0,3062.0,0.0,0.631324137,1.0,0.6269842929999999,0.0,0.38734784299999997,0.0,0.25,True,,5f3ed1b521b5231766f7fef5,,540003,29,,evan-feature22,full_rf_a,,1
5,28289,30,,,,1,1,1.0,1.0,0.0,-1.0,,0.0-32.0,,-1.0,174.0,1.0,0.6381991370000001,1.0,0.68987999,0.0,0.384107265,0.0,0.271332943,True,,5f3ed1b521b5231766f7fef5,,549939,30,,evan-feature22,full_rf_a,,1
6,28290,31,,,,2,2,1.0,1.0,1.0,0.0,,0.0-33.0,,1.0,1174.0,0.0,0.66034901,1.0,0.742641349,1.0,0.360225629,1.0,0.25,True,,5f3ed1b521b5231766f7fef5,,560877,31,,evan-feature22,full_rf_a,,1
7,28291,32,,,,2,2,0.0,0.0,1.0,0.0,,0.0-34.0,,0.0,638.0,0.0,0.638612418,0.0,0.75,0.0,0.367273939,0.0,0.25,True,,5f3ed1b521b5231766f7fef5,,571276,32,,evan-feature22,full_rf_a,,0
8,28292,33,,,,2,2,0.0,1.0,0.0,-1.0,,0.0-35.0,,-1.0,1134.0,0.0,0.624340629,1.0,0.75,0.0,0.425829545,1.0,0.25,True,,5f3ed1b521b5231766f7fef5,,582171,33,,evan-feature22,full_rf_a,,0
9,28293,34,,,,1,1,0.0,1.0,0.0,-1.0,,0.0-36.0,,-1.0,1918.0,0.0,0.621999804,1.0,0.75,0.0,0.368609357,0.0,0.25,True,,5f3ed1b521b5231766f7fef5,,593851,34,,evan-feature22,full_rf_a,,1
10,28294,35,,,,2,2,1.0,0.0,1.0,0.0,,0.0-37.0,,1.0,608.0,1.0,0.62666403,1.0,0.75,1.0,0.311151498,0.0,0.25,True,,5f3ed1b521b5231766f7fef5,,604217,35,,evan-feature22,full_rf_a,,1
11,28295,36,,,,2,2,0.0,0.0,0.0,-1.0,,0.0-38.0,,0.0,3642.0,1.0,0.6819650009999999,0.0,0.75,0.0,0.310763048,0.0,0.25,True,,5f3ed1b521b5231766f7fef5,,617621,36,,evan-feature22,full_rf_a,,0
12,28296,37,,,,1,1,1.0,0.0,1.0,0.0,,0.0-39.0,,1.0,820.0,1.0,0.740626951,0.0,0.75,0.0,0.25,0.0,0.25,True,,5f3ed1b521b5231766f7fef5,,628203,37,,evan-feature22,full_rf_a,,1
13,28297,38,,,,SLOW,SLOW,,,1.0,0.0,,0.0-40.0,,-3.0,,1.0,0.739599242,1.0,0.742034978,0.0,0.25397114600000004,1.0,0.25,True,,5f3ed1b521b5231766f7fef5,,634008,38,,evan-feature22,full_rf_a,,1
14,28298,39,,,,1,1,1.0,1.0,1.0,0.0,,0.0-41.0,,1.0,443.0,1.0,0.732341315,1.0,0.72735643,0.0,0.25,0.0,0.25,True,,5f3ed1b521b5231766f7fef5,,644213,39,,evan-feature22,full_rf_a,,1
15,28299,40,,,,2,2,1.0,0.0,1.0,0.0,,0.0-42.0,,1.0,500.0,1.0,0.7062287770000001,1.0,0.75,1.0,0.29002151,0.0,0.288256649,True,,5f3ed1b521b5231766f7fef5,,654475,40,,evan-feature22,full_rf_a,,1
16,28300,41,,,,1,1,0.0,1.0,1.0,0.0,,0.0-43.0,,0.0,638.0,0.0,0.7086029209999999,1.0,0.75,0.0,0.274129113,0.0,0.262851608,True,,5f3ed1b521b5231766f7fef5,,664875,41,,evan-feature22,full_rf_a,,1
17,28301,42,,,,1,1,1.0,1.0,1.0,0.0,,0.0-44.0,,1.0,642.0,1.0,0.669189651,1.0,0.727614338,1.0,0.298444036,1.0,0.296944518,True,,5f3ed1b521b5231766f7fef5,,675278,42,,evan-feature22,full_rf_a,,0
18,28302,43,,,,1,1,1.0,1.0,1.0,0.0,,0.0-45.0,,1.0,561.0,1.0,0.6819912929999999,1.0,0.7179434290000001,0.0,0.265003961,0.0,0.28157921199999997,True,,5f3ed1b521b5231766f7fef5,,685602,43,,evan-feature22,full_rf_a,,0
19,28303,44,,,,1,1,1.0,1.0,0.0,-1.0,,0.0-46.0,,-1.0,434.0,1.0,0.665275002,1.0,0.723065271,0.0,0.260414971,0.0,0.30973870000000003,True,,5f3ed1b521b5231766f7fef5,,695797,44,,evan-feature22,full_rf_a,,0
20,28304,45,,,,2,2,0.0,0.0,1.0,0.0,,0.0-47.0,,0.0,437.0,1.0,0.6660593260000001,1.0,0.728032907,0.0,0.30922817,0.0,0.338778608,True,,5f3ed1b521b5231766f7fef5,,706060,45,,evan-feature22,full_rf_a,,1
21,28305,46,,,,1,1,1.0,1.0,1.0,0.0,,0.0-48.0,,1.0,494.0,1.0,0.702068785,1.0,0.6528750879999999,0.0,0.287329608,0.0,0.35789613200000003,True,,5f3ed1b521b5231766f7fef5,,716315,46,,evan-feature22,full_rf_a,,1
22,28306,47,,,,1,1,0.0,1.0,1.0,0.0,,0.0-49.0,,0.0,497.0,0.0,0.651939787,1.0,0.636725589,0.0,0.284834488,0.0,0.358563756,True,,5f3ed1b521b5231766f7fef5,,726575,47,,evan-feature22,full_rf_a,,0
23,28307,48,,,,1,1,0.0,0.0,0.0,-1.0,,0.0-50.0,,0.0,475.0,0.0,0.67573929,0.0,0.612550049,0.0,0.37130387600000003,0.0,0.383542402,True,,5f3ed1b521b5231766f7fef5,,736812,48,,evan-feature22,full_rf_a,,0
24,28308,49,,,,1,1,0.0,0.0,0.0,-1.0,,0.0-51.0,,0.0,426.0,0.0,0.620753801,0.0,0.60513644,0.0,0.385529434,1.0,0.340361743,True,,5f3ed1b521b5231766f7fef5,,746999,49,,evan-feature22,full_rf_a,,0
25,28309,50,,,,2,2,1.0,1.0,0.0,-1.0,,0.0-52.0,,-1.0,324.0,1.0,0.673564893,1.0,0.672437924,1.0,0.292955382,1.0,0.337633795,True,,5f3ed1b521b5231766f7fef5,,757084,50,,evan-feature22,full_rf_a,,1
26,28310,51,,,,1,1,0.0,1.0,1.0,0.0,,0.0-53.0,,0.0,295.0,0.0,0.6749427,1.0,0.724197502,0.0,0.32391132100000003,0.0,0.350995264,True,,5f3ed1b521b5231766f7fef5,,767139,51,,evan-feature22,full_rf_a,,1
27,28311,52,,,,1,1,1.0,0.0,1.0,0.0,,0.0-54.0,,1.0,433.0,1.0,0.6940159379999999,0.0,0.75,0.0,0.31710554399999996,0.0,0.413450341,True,,5f3ed1b521b5231766f7fef5,,777334,52,,evan-feature22,full_rf_a,,0
28,28312,53,,,,1,1,0.0,1.0,1.0,0.0,,0.0-55.0,,0.0,389.0,0.0,0.6916018270000001,1.0,0.69001187,1.0,0.261817804,1.0,0.40038635,True,,5f3ed1b521b5231766f7fef5,,787484,53,,evan-feature22,full_rf_a,,0
29,28313,54,,,,2,2,0.0,0.0,1.0,0.0,,0.0-56.0,,0.0,591.0,1.0,0.641061544,1.0,0.71337992,0.0,0.277296461,0.0,0.47372791700000005,True,,5f3ed1b521b5231766f7fef5,,797836,54,,evan-feature22,full_rf_a,,1
30,28314,55,,,,1,1,1.0,1.0,1.0,0.0,,0.0-57.0,,1.0,406.0,1.0,0.6082438520000001,1.0,0.708471106,0.0,0.28745137,1.0,0.564174476,True,,5f3ed1b521b5231766f7fef5,,808004,55,,evan-feature22,full_rf_a,,1
31,28315,56,,,,1,1,0.0,1.0,1.0,0.0,,0.0-58.0,,0.0,361.0,0.0,0.6051112120000001,1.0,0.7118147229999999,0.0,0.272390611,1.0,0.5595149939999999,True,,5f3ed1b521b5231766f7fef5,,818125,56,,evan-feature22,full_rf_a,,0
32,28316,57,,,,1,1,1.0,1.0,1.0,0.0,,0.0-59.0,,1.0,389.0,1.0,0.582420852,1.0,0.635867583,0.0,0.31089574,0.0,0.5227206520000001,True,,5f3ed1b521b5231766f7fef5,,828276,57,,evan-feature22,full_rf_a,,0
33,28317,58,,,,1,1,1.0,1.0,0.0,-1.0,,0.0-60.0,,-1.0,378.0,1.0,0.623195575,1.0,0.655026044,0.0,0.25,1.0,0.560387538,True,,5f3ed1b521b5231766f7fef5,,838415,58,,evan-feature22,full_rf_a,,0
34,28318,59,,,,1,1,1.0,0.0,1.0,0.0,,0.0-61.0,,1.0,516.0,1.0,0.601889598,0.0,0.678198724,0.0,0.25,0.0,0.559922936,True,,5f3ed1b521b5231766f7fef5,,848692,59,,evan-feature22,full_rf_a,,0
35,28319,60,,,,1,1,1.0,0.0,1.0,0.0,,0.0-62.0,,1.0,394.0,1.0,0.601259914,0.0,0.704681482,1.0,0.33908969299999997,0.0,0.505003715,True,,5f3ed1b521b5231766f7fef5,,858847,60,,evan-feature22,full_rf_a,,0
36,28320,61,,,,1,1,0.0,0.0,1.0,0.0,,0.0-63.0,,0.0,387.0,0.0,0.59645454,0.0,0.710437172,1.0,0.327441879,1.0,0.391749613,True,,5f3ed1b521b5231766f7fef5,,868996,61,,evan-feature22,full_rf_a,,0
37,28321,62,,,,2,2,0.0,1.0,1.0,0.0,,0.0-64.0,,0.0,478.0,0.0,0.529473,1.0,0.636758527,0.0,0.301338063,1.0,0.365661481,True,,5f3ed1b521b5231766f7fef5,,879236,62,,evan-feature22,full_rf_a,,1
38,28322,63,,,,2,2,0.0,0.0,0.0,-1.0,,0.0-65.0,,0.0,313.0,0.0,0.541657162,1.0,0.634541962,0.0,0.343535366,0.0,0.371763742,True,,5f3ed1b521b5231766f7fef5,,889310,63,,evan-feature22,full_rf_a,,0
39,28323,64,,,,2,2,1.0,0.0,1.0,0.0,,0.0-66.0,,1.0,316.0,1.0,0.5707533260000001,1.0,0.589121171,1.0,0.326428396,0.0,0.43961622899999997,True,,5f3ed1b521b5231766f7fef5,,899388,64,,evan-feature22,full_rf_a,,0
40,28324,65,,,,2,2,0.0,1.0,1.0,0.0,,0.0-67.0,,0.0,425.0,0.0,0.5707533260000001,0.0,0.589121171,0.0,0.326428396,1.0,0.43961622899999997,True,,5f3ed1b521b5231766f7fef5,,909575,65,,evan-feature22,full_rf_a,,0
41,28325,66,,,,2,2,0.0,0.0,1.0,0.0,,0.0-68.0,,0.0,595.0,0.0,0.506271295,0.0,0.641775594,0.0,0.37149690700000004,0.0,0.404330166,True,,5f3ed1b521b5231766f7fef5,,919931,66,,evan-feature22,full_rf_a,,0
42,28326,67,,,,2,2,0.0,1.0,0.0,-1.0,,0.0-69.0,,-1.0,371.0,1.0,0.455642565,0.0,0.623605825,0.0,0.358753011,1.0,0.346174041,True,,5f3ed1b521b5231766f7fef5,,930062,67,,evan-feature22,full_rf_a,,0
43,28327,68,,,,1,1,1.0,1.0,0.0,-1.0,,0.0-70.0,,-1.0,436.0,1.0,0.483677308,1.0,0.5904681070000001,1.0,0.402218411,0.0,0.35344697,True,,5f3ed1b521b5231766f7fef5,,940259,68,,evan-feature22,full_rf_a,,1
44,28328,69,,,,2,2,0.0,1.0,0.0,-1.0,,0.0-71.0,,-1.0,416.0,1.0,0.394210977,1.0,0.558925494,0.0,0.540052017,1.0,0.35182128700000004,True,,5f3ed1b521b5231766f7fef5,,950436,69,,evan-feature22,full_rf_a,,1
45,28329,70,,,,1,1,0.0,1.0,1.0,0.0,,0.0-72.0,,0.0,431.0,0.0,0.382300414,1.0,0.577670603,0.0,0.607608448,0.0,0.378261578,True,,5f3ed1b521b5231766f7fef5,,960629,70,,evan-feature22,full_rf_a,,1
46,28330,71,,,,1,1,1.0,1.0,1.0,0.0,,0.0-73.0,,1.0,377.0,1.0,0.357596762,1.0,0.5929076529999999,1.0,0.6579790010000001,0.0,0.401326777,True,,5f3ed1b521b5231766f7fef5,,970769,71,,evan-feature22,full_rf_a,,0
47,28331,72,,,,1,1,0.0,1.0,1.0,0.0,,0.0-74.0,,0.0,393.0,0.0,0.362033495,1.0,0.582308608,0.0,0.649195052,0.0,0.355158505,True,,5f3ed1b521b5231766f7fef5,,980925,72,,evan-feature22,full_rf_a,,0
48,28332,73,,,,1,1,0.0,0.0,1.0,0.0,,0.0-75.0,,0.0,375.0,0.0,0.369620635,0.0,0.669100864,1.0,0.706059111,1.0,0.362516241,True,,5f3ed1b521b5231766f7fef5,,991062,73,,evan-feature22,full_rf_a,,0
49,28333,74,,,,2,2,0.0,1.0,1.0,0.0,,0.0-76.0,,0.0,493.0,0.0,0.41477751399999996,0.0,0.7284416779999999,0.0,0.7182656940000001,1.0,0.36228040899999997,True,,5f3ed1b521b5231766f7fef5,,1001316,74,,evan-feature22,full_rf_a,,1
50,28334,75,,,,2,2,1.0,1.0,0.0,-1.0,,0.0-77.0,,-1.0,425.0,0.0,0.37675460299999997,0.0,0.703250285,1.0,0.75,1.0,0.461979164,True,,5f3ed1b521b5231766f7fef5,,1011504,75,,evan-feature22,full_rf_a,,0
51,28335,76,,,,2,2,1.0,0.0,0.0,-1.0,,0.0-78.0,,0.0,638.0,0.0,0.398716075,0.0,0.6723864890000001,1.0,0.674153818,0.0,0.519029516,True,,5f3ed1b521b5231766f7fef5,,1021908,76,,evan-feature22,full_rf_a,,0
52,28336,77,,,,2,2,0.0,0.0,1.0,0.0,,0.0-79.0,,0.0,417.0,0.0,0.34677856700000004,1.0,0.69057175,0.0,0.6822438540000001,0.0,0.477292237,True,,5f3ed1b521b5231766f7fef5,,1032087,77,,evan-feature22,full_rf_a,,0
53,28337,78,,,,2,2,1.0,1.0,0.0,-1.0,,0.0-80.0,,-1.0,820.0,0.0,0.28580469199999997,0.0,0.68408818,1.0,0.684207565,1.0,0.49780448299999996,True,,5f3ed1b521b5231766f7fef5,,1042667,78,,evan-feature22,full_rf_a,,0
54,28339,80,,,,1,1,0.0,1.0,1.0,0.0,,0.0-82.0,,0.0,1349.0,0.0,0.25,1.0,0.7405808970000001,1.0,0.679614108,1.0,0.436436964,True,,5f3ed1b521b5231766f7fef5,,1057964,80,,evan-feature22,full_rf_a,,1
55,28340,81,,,,2,2,1.0,0.0,0.0,-1.0,,0.0-83.0,,0.0,391.0,0.0,0.29890393,1.0,0.730505706,1.0,0.7328203320000001,0.0,0.439256938,True,,5f3ed1b521b5231766f7fef5,,1068116,81,,evan-feature22,full_rf_a,,1
56,28341,82,,,,2,2,1.0,1.0,1.0,0.0,,0.0-84.0,,1.0,591.0,1.0,0.326762398,1.0,0.7148059609999999,1.0,0.75,1.0,0.44389608799999997,True,,5f3ed1b521b5231766f7fef5,,1078471,82,,evan-feature22,full_rf_a,,0
57,28342,83,,,,2,2,1.0,0.0,1.0,0.0,,0.0-85.0,,1.0,386.0,0.0,0.295168515,1.0,0.739760854,1.0,0.719947008,0.0,0.35277284600000003,True,,5f3ed1b521b5231766f7fef5,,1088619,83,,evan-feature22,full_rf_a,,0
58,28343,84,,,,2,2,1.0,0.0,1.0,0.0,,0.0-86.0,,1.0,698.0,0.0,0.25,1.0,0.70781482,1.0,0.75,0.0,0.286095925,True,,5f3ed1b521b5231766f7fef5,,1099079,84,,evan-feature22,full_rf_a,,0
59,28344,85,,,,2,2,0.0,1.0,0.0,-1.0,,0.0-87.0,,-1.0,612.0,0.0,0.25638190899999996,0.0,0.704088163,0.0,0.75,1.0,0.26872601399999996,True,,5f3ed1b521b5231766f7fef5,,1109452,85,,evan-feature22,full_rf_a,,0
60,28345,86,,,,2,2,1.0,1.0,0.0,-1.0,,0.0-88.0,,-1.0,784.0,0.0,0.271581126,1.0,0.669760107,1.0,0.733896663,1.0,0.273244572,True,,5f3ed1b521b5231766f7fef5,,1119997,86,,evan-feature22,full_rf_a,,0
61,28346,87,,,,2,2,1.0,0.0,0.0,-1.0,,0.0-89.0,,0.0,564.0,0.0,0.257144401,1.0,0.600575706,1.0,0.74488122,0.0,0.25,True,,5f3ed1b521b5231766f7fef5,,1130324,87,,evan-feature22,full_rf_a,,0
62,28347,88,,,,2,2,1.0,1.0,1.0,0.0,,0.0-90.0,,1.0,385.0,1.0,0.25,1.0,0.616870026,1.0,0.723610234,1.0,0.25,True,,5f3ed1b521b5231766f7fef5,,1140470,88,,evan-feature22,full_rf_a,,0
63,28348,89,,,,2,2,0.0,1.0,0.0,-1.0,,0.0-91.0,,-1.0,363.0,1.0,0.25,0.0,0.583540187,0.0,0.7041042559999999,1.0,0.285961995,True,,5f3ed1b521b5231766f7fef5,,1150596,89,,evan-feature22,full_rf_a,,0
64,28349,90,,,,1,1,0.0,0.0,1.0,0.0,,0.0-92.0,,0.0,671.0,0.0,0.27254536,0.0,0.53875765,1.0,0.693783448,0.0,0.284961652,True,,5f3ed1b521b5231766f7fef5,,1161029,90,,evan-feature22,full_rf_a,,1
65,28350,91,,,,2,2,1.0,1.0,0.0,-1.0,,0.0-93.0,,-1.0,453.0,0.0,0.25,0.0,0.548431252,1.0,0.734221895,1.0,0.279445214,True,,5f3ed1b521b5231766f7fef5,,1171243,91,,evan-feature22,full_rf_a,,1
66,28351,92,,,,2,2,1.0,0.0,1.0,0.0,,0.0-94.0,,1.0,460.0,0.0,0.258640684,0.0,0.545878066,1.0,0.725245965,0.0,0.31487537,True,,5f3ed1b521b5231766f7fef5,,1181463,92,,evan-feature22,full_rf_a,,0
67,28352,93,,,,2,2,1.0,0.0,1.0,0.0,,0.0-95.0,,1.0,427.0,0.0,0.251103711,1.0,0.5776290629999999,1.0,0.696320133,0.0,0.317831047,True,,5f3ed1b521b5231766f7fef5,,1191650,93,,evan-feature22,full_rf_a,,0
68,28353,94,,,,2,2,1.0,0.0,1.0,0.0,,0.0-96.0,,1.0,475.0,0.0,0.276630292,1.0,0.617329858,1.0,0.73838088,0.0,0.261471582,True,,5f3ed1b521b5231766f7fef5,,1201888,94,,evan-feature22,full_rf_a,,0
69,28354,95,,,,2,2,1.0,0.0,0.0,-1.0,,0.0-97.0,,0.0,418.0,0.0,0.297716424,0.0,0.618863717,1.0,0.7402358259999999,0.0,0.262600834,True,,5f3ed1b521b5231766f7fef5,,1212069,95,,evan-feature22,full_rf_a,,0
70,28355,96,,,,2,2,0.0,0.0,1.0,0.0,,0.0-98.0,,0.0,625.0,0.0,0.290935512,1.0,0.695370945,0.0,0.706570507,0.0,0.280030553,True,,5f3ed1b521b5231766f7fef5,,1222455,96,,evan-feature22,full_rf_a,,0
71,28356,97,,,,2,2,1.0,0.0,1.0,0.0,,0.0-99.0,,1.0,586.0,1.0,0.25,0.0,0.6465277079999999,1.0,0.67766682,0.0,0.25,True,,5f3ed1b521b5231766f7fef5,,1232805,97,,evan-feature22,full_rf_a,,0
72,28357,98,,,,2,2,0.0,0.0,1.0,0.0,,0.0-100.0,,0.0,663.0,0.0,0.26463816,1.0,0.636100213,0.0,0.646048507,0.0,0.265607101,True,,5f3ed1b521b5231766f7fef5,,1243230,98,,evan-feature22,full_rf_a,,0
73,28358,99,,,,2,2,1.0,0.0,1.0,0.0,,0.0-101.0,,1.0,460.0,1.0,0.314340707,0.0,0.667795927,1.0,0.613630805,0.0,0.25,True,,5f3ed1b521b5231766f7fef5,,1253453,99,,evan-feature22,full_rf_a,,0
74,28359,100,,,,2,2,1.0,0.0,1.0,0.0,,0.0-102.0,,1.0,489.0,1.0,0.28685784,0.0,0.6622549529999999,1.0,0.652154117,0.0,0.25,True,,5f3ed1b521b5231766f7fef5,,1263704,100,,evan-feature22,full_rf_a,,0
75,28360,101,,,,2,2,1.0,0.0,0.0,-1.0,,0.0-103.0,,0.0,458.0,0.0,0.304106554,1.0,0.631289538,1.0,0.707041942,0.0,0.29314237,True,,5f3ed1b521b5231766f7fef5,,1273924,101,,evan-feature22,full_rf_a,,0
76,28361,102,,,,2,2,0.0,1.0,0.0,-1.0,,0.0-104.0,,-1.0,497.0,0.0,0.304806932,0.0,0.571167718,0.0,0.680472346,1.0,0.25,True,,5f3ed1b521b5231766f7fef5,,1284183,102,,evan-feature22,full_rf_a,,0
77,28362,103,,,,1,1,0.0,1.0,0.0,-1.0,,0.0-105.0,,-1.0,1188.0,0.0,0.37919861,1.0,0.5724849710000001,0.0,0.705638003,0.0,0.30179300600000003,True,,5f3ed1b521b5231766f7fef5,,1295133,103,,evan-feature22,full_rf_a,,1
78,28363,104,,,,2,2,0.0,0.0,0.0,-1.0,,0.0-106.0,,0.0,781.0,0.0,0.464277969,0.0,0.554034373,0.0,0.7372627340000001,0.0,0.264699741,True,,5f3ed1b521b5231766f7fef5,,1305676,104,,evan-feature22,full_rf_a,,1
79,28364,105,,,,2,2,1.0,0.0,1.0,0.0,,0.0-107.0,,1.0,377.0,0.0,0.465104323,0.0,0.530793115,1.0,0.75,0.0,0.31683071,True,,5f3ed1b521b5231766f7fef5,,1315814,105,,evan-feature22,full_rf_a,,0
80,28365,106,,,,2,2,1.0,1.0,0.0,-1.0,,0.0-108.0,,-1.0,540.0,1.0,0.465104323,0.0,0.530793115,1.0,0.75,1.0,0.31683071,True,,5f3ed1b521b5231766f7fef5,,1326117,106,,evan-feature22,full_rf_a,,0
81,28366,107,,,,1,1,1.0,1.0,0.0,-1.0,,0.0-109.0,,-1.0,461.0,1.0,0.46833986,1.0,0.570249239,1.0,0.7244472590000001,0.0,0.364114163,True,,5f3ed1b521b5231766f7fef5,,1336341,107,,evan-feature22,full_rf_a,,1
82,28367,108,,,,2,2,1.0,0.0,0.0,-1.0,,0.0-110.0,,0.0,453.0,0.0,0.445444024,1.0,0.649673355,1.0,0.6845441290000001,0.0,0.300660449,True,,5f3ed1b521b5231766f7fef5,,1346556,108,,evan-feature22,full_rf_a,,1
83,28368,109,,,,2,2,1.0,0.0,0.0,-1.0,,0.0-111.0,,0.0,377.0,0.0,0.39909721299999995,1.0,0.6715179509999999,1.0,0.742310028,0.0,0.35496088299999995,True,,5f3ed1b521b5231766f7fef5,,1356697,109,,evan-feature22,full_rf_a,,0
84,28369,110,,,,2,2,0.0,0.0,0.0,-1.0,,0.0-112.0,,0.0,385.0,1.0,0.37956104799999996,0.0,0.694725302,0.0,0.7181651309999999,0.0,0.38726906299999997,True,,5f3ed1b521b5231766f7fef5,,1366844,110,,evan-feature22,full_rf_a,,0
85,28370,111,,,,1,1,0.0,0.0,0.0,-1.0,,0.0-113.0,,0.0,359.0,0.0,0.404995034,0.0,0.724375412,0.0,0.6910946859999999,1.0,0.387187347,True,,5f3ed1b521b5231766f7fef5,,1376965,111,,evan-feature22,full_rf_a,,1
86,28371,112,,,,1,1,0.0,0.0,0.0,-1.0,,0.0-114.0,,0.0,408.0,0.0,0.461740803,0.0,0.75,1.0,0.75,0.0,0.34872038200000005,True,,5f3ed1b521b5231766f7fef5,,1387135,112,,evan-feature22,full_rf_a,,0
87,28372,113,,,,2,2,1.0,0.0,1.0,0.0,,0.0-115.0,,1.0,572.0,0.0,0.43821380600000004,0.0,0.738833273,1.0,0.728286963,0.0,0.399538128,True,,5f3ed1b521b5231766f7fef5,,1397468,113,,evan-feature22,full_rf_a,,1
88,28373,114,,,,2,2,0.0,0.0,0.0,-1.0,,0.0-116.0,,0.0,562.0,1.0,0.41709882,0.0,0.736666736,0.0,0.75,0.0,0.389095584,True,,5f3ed1b521b5231766f7fef5,,1407790,114,,evan-feature22,full_rf_a,,0
89,28374,115,,,,1,1,0.0,1.0,0.0,-1.0,,0.0-117.0,,-1.0,445.0,0.0,0.39749009799999996,1.0,0.744320029,1.0,0.75,0.0,0.363848678,True,,5f3ed1b521b5231766f7fef5,,1417995,115,,evan-feature22,full_rf_a,,1
90,28375,116,,,,2,2,1.0,1.0,1.0,0.0,,0.0-118.0,,1.0,792.0,0.0,0.392653706,0.0,0.75,1.0,0.75,1.0,0.384386976,True,,5f3ed1b521b5231766f7fef5,,1428549,116,,evan-feature22,full_rf_a,,1
91,28376,117,,,,2,2,1.0,0.0,1.0,0.0,,0.0-119.0,,1.0,487.0,0.0,0.31190902600000003,1.0,0.75,1.0,0.732413819,0.0,0.413082932,True,,5f3ed1b521b5231766f7fef5,,1438800,117,,evan-feature22,full_rf_a,,0
92,28377,118,,,,2,2,1.0,0.0,0.0,-1.0,,0.0-120.0,,0.0,402.0,0.0,0.366917648,1.0,0.740073855,1.0,0.75,0.0,0.352861979,True,,5f3ed1b521b5231766f7fef5,,1448963,118,,evan-feature22,full_rf_a,,0
93,28378,119,,,,2,2,1.0,1.0,0.0,-1.0,,0.0-121.0,,-1.0,406.0,0.0,0.3645172,1.0,0.721770713,1.0,0.75,1.0,0.404074511,True,,5f3ed1b521b5231766f7fef5,,1459136,119,,evan-feature22,full_rf_a,,0
94,28379,120,,,,2,2,0.0,0.0,0.0,-1.0,,0.0-122.0,,0.0,361.0,1.0,0.35205600299999995,0.0,0.68983859,0.0,0.739735447,0.0,0.366895945,True,,5f3ed1b521b5231766f7fef5,,1469259,120,,evan-feature22,full_rf_a,,0
95,28380,121,,,,1,1,1.0,1.0,0.0,-1.0,,0.0-123.0,,-1.0,592.0,1.0,0.40998722600000004,1.0,0.720859127,0.0,0.673854955,0.0,0.368528541,True,,5f3ed1b521b5231766f7fef5,,1479613,121,,evan-feature22,full_rf_a,,1
96,28381,122,,,,1,1,0.0,0.0,1.0,0.0,,0.0-124.0,,0.0,360.0,0.0,0.353625316,0.0,0.75,0.0,0.695605473,0.0,0.38303674200000004,True,,5f3ed1b521b5231766f7fef5,,1489734,122,,evan-feature22,full_rf_a,,0
97,28382,123,,,,1,1,1.0,1.0,0.0,-1.0,,0.0-125.0,,-1.0,356.0,1.0,0.359216989,1.0,0.75,1.0,0.6987915090000001,1.0,0.35169046200000004,True,,5f3ed1b521b5231766f7fef5,,1499852,123,,evan-feature22,full_rf_a,,0
98,28383,124,,,,2,2,1.0,1.0,1.0,0.0,,0.0-126.0,,1.0,671.0,0.0,0.35834496899999996,0.0,0.75,1.0,0.707067742,1.0,0.416763636,True,,5f3ed1b521b5231766f7fef5,,1510283,124,,evan-feature22,full_rf_a,,1
99,28384,125,,,,2,2,1.0,0.0,1.0,0.0,,0.0-127.0,,1.0,434.0,1.0,0.38741613799999997,0.0,0.7177369570000001,1.0,0.734902455,0.0,0.49438664299999996,True,,5f3ed1b521b5231766f7fef5,,1520479,125,,evan-feature22,full_rf_a,,0
100,28385,126,,,,2,2,1.0,1.0,0.0,-1.0,,0.0-128.0,,-1.0,410.0,1.0,0.405255252,0.0,0.7300466640000001,1.0,0.7027748070000001,1.0,0.504359668,True,,5f3ed1b521b5231766f7fef5,,1530653,126,,evan-feature22,full_rf_a,,0
101,28386,127,,,,1,1,0.0,1.0,0.0,-1.0,,0.0-129.0,,-1.0,365.0,0.0,0.40697073,1.0,0.7260142190000001,0.0,0.724461982,1.0,0.522779179,True,,5f3ed1b521b5231766f7fef5,,1540784,127,,evan-feature22,full_rf_a,,1
102,28387,128,,,,1,1,0.0,0.0,0.0,-1.0,,0.0-130.0,,0.0,372.0,0.0,0.43906215299999996,0.0,0.7252802340000001,1.0,0.719079934,1.0,0.5712990579999999,True,,5f3ed1b521b5231766f7fef5,,1550917,128,,evan-feature22,full_rf_a,,0
103,28388,129,,,,2,2,0.0,0.0,0.0,-1.0,,0.0-131.0,,0.0,389.0,0.0,0.4076705,1.0,0.73280499,0.0,0.681313127,0.0,0.523891346,True,,5f3ed1b521b5231766f7fef5,,1561068,129,,evan-feature22,full_rf_a,,1
104,28389,130,,,,2,2,1.0,1.0,0.0,-1.0,,0.0-132.0,,-1.0,721.0,0.0,0.399102911,1.0,0.730498344,1.0,0.661080239,1.0,0.46742603,True,,5f3ed1b521b5231766f7fef5,,1571551,130,,evan-feature22,full_rf_a,,0
105,28390,131,,,,2,2,0.0,0.0,1.0,0.0,,0.0-133.0,,0.0,410.0,1.0,0.356477282,1.0,0.712296395,0.0,0.641812684,0.0,0.44868414,True,,5f3ed1b521b5231766f7fef5,,1581723,131,,evan-feature22,full_rf_a,,0
106,28391,132,,,,1,1,1.0,0.0,0.0,-1.0,,0.0-134.0,,0.0,887.0,1.0,0.462760722,0.0,0.692349322,0.0,0.700947931,0.0,0.394680266,True,,5f3ed1b521b5231766f7fef5,,1592372,132,,evan-feature22,full_rf_a,,1
107,28392,133,,,,1,1,0.0,1.0,0.0,-1.0,,0.0-135.0,,-1.0,337.0,0.0,0.422306413,1.0,0.718375916,0.0,0.706340917,0.0,0.367787185,True,,5f3ed1b521b5231766f7fef5,,1602471,133,,evan-feature22,full_rf_a,,0
108,28394,135,,,,1,1,0.0,1.0,0.0,-1.0,,0.0-137.0,,-1.0,1385.0,0.0,0.4582233,1.0,0.643834117,1.0,0.75,0.0,0.39615823299999997,True,,5f3ed1b521b5231766f7fef5,,1617797,135,,evan-feature22,full_rf_a,,0
109,28395,136,,,,2,2,1.0,0.0,0.0,-1.0,,0.0-138.0,,0.0,342.0,1.0,0.43813437899999996,0.0,0.651283804,1.0,0.729674191,0.0,0.37711048,True,,5f3ed1b521b5231766f7fef5,,1627900,136,,evan-feature22,full_rf_a,,1
110,28396,137,,,,2,2,0.0,0.0,0.0,-1.0,,0.0-139.0,,0.0,472.0,0.0,0.471199094,0.0,0.6470010979999999,0.0,0.715008097,0.0,0.410656191,True,,5f3ed1b521b5231766f7fef5,,1638135,137,,evan-feature22,full_rf_a,,0
111,28397,138,,,,2,2,0.0,1.0,1.0,0.0,,0.0-140.0,,0.0,449.0,0.0,0.42486406,0.0,0.629771829,0.0,0.6550939960000001,1.0,0.459093873,True,,5f3ed1b521b5231766f7fef5,,1648348,138,,evan-feature22,full_rf_a,,0
112,28398,139,,,,2,2,1.0,0.0,1.0,0.0,,0.0-141.0,,1.0,562.0,0.0,0.4803197,1.0,0.645842715,1.0,0.6421749920000001,0.0,0.443092151,True,,5f3ed1b521b5231766f7fef5,,1658672,139,,evan-feature22,full_rf_a,,0
113,28399,140,,,,2,2,1.0,0.0,1.0,0.0,,0.0-142.0,,1.0,409.0,1.0,0.521848997,1.0,0.735801074,1.0,0.6691348460000001,0.0,0.45259351600000003,True,,5f3ed1b521b5231766f7fef5,,1668845,140,,evan-feature22,full_rf_a,,0
114,28400,141,,,,2,2,1.0,0.0,0.0,-1.0,,0.0-143.0,,0.0,393.0,0.0,0.49565621299999996,0.0,0.742400847,1.0,0.661512553,0.0,0.483110831,True,,5f3ed1b521b5231766f7fef5,,1679000,141,,evan-feature22,full_rf_a,,0
115,28401,142,,,,2,2,1.0,0.0,1.0,0.0,,0.0-144.0,,1.0,426.0,0.0,0.521564361,1.0,0.731078632,1.0,0.6774886809999999,0.0,0.483263956,True,,5f3ed1b521b5231766f7fef5,,1689188,142,,evan-feature22,full_rf_a,,0
116,28402,143,,,,2,2,0.0,0.0,1.0,0.0,,0.0-145.0,,0.0,369.0,1.0,0.558893102,0.0,0.719810023,0.0,0.67461031,0.0,0.499349834,True,,5f3ed1b521b5231766f7fef5,,1699321,143,,evan-feature22,full_rf_a,,0
117,28403,144,,,,2,2,1.0,1.0,0.0,-1.0,,0.0-146.0,,-1.0,378.0,0.0,0.611031046,1.0,0.75,1.0,0.688072995,1.0,0.5321422729999999,True,,5f3ed1b521b5231766f7fef5,,1709461,144,,evan-feature22,full_rf_a,,0
118,28404,145,,,,2,2,1.0,0.0,1.0,0.0,,0.0-147.0,,1.0,311.0,0.0,0.633223941,0.0,0.713567728,1.0,0.75,0.0,0.48185314700000004,True,,5f3ed1b521b5231766f7fef5,,1719534,145,,evan-feature22,full_rf_a,,0
119,28405,146,,,,2,2,1.0,0.0,1.0,0.0,,0.0-148.0,,1.0,307.0,1.0,0.664001694,1.0,0.705509768,1.0,0.75,0.0,0.500211065,True,,5f3ed1b521b5231766f7fef5,,1729604,146,,evan-feature22,full_rf_a,,0
120,28406,147,,,,2,2,1.0,1.0,0.0,-1.0,,0.0-149.0,,-1.0,346.0,1.0,0.664001694,0.0,0.705509768,1.0,0.75,1.0,0.500211065,True,,5f3ed1b521b5231766f7fef5,,1739712,147,,evan-feature22,full_rf_a,,0
121,28407,148,,,,1,1,0.0,1.0,0.0,-1.0,,0.0-150.0,,-1.0,481.0,0.0,0.696508041,1.0,0.71066027,1.0,0.717028709,0.0,0.49792991,True,,5f3ed1b521b5231766f7fef5,,1749957,148,,evan-feature22,full_rf_a,,1
122,28408,149,,,,2,2,1.0,1.0,1.0,0.0,,0.0-151.0,,1.0,301.0,1.0,0.699883272,0.0,0.75,1.0,0.713543895,1.0,0.496962643,True,,5f3ed1b521b5231766f7fef5,,1760021,149,,evan-feature22,full_rf_a,,1
123,28409,150,,,,2,2,1.0,0.0,0.0,-1.0,,0.0-152.0,,0.0,408.0,1.0,0.741163419,1.0,0.75,1.0,0.64691024,0.0,0.513858197,True,,5f3ed1b521b5231766f7fef5,,1770189,150,,evan-feature22,full_rf_a,,0
124,28410,151,,,,2,2,1.0,0.0,1.0,0.0,,0.0-153.0,,1.0,350.0,1.0,0.75,1.0,0.70816558,1.0,0.594499079,0.0,0.48502124,True,,5f3ed1b521b5231766f7fef5,,1780301,151,,evan-feature22,full_rf_a,,0
125,28411,152,,,,2,2,1.0,0.0,0.0,-1.0,,0.0-154.0,,0.0,456.0,1.0,0.75,1.0,0.721848901,1.0,0.62197249,0.0,0.48263586399999997,True,,5f3ed1b521b5231766f7fef5,,1790518,152,,evan-feature22,full_rf_a,,0
126,28412,153,,,,2,2,0.0,1.0,1.0,0.0,,0.0-155.0,,0.0,260.0,0.0,0.75,0.0,0.74813071,0.0,0.584357161,1.0,0.411477782,True,,5f3ed1b521b5231766f7fef5,,1800538,153,,evan-feature22,full_rf_a,,0
127,28413,154,,,,1,1,1.0,1.0,0.0,-1.0,,0.0-156.0,,-1.0,367.0,1.0,0.75,1.0,0.75,1.0,0.52287236,1.0,0.488290656,True,,5f3ed1b521b5231766f7fef5,,1810667,154,,evan-feature22,full_rf_a,,1
128,28414,155,,,,1,1,1.0,1.0,0.0,-1.0,,0.0-157.0,,-1.0,330.0,1.0,0.75,1.0,0.75,1.0,0.544321581,0.0,0.53143059,True,,5f3ed1b521b5231766f7fef5,,1820759,155,,evan-feature22,full_rf_a,,0
129,28415,156,,,,2,2,1.0,0.0,0.0,-1.0,,0.0-158.0,,0.0,137.0,0.0,0.726754564,1.0,0.75,1.0,0.5129306370000001,0.0,0.530592445,True,,5f3ed1b521b5231766f7fef5,,1830658,156,,evan-feature22,full_rf_a,,1
130,28416,157,,,,2,2,0.0,1.0,1.0,0.0,,0.0-159.0,,0.0,395.0,1.0,0.75,0.0,0.7392590729999999,0.0,0.479875835,1.0,0.547007051,True,,5f3ed1b521b5231766f7fef5,,1840814,157,,evan-feature22,full_rf_a,,0
131,28417,158,,,,1,1,1.0,1.0,1.0,0.0,,0.0-160.0,,1.0,377.0,1.0,0.75,1.0,0.7393376979999999,1.0,0.546045419,0.0,0.541267353,True,,5f3ed1b521b5231766f7fef5,,1850955,158,,evan-feature22,full_rf_a,,1
132,28418,159,,,,2,2,1.0,0.0,1.0,0.0,,0.0-161.0,,1.0,425.0,1.0,0.75,0.0,0.75,1.0,0.485725895,0.0,0.527625395,True,,5f3ed1b521b5231766f7fef5,,1861149,159,,evan-feature22,full_rf_a,,1
133,28419,160,,,,2,2,1.0,1.0,0.0,-1.0,,0.0-162.0,,-1.0,425.0,1.0,0.75,1.0,0.725087974,1.0,0.488603595,1.0,0.504019206,True,,5f3ed1b521b5231766f7fef5,,1871349,160,,evan-feature22,full_rf_a,,0
134,28420,161,,,,2,2,1.0,1.0,0.0,-1.0,,0.0-163.0,,-1.0,441.0,0.0,0.745504295,0.0,0.75,1.0,0.452379914,1.0,0.50131194,True,,5f3ed1b521b5231766f7fef5,,1881560,161,,evan-feature22,full_rf_a,,0
135,28421,162,,,,1,1,1.0,1.0,0.0,-1.0,,0.0-164.0,,-1.0,520.0,1.0,0.728513874,1.0,0.75,0.0,0.44125567200000004,1.0,0.531454591,True,,5f3ed1b521b5231766f7fef5,,1891844,162,,evan-feature22,full_rf_a,,1
136,28422,163,,,,2,2,0.0,1.0,1.0,0.0,,0.0-165.0,,0.0,560.0,1.0,0.73790804,1.0,0.75,0.0,0.413036656,1.0,0.524619035,True,,5f3ed1b521b5231766f7fef5,,1902165,163,,evan-feature22,full_rf_a,,1
137,28423,164,,,,1,1,0.0,1.0,0.0,-1.0,,0.0-166.0,,-1.0,432.0,0.0,0.7080961309999999,1.0,0.708666865,1.0,0.431915581,1.0,0.481819489,True,,5f3ed1b521b5231766f7fef5,,1912359,164,,evan-feature22,full_rf_a,,1
138,28424,165,,,,2,2,1.0,1.0,0.0,-1.0,,0.0-167.0,,-1.0,407.0,0.0,0.721378003,1.0,0.71605913,1.0,0.36642387,1.0,0.5036739929999999,True,,5f3ed1b521b5231766f7fef5,,1922529,165,,evan-feature22,full_rf_a,,1
139,28425,166,,,,2,2,0.0,0.0,0.0,-1.0,,0.0-168.0,,0.0,360.0,0.0,0.7340618959999999,1.0,0.699323252,0.0,0.35298046299999997,0.0,0.511241692,True,,5f3ed1b521b5231766f7fef5,,1932651,166,,evan-feature22,full_rf_a,,0
140,28426,167,,,,2,2,1.0,0.0,1.0,0.0,,0.0-169.0,,1.0,405.0,1.0,0.75,0.0,0.70412698,1.0,0.380734814,0.0,0.529580116,True,,5f3ed1b521b5231766f7fef5,,1942818,167,,evan-feature22,full_rf_a,,0
141,28427,168,,,,2,2,1.0,1.0,0.0,-1.0,,0.0-170.0,,-1.0,512.0,1.0,0.7436654909999999,1.0,0.711182751,1.0,0.41125331,1.0,0.49554405,True,,5f3ed1b521b5231766f7fef5,,1953094,168,,evan-feature22,full_rf_a,,0
142,28428,169,,,,2,2,0.0,1.0,0.0,-1.0,,0.0-171.0,,-1.0,377.0,1.0,0.731607915,1.0,0.651774583,0.0,0.35688023,1.0,0.45194491600000003,True,,5f3ed1b521b5231766f7fef5,,1963235,169,,evan-feature22,full_rf_a,,0
143,28429,170,,,,1,1,1.0,1.0,1.0,0.0,,0.0-172.0,,1.0,365.0,1.0,0.75,1.0,0.75,0.0,0.283145374,1.0,0.528608005,True,,5f3ed1b521b5231766f7fef5,,1973363,170,,evan-feature22,full_rf_a,,1
144,28430,171,,,,1,1,0.0,1.0,1.0,0.0,,0.0-173.0,,0.0,400.0,0.0,0.7491416890000001,1.0,0.7423785959999999,0.0,0.29135870399999997,1.0,0.498888318,True,,5f3ed1b521b5231766f7fef5,,1983526,171,,evan-feature22,full_rf_a,,0
145,28431,172,,,,1,1,1.0,1.0,1.0,0.0,,0.0-174.0,,1.0,474.0,1.0,0.708569387,1.0,0.717682277,0.0,0.294421699,1.0,0.493838163,True,,5f3ed1b521b5231766f7fef5,,1993761,172,,evan-feature22,full_rf_a,,0
146,28432,173,,,,1,1,0.0,1.0,0.0,-1.0,,0.0-175.0,,-1.0,402.0,0.0,0.75,1.0,0.7383382159999999,0.0,0.356098707,1.0,0.442533405,True,,5f3ed1b521b5231766f7fef5,,2003926,173,,evan-feature22,full_rf_a,,0
147,28433,174,,,,1,1,1.0,0.0,0.0,-1.0,,0.0-176.0,,0.0,786.0,1.0,0.744527075,0.0,0.75,0.0,0.334127506,0.0,0.393165805,True,,5f3ed1b521b5231766f7fef5,,2014477,174,,evan-feature22,full_rf_a,,0
148,28434,175,,,,1,1,1.0,1.0,0.0,-1.0,,0.0-177.0,,-1.0,337.0,1.0,0.75,1.0,0.75,1.0,0.33571021799999995,0.0,0.350393962,True,,5f3ed1b521b5231766f7fef5,,2024573,175,,evan-feature22,full_rf_a,,0
149,28435,176,,,,2,2,1.0,0.0,0.0,-1.0,,0.0-178.0,,0.0,325.0,1.0,0.75,1.0,0.75,1.0,0.313628297,0.0,0.36349657399999996,True,,5f3ed1b521b5231766f7fef5,,2034660,176,,evan-feature22,full_rf_a,,1
150,28436,177,,,,2,2,1.0,0.0,1.0,0.0,,0.0-179.0,,1.0,368.0,1.0,0.75,0.0,0.734284182,1.0,0.262667667,0.0,0.380199119,True,,5f3ed1b521b5231766f7fef5,,2044792,177,,evan-feature22,full_rf_a,,0
151,28437,178,,,,2,2,0.0,1.0,0.0,-1.0,,0.0-180.0,,-1.0,313.0,1.0,0.75,1.0,0.75,0.0,0.25,1.0,0.394494013,True,,5f3ed1b521b5231766f7fef5,,2054870,178,,evan-feature22,full_rf_a,,0
152,28438,179,,,,1,1,1.0,1.0,1.0,0.0,,0.0-181.0,,1.0,357.0,1.0,0.722298145,1.0,0.7357822340000001,0.0,0.25,0.0,0.319142121,True,,5f3ed1b521b5231766f7fef5,,2064992,179,,evan-feature22,full_rf_a,,1
153,28439,180,,,,1,1,1.0,1.0,1.0,0.0,,0.0-182.0,,1.0,398.0,1.0,0.73149275,1.0,0.724276446,0.0,0.305856907,0.0,0.281315057,True,,5f3ed1b521b5231766f7fef5,,2075153,180,,evan-feature22,full_rf_a,,0
154,28440,181,,,,1,1,1.0,1.0,0.0,-1.0,,0.0-183.0,,-1.0,770.0,1.0,0.7458732690000001,1.0,0.7336382459999999,1.0,0.272571964,0.0,0.266021999,True,,5f3ed1b521b5231766f7fef5,,2085686,181,,evan-feature22,full_rf_a,,0
155,28441,182,,,,2,2,0.0,1.0,0.0,-1.0,,0.0-184.0,,-1.0,510.0,1.0,0.705579037,0.0,0.720778292,0.0,0.320238144,1.0,0.30971744,True,,5f3ed1b521b5231766f7fef5,,2095958,182,,evan-feature22,full_rf_a,,1
156,28442,183,,,,1,1,0.0,0.0,0.0,-1.0,,0.0-185.0,,0.0,437.0,0.0,0.700425648,0.0,0.7198784009999999,1.0,0.272590393,1.0,0.304182931,True,,5f3ed1b521b5231766f7fef5,,2106157,183,,evan-feature22,full_rf_a,,1
157,28443,184,,,,1,1,0.0,1.0,0.0,-1.0,,0.0-186.0,,-1.0,457.0,0.0,0.735590785,1.0,0.722714973,1.0,0.25,0.0,0.323421091,True,,5f3ed1b521b5231766f7fef5,,2116378,184,,evan-feature22,full_rf_a,,0
158,28444,185,,,,2,2,0.0,0.0,0.0,-1.0,,0.0-187.0,,0.0,363.0,1.0,0.724807662,0.0,0.63146213,0.0,0.36836492600000004,0.0,0.34592153299999995,True,,5f3ed1b521b5231766f7fef5,,2126503,185,,evan-feature22,full_rf_a,,1
159,28445,186,,,,1,1,1.0,1.0,0.0,-1.0,,0.0-188.0,,-1.0,573.0,1.0,0.7352796909999999,1.0,0.555111392,1.0,0.36003922,0.0,0.31433779999999995,True,,5f3ed1b521b5231766f7fef5,,2136840,186,,evan-feature22,full_rf_a,,1
160,28446,187,notice,,,,,,,,,,0.0-189.0,"{""Q0"":""No""}",,16151.0,,,,,,,,,True,,5f3ed1b521b5231766f7fef5,,2152992,187,Q,survey-text,full_rf_a,,1
161,28447,188,track1,,[1],,,,,,,,0.0-190.0,"{""Q0"":""no""}",,6167.0,,,,,,,,,True,,5f3ed1b521b5231766f7fef5,,2159162,188,Q,evan-quiz,full_rf_a,,1
162,28448,189,track2,,[1],,,,,,,,0.0-191.0,"{""Q0"":""no""}",,6978.0,,,,,,,,,True,,5f3ed1b521b5231766f7fef5,,2166142,189,Q,evan-quiz,full_rf_a,,1
163,28449,190,strat,,,,,,,,,,0.0-192.0,"{""Q0"":""Trying to follow a pattern""}",,19268.0,,,,,,,,,True,,5f3ed1b521b5231766f7fef5,,2185413,190,Q,survey-text,full_rf_a,,1
