,index,Unnamed: 0,Q_name,button_pressed,choice_idxs,chosen_pos,chosen_state,chosen_state_f_1_outcome,chosen_state_f_2_outcome,f_1_reward,f_2_reward,incor_questions,internal_node_id,responses,reward_received,rt,s_1_f_1_outcome,s_1_f_1_prob,s_1_f_2_outcome,s_1_f_2_prob,s_2_f_1_outcome,s_2_f_1_prob,s_2_f_2_outcome,s_2_f_2_prob,safe_first,stimulus,subjectID,success,time_elapsed,trial_index,trial_num,trial_type,version,view_history,switching
0,23667,30,,,,1,1,1.0,1.0,0.0,-1.0,,0.0-27.0,,-1.0,1170.11,1.0,0.6,1.0,0.6,0.0,0.4,0.0,0.4,False,,5900dfba92947200019aaa22,,1646347,30,,evan-feature22,full_pf_a,,0
1,23668,31,,,,1,1,1.0,0.0,0.0,-1.0,,0.0-28.0,,0.0,1194.48,1.0,0.608053294,0.0,0.63424552,0.0,0.397152172,1.0,0.347069101,False,,5900dfba92947200019aaa22,,1657346,31,,evan-feature22,full_pf_a,,0
2,23669,32,,,,2,2,0.0,1.0,0.0,-1.0,,0.0-29.0,,-1.0,1185.98,1.0,0.642237155,1.0,0.648566321,0.0,0.389407674,1.0,0.285525717,False,,5900dfba92947200019aaa22,,1668339,32,,evan-feature22,full_pf_a,,1
3,23670,33,,,,1,1,0.0,0.0,0.0,-1.0,,0.0-30.0,,0.0,1606.935,0.0,0.661086576,0.0,0.630492543,0.0,0.399058924,0.0,0.25,False,,5900dfba92947200019aaa22,,1679732,33,,evan-feature22,full_pf_a,,1
4,23671,34,,,,2,2,1.0,1.0,0.0,-1.0,,0.0-31.0,,-1.0,1440.055,1.0,0.631324137,0.0,0.6269842929999999,1.0,0.38734784299999997,1.0,0.25,False,,5900dfba92947200019aaa22,,1690989,34,,evan-feature22,full_pf_a,,1
5,23672,35,,,,1,1,1.0,0.0,0.0,-1.0,,0.0-32.0,,0.0,725.31,1.0,0.6381991370000001,0.0,0.68987999,0.0,0.384107265,0.0,0.271332943,False,,5900dfba92947200019aaa22,,1701532,35,,evan-feature22,full_pf_a,,1
6,23673,36,,,,2,2,0.0,0.0,0.0,-1.0,,0.0-33.0,,0.0,1490.415,1.0,0.66034901,1.0,0.742641349,0.0,0.360225629,0.0,0.25,False,,5900dfba92947200019aaa22,,1712821,36,,evan-feature22,full_pf_a,,1
7,23674,37,,,,2,2,1.0,0.0,1.0,0.0,,0.0-34.0,,1.0,574.14,1.0,0.638612418,1.0,0.75,1.0,0.367273939,0.0,0.25,False,,5900dfba92947200019aaa22,,1723211,37,,evan-feature22,full_pf_a,,0
8,23675,38,,,,2,2,0.0,0.0,0.0,-1.0,,0.0-35.0,,0.0,590.91,0.0,0.624340629,1.0,0.75,0.0,0.425829545,0.0,0.25,False,,5900dfba92947200019aaa22,,1733584,38,,evan-feature22,full_pf_a,,0
9,23676,39,,,,1,1,1.0,1.0,0.0,-1.0,,0.0-36.0,,-1.0,744.22,1.0,0.621999804,1.0,0.75,0.0,0.368609357,0.0,0.25,False,,5900dfba92947200019aaa22,,1744121,39,,evan-feature22,full_pf_a,,1
10,23677,40,,,,1,1,1.0,1.0,1.0,0.0,,0.0-37.0,,1.0,964.62,1.0,0.62666403,1.0,0.75,1.0,0.311151498,0.0,0.25,False,,5900dfba92947200019aaa22,,1754895,40,,evan-feature22,full_pf_a,,0
11,23678,41,,,,2,2,0.0,0.0,1.0,0.0,,0.0-38.0,,0.0,1089.975,1.0,0.6819650009999999,1.0,0.75,0.0,0.310763048,0.0,0.25,False,,5900dfba92947200019aaa22,,1765794,41,,evan-feature22,full_pf_a,,1
12,23679,42,,,,2,2,0.0,0.0,0.0,-1.0,,0.0-39.0,,0.0,1338.465,0.0,0.740626951,0.0,0.75,0.0,0.25,0.0,0.25,False,,5900dfba92947200019aaa22,,1776977,42,,evan-feature22,full_pf_a,,0
13,23680,43,,,,2,2,0.0,0.0,0.0,-1.0,,0.0-40.0,,0.0,763.54,0.0,0.739599242,1.0,0.742034978,0.0,0.25397114600000004,0.0,0.25,False,,5900dfba92947200019aaa22,,1787540,43,,evan-feature22,full_pf_a,,0
14,23681,44,,,,1,1,1.0,0.0,0.0,-1.0,,0.0-41.0,,0.0,582.4,1.0,0.732341315,0.0,0.72735643,0.0,0.25,1.0,0.25,False,,5900dfba92947200019aaa22,,1797927,44,,evan-feature22,full_pf_a,,1
15,23682,45,,,,1,1,1.0,1.0,0.0,-1.0,,0.0-42.0,,-1.0,343.385,1.0,0.7062287770000001,1.0,0.75,1.0,0.29002151,0.0,0.288256649,False,,5900dfba92947200019aaa22,,1808071,45,,evan-feature22,full_pf_a,,0
16,23683,46,,,,1,1,0.0,0.0,1.0,0.0,,0.0-43.0,,0.0,578.175,0.0,0.7086029209999999,0.0,0.75,0.0,0.274129113,0.0,0.262851608,False,,5900dfba92947200019aaa22,,1818451,46,,evan-feature22,full_pf_a,,0
17,23684,47,,,,2,2,1.0,1.0,0.0,-1.0,,0.0-44.0,,-1.0,903.24,1.0,0.669189651,0.0,0.727614338,1.0,0.298444036,1.0,0.296944518,False,,5900dfba92947200019aaa22,,1829153,47,,evan-feature22,full_pf_a,,1
18,23685,48,,,,1,1,1.0,1.0,1.0,0.0,,0.0-45.0,,1.0,852.975,1.0,0.6819912929999999,1.0,0.7179434290000001,0.0,0.265003961,0.0,0.28157921199999997,False,,5900dfba92947200019aaa22,,1839801,48,,evan-feature22,full_pf_a,,1
19,23686,49,,,,1,1,1.0,1.0,1.0,0.0,,0.0-46.0,,1.0,988.65,1.0,0.665275002,1.0,0.723065271,1.0,0.260414971,1.0,0.30973870000000003,False,,5900dfba92947200019aaa22,,1850573,49,,evan-feature22,full_pf_a,,0
20,23687,50,,,,2,2,0.0,0.0,0.0,-1.0,,0.0-47.0,,0.0,968.37,0.0,0.6660593260000001,1.0,0.728032907,0.0,0.30922817,0.0,0.338778608,False,,5900dfba92947200019aaa22,,1861336,50,,evan-feature22,full_pf_a,,1
21,23688,51,,,,2,2,0.0,0.0,0.0,-1.0,,0.0-48.0,,0.0,826.145,1.0,0.702068785,1.0,0.6528750879999999,0.0,0.287329608,0.0,0.35789613200000003,False,,5900dfba92947200019aaa22,,1871966,51,,evan-feature22,full_pf_a,,0
22,23689,52,,,,2,2,0.0,0.0,0.0,-1.0,,0.0-49.0,,0.0,696.03,1.0,0.651939787,0.0,0.636725589,0.0,0.284834488,0.0,0.358563756,False,,5900dfba92947200019aaa22,,1882464,52,,evan-feature22,full_pf_a,,0
23,23690,53,,,,2,2,1.0,0.0,0.0,-1.0,,0.0-50.0,,0.0,671.35,1.0,0.67573929,1.0,0.612550049,1.0,0.37130387600000003,0.0,0.383542402,False,,5900dfba92947200019aaa22,,1892940,53,,evan-feature22,full_pf_a,,0
24,23691,54,,,,2,2,1.0,1.0,0.0,-1.0,,0.0-51.0,,-1.0,984.4,1.0,0.620753801,0.0,0.60513644,1.0,0.385529434,1.0,0.340361743,False,,5900dfba92947200019aaa22,,1903726,54,,evan-feature22,full_pf_a,,0
25,23692,55,,,,1,1,1.0,1.0,1.0,0.0,,0.0-52.0,,1.0,1088.26,1.0,0.673564893,1.0,0.672437924,1.0,0.292955382,0.0,0.337633795,False,,5900dfba92947200019aaa22,,1914624,55,,evan-feature22,full_pf_a,,1
26,23693,56,,,,2,2,0.0,1.0,0.0,-1.0,,0.0-53.0,,-1.0,925.79,0.0,0.6749427,1.0,0.724197502,0.0,0.32391132100000003,1.0,0.350995264,False,,5900dfba92947200019aaa22,,1925377,56,,evan-feature22,full_pf_a,,1
27,23694,57,,,,2,2,0.0,0.0,0.0,-1.0,,0.0-54.0,,0.0,798.84,0.0,0.6940159379999999,1.0,0.75,0.0,0.31710554399999996,0.0,0.413450341,False,,5900dfba92947200019aaa22,,1935964,57,,evan-feature22,full_pf_a,,0
28,23695,58,,,,2,2,0.0,1.0,0.0,-1.0,,0.0-55.0,,-1.0,771.805,1.0,0.6916018270000001,1.0,0.69001187,0.0,0.261817804,1.0,0.40038635,False,,5900dfba92947200019aaa22,,1946551,58,,evan-feature22,full_pf_a,,0
29,23696,59,,,,2,2,0.0,1.0,0.0,-1.0,,0.0-56.0,,-1.0,1378.65,0.0,0.641061544,1.0,0.71337992,0.0,0.277296461,1.0,0.47372791700000005,False,,5900dfba92947200019aaa22,,1957734,59,,evan-feature22,full_pf_a,,0
30,23697,60,,,,1,1,0.0,1.0,0.0,-1.0,,0.0-57.0,,-1.0,973.305,0.0,0.6082438520000001,1.0,0.708471106,1.0,0.28745137,0.0,0.564174476,False,,5900dfba92947200019aaa22,,1968518,60,,evan-feature22,full_pf_a,,1
31,23698,61,,,,1,1,0.0,1.0,1.0,0.0,,0.0-58.0,,0.0,1008.815,0.0,0.6051112120000001,1.0,0.7118147229999999,1.0,0.272390611,1.0,0.5595149939999999,False,,5900dfba92947200019aaa22,,1979321,61,,evan-feature22,full_pf_a,,0
32,23699,62,,,,1,1,1.0,1.0,1.0,0.0,,0.0-59.0,,1.0,612.78,1.0,0.582420852,1.0,0.635867583,0.0,0.31089574,0.0,0.5227206520000001,False,,5900dfba92947200019aaa22,,1989747,62,,evan-feature22,full_pf_a,,0
33,23700,63,,,,1,1,0.0,0.0,1.0,0.0,,0.0-60.0,,0.0,574.365,0.0,0.623195575,0.0,0.655026044,0.0,0.25,0.0,0.560387538,False,,5900dfba92947200019aaa22,,2000100,63,,evan-feature22,full_pf_a,,0
34,23701,64,,,,2,2,1.0,1.0,0.0,-1.0,,0.0-61.0,,-1.0,847.265,1.0,0.601889598,1.0,0.678198724,1.0,0.25,1.0,0.559922936,False,,5900dfba92947200019aaa22,,2010768,64,,evan-feature22,full_pf_a,,1
35,23702,65,,,,1,1,1.0,1.0,1.0,0.0,,0.0-62.0,,1.0,775.07,1.0,0.601259914,1.0,0.704681482,0.0,0.33908969299999997,1.0,0.505003715,False,,5900dfba92947200019aaa22,,2021347,65,,evan-feature22,full_pf_a,,1
36,23703,66,,,,1,1,0.0,1.0,1.0,0.0,,0.0-63.0,,0.0,978.805,0.0,0.59645454,1.0,0.710437172,0.0,0.327441879,0.0,0.391749613,False,,5900dfba92947200019aaa22,,2032139,66,,evan-feature22,full_pf_a,,0
37,23704,67,,,,2,2,0.0,0.0,0.0,-1.0,,0.0-64.0,,0.0,1001.465,0.0,0.529473,1.0,0.636758527,0.0,0.301338063,0.0,0.365661481,False,,5900dfba92947200019aaa22,,2042931,67,,evan-feature22,full_pf_a,,1
38,23705,68,,,,1,1,1.0,1.0,1.0,0.0,,0.0-65.0,,1.0,737.53,1.0,0.541657162,1.0,0.634541962,0.0,0.343535366,1.0,0.371763742,False,,5900dfba92947200019aaa22,,2053465,68,,evan-feature22,full_pf_a,,1
39,23706,69,,,,1,1,1.0,1.0,1.0,0.0,,0.0-66.0,,1.0,476.945,1.0,0.5707533260000001,1.0,0.589121171,0.0,0.326428396,1.0,0.43961622899999997,False,,5900dfba92947200019aaa22,,2063792,69,,evan-feature22,full_pf_a,,0
40,23707,70,,,,2,2,0.0,1.0,0.0,-1.0,,0.0-67.0,,-1.0,754.73,1.0,0.5707533260000001,0.0,0.589121171,0.0,0.326428396,1.0,0.43961622899999997,False,,5900dfba92947200019aaa22,,2074354,70,,evan-feature22,full_pf_a,,1
41,23708,71,,,,1,1,0.0,1.0,0.0,-1.0,,0.0-68.0,,-1.0,796.005,0.0,0.506271295,1.0,0.641775594,0.0,0.37149690700000004,0.0,0.404330166,False,,5900dfba92947200019aaa22,,2084972,71,,evan-feature22,full_pf_a,,1
42,23709,72,,,,1,1,1.0,0.0,1.0,0.0,,0.0-69.0,,1.0,961.75,1.0,0.455642565,0.0,0.623605825,0.0,0.358753011,1.0,0.346174041,False,,5900dfba92947200019aaa22,,2095727,72,,evan-feature22,full_pf_a,,0
43,23710,73,,,,2,2,1.0,0.0,0.0,-1.0,,0.0-70.0,,0.0,799.69,1.0,0.483677308,0.0,0.5904681070000001,1.0,0.402218411,0.0,0.35344697,False,,5900dfba92947200019aaa22,,2106340,73,,evan-feature22,full_pf_a,,1
44,23711,74,,,,1,1,1.0,0.0,1.0,0.0,,0.0-71.0,,1.0,732.14,1.0,0.394210977,0.0,0.558925494,0.0,0.540052017,1.0,0.35182128700000004,False,,5900dfba92947200019aaa22,,2116889,74,,evan-feature22,full_pf_a,,1
45,23712,75,,,,1,1,0.0,0.0,0.0,-1.0,,0.0-72.0,,0.0,1320.36,0.0,0.382300414,0.0,0.577670603,1.0,0.607608448,0.0,0.378261578,False,,5900dfba92947200019aaa22,,2128011,75,,evan-feature22,full_pf_a,,0
46,23713,76,,,,1,1,0.0,0.0,1.0,0.0,,0.0-73.0,,0.0,737.0,0.0,0.357596762,0.0,0.5929076529999999,1.0,0.6579790010000001,1.0,0.401326777,False,,5900dfba92947200019aaa22,,2138547,76,,evan-feature22,full_pf_a,,0
47,23714,77,,,,2,2,1.0,0.0,0.0,-1.0,,0.0-74.0,,0.0,824.3,0.0,0.362033495,0.0,0.582308608,1.0,0.649195052,0.0,0.355158505,False,,5900dfba92947200019aaa22,,2149167,77,,evan-feature22,full_pf_a,,1
48,23715,78,,,,2,2,1.0,1.0,0.0,-1.0,,0.0-75.0,,-1.0,813.735,1.0,0.369620635,1.0,0.669100864,1.0,0.706059111,1.0,0.362516241,False,,5900dfba92947200019aaa22,,2159800,78,,evan-feature22,full_pf_a,,0
49,23716,79,,,,1,1,0.0,1.0,0.0,-1.0,,0.0-76.0,,-1.0,761.725,0.0,0.41477751399999996,1.0,0.7284416779999999,0.0,0.7182656940000001,0.0,0.36228040899999997,False,,5900dfba92947200019aaa22,,2170408,79,,evan-feature22,full_pf_a,,1
50,23717,80,,,,1,1,0.0,1.0,1.0,0.0,,0.0-77.0,,0.0,816.58,0.0,0.37675460299999997,1.0,0.703250285,1.0,0.75,0.0,0.461979164,False,,5900dfba92947200019aaa22,,2181039,80,,evan-feature22,full_pf_a,,0
51,23718,81,,,,2,2,1.0,0.0,1.0,0.0,,0.0-78.0,,1.0,606.32,0.0,0.398716075,0.0,0.6723864890000001,1.0,0.674153818,0.0,0.519029516,False,,5900dfba92947200019aaa22,,2191447,81,,evan-feature22,full_pf_a,,1
52,23719,82,,,,2,2,1.0,0.0,1.0,0.0,,0.0-79.0,,1.0,814.73,1.0,0.34677856700000004,0.0,0.69057175,1.0,0.6822438540000001,0.0,0.477292237,False,,5900dfba92947200019aaa22,,2202067,82,,evan-feature22,full_pf_a,,0
53,23720,83,,,,1,1,0.0,1.0,0.0,-1.0,,0.0-80.0,,-1.0,1212.255,0.0,0.28580469199999997,1.0,0.68408818,1.0,0.684207565,0.0,0.49780448299999996,False,,5900dfba92947200019aaa22,,2213073,83,,evan-feature22,full_pf_a,,1
54,23722,85,,,,2,2,0.0,1.0,0.0,-1.0,,0.0-82.0,,-1.0,1950.09,0.0,0.25,1.0,0.7405808970000001,0.0,0.679614108,1.0,0.436436964,False,,5900dfba92947200019aaa22,,2229675,85,,evan-feature22,full_pf_a,,1
55,23723,86,,,,1,1,0.0,1.0,0.0,-1.0,,0.0-83.0,,-1.0,1671.21,0.0,0.29890393,1.0,0.730505706,0.0,0.7328203320000001,0.0,0.439256938,False,,5900dfba92947200019aaa22,,2241134,86,,evan-feature22,full_pf_a,,1
56,23724,87,,,,1,1,0.0,1.0,1.0,0.0,,0.0-84.0,,0.0,1397.83,0.0,0.326762398,1.0,0.7148059609999999,1.0,0.75,0.0,0.44389608799999997,False,,5900dfba92947200019aaa22,,2252345,87,,evan-feature22,full_pf_a,,0
57,23725,88,,,,2,2,1.0,0.0,0.0,-1.0,,0.0-85.0,,0.0,724.53,0.0,0.295168515,1.0,0.739760854,1.0,0.719947008,0.0,0.35277284600000003,False,,5900dfba92947200019aaa22,,2262867,88,,evan-feature22,full_pf_a,,1
58,23726,89,,,,2,2,1.0,1.0,0.0,-1.0,,0.0-86.0,,-1.0,1212.645,0.0,0.25,1.0,0.70781482,1.0,0.75,1.0,0.286095925,False,,5900dfba92947200019aaa22,,2273904,89,,evan-feature22,full_pf_a,,0
59,23727,90,,,,1,1,0.0,1.0,0.0,-1.0,,0.0-87.0,,-1.0,659.745,0.0,0.25638190899999996,1.0,0.704088163,1.0,0.75,0.0,0.26872601399999996,False,,5900dfba92947200019aaa22,,2284371,90,,evan-feature22,full_pf_a,,1
60,23728,91,,,,2,2,1.0,0.0,1.0,0.0,,0.0-88.0,,1.0,1322.695,0.0,0.271581126,1.0,0.669760107,1.0,0.733896663,0.0,0.273244572,False,,5900dfba92947200019aaa22,,2295492,91,,evan-feature22,full_pf_a,,1
61,23729,92,,,,1,1,0.0,1.0,0.0,-1.0,,0.0-89.0,,-1.0,1130.245,0.0,0.257144401,1.0,0.600575706,0.0,0.74488122,0.0,0.25,False,,5900dfba92947200019aaa22,,2306430,92,,evan-feature22,full_pf_a,,1
62,23730,93,,,,1,1,1.0,0.0,0.0,-1.0,,0.0-90.0,,0.0,1708.25,1.0,0.25,0.0,0.616870026,1.0,0.723610234,0.0,0.25,False,,5900dfba92947200019aaa22,,2317934,93,,evan-feature22,full_pf_a,,0
63,23731,94,,,,1,1,0.0,1.0,1.0,0.0,,0.0-91.0,,0.0,1222.825,0.0,0.25,1.0,0.583540187,1.0,0.7041042559999999,0.0,0.285961995,False,,5900dfba92947200019aaa22,,2328975,94,,evan-feature22,full_pf_a,,0
64,23732,95,,,,2,2,1.0,0.0,1.0,0.0,,0.0-92.0,,1.0,477.04,0.0,0.27254536,0.0,0.53875765,1.0,0.693783448,0.0,0.284961652,False,,5900dfba92947200019aaa22,,2339248,95,,evan-feature22,full_pf_a,,1
65,23733,96,,,,2,2,1.0,0.0,1.0,0.0,,0.0-93.0,,1.0,709.355,0.0,0.25,1.0,0.548431252,1.0,0.734221895,0.0,0.279445214,False,,5900dfba92947200019aaa22,,2349768,96,,evan-feature22,full_pf_a,,0
66,23734,97,,,,2,2,1.0,1.0,0.0,-1.0,,0.0-94.0,,-1.0,964.41,1.0,0.258640684,0.0,0.545878066,1.0,0.725245965,1.0,0.31487537,False,,5900dfba92947200019aaa22,,2360537,97,,evan-feature22,full_pf_a,,0
67,23735,98,,,,1,1,0.0,1.0,0.0,-1.0,,0.0-95.0,,-1.0,714.34,0.0,0.251103711,1.0,0.5776290629999999,1.0,0.696320133,0.0,0.317831047,False,,5900dfba92947200019aaa22,,2371059,98,,evan-feature22,full_pf_a,,1
68,23736,99,,,,2,2,1.0,0.0,0.0,-1.0,,0.0-96.0,,0.0,892.63,0.0,0.276630292,0.0,0.617329858,1.0,0.73838088,0.0,0.261471582,False,,5900dfba92947200019aaa22,,2381760,99,,evan-feature22,full_pf_a,,1
69,23737,100,,,,1,1,1.0,1.0,0.0,-1.0,,0.0-97.0,,-1.0,1467.415,1.0,0.297716424,1.0,0.618863717,1.0,0.7402358259999999,0.0,0.262600834,False,,5900dfba92947200019aaa22,,2393045,100,,evan-feature22,full_pf_a,,1
70,23738,101,,,,2,2,1.0,0.0,1.0,0.0,,0.0-98.0,,1.0,1443.695,0.0,0.290935512,0.0,0.695370945,1.0,0.706570507,0.0,0.280030553,False,,5900dfba92947200019aaa22,,2404310,101,,evan-feature22,full_pf_a,,1
71,23739,102,,,,2,2,1.0,1.0,0.0,-1.0,,0.0-99.0,,-1.0,856.655,0.0,0.25,1.0,0.6465277079999999,1.0,0.67766682,1.0,0.25,False,,5900dfba92947200019aaa22,,2414981,102,,evan-feature22,full_pf_a,,0
72,23740,103,,,,2,2,1.0,0.0,1.0,0.0,,0.0-100.0,,1.0,857.895,0.0,0.26463816,0.0,0.636100213,1.0,0.646048507,0.0,0.265607101,False,,5900dfba92947200019aaa22,,2425630,103,,evan-feature22,full_pf_a,,0
73,23741,104,,,,2,2,0.0,1.0,1.0,0.0,,0.0-101.0,,0.0,678.81,0.0,0.314340707,0.0,0.667795927,0.0,0.613630805,1.0,0.25,False,,5900dfba92947200019aaa22,,2436128,104,,evan-feature22,full_pf_a,,0
74,23742,105,,,,2,2,1.0,1.0,0.0,-1.0,,0.0-102.0,,-1.0,1164.97,0.0,0.28685784,1.0,0.6622549529999999,1.0,0.652154117,1.0,0.25,False,,5900dfba92947200019aaa22,,2447099,105,,evan-feature22,full_pf_a,,0
75,23743,106,,,,2,2,1.0,0.0,0.0,-1.0,,0.0-103.0,,0.0,838.925,0.0,0.304106554,1.0,0.631289538,1.0,0.707041942,0.0,0.29314237,False,,5900dfba92947200019aaa22,,2457727,106,,evan-feature22,full_pf_a,,0
76,23744,107,,,,2,2,0.0,0.0,0.0,-1.0,,0.0-104.0,,0.0,699.21,0.0,0.304806932,0.0,0.571167718,0.0,0.680472346,0.0,0.25,False,,5900dfba92947200019aaa22,,2468223,107,,evan-feature22,full_pf_a,,0
77,23745,108,,,,1,1,0.0,0.0,0.0,-1.0,,0.0-105.0,,0.0,1218.98,0.0,0.37919861,0.0,0.5724849710000001,1.0,0.705638003,1.0,0.30179300600000003,False,,5900dfba92947200019aaa22,,2479228,108,,evan-feature22,full_pf_a,,1
78,23746,109,,,,2,2,1.0,0.0,0.0,-1.0,,0.0-106.0,,0.0,885.91,0.0,0.464277969,0.0,0.554034373,1.0,0.7372627340000001,0.0,0.264699741,False,,5900dfba92947200019aaa22,,2489925,109,,evan-feature22,full_pf_a,,1
79,23747,110,,,,2,2,1.0,0.0,0.0,-1.0,,0.0-107.0,,0.0,773.105,1.0,0.465104323,1.0,0.530793115,1.0,0.75,0.0,0.31683071,False,,5900dfba92947200019aaa22,,2500493,110,,evan-feature22,full_pf_a,,0
80,23748,111,,,,2,2,1.0,0.0,1.0,0.0,,0.0-108.0,,1.0,538.11,0.0,0.465104323,1.0,0.530793115,1.0,0.75,0.0,0.31683071,False,,5900dfba92947200019aaa22,,2510831,111,,evan-feature22,full_pf_a,,0
81,23749,112,,,,2,2,1.0,1.0,1.0,0.0,,0.0-109.0,,1.0,628.14,0.0,0.46833986,0.0,0.570249239,1.0,0.7244472590000001,1.0,0.364114163,False,,5900dfba92947200019aaa22,,2521282,112,,evan-feature22,full_pf_a,,0
82,23750,113,,,,2,2,0.0,1.0,1.0,0.0,,0.0-110.0,,0.0,656.67,0.0,0.445444024,0.0,0.649673355,0.0,0.6845441290000001,1.0,0.300660449,False,,5900dfba92947200019aaa22,,2531741,113,,evan-feature22,full_pf_a,,0
83,23751,114,,,,2,2,1.0,0.0,1.0,0.0,,0.0-111.0,,1.0,564.12,0.0,0.39909721299999995,1.0,0.6715179509999999,1.0,0.742310028,0.0,0.35496088299999995,False,,5900dfba92947200019aaa22,,2542104,114,,evan-feature22,full_pf_a,,0
84,23752,115,,,,2,2,1.0,0.0,0.0,-1.0,,0.0-112.0,,0.0,589.025,0.0,0.37956104799999996,1.0,0.694725302,1.0,0.7181651309999999,0.0,0.38726906299999997,False,,5900dfba92947200019aaa22,,2552491,115,,evan-feature22,full_pf_a,,0
85,23753,116,,,,2,2,0.0,0.0,0.0,-1.0,,0.0-113.0,,0.0,736.665,0.0,0.404995034,0.0,0.724375412,0.0,0.6910946859999999,0.0,0.387187347,False,,5900dfba92947200019aaa22,,2563019,116,,evan-feature22,full_pf_a,,0
86,23754,117,,,,2,2,1.0,0.0,1.0,0.0,,0.0-114.0,,1.0,1080.64,1.0,0.461740803,1.0,0.75,1.0,0.75,0.0,0.34872038200000005,False,,5900dfba92947200019aaa22,,2573913,117,,evan-feature22,full_pf_a,,0
87,23755,118,,,,2,2,1.0,0.0,1.0,0.0,,0.0-115.0,,1.0,744.73,0.0,0.43821380600000004,0.0,0.738833273,1.0,0.728286963,0.0,0.399538128,False,,5900dfba92947200019aaa22,,2584469,118,,evan-feature22,full_pf_a,,0
88,23756,119,,,,2,2,1.0,0.0,0.0,-1.0,,0.0-116.0,,0.0,1007.535,0.0,0.41709882,1.0,0.736666736,1.0,0.75,0.0,0.389095584,False,,5900dfba92947200019aaa22,,2595279,119,,evan-feature22,full_pf_a,,0
89,23757,120,,,,2,2,1.0,0.0,0.0,-1.0,,0.0-117.0,,0.0,615.575,0.0,0.39749009799999996,0.0,0.744320029,1.0,0.75,0.0,0.363848678,False,,5900dfba92947200019aaa22,,2605704,120,,evan-feature22,full_pf_a,,0
90,23758,121,,,,2,2,1.0,0.0,1.0,0.0,,0.0-118.0,,1.0,761.355,0.0,0.392653706,0.0,0.75,1.0,0.75,0.0,0.384386976,False,,5900dfba92947200019aaa22,,2616273,121,,evan-feature22,full_pf_a,,0
91,23759,122,,,,2,2,1.0,1.0,0.0,-1.0,,0.0-119.0,,-1.0,839.96,0.0,0.31190902600000003,1.0,0.75,1.0,0.732413819,1.0,0.413082932,False,,5900dfba92947200019aaa22,,2626919,122,,evan-feature22,full_pf_a,,0
92,23760,123,,,,2,2,1.0,1.0,1.0,0.0,,0.0-120.0,,1.0,860.67,0.0,0.366917648,1.0,0.740073855,1.0,0.75,1.0,0.352861979,False,,5900dfba92947200019aaa22,,2637582,123,,evan-feature22,full_pf_a,,0
93,23761,124,,,,2,2,1.0,0.0,1.0,0.0,,0.0-121.0,,1.0,712.66,0.0,0.3645172,1.0,0.721770713,1.0,0.75,0.0,0.404074511,False,,5900dfba92947200019aaa22,,2648094,124,,evan-feature22,full_pf_a,,0
94,23762,125,,,,2,2,1.0,1.0,1.0,0.0,,0.0-122.0,,1.0,496.23,1.0,0.35205600299999995,1.0,0.68983859,1.0,0.739735447,1.0,0.366895945,False,,5900dfba92947200019aaa22,,2658408,125,,evan-feature22,full_pf_a,,0
95,23763,126,,,,2,2,1.0,1.0,1.0,0.0,,0.0-123.0,,1.0,675.215,1.0,0.40998722600000004,0.0,0.720859127,1.0,0.673854955,1.0,0.368528541,False,,5900dfba92947200019aaa22,,2668899,126,,evan-feature22,full_pf_a,,0
96,23764,127,,,,2,2,1.0,0.0,1.0,0.0,,0.0-124.0,,1.0,626.0,1.0,0.353625316,1.0,0.75,1.0,0.695605473,0.0,0.38303674200000004,False,,5900dfba92947200019aaa22,,2679328,127,,evan-feature22,full_pf_a,,0
97,23765,128,,,,2,2,1.0,1.0,1.0,0.0,,0.0-125.0,,1.0,831.92,1.0,0.359216989,1.0,0.75,1.0,0.6987915090000001,1.0,0.35169046200000004,False,,5900dfba92947200019aaa22,,2689971,128,,evan-feature22,full_pf_a,,0
98,23766,129,,,,2,2,1.0,0.0,1.0,0.0,,0.0-126.0,,1.0,831.43,0.0,0.35834496899999996,1.0,0.75,1.0,0.707067742,0.0,0.416763636,False,,5900dfba92947200019aaa22,,2700616,129,,evan-feature22,full_pf_a,,0
99,23767,130,,,,2,2,0.0,0.0,0.0,-1.0,,0.0-127.0,,0.0,556.635,1.0,0.38741613799999997,1.0,0.7177369570000001,0.0,0.734902455,0.0,0.49438664299999996,False,,5900dfba92947200019aaa22,,2710965,130,,evan-feature22,full_pf_a,,0
100,23768,131,,,,2,2,1.0,0.0,1.0,0.0,,0.0-128.0,,1.0,541.255,0.0,0.405255252,1.0,0.7300466640000001,1.0,0.7027748070000001,0.0,0.504359668,False,,5900dfba92947200019aaa22,,2721322,131,,evan-feature22,full_pf_a,,0
101,23769,132,,,,2,2,1.0,1.0,1.0,0.0,,0.0-129.0,,1.0,594.44,1.0,0.40697073,1.0,0.7260142190000001,1.0,0.724461982,1.0,0.522779179,False,,5900dfba92947200019aaa22,,2731716,132,,evan-feature22,full_pf_a,,0
102,23770,133,,,,2,2,1.0,0.0,1.0,0.0,,0.0-130.0,,1.0,609.62,1.0,0.43906215299999996,1.0,0.7252802340000001,1.0,0.719079934,0.0,0.5712990579999999,False,,5900dfba92947200019aaa22,,2742132,133,,evan-feature22,full_pf_a,,0
103,23771,134,,,,2,2,1.0,0.0,0.0,-1.0,,0.0-131.0,,0.0,544.81,0.0,0.4076705,1.0,0.73280499,1.0,0.681313127,0.0,0.523891346,False,,5900dfba92947200019aaa22,,2752477,134,,evan-feature22,full_pf_a,,0
104,23772,135,,,,2,2,0.0,0.0,0.0,-1.0,,0.0-132.0,,0.0,609.655,0.0,0.399102911,1.0,0.730498344,0.0,0.661080239,0.0,0.46742603,False,,5900dfba92947200019aaa22,,2762887,135,,evan-feature22,full_pf_a,,0
105,23773,136,,,,2,2,1.0,1.0,0.0,-1.0,,0.0-133.0,,-1.0,641.455,0.0,0.356477282,1.0,0.712296395,1.0,0.641812684,1.0,0.44868414,False,,5900dfba92947200019aaa22,,2773370,136,,evan-feature22,full_pf_a,,0
106,23774,137,,,,2,2,0.0,1.0,1.0,0.0,,0.0-134.0,,0.0,649.885,0.0,0.462760722,0.0,0.692349322,0.0,0.700947931,1.0,0.394680266,False,,5900dfba92947200019aaa22,,2783820,137,,evan-feature22,full_pf_a,,0
107,23775,138,,,,2,2,1.0,0.0,1.0,0.0,,0.0-135.0,,1.0,468.365,0.0,0.422306413,1.0,0.718375916,1.0,0.706340917,0.0,0.367787185,False,,5900dfba92947200019aaa22,,2794094,138,,evan-feature22,full_pf_a,,0
108,23777,140,,,,2,2,1.0,0.0,1.0,0.0,,0.0-137.0,,1.0,1011.21,0.0,0.4582233,0.0,0.643834117,1.0,0.75,0.0,0.39615823299999997,False,,5900dfba92947200019aaa22,,2808362,140,,evan-feature22,full_pf_a,,0
109,23778,141,,,,2,2,1.0,0.0,1.0,0.0,,0.0-138.0,,1.0,493.74,0.0,0.43813437899999996,1.0,0.651283804,1.0,0.729674191,0.0,0.37711048,False,,5900dfba92947200019aaa22,,2818656,141,,evan-feature22,full_pf_a,,0
110,23779,142,,,,2,2,1.0,1.0,1.0,0.0,,0.0-139.0,,1.0,644.075,0.0,0.471199094,0.0,0.6470010979999999,1.0,0.715008097,1.0,0.410656191,False,,5900dfba92947200019aaa22,,2829104,142,,evan-feature22,full_pf_a,,0
111,23780,143,,,,2,2,1.0,1.0,1.0,0.0,,0.0-140.0,,1.0,680.62,0.0,0.42486406,1.0,0.629771829,1.0,0.6550939960000001,1.0,0.459093873,False,,5900dfba92947200019aaa22,,2839596,143,,evan-feature22,full_pf_a,,0
112,23781,144,,,,2,2,1.0,0.0,1.0,0.0,,0.0-141.0,,1.0,541.175,1.0,0.4803197,1.0,0.645842715,1.0,0.6421749920000001,0.0,0.443092151,False,,5900dfba92947200019aaa22,,2849951,144,,evan-feature22,full_pf_a,,0
113,23782,145,,,,2,2,1.0,0.0,0.0,-1.0,,0.0-142.0,,0.0,675.365,0.0,0.521848997,1.0,0.735801074,1.0,0.6691348460000001,0.0,0.45259351600000003,False,,5900dfba92947200019aaa22,,2860423,145,,evan-feature22,full_pf_a,,0
114,23783,146,,,,2,2,0.0,1.0,1.0,0.0,,0.0-143.0,,0.0,542.53,1.0,0.49565621299999996,1.0,0.742400847,0.0,0.661512553,1.0,0.483110831,False,,5900dfba92947200019aaa22,,2870763,146,,evan-feature22,full_pf_a,,0
115,23784,147,,,,2,2,1.0,1.0,1.0,0.0,,0.0-144.0,,1.0,521.27,1.0,0.521564361,1.0,0.731078632,1.0,0.6774886809999999,1.0,0.483263956,False,,5900dfba92947200019aaa22,,2881113,147,,evan-feature22,full_pf_a,,0
116,23785,148,,,,2,2,1.0,0.0,1.0,0.0,,0.0-145.0,,1.0,510.04,1.0,0.558893102,0.0,0.719810023,1.0,0.67461031,0.0,0.499349834,False,,5900dfba92947200019aaa22,,2891414,148,,evan-feature22,full_pf_a,,0
117,23786,149,,,,2,2,1.0,0.0,1.0,0.0,,0.0-146.0,,1.0,417.595,1.0,0.611031046,1.0,0.75,1.0,0.688072995,0.0,0.5321422729999999,False,,5900dfba92947200019aaa22,,2901633,149,,evan-feature22,full_pf_a,,0
118,23787,150,,,,2,2,1.0,0.0,0.0,-1.0,,0.0-147.0,,0.0,526.485,1.0,0.633223941,1.0,0.713567728,1.0,0.75,0.0,0.48185314700000004,False,,5900dfba92947200019aaa22,,2911956,150,,evan-feature22,full_pf_a,,0
119,23788,151,,,,2,2,1.0,1.0,1.0,0.0,,0.0-148.0,,1.0,489.355,1.0,0.664001694,1.0,0.705509768,1.0,0.75,1.0,0.500211065,False,,5900dfba92947200019aaa22,,2922255,151,,evan-feature22,full_pf_a,,0
120,23789,152,,,,2,2,1.0,1.0,1.0,0.0,,0.0-149.0,,1.0,531.895,1.0,0.664001694,1.0,0.705509768,1.0,0.75,1.0,0.500211065,False,,5900dfba92947200019aaa22,,2932583,152,,evan-feature22,full_pf_a,,0
121,23790,153,,,,2,2,1.0,0.0,1.0,0.0,,0.0-150.0,,1.0,511.205,1.0,0.696508041,1.0,0.71066027,1.0,0.717028709,0.0,0.49792991,False,,5900dfba92947200019aaa22,,2942897,153,,evan-feature22,full_pf_a,,0
122,23791,154,,,,2,2,0.0,1.0,0.0,-1.0,,0.0-151.0,,-1.0,617.2,0.0,0.699883272,1.0,0.75,0.0,0.713543895,1.0,0.496962643,False,,5900dfba92947200019aaa22,,2953317,154,,evan-feature22,full_pf_a,,0
123,23792,155,,,,2,2,1.0,1.0,0.0,-1.0,,0.0-152.0,,-1.0,438.605,1.0,0.741163419,1.0,0.75,1.0,0.64691024,1.0,0.513858197,False,,5900dfba92947200019aaa22,,2963550,155,,evan-feature22,full_pf_a,,0
124,23793,156,,,,2,2,0.0,0.0,0.0,-1.0,,0.0-153.0,,0.0,654.74,1.0,0.75,1.0,0.70816558,0.0,0.594499079,0.0,0.48502124,False,,5900dfba92947200019aaa22,,2974002,156,,evan-feature22,full_pf_a,,0
125,23794,157,,,,2,2,1.0,0.0,1.0,0.0,,0.0-154.0,,1.0,592.62,1.0,0.75,1.0,0.721848901,1.0,0.62197249,0.0,0.48263586399999997,False,,5900dfba92947200019aaa22,,2984401,157,,evan-feature22,full_pf_a,,0
126,23795,158,,,,2,2,1.0,1.0,1.0,0.0,,0.0-155.0,,1.0,417.54,0.0,0.75,1.0,0.74813071,1.0,0.584357161,1.0,0.411477782,False,,5900dfba92947200019aaa22,,2994619,158,,evan-feature22,full_pf_a,,0
127,23796,159,,,,2,2,1.0,1.0,1.0,0.0,,0.0-156.0,,1.0,518.63,1.0,0.75,1.0,0.75,1.0,0.52287236,1.0,0.488290656,False,,5900dfba92947200019aaa22,,3004945,159,,evan-feature22,full_pf_a,,0
128,23797,160,,,,2,2,0.0,0.0,1.0,0.0,,0.0-157.0,,0.0,588.095,1.0,0.75,0.0,0.75,0.0,0.544321581,0.0,0.53143059,False,,5900dfba92947200019aaa22,,3015323,160,,evan-feature22,full_pf_a,,0
129,23798,161,,,,2,2,1.0,1.0,1.0,0.0,,0.0-158.0,,1.0,589.68,1.0,0.726754564,1.0,0.75,1.0,0.5129306370000001,1.0,0.530592445,False,,5900dfba92947200019aaa22,,3025731,161,,evan-feature22,full_pf_a,,0
130,23799,162,,,,2,2,0.0,1.0,0.0,-1.0,,0.0-159.0,,-1.0,566.29,0.0,0.75,1.0,0.7392590729999999,0.0,0.479875835,1.0,0.547007051,False,,5900dfba92947200019aaa22,,3036105,162,,evan-feature22,full_pf_a,,0
131,23800,163,,,,1,1,1.0,1.0,0.0,-1.0,,0.0-160.0,,-1.0,517.595,1.0,0.75,1.0,0.7393376979999999,0.0,0.546045419,0.0,0.541267353,False,,5900dfba92947200019aaa22,,3046447,163,,evan-feature22,full_pf_a,,1
132,23801,164,,,,2,2,1.0,0.0,1.0,0.0,,0.0-161.0,,1.0,555.645,1.0,0.75,1.0,0.75,1.0,0.485725895,0.0,0.527625395,False,,5900dfba92947200019aaa22,,3056805,164,,evan-feature22,full_pf_a,,1
133,23802,165,,,,2,2,1.0,1.0,0.0,-1.0,,0.0-162.0,,-1.0,723.155,1.0,0.75,0.0,0.725087974,1.0,0.488603595,1.0,0.504019206,False,,5900dfba92947200019aaa22,,3067393,165,,evan-feature22,full_pf_a,,0
134,23803,166,,,,2,2,0.0,1.0,1.0,0.0,,0.0-163.0,,0.0,553.975,1.0,0.745504295,1.0,0.75,0.0,0.452379914,1.0,0.50131194,False,,5900dfba92947200019aaa22,,3077761,166,,evan-feature22,full_pf_a,,0
135,23804,167,,,,2,2,1.0,0.0,0.0,-1.0,,0.0-164.0,,0.0,655.55,1.0,0.728513874,1.0,0.75,1.0,0.44125567200000004,0.0,0.531454591,False,,5900dfba92947200019aaa22,,3088221,167,,evan-feature22,full_pf_a,,0
136,23805,168,,,,2,2,0.0,1.0,1.0,0.0,,0.0-165.0,,0.0,670.18,1.0,0.73790804,1.0,0.75,0.0,0.413036656,1.0,0.524619035,False,,5900dfba92947200019aaa22,,3098694,168,,evan-feature22,full_pf_a,,0
137,23806,169,,,,2,2,1.0,0.0,1.0,0.0,,0.0-166.0,,1.0,673.87,1.0,0.7080961309999999,1.0,0.708666865,1.0,0.431915581,0.0,0.481819489,False,,5900dfba92947200019aaa22,,3109167,169,,evan-feature22,full_pf_a,,0
138,23807,170,,,,2,2,1.0,1.0,1.0,0.0,,0.0-167.0,,1.0,599.27,0.0,0.721378003,1.0,0.71605913,1.0,0.36642387,1.0,0.5036739929999999,False,,5900dfba92947200019aaa22,,3119588,170,,evan-feature22,full_pf_a,,0
139,23808,171,,,,1,1,1.0,1.0,0.0,-1.0,,0.0-168.0,,-1.0,1121.03,1.0,0.7340618959999999,1.0,0.699323252,0.0,0.35298046299999997,1.0,0.511241692,False,,5900dfba92947200019aaa22,,3130499,171,,evan-feature22,full_pf_a,,1
140,23809,172,,,,2,2,1.0,0.0,0.0,-1.0,,0.0-169.0,,0.0,863.745,1.0,0.75,1.0,0.70412698,1.0,0.380734814,0.0,0.529580116,False,,5900dfba92947200019aaa22,,3141167,172,,evan-feature22,full_pf_a,,1
141,23810,173,,,,2,2,0.0,0.0,0.0,-1.0,,0.0-170.0,,0.0,536.375,1.0,0.7436654909999999,1.0,0.711182751,0.0,0.41125331,0.0,0.49554405,False,,5900dfba92947200019aaa22,,3151500,173,,evan-feature22,full_pf_a,,0
142,23811,174,,,,2,2,1.0,0.0,1.0,0.0,,0.0-171.0,,1.0,568.485,1.0,0.731607915,1.0,0.651774583,1.0,0.35688023,0.0,0.45194491600000003,False,,5900dfba92947200019aaa22,,3161864,174,,evan-feature22,full_pf_a,,0
143,23812,175,,,,2,2,1.0,1.0,0.0,-1.0,,0.0-172.0,,-1.0,1158.765,1.0,0.75,1.0,0.75,1.0,0.283145374,1.0,0.528608005,False,,5900dfba92947200019aaa22,,3172834,175,,evan-feature22,full_pf_a,,0
144,23813,176,,,,2,2,1.0,0.0,1.0,0.0,,0.0-173.0,,1.0,1032.19,1.0,0.7491416890000001,0.0,0.7423785959999999,1.0,0.29135870399999997,0.0,0.498888318,False,,5900dfba92947200019aaa22,,3183679,176,,evan-feature22,full_pf_a,,0
145,23814,177,,,,1,1,0.0,1.0,0.0,-1.0,,0.0-174.0,,-1.0,1102.94,0.0,0.708569387,1.0,0.717682277,0.0,0.294421699,1.0,0.493838163,False,,5900dfba92947200019aaa22,,3194576,177,,evan-feature22,full_pf_a,,1
146,23815,178,,,,2,2,0.0,1.0,1.0,0.0,,0.0-175.0,,0.0,904.04,0.0,0.75,1.0,0.7383382159999999,0.0,0.356098707,1.0,0.442533405,False,,5900dfba92947200019aaa22,,3205288,178,,evan-feature22,full_pf_a,,1
147,23816,179,,,,2,2,0.0,0.0,1.0,0.0,,0.0-176.0,,0.0,436.785,0.0,0.744527075,1.0,0.75,0.0,0.334127506,0.0,0.393165805,False,,5900dfba92947200019aaa22,,3215517,179,,evan-feature22,full_pf_a,,0
148,23817,180,,,,2,2,0.0,0.0,1.0,0.0,,0.0-177.0,,0.0,634.92,1.0,0.75,1.0,0.75,0.0,0.33571021799999995,0.0,0.350393962,False,,5900dfba92947200019aaa22,,3225945,180,,evan-feature22,full_pf_a,,0
149,23818,181,,,,2,2,1.0,1.0,0.0,-1.0,,0.0-178.0,,-1.0,1374.835,1.0,0.75,1.0,0.75,1.0,0.313628297,1.0,0.36349657399999996,False,,5900dfba92947200019aaa22,,3237134,181,,evan-feature22,full_pf_a,,0
150,23819,182,,,,2,2,0.0,0.0,1.0,0.0,,0.0-179.0,,0.0,459.8,1.0,0.75,0.0,0.734284182,0.0,0.262667667,0.0,0.380199119,False,,5900dfba92947200019aaa22,,3247400,182,,evan-feature22,full_pf_a,,0
151,23820,183,,,,2,2,1.0,0.0,1.0,0.0,,0.0-180.0,,1.0,702.495,0.0,0.75,0.0,0.75,1.0,0.25,0.0,0.394494013,False,,5900dfba92947200019aaa22,,3257932,183,,evan-feature22,full_pf_a,,0
152,23821,184,,,,2,2,1.0,1.0,1.0,0.0,,0.0-181.0,,1.0,698.61,0.0,0.722298145,1.0,0.7357822340000001,1.0,0.25,1.0,0.319142121,False,,5900dfba92947200019aaa22,,3268424,184,,evan-feature22,full_pf_a,,0
153,23822,185,,,,2,2,1.0,0.0,1.0,0.0,,0.0-182.0,,1.0,658.03,0.0,0.73149275,1.0,0.724276446,1.0,0.305856907,0.0,0.281315057,False,,5900dfba92947200019aaa22,,3278884,185,,evan-feature22,full_pf_a,,0
154,23823,186,,,,2,2,1.0,1.0,1.0,0.0,,0.0-183.0,,1.0,923.95,1.0,0.7458732690000001,1.0,0.7336382459999999,1.0,0.272571964,1.0,0.266021999,False,,5900dfba92947200019aaa22,,3289597,186,,evan-feature22,full_pf_a,,0
155,23824,187,,,,2,2,0.0,0.0,0.0,-1.0,,0.0-184.0,,0.0,1252.78,0.0,0.705579037,0.0,0.720778292,0.0,0.320238144,0.0,0.30971744,False,,5900dfba92947200019aaa22,,3300650,187,,evan-feature22,full_pf_a,,0
156,23825,188,,,,2,2,0.0,0.0,0.0,-1.0,,0.0-185.0,,0.0,642.23,1.0,0.700425648,1.0,0.7198784009999999,0.0,0.272590393,0.0,0.304182931,False,,5900dfba92947200019aaa22,,3311079,188,,evan-feature22,full_pf_a,,0
157,23826,189,,,,2,2,1.0,0.0,0.0,-1.0,,0.0-186.0,,0.0,766.785,1.0,0.735590785,1.0,0.722714973,1.0,0.25,0.0,0.323421091,False,,5900dfba92947200019aaa22,,3321654,189,,evan-feature22,full_pf_a,,0
158,23827,190,,,,2,2,1.0,0.0,0.0,-1.0,,0.0-187.0,,0.0,648.975,1.0,0.724807662,0.0,0.63146213,1.0,0.36836492600000004,0.0,0.34592153299999995,False,,5900dfba92947200019aaa22,,3332108,190,,evan-feature22,full_pf_a,,0
159,23828,191,,,,2,2,0.0,0.0,1.0,0.0,,0.0-188.0,,0.0,623.875,0.0,0.7352796909999999,0.0,0.555111392,0.0,0.36003922,0.0,0.31433779999999995,False,,5900dfba92947200019aaa22,,3342530,191,,evan-feature22,full_pf_a,,0
160,23829,192,notice,,,,,,,,,,0.0-189.0,"{""Q0"":""No""}",,21522.0,,,,,,,,,False,,5900dfba92947200019aaa22,,3364060,192,Q,survey-text,full_pf_a,,1
161,23830,193,track1,,[0],,,,,,,,0.0-190.0,"{""Q0"":""yes""}",,7362.0,,,,,,,,,False,,5900dfba92947200019aaa22,,3371454,193,Q,evan-quiz,full_pf_a,,1
162,23831,194,track2,,[2],,,,,,,,0.0-191.0,"{""Q0"":""N/A""}",,45069.0,,,,,,,,,False,,5900dfba92947200019aaa22,,3416538,194,Q,evan-quiz,full_pf_a,,1
163,23832,195,strat,,,,,,,,,,0.0-192.0,"{""Q0"":""I used previous patterns""}",,40744.0,,,,,,,,,False,,5900dfba92947200019aaa22,,3457302,195,Q,survey-text,full_pf_a,,1
