,index,Unnamed: 0,Q_name,button_pressed,choice_idxs,chosen_pos,chosen_state,chosen_state_f_1_outcome,chosen_state_f_2_outcome,f_1_reward,f_2_reward,incor_questions,internal_node_id,responses,reward_received,rt,s_1_f_1_outcome,s_1_f_1_prob,s_1_f_2_outcome,s_1_f_2_prob,s_2_f_1_outcome,s_2_f_1_prob,s_2_f_2_outcome,s_2_f_2_prob,safe_first,stimulus,subjectID,success,time_elapsed,trial_index,trial_num,trial_type,version,view_history,switching
0,3382,25,,,,2,2,0.0,0.0,0.0,-1.0,,0.0-27.0,,0.0,2096.895,1.0,0.6,0.0,0.6,0.0,0.4,0.0,0.4,False,,55cf6a7b34e9060005e56ca2,,570679,25,,evan-feature22,full_pf_a,,0
1,3383,26,,,,2,2,0.0,0.0,0.0,-1.0,,0.0-28.0,,0.0,492.84,1.0,0.608053294,1.0,0.63424552,0.0,0.397152172,0.0,0.347069101,False,,55cf6a7b34e9060005e56ca2,,580943,26,,evan-feature22,full_pf_a,,0
2,3384,27,,,,2,2,1.0,0.0,0.0,-1.0,,0.0-29.0,,0.0,629.71,0.0,0.642237155,0.0,0.648566321,1.0,0.389407674,0.0,0.285525717,False,,55cf6a7b34e9060005e56ca2,,591332,27,,evan-feature22,full_pf_a,,0
3,3385,28,,,,1,1,1.0,1.0,0.0,-1.0,,0.0-30.0,,-1.0,1569.075,1.0,0.661086576,1.0,0.630492543,0.0,0.399058924,0.0,0.25,False,,55cf6a7b34e9060005e56ca2,,602678,28,,evan-feature22,full_pf_a,,1
4,3386,29,,,,2,2,1.0,1.0,0.0,-1.0,,0.0-31.0,,-1.0,797.645,1.0,0.631324137,1.0,0.6269842929999999,1.0,0.38734784299999997,1.0,0.25,False,,55cf6a7b34e9060005e56ca2,,613238,29,,evan-feature22,full_pf_a,,1
5,3387,30,,,,1,1,1.0,1.0,0.0,-1.0,,0.0-32.0,,-1.0,1163.79,1.0,0.6381991370000001,1.0,0.68987999,0.0,0.384107265,1.0,0.271332943,False,,55cf6a7b34e9060005e56ca2,,624176,30,,evan-feature22,full_pf_a,,1
6,3388,31,,,,2,2,0.0,1.0,0.0,-1.0,,0.0-33.0,,-1.0,1330.255,1.0,0.66034901,0.0,0.742641349,0.0,0.360225629,1.0,0.25,False,,55cf6a7b34e9060005e56ca2,,635274,31,,evan-feature22,full_pf_a,,1
7,3389,32,,,,1,1,1.0,1.0,1.0,0.0,,0.0-34.0,,1.0,646.665,1.0,0.638612418,1.0,0.75,0.0,0.367273939,0.0,0.25,False,,55cf6a7b34e9060005e56ca2,,645685,32,,evan-feature22,full_pf_a,,1
8,3390,33,,,,2,2,1.0,0.0,0.0,-1.0,,0.0-35.0,,0.0,1134.555,1.0,0.624340629,1.0,0.75,1.0,0.425829545,0.0,0.25,False,,55cf6a7b34e9060005e56ca2,,656602,33,,evan-feature22,full_pf_a,,1
9,3391,34,,,,1,1,1.0,0.0,0.0,-1.0,,0.0-36.0,,0.0,612.19,1.0,0.621999804,0.0,0.75,0.0,0.368609357,0.0,0.25,False,,55cf6a7b34e9060005e56ca2,,666984,34,,evan-feature22,full_pf_a,,1
10,3392,35,,,,1,1,0.0,0.0,1.0,0.0,,0.0-37.0,,0.0,418.04,0.0,0.62666403,0.0,0.75,0.0,0.311151498,1.0,0.25,False,,55cf6a7b34e9060005e56ca2,,677187,35,,evan-feature22,full_pf_a,,0
11,3393,36,,,,2,2,1.0,1.0,1.0,0.0,,0.0-38.0,,1.0,593.08,1.0,0.6819650009999999,1.0,0.75,1.0,0.310763048,1.0,0.25,False,,55cf6a7b34e9060005e56ca2,,687558,36,,evan-feature22,full_pf_a,,1
12,3394,37,,,,1,1,0.0,1.0,0.0,-1.0,,0.0-39.0,,-1.0,397.725,0.0,0.740626951,1.0,0.75,0.0,0.25,1.0,0.25,False,,55cf6a7b34e9060005e56ca2,,697751,37,,evan-feature22,full_pf_a,,1
13,3395,38,,,,1,1,0.0,1.0,0.0,-1.0,,0.0-40.0,,-1.0,780.26,0.0,0.739599242,1.0,0.742034978,1.0,0.25397114600000004,0.0,0.25,False,,55cf6a7b34e9060005e56ca2,,708298,38,,evan-feature22,full_pf_a,,0
14,3396,39,,,,1,1,1.0,1.0,0.0,-1.0,,0.0-41.0,,-1.0,810.255,1.0,0.732341315,1.0,0.72735643,1.0,0.25,1.0,0.25,False,,55cf6a7b34e9060005e56ca2,,718881,39,,evan-feature22,full_pf_a,,0
15,3397,40,,,,2,2,0.0,0.0,0.0,-1.0,,0.0-42.0,,0.0,771.165,1.0,0.7062287770000001,1.0,0.75,0.0,0.29002151,0.0,0.288256649,False,,55cf6a7b34e9060005e56ca2,,729425,40,,evan-feature22,full_pf_a,,1
16,3398,41,,,,2,2,0.0,1.0,1.0,0.0,,0.0-43.0,,0.0,627.77,1.0,0.7086029209999999,1.0,0.75,0.0,0.274129113,1.0,0.262851608,False,,55cf6a7b34e9060005e56ca2,,739819,41,,evan-feature22,full_pf_a,,0
17,3399,42,,,,1,1,1.0,1.0,0.0,-1.0,,0.0-44.0,,-1.0,1064.865,1.0,0.669189651,1.0,0.727614338,1.0,0.298444036,0.0,0.296944518,False,,55cf6a7b34e9060005e56ca2,,750662,42,,evan-feature22,full_pf_a,,1
18,3400,43,,,,1,1,0.0,0.0,1.0,0.0,,0.0-45.0,,0.0,717.665,0.0,0.6819912929999999,0.0,0.7179434290000001,1.0,0.265003961,0.0,0.28157921199999997,False,,55cf6a7b34e9060005e56ca2,,761165,43,,evan-feature22,full_pf_a,,0
19,3401,44,,,,1,1,1.0,0.0,1.0,0.0,,0.0-46.0,,1.0,404.57,1.0,0.665275002,0.0,0.723065271,1.0,0.260414971,0.0,0.30973870000000003,False,,55cf6a7b34e9060005e56ca2,,771332,44,,evan-feature22,full_pf_a,,0
20,3402,45,,,,2,2,0.0,1.0,0.0,-1.0,,0.0-47.0,,-1.0,736.41,1.0,0.6660593260000001,1.0,0.728032907,0.0,0.30922817,1.0,0.338778608,False,,55cf6a7b34e9060005e56ca2,,781839,45,,evan-feature22,full_pf_a,,1
21,3403,46,,,,1,1,1.0,1.0,0.0,-1.0,,0.0-48.0,,-1.0,500.395,1.0,0.702068785,1.0,0.6528750879999999,0.0,0.287329608,0.0,0.35789613200000003,False,,55cf6a7b34e9060005e56ca2,,792129,46,,evan-feature22,full_pf_a,,1
22,3404,47,,,,2,2,1.0,1.0,0.0,-1.0,,0.0-49.0,,-1.0,353.795,1.0,0.651939787,0.0,0.636725589,1.0,0.284834488,1.0,0.358563756,False,,55cf6a7b34e9060005e56ca2,,802277,47,,evan-feature22,full_pf_a,,1
23,3405,48,,,,2,2,0.0,0.0,0.0,-1.0,,0.0-50.0,,0.0,414.965,1.0,0.67573929,1.0,0.612550049,0.0,0.37130387600000003,0.0,0.383542402,False,,55cf6a7b34e9060005e56ca2,,812488,48,,evan-feature22,full_pf_a,,0
24,3406,49,,,,2,2,0.0,0.0,0.0,-1.0,,0.0-51.0,,0.0,298.345,1.0,0.620753801,1.0,0.60513644,0.0,0.385529434,0.0,0.340361743,False,,55cf6a7b34e9060005e56ca2,,822569,49,,evan-feature22,full_pf_a,,0
25,3407,50,,,,2,2,1.0,1.0,1.0,0.0,,0.0-52.0,,1.0,283.355,0.0,0.673564893,0.0,0.672437924,1.0,0.292955382,1.0,0.337633795,False,,55cf6a7b34e9060005e56ca2,,832626,50,,evan-feature22,full_pf_a,,0
26,3408,51,,,,2,2,0.0,0.0,0.0,-1.0,,0.0-53.0,,0.0,586.66,1.0,0.6749427,0.0,0.724197502,0.0,0.32391132100000003,0.0,0.350995264,False,,55cf6a7b34e9060005e56ca2,,842983,51,,evan-feature22,full_pf_a,,0
27,3409,52,,,,2,2,1.0,0.0,0.0,-1.0,,0.0-54.0,,0.0,302.565,1.0,0.6940159379999999,1.0,0.75,1.0,0.31710554399999996,0.0,0.413450341,False,,55cf6a7b34e9060005e56ca2,,853059,52,,evan-feature22,full_pf_a,,0
28,3410,53,,,,2,2,0.0,0.0,0.0,-1.0,,0.0-55.0,,0.0,802.935,1.0,0.6916018270000001,0.0,0.69001187,0.0,0.261817804,0.0,0.40038635,False,,55cf6a7b34e9060005e56ca2,,863666,53,,evan-feature22,full_pf_a,,0
29,3411,54,,,,2,2,1.0,1.0,0.0,-1.0,,0.0-56.0,,-1.0,404.505,1.0,0.641061544,1.0,0.71337992,1.0,0.277296461,1.0,0.47372791700000005,False,,55cf6a7b34e9060005e56ca2,,873840,54,,evan-feature22,full_pf_a,,0
30,3412,55,,,,1,1,0.0,1.0,0.0,-1.0,,0.0-57.0,,-1.0,338.605,0.0,0.6082438520000001,1.0,0.708471106,0.0,0.28745137,1.0,0.564174476,False,,55cf6a7b34e9060005e56ca2,,883952,55,,evan-feature22,full_pf_a,,1
31,3413,56,,,,1,1,1.0,1.0,1.0,0.0,,0.0-58.0,,1.0,388.12,1.0,0.6051112120000001,1.0,0.7118147229999999,0.0,0.272390611,1.0,0.5595149939999999,False,,55cf6a7b34e9060005e56ca2,,894101,56,,evan-feature22,full_pf_a,,0
32,3414,57,,,,1,1,1.0,1.0,1.0,0.0,,0.0-59.0,,1.0,1614.895,1.0,0.582420852,1.0,0.635867583,0.0,0.31089574,0.0,0.5227206520000001,False,,55cf6a7b34e9060005e56ca2,,905488,57,,evan-feature22,full_pf_a,,0
33,3415,58,,,,1,1,1.0,1.0,1.0,0.0,,0.0-60.0,,1.0,1172.515,1.0,0.623195575,1.0,0.655026044,1.0,0.25,1.0,0.560387538,False,,55cf6a7b34e9060005e56ca2,,916431,58,,evan-feature22,full_pf_a,,0
34,3416,59,,,,SLOW,SLOW,,,0.0,-1.0,,0.0-61.0,,-3.0,,1.0,0.601889598,0.0,0.678198724,0.0,0.25,0.0,0.559922936,False,,55cf6a7b34e9060005e56ca2,,922245,59,,evan-feature22,full_pf_a,,1
35,3417,60,,,,2,2,0.0,0.0,1.0,0.0,,0.0-62.0,,0.0,575.105,1.0,0.601259914,1.0,0.704681482,0.0,0.33908969299999997,0.0,0.505003715,False,,55cf6a7b34e9060005e56ca2,,932579,60,,evan-feature22,full_pf_a,,1
36,3418,61,,,,1,1,1.0,1.0,1.0,0.0,,0.0-63.0,,1.0,511.74,1.0,0.59645454,1.0,0.710437172,1.0,0.327441879,1.0,0.391749613,False,,55cf6a7b34e9060005e56ca2,,942852,61,,evan-feature22,full_pf_a,,1
37,3419,62,,,,2,2,0.0,0.0,0.0,-1.0,,0.0-64.0,,0.0,1039.88,0.0,0.529473,1.0,0.636758527,0.0,0.301338063,0.0,0.365661481,False,,55cf6a7b34e9060005e56ca2,,953664,62,,evan-feature22,full_pf_a,,1
38,3420,63,,,,1,1,1.0,1.0,1.0,0.0,,0.0-65.0,,1.0,948.44,1.0,0.541657162,1.0,0.634541962,1.0,0.343535366,0.0,0.371763742,False,,55cf6a7b34e9060005e56ca2,,964379,63,,evan-feature22,full_pf_a,,1
39,3421,64,,,,1,1,1.0,1.0,1.0,0.0,,0.0-66.0,,1.0,633.33,1.0,0.5707533260000001,1.0,0.589121171,0.0,0.326428396,1.0,0.43961622899999997,False,,55cf6a7b34e9060005e56ca2,,974802,64,,evan-feature22,full_pf_a,,0
40,3422,65,,,,1,1,0.0,1.0,0.0,-1.0,,0.0-67.0,,-1.0,1234.025,0.0,0.5707533260000001,1.0,0.589121171,1.0,0.326428396,1.0,0.43961622899999997,False,,55cf6a7b34e9060005e56ca2,,985798,65,,evan-feature22,full_pf_a,,0
41,3423,66,,,,2,2,0.0,0.0,0.0,-1.0,,0.0-68.0,,0.0,1053.11,1.0,0.506271295,1.0,0.641775594,0.0,0.37149690700000004,0.0,0.404330166,False,,55cf6a7b34e9060005e56ca2,,996652,66,,evan-feature22,full_pf_a,,1
42,3424,67,,,,1,1,0.0,0.0,1.0,0.0,,0.0-69.0,,0.0,680.515,0.0,0.455642565,0.0,0.623605825,0.0,0.358753011,0.0,0.346174041,False,,55cf6a7b34e9060005e56ca2,,1007104,67,,evan-feature22,full_pf_a,,1
43,3425,68,,,,2,2,0.0,0.0,0.0,-1.0,,0.0-70.0,,0.0,2975.795,0.0,0.483677308,1.0,0.5904681070000001,0.0,0.402218411,0.0,0.35344697,False,,55cf6a7b34e9060005e56ca2,,1019861,68,,evan-feature22,full_pf_a,,1
44,3426,69,,,,1,1,0.0,1.0,1.0,0.0,,0.0-71.0,,0.0,591.545,0.0,0.394210977,1.0,0.558925494,1.0,0.540052017,0.0,0.35182128700000004,False,,55cf6a7b34e9060005e56ca2,,1030214,69,,evan-feature22,full_pf_a,,1
45,3427,70,,,,1,1,1.0,0.0,0.0,-1.0,,0.0-72.0,,0.0,933.185,1.0,0.382300414,0.0,0.577670603,0.0,0.607608448,0.0,0.378261578,False,,55cf6a7b34e9060005e56ca2,,1040914,70,,evan-feature22,full_pf_a,,0
46,3428,71,,,,2,2,0.0,0.0,1.0,0.0,,0.0-73.0,,0.0,1170.01,0.0,0.357596762,0.0,0.5929076529999999,0.0,0.6579790010000001,0.0,0.401326777,False,,55cf6a7b34e9060005e56ca2,,1051871,71,,evan-feature22,full_pf_a,,1
47,3429,72,,,,1,1,0.0,1.0,0.0,-1.0,,0.0-74.0,,-1.0,1237.21,0.0,0.362033495,1.0,0.582308608,0.0,0.649195052,0.0,0.355158505,False,,55cf6a7b34e9060005e56ca2,,1062880,72,,evan-feature22,full_pf_a,,1
48,3430,73,,,,2,2,1.0,0.0,0.0,-1.0,,0.0-75.0,,0.0,701.7,1.0,0.369620635,0.0,0.669100864,1.0,0.706059111,0.0,0.362516241,False,,55cf6a7b34e9060005e56ca2,,1073359,73,,evan-feature22,full_pf_a,,1
49,3431,74,,,,2,2,0.0,0.0,0.0,-1.0,,0.0-76.0,,0.0,2837.3,1.0,0.41477751399999996,1.0,0.7284416779999999,0.0,0.7182656940000001,0.0,0.36228040899999997,False,,55cf6a7b34e9060005e56ca2,,1085973,74,,evan-feature22,full_pf_a,,0
50,3432,75,,,,2,2,1.0,0.0,1.0,0.0,,0.0-77.0,,1.0,1291.075,1.0,0.37675460299999997,1.0,0.703250285,1.0,0.75,0.0,0.461979164,False,,55cf6a7b34e9060005e56ca2,,1097044,75,,evan-feature22,full_pf_a,,0
51,3433,76,,,,2,2,1.0,1.0,1.0,0.0,,0.0-78.0,,1.0,504.435,1.0,0.398716075,0.0,0.6723864890000001,1.0,0.674153818,1.0,0.519029516,False,,55cf6a7b34e9060005e56ca2,,1107324,76,,evan-feature22,full_pf_a,,0
52,3434,77,,,,2,2,1.0,1.0,1.0,0.0,,0.0-79.0,,1.0,711.925,0.0,0.34677856700000004,1.0,0.69057175,1.0,0.6822438540000001,1.0,0.477292237,False,,55cf6a7b34e9060005e56ca2,,1117802,77,,evan-feature22,full_pf_a,,0
53,3435,78,,,,1,1,0.0,1.0,0.0,-1.0,,0.0-80.0,,-1.0,1706.215,0.0,0.28580469199999997,1.0,0.68408818,1.0,0.684207565,0.0,0.49780448299999996,False,,55cf6a7b34e9060005e56ca2,,1129286,78,,evan-feature22,full_pf_a,,1
54,3437,80,,,,2,2,0.0,1.0,0.0,-1.0,,0.0-82.0,,-1.0,2208.465,1.0,0.25,1.0,0.7405808970000001,0.0,0.679614108,1.0,0.436436964,False,,55cf6a7b34e9060005e56ca2,,1146641,80,,evan-feature22,full_pf_a,,1
55,3438,81,,,,1,1,1.0,1.0,0.0,-1.0,,0.0-83.0,,-1.0,852.455,1.0,0.29890393,1.0,0.730505706,1.0,0.7328203320000001,1.0,0.439256938,False,,55cf6a7b34e9060005e56ca2,,1157270,81,,evan-feature22,full_pf_a,,1
56,3439,82,,,,2,2,1.0,0.0,1.0,0.0,,0.0-84.0,,1.0,1017.045,0.0,0.326762398,0.0,0.7148059609999999,1.0,0.75,0.0,0.44389608799999997,False,,55cf6a7b34e9060005e56ca2,,1168099,82,,evan-feature22,full_pf_a,,1
57,3440,83,,,,1,1,0.0,1.0,0.0,-1.0,,0.0-85.0,,-1.0,1665.56,0.0,0.295168515,1.0,0.739760854,1.0,0.719947008,0.0,0.35277284600000003,False,,55cf6a7b34e9060005e56ca2,,1179555,83,,evan-feature22,full_pf_a,,1
58,3441,84,,,,2,2,1.0,1.0,0.0,-1.0,,0.0-86.0,,-1.0,2273.3,0.0,0.25,1.0,0.70781482,1.0,0.75,1.0,0.286095925,False,,55cf6a7b34e9060005e56ca2,,1191605,84,,evan-feature22,full_pf_a,,1
59,3442,85,,,,1,1,0.0,0.0,0.0,-1.0,,0.0-87.0,,0.0,1518.89,0.0,0.25638190899999996,0.0,0.704088163,1.0,0.75,0.0,0.26872601399999996,False,,55cf6a7b34e9060005e56ca2,,1202884,85,,evan-feature22,full_pf_a,,1
60,3443,86,,,,2,2,1.0,1.0,1.0,0.0,,0.0-88.0,,1.0,1008.07,0.0,0.271581126,0.0,0.669760107,1.0,0.733896663,1.0,0.273244572,False,,55cf6a7b34e9060005e56ca2,,1213667,86,,evan-feature22,full_pf_a,,1
61,3444,87,,,,2,2,1.0,0.0,0.0,-1.0,,0.0-89.0,,0.0,1249.045,0.0,0.257144401,0.0,0.600575706,1.0,0.74488122,0.0,0.25,False,,55cf6a7b34e9060005e56ca2,,1224702,87,,evan-feature22,full_pf_a,,0
62,3445,88,,,,2,2,1.0,0.0,0.0,-1.0,,0.0-90.0,,0.0,821.735,1.0,0.25,1.0,0.616870026,1.0,0.723610234,0.0,0.25,False,,55cf6a7b34e9060005e56ca2,,1235303,88,,evan-feature22,full_pf_a,,0
63,3446,89,,,,1,1,0.0,0.0,1.0,0.0,,0.0-91.0,,0.0,2140.77,0.0,0.25,0.0,0.583540187,1.0,0.7041042559999999,0.0,0.285961995,False,,55cf6a7b34e9060005e56ca2,,1247241,89,,evan-feature22,full_pf_a,,1
64,3447,90,,,,2,2,0.0,1.0,1.0,0.0,,0.0-92.0,,0.0,1947.635,0.0,0.27254536,0.0,0.53875765,0.0,0.693783448,1.0,0.284961652,False,,55cf6a7b34e9060005e56ca2,,1258973,90,,evan-feature22,full_pf_a,,1
65,3448,91,,,,2,2,1.0,0.0,1.0,0.0,,0.0-93.0,,1.0,1205.94,0.0,0.25,1.0,0.548431252,1.0,0.734221895,0.0,0.279445214,False,,55cf6a7b34e9060005e56ca2,,1269939,91,,evan-feature22,full_pf_a,,0
66,3449,92,,,,1,1,0.0,1.0,0.0,-1.0,,0.0-94.0,,-1.0,2496.8,0.0,0.258640684,1.0,0.545878066,0.0,0.725245965,0.0,0.31487537,False,,55cf6a7b34e9060005e56ca2,,1282206,92,,evan-feature22,full_pf_a,,1
67,3450,93,,,,2,2,1.0,0.0,0.0,-1.0,,0.0-95.0,,0.0,2485.345,0.0,0.251103711,1.0,0.5776290629999999,1.0,0.696320133,0.0,0.317831047,False,,55cf6a7b34e9060005e56ca2,,1294487,93,,evan-feature22,full_pf_a,,1
68,3451,94,,,,2,2,1.0,1.0,0.0,-1.0,,0.0-96.0,,-1.0,2149.885,0.0,0.276630292,1.0,0.617329858,1.0,0.73838088,1.0,0.261471582,False,,55cf6a7b34e9060005e56ca2,,1306429,94,,evan-feature22,full_pf_a,,0
69,3452,95,,,,2,2,1.0,0.0,0.0,-1.0,,0.0-97.0,,0.0,2374.74,1.0,0.297716424,0.0,0.618863717,1.0,0.7402358259999999,0.0,0.262600834,False,,55cf6a7b34e9060005e56ca2,,1318578,95,,evan-feature22,full_pf_a,,0
70,3453,96,,,,2,2,0.0,0.0,1.0,0.0,,0.0-98.0,,0.0,2309.11,0.0,0.290935512,1.0,0.695370945,0.0,0.706570507,0.0,0.280030553,False,,55cf6a7b34e9060005e56ca2,,1330686,96,,evan-feature22,full_pf_a,,0
71,3454,97,,,,1,1,0.0,0.0,0.0,-1.0,,0.0-99.0,,0.0,1391.145,0.0,0.25,0.0,0.6465277079999999,1.0,0.67766682,0.0,0.25,False,,55cf6a7b34e9060005e56ca2,,1341854,97,,evan-feature22,full_pf_a,,1
72,3455,98,,,,2,2,1.0,1.0,1.0,0.0,,0.0-100.0,,1.0,1256.62,0.0,0.26463816,0.0,0.636100213,1.0,0.646048507,1.0,0.265607101,False,,55cf6a7b34e9060005e56ca2,,1352898,98,,evan-feature22,full_pf_a,,1
73,3456,99,,,,2,2,0.0,0.0,1.0,0.0,,0.0-101.0,,0.0,958.2,0.0,0.314340707,1.0,0.667795927,0.0,0.613630805,0.0,0.25,False,,55cf6a7b34e9060005e56ca2,,1363641,99,,evan-feature22,full_pf_a,,0
74,3457,100,,,,2,2,1.0,0.0,0.0,-1.0,,0.0-102.0,,0.0,349.645,0.0,0.28685784,1.0,0.6622549529999999,1.0,0.652154117,0.0,0.25,False,,55cf6a7b34e9060005e56ca2,,1373800,100,,evan-feature22,full_pf_a,,0
75,3458,101,,,,1,1,0.0,1.0,0.0,-1.0,,0.0-103.0,,-1.0,1654.115,0.0,0.304106554,1.0,0.631289538,1.0,0.707041942,1.0,0.29314237,False,,55cf6a7b34e9060005e56ca2,,1385236,101,,evan-feature22,full_pf_a,,1
76,3459,102,,,,2,2,0.0,0.0,0.0,-1.0,,0.0-104.0,,0.0,2042.795,0.0,0.304806932,1.0,0.571167718,0.0,0.680472346,0.0,0.25,False,,55cf6a7b34e9060005e56ca2,,1397061,102,,evan-feature22,full_pf_a,,1
77,3460,103,,,,2,2,0.0,0.0,0.0,-1.0,,0.0-105.0,,0.0,1898.22,0.0,0.37919861,0.0,0.5724849710000001,0.0,0.705638003,0.0,0.30179300600000003,False,,55cf6a7b34e9060005e56ca2,,1408751,103,,evan-feature22,full_pf_a,,0
78,3461,104,,,,1,1,1.0,0.0,0.0,-1.0,,0.0-106.0,,0.0,1837.435,1.0,0.464277969,0.0,0.554034373,0.0,0.7372627340000001,0.0,0.264699741,False,,55cf6a7b34e9060005e56ca2,,1420358,104,,evan-feature22,full_pf_a,,1
79,3462,105,,,,1,1,1.0,1.0,0.0,-1.0,,0.0-107.0,,-1.0,1629.205,1.0,0.465104323,1.0,0.530793115,1.0,0.75,0.0,0.31683071,False,,55cf6a7b34e9060005e56ca2,,1431774,105,,evan-feature22,full_pf_a,,0
80,3463,106,,,,2,2,1.0,0.0,1.0,0.0,,0.0-108.0,,1.0,832.315,0.0,0.465104323,0.0,0.530793115,1.0,0.75,0.0,0.31683071,False,,55cf6a7b34e9060005e56ca2,,1442381,106,,evan-feature22,full_pf_a,,1
81,3464,107,,,,2,2,1.0,1.0,1.0,0.0,,0.0-109.0,,1.0,1654.23,1.0,0.46833986,0.0,0.570249239,1.0,0.7244472590000001,1.0,0.364114163,False,,55cf6a7b34e9060005e56ca2,,1453803,107,,evan-feature22,full_pf_a,,0
82,3465,108,,,,2,2,0.0,1.0,1.0,0.0,,0.0-110.0,,0.0,854.845,0.0,0.445444024,0.0,0.649673355,0.0,0.6845441290000001,1.0,0.300660449,False,,55cf6a7b34e9060005e56ca2,,1464430,108,,evan-feature22,full_pf_a,,0
83,3466,109,,,,1,1,1.0,1.0,1.0,0.0,,0.0-111.0,,1.0,1237.57,1.0,0.39909721299999995,1.0,0.6715179509999999,0.0,0.742310028,0.0,0.35496088299999995,False,,55cf6a7b34e9060005e56ca2,,1475431,109,,evan-feature22,full_pf_a,,1
84,3467,110,,,,1,1,0.0,0.0,0.0,-1.0,,0.0-112.0,,0.0,1516.015,0.0,0.37956104799999996,0.0,0.694725302,1.0,0.7181651309999999,1.0,0.38726906299999997,False,,55cf6a7b34e9060005e56ca2,,1486709,110,,evan-feature22,full_pf_a,,0
85,3468,111,,,,1,1,0.0,1.0,0.0,-1.0,,0.0-113.0,,-1.0,1133.86,0.0,0.404995034,1.0,0.724375412,0.0,0.6910946859999999,1.0,0.387187347,False,,55cf6a7b34e9060005e56ca2,,1497623,111,,evan-feature22,full_pf_a,,0
86,3469,112,,,,2,2,1.0,0.0,1.0,0.0,,0.0-114.0,,1.0,1961.02,1.0,0.461740803,1.0,0.75,1.0,0.75,0.0,0.34872038200000005,False,,55cf6a7b34e9060005e56ca2,,1509362,112,,evan-feature22,full_pf_a,,1
87,3470,113,,,,2,2,1.0,0.0,1.0,0.0,,0.0-115.0,,1.0,913.195,0.0,0.43821380600000004,0.0,0.738833273,1.0,0.728286963,0.0,0.399538128,False,,55cf6a7b34e9060005e56ca2,,1520052,113,,evan-feature22,full_pf_a,,0
88,3471,114,,,,1,1,1.0,1.0,0.0,-1.0,,0.0-116.0,,-1.0,1978.67,1.0,0.41709882,1.0,0.736666736,0.0,0.75,0.0,0.389095584,False,,55cf6a7b34e9060005e56ca2,,1531795,114,,evan-feature22,full_pf_a,,1
89,3472,115,,,,2,2,1.0,0.0,0.0,-1.0,,0.0-117.0,,0.0,1539.845,0.0,0.39749009799999996,1.0,0.744320029,1.0,0.75,0.0,0.363848678,False,,55cf6a7b34e9060005e56ca2,,1543142,115,,evan-feature22,full_pf_a,,1
90,3473,116,,,,2,2,0.0,0.0,1.0,0.0,,0.0-118.0,,0.0,434.31,0.0,0.392653706,0.0,0.75,0.0,0.75,0.0,0.384386976,False,,55cf6a7b34e9060005e56ca2,,1553378,116,,evan-feature22,full_pf_a,,0
91,3474,117,,,,2,2,0.0,1.0,0.0,-1.0,,0.0-119.0,,-1.0,1041.265,0.0,0.31190902600000003,0.0,0.75,0.0,0.732413819,1.0,0.413082932,False,,55cf6a7b34e9060005e56ca2,,1564216,117,,evan-feature22,full_pf_a,,0
92,3475,118,,,,2,2,0.0,1.0,1.0,0.0,,0.0-120.0,,0.0,1789.295,0.0,0.366917648,0.0,0.740073855,0.0,0.75,1.0,0.352861979,False,,55cf6a7b34e9060005e56ca2,,1575800,118,,evan-feature22,full_pf_a,,0
93,3476,119,,,,1,1,0.0,1.0,1.0,0.0,,0.0-121.0,,0.0,475.175,0.0,0.3645172,1.0,0.721770713,1.0,0.75,1.0,0.404074511,False,,55cf6a7b34e9060005e56ca2,,1586037,119,,evan-feature22,full_pf_a,,1
94,3477,120,,,,2,2,0.0,1.0,1.0,0.0,,0.0-122.0,,0.0,542.26,0.0,0.35205600299999995,1.0,0.68983859,0.0,0.739735447,1.0,0.366895945,False,,55cf6a7b34e9060005e56ca2,,1596365,120,,evan-feature22,full_pf_a,,1
95,3478,121,,,,2,2,1.0,0.0,1.0,0.0,,0.0-123.0,,1.0,614.64,0.0,0.40998722600000004,1.0,0.720859127,1.0,0.673854955,0.0,0.368528541,False,,55cf6a7b34e9060005e56ca2,,1606757,121,,evan-feature22,full_pf_a,,0
96,3479,122,,,,1,1,1.0,1.0,1.0,0.0,,0.0-124.0,,1.0,855.18,1.0,0.353625316,1.0,0.75,0.0,0.695605473,1.0,0.38303674200000004,False,,55cf6a7b34e9060005e56ca2,,1617396,122,,evan-feature22,full_pf_a,,1
97,3480,123,,,,1,1,0.0,0.0,1.0,0.0,,0.0-125.0,,0.0,1039.07,0.0,0.359216989,0.0,0.75,1.0,0.6987915090000001,1.0,0.35169046200000004,False,,55cf6a7b34e9060005e56ca2,,1628225,123,,evan-feature22,full_pf_a,,0
98,3481,124,,,,2,2,0.0,0.0,1.0,0.0,,0.0-126.0,,0.0,502.955,1.0,0.35834496899999996,0.0,0.75,0.0,0.707067742,0.0,0.416763636,False,,55cf6a7b34e9060005e56ca2,,1638507,124,,evan-feature22,full_pf_a,,1
99,3482,125,,,,1,1,1.0,1.0,0.0,-1.0,,0.0-127.0,,-1.0,1033.08,1.0,0.38741613799999997,1.0,0.7177369570000001,1.0,0.734902455,0.0,0.49438664299999996,False,,55cf6a7b34e9060005e56ca2,,1649303,125,,evan-feature22,full_pf_a,,1
100,3483,126,,,,2,2,0.0,1.0,1.0,0.0,,0.0-128.0,,0.0,1244.14,1.0,0.405255252,1.0,0.7300466640000001,0.0,0.7027748070000001,1.0,0.504359668,False,,55cf6a7b34e9060005e56ca2,,1660317,126,,evan-feature22,full_pf_a,,1
101,3484,127,,,,2,2,1.0,0.0,1.0,0.0,,0.0-129.0,,1.0,597.965,0.0,0.40697073,1.0,0.7260142190000001,1.0,0.724461982,0.0,0.522779179,False,,55cf6a7b34e9060005e56ca2,,1670697,127,,evan-feature22,full_pf_a,,0
102,3485,128,,,,1,1,0.0,1.0,1.0,0.0,,0.0-130.0,,0.0,874.235,0.0,0.43906215299999996,1.0,0.7252802340000001,1.0,0.719079934,0.0,0.5712990579999999,False,,55cf6a7b34e9060005e56ca2,,1681352,128,,evan-feature22,full_pf_a,,1
103,3486,129,,,,2,2,1.0,1.0,0.0,-1.0,,0.0-131.0,,-1.0,1402.345,0.0,0.4076705,1.0,0.73280499,1.0,0.681313127,1.0,0.523891346,False,,55cf6a7b34e9060005e56ca2,,1692534,129,,evan-feature22,full_pf_a,,1
104,3487,130,,,,2,2,0.0,1.0,0.0,-1.0,,0.0-132.0,,-1.0,1581.36,0.0,0.399102911,1.0,0.730498344,0.0,0.661080239,1.0,0.46742603,False,,55cf6a7b34e9060005e56ca2,,1703903,130,,evan-feature22,full_pf_a,,0
105,3488,131,,,,1,1,0.0,1.0,0.0,-1.0,,0.0-133.0,,-1.0,1346.92,0.0,0.356477282,1.0,0.712296395,1.0,0.641812684,1.0,0.44868414,False,,55cf6a7b34e9060005e56ca2,,1715033,131,,evan-feature22,full_pf_a,,1
106,3489,132,,,,2,2,1.0,0.0,1.0,0.0,,0.0-134.0,,1.0,1449.155,0.0,0.462760722,1.0,0.692349322,1.0,0.700947931,0.0,0.394680266,False,,55cf6a7b34e9060005e56ca2,,1726256,132,,evan-feature22,full_pf_a,,1
107,3490,133,,,,2,2,0.0,1.0,1.0,0.0,,0.0-135.0,,0.0,505.625,1.0,0.422306413,1.0,0.718375916,0.0,0.706340917,1.0,0.367787185,False,,55cf6a7b34e9060005e56ca2,,1736539,133,,evan-feature22,full_pf_a,,0
108,3492,135,,,,2,2,1.0,0.0,1.0,0.0,,0.0-137.0,,1.0,745.695,1.0,0.4582233,1.0,0.643834117,1.0,0.75,0.0,0.39615823299999997,False,,55cf6a7b34e9060005e56ca2,,1750423,135,,evan-feature22,full_pf_a,,0
109,3493,136,,,,2,2,1.0,1.0,1.0,0.0,,0.0-138.0,,1.0,508.885,0.0,0.43813437899999996,1.0,0.651283804,1.0,0.729674191,1.0,0.37711048,False,,55cf6a7b34e9060005e56ca2,,1760703,136,,evan-feature22,full_pf_a,,0
110,3494,137,,,,2,2,1.0,0.0,1.0,0.0,,0.0-139.0,,1.0,724.205,1.0,0.471199094,1.0,0.6470010979999999,1.0,0.715008097,0.0,0.410656191,False,,55cf6a7b34e9060005e56ca2,,1771207,137,,evan-feature22,full_pf_a,,0
111,3495,138,,,,1,1,0.0,1.0,1.0,0.0,,0.0-140.0,,0.0,1416.85,0.0,0.42486406,1.0,0.629771829,0.0,0.6550939960000001,1.0,0.459093873,False,,55cf6a7b34e9060005e56ca2,,1782395,138,,evan-feature22,full_pf_a,,1
112,3496,139,,,,1,1,0.0,0.0,1.0,0.0,,0.0-141.0,,0.0,1079.895,0.0,0.4803197,0.0,0.645842715,1.0,0.6421749920000001,0.0,0.443092151,False,,55cf6a7b34e9060005e56ca2,,1793259,139,,evan-feature22,full_pf_a,,0
113,3497,140,,,,1,1,1.0,1.0,0.0,-1.0,,0.0-142.0,,-1.0,2300.855,1.0,0.521848997,1.0,0.735801074,1.0,0.6691348460000001,1.0,0.45259351600000003,False,,55cf6a7b34e9060005e56ca2,,1805337,140,,evan-feature22,full_pf_a,,0
114,3498,141,,,,2,2,1.0,1.0,1.0,0.0,,0.0-143.0,,1.0,1019.075,1.0,0.49565621299999996,0.0,0.742400847,1.0,0.661512553,1.0,0.483110831,False,,55cf6a7b34e9060005e56ca2,,1816155,141,,evan-feature22,full_pf_a,,1
115,3499,142,,,,2,2,0.0,0.0,1.0,0.0,,0.0-144.0,,0.0,384.535,1.0,0.521564361,0.0,0.731078632,0.0,0.6774886809999999,0.0,0.483263956,False,,55cf6a7b34e9060005e56ca2,,1826307,142,,evan-feature22,full_pf_a,,0
116,3500,143,,,,2,2,1.0,1.0,1.0,0.0,,0.0-145.0,,1.0,542.98,1.0,0.558893102,1.0,0.719810023,1.0,0.67461031,1.0,0.499349834,False,,55cf6a7b34e9060005e56ca2,,1836636,143,,evan-feature22,full_pf_a,,0
117,3501,144,,,,2,2,0.0,1.0,1.0,0.0,,0.0-146.0,,0.0,518.545,0.0,0.611031046,1.0,0.75,0.0,0.688072995,1.0,0.5321422729999999,False,,55cf6a7b34e9060005e56ca2,,1846928,144,,evan-feature22,full_pf_a,,0
118,3502,145,,,,2,2,1.0,0.0,0.0,-1.0,,0.0-147.0,,0.0,432.78,1.0,0.633223941,1.0,0.713567728,1.0,0.75,0.0,0.48185314700000004,False,,55cf6a7b34e9060005e56ca2,,1857135,145,,evan-feature22,full_pf_a,,0
119,3503,146,,,,1,1,1.0,1.0,1.0,0.0,,0.0-148.0,,1.0,1172.105,1.0,0.664001694,1.0,0.705509768,1.0,0.75,1.0,0.500211065,False,,55cf6a7b34e9060005e56ca2,,1868082,146,,evan-feature22,full_pf_a,,1
120,3504,147,,,,1,1,0.0,1.0,1.0,0.0,,0.0-149.0,,0.0,1010.445,0.0,0.664001694,1.0,0.705509768,0.0,0.75,0.0,0.500211065,False,,55cf6a7b34e9060005e56ca2,,1878871,147,,evan-feature22,full_pf_a,,0
121,3505,148,,,,1,1,0.0,1.0,1.0,0.0,,0.0-150.0,,0.0,1025.04,0.0,0.696508041,1.0,0.71066027,1.0,0.717028709,0.0,0.49792991,False,,55cf6a7b34e9060005e56ca2,,1889688,148,,evan-feature22,full_pf_a,,0
122,3506,149,,,,2,2,1.0,1.0,0.0,-1.0,,0.0-151.0,,-1.0,1083.515,1.0,0.699883272,0.0,0.75,1.0,0.713543895,1.0,0.496962643,False,,55cf6a7b34e9060005e56ca2,,1900535,149,,evan-feature22,full_pf_a,,1
123,3507,150,,,,2,2,1.0,1.0,0.0,-1.0,,0.0-152.0,,-1.0,604.04,1.0,0.741163419,1.0,0.75,1.0,0.64691024,1.0,0.513858197,False,,55cf6a7b34e9060005e56ca2,,1910917,150,,evan-feature22,full_pf_a,,0
124,3508,151,,,,2,2,1.0,0.0,0.0,-1.0,,0.0-153.0,,0.0,958.19,1.0,0.75,1.0,0.70816558,1.0,0.594499079,0.0,0.48502124,False,,55cf6a7b34e9060005e56ca2,,1921648,151,,evan-feature22,full_pf_a,,0
125,3509,152,,,,2,2,0.0,0.0,1.0,0.0,,0.0-154.0,,0.0,1051.06,1.0,0.75,1.0,0.721848901,0.0,0.62197249,0.0,0.48263586399999997,False,,55cf6a7b34e9060005e56ca2,,1932483,152,,evan-feature22,full_pf_a,,0
126,3510,153,,,,2,2,0.0,0.0,1.0,0.0,,0.0-155.0,,0.0,768.405,1.0,0.75,1.0,0.74813071,0.0,0.584357161,0.0,0.411477782,False,,55cf6a7b34e9060005e56ca2,,1943015,153,,evan-feature22,full_pf_a,,0
127,3511,154,,,,2,2,1.0,0.0,1.0,0.0,,0.0-156.0,,1.0,364.205,0.0,0.75,1.0,0.75,1.0,0.52287236,0.0,0.488290656,False,,55cf6a7b34e9060005e56ca2,,1953147,154,,evan-feature22,full_pf_a,,0
128,3512,155,,,,2,2,0.0,0.0,1.0,0.0,,0.0-157.0,,0.0,584.585,1.0,0.75,1.0,0.75,0.0,0.544321581,0.0,0.53143059,False,,55cf6a7b34e9060005e56ca2,,1963504,155,,evan-feature22,full_pf_a,,0
129,3513,156,,,,2,2,1.0,0.0,1.0,0.0,,0.0-158.0,,1.0,451.675,0.0,0.726754564,1.0,0.75,1.0,0.5129306370000001,0.0,0.530592445,False,,55cf6a7b34e9060005e56ca2,,1973719,156,,evan-feature22,full_pf_a,,0
130,3514,157,,,,2,2,0.0,0.0,0.0,-1.0,,0.0-159.0,,0.0,1115.7,1.0,0.75,1.0,0.7392590729999999,0.0,0.479875835,0.0,0.547007051,False,,55cf6a7b34e9060005e56ca2,,1984613,157,,evan-feature22,full_pf_a,,0
131,3515,158,,,,2,2,1.0,1.0,0.0,-1.0,,0.0-160.0,,-1.0,1426.025,1.0,0.75,0.0,0.7393376979999999,1.0,0.546045419,1.0,0.541267353,False,,55cf6a7b34e9060005e56ca2,,1995815,158,,evan-feature22,full_pf_a,,0
132,3516,159,,,,1,1,0.0,1.0,1.0,0.0,,0.0-161.0,,0.0,1356.36,0.0,0.75,1.0,0.75,1.0,0.485725895,0.0,0.527625395,False,,55cf6a7b34e9060005e56ca2,,2006949,159,,evan-feature22,full_pf_a,,1
133,3517,160,,,,1,1,0.0,0.0,0.0,-1.0,,0.0-162.0,,0.0,973.8,0.0,0.75,0.0,0.725087974,1.0,0.488603595,1.0,0.504019206,False,,55cf6a7b34e9060005e56ca2,,2017726,160,,evan-feature22,full_pf_a,,0
134,3518,161,,,,2,2,0.0,0.0,1.0,0.0,,0.0-163.0,,0.0,997.705,0.0,0.745504295,1.0,0.75,0.0,0.452379914,0.0,0.50131194,False,,55cf6a7b34e9060005e56ca2,,2028494,161,,evan-feature22,full_pf_a,,1
135,3519,162,,,,1,1,1.0,1.0,0.0,-1.0,,0.0-164.0,,-1.0,1189.555,1.0,0.728513874,1.0,0.75,0.0,0.44125567200000004,1.0,0.531454591,False,,55cf6a7b34e9060005e56ca2,,2039443,162,,evan-feature22,full_pf_a,,1
136,3520,163,,,,2,2,1.0,0.0,1.0,0.0,,0.0-165.0,,1.0,1040.89,1.0,0.73790804,1.0,0.75,1.0,0.413036656,0.0,0.524619035,False,,55cf6a7b34e9060005e56ca2,,2050264,163,,evan-feature22,full_pf_a,,1
137,3521,164,,,,2,2,0.0,1.0,1.0,0.0,,0.0-166.0,,0.0,779.975,0.0,0.7080961309999999,1.0,0.708666865,0.0,0.431915581,1.0,0.481819489,False,,55cf6a7b34e9060005e56ca2,,2060808,164,,evan-feature22,full_pf_a,,0
138,3522,165,,,,2,2,0.0,0.0,1.0,0.0,,0.0-167.0,,0.0,667.375,1.0,0.721378003,1.0,0.71605913,0.0,0.36642387,0.0,0.5036739929999999,False,,55cf6a7b34e9060005e56ca2,,2071257,165,,evan-feature22,full_pf_a,,0
139,3523,166,,,,2,2,1.0,0.0,0.0,-1.0,,0.0-168.0,,0.0,1593.335,1.0,0.7340618959999999,1.0,0.699323252,1.0,0.35298046299999997,0.0,0.511241692,False,,55cf6a7b34e9060005e56ca2,,2082630,166,,evan-feature22,full_pf_a,,0
140,3524,167,,,,1,1,1.0,1.0,0.0,-1.0,,0.0-169.0,,-1.0,1270.885,1.0,0.75,1.0,0.70412698,0.0,0.380734814,1.0,0.529580116,False,,55cf6a7b34e9060005e56ca2,,2093686,167,,evan-feature22,full_pf_a,,1
141,3525,168,,,,2,2,1.0,1.0,0.0,-1.0,,0.0-170.0,,-1.0,1115.86,1.0,0.7436654909999999,1.0,0.711182751,1.0,0.41125331,1.0,0.49554405,False,,55cf6a7b34e9060005e56ca2,,2104568,168,,evan-feature22,full_pf_a,,1
142,3526,169,,,,2,2,0.0,0.0,1.0,0.0,,0.0-171.0,,0.0,922.785,1.0,0.731607915,1.0,0.651774583,0.0,0.35688023,0.0,0.45194491600000003,False,,55cf6a7b34e9060005e56ca2,,2115277,169,,evan-feature22,full_pf_a,,0
143,3527,170,,,,1,1,1.0,1.0,0.0,-1.0,,0.0-172.0,,-1.0,1715.92,1.0,0.75,1.0,0.75,0.0,0.283145374,0.0,0.528608005,False,,55cf6a7b34e9060005e56ca2,,2126761,170,,evan-feature22,full_pf_a,,1
144,3528,171,,,,2,2,1.0,0.0,1.0,0.0,,0.0-173.0,,1.0,350.285,1.0,0.7491416890000001,1.0,0.7423785959999999,1.0,0.29135870399999997,0.0,0.498888318,False,,55cf6a7b34e9060005e56ca2,,2136886,171,,evan-feature22,full_pf_a,,1
145,3529,172,,,,2,2,1.0,1.0,0.0,-1.0,,0.0-174.0,,-1.0,588.64,1.0,0.708569387,0.0,0.717682277,1.0,0.294421699,1.0,0.493838163,False,,55cf6a7b34e9060005e56ca2,,2147241,172,,evan-feature22,full_pf_a,,0
146,3530,173,,,,2,2,1.0,0.0,1.0,0.0,,0.0-175.0,,1.0,613.05,0.0,0.75,1.0,0.7383382159999999,1.0,0.356098707,0.0,0.442533405,False,,55cf6a7b34e9060005e56ca2,,2157648,173,,evan-feature22,full_pf_a,,0
147,3531,174,,,,2,2,1.0,1.0,1.0,0.0,,0.0-176.0,,1.0,529.635,1.0,0.744527075,1.0,0.75,1.0,0.334127506,1.0,0.393165805,False,,55cf6a7b34e9060005e56ca2,,2167944,174,,evan-feature22,full_pf_a,,0
148,3532,175,,,,2,2,0.0,1.0,1.0,0.0,,0.0-177.0,,0.0,817.845,1.0,0.75,1.0,0.75,0.0,0.33571021799999995,1.0,0.350393962,False,,55cf6a7b34e9060005e56ca2,,2178548,175,,evan-feature22,full_pf_a,,0
149,3533,176,,,,2,2,1.0,0.0,0.0,-1.0,,0.0-178.0,,0.0,1469.85,0.0,0.75,1.0,0.75,1.0,0.313628297,0.0,0.36349657399999996,False,,55cf6a7b34e9060005e56ca2,,2189786,176,,evan-feature22,full_pf_a,,0
150,3534,177,,,,1,1,1.0,1.0,1.0,0.0,,0.0-179.0,,1.0,1288.7,1.0,0.75,1.0,0.734284182,0.0,0.262667667,1.0,0.380199119,False,,55cf6a7b34e9060005e56ca2,,2200854,177,,evan-feature22,full_pf_a,,1
151,3535,178,,,,1,1,1.0,1.0,1.0,0.0,,0.0-180.0,,1.0,796.09,1.0,0.75,1.0,0.75,0.0,0.25,0.0,0.394494013,False,,55cf6a7b34e9060005e56ca2,,2211410,178,,evan-feature22,full_pf_a,,0
152,3536,179,,,,1,1,1.0,1.0,1.0,0.0,,0.0-181.0,,1.0,833.6,1.0,0.722298145,1.0,0.7357822340000001,0.0,0.25,1.0,0.319142121,False,,55cf6a7b34e9060005e56ca2,,2222017,179,,evan-feature22,full_pf_a,,0
153,3537,180,,,,2,2,0.0,0.0,1.0,0.0,,0.0-182.0,,0.0,1522.16,0.0,0.73149275,1.0,0.724276446,0.0,0.305856907,0.0,0.281315057,False,,55cf6a7b34e9060005e56ca2,,2233297,180,,evan-feature22,full_pf_a,,1
154,3538,181,,,,2,2,0.0,0.0,1.0,0.0,,0.0-183.0,,0.0,689.24,1.0,0.7458732690000001,1.0,0.7336382459999999,0.0,0.272571964,0.0,0.266021999,False,,55cf6a7b34e9060005e56ca2,,2243746,181,,evan-feature22,full_pf_a,,0
155,3539,182,,,,1,1,1.0,1.0,0.0,-1.0,,0.0-184.0,,-1.0,1265.605,1.0,0.705579037,1.0,0.720778292,0.0,0.320238144,1.0,0.30971744,False,,55cf6a7b34e9060005e56ca2,,2254784,182,,evan-feature22,full_pf_a,,1
156,3540,183,,,,2,2,0.0,0.0,0.0,-1.0,,0.0-185.0,,0.0,561.16,1.0,0.700425648,1.0,0.7198784009999999,0.0,0.272590393,0.0,0.304182931,False,,55cf6a7b34e9060005e56ca2,,2265113,183,,evan-feature22,full_pf_a,,1
157,3541,184,,,,2,2,0.0,1.0,0.0,-1.0,,0.0-186.0,,-1.0,1062.735,1.0,0.735590785,1.0,0.722714973,0.0,0.25,1.0,0.323421091,False,,55cf6a7b34e9060005e56ca2,,2275943,184,,evan-feature22,full_pf_a,,0
158,3542,185,,,,1,1,1.0,0.0,0.0,-1.0,,0.0-187.0,,0.0,410.735,1.0,0.724807662,0.0,0.63146213,0.0,0.36836492600000004,0.0,0.34592153299999995,False,,55cf6a7b34e9060005e56ca2,,2286155,185,,evan-feature22,full_pf_a,,1
159,3543,186,,,,2,2,0.0,0.0,1.0,0.0,,0.0-188.0,,0.0,486.59,1.0,0.7352796909999999,1.0,0.555111392,0.0,0.36003922,0.0,0.31433779999999995,False,,55cf6a7b34e9060005e56ca2,,2296418,186,,evan-feature22,full_pf_a,,1
160,3544,187,notice,,,,,,,,,,0.0-189.0,"{""Q0"":""no""}",,13319.0,,,,,,,,,False,,55cf6a7b34e9060005e56ca2,,2309737,187,Q,survey-text,full_pf_a,,1
161,3545,188,track1,,[1],,,,,,,,0.0-190.0,"{""Q0"":""no""}",,3741.0,,,,,,,,,False,,55cf6a7b34e9060005e56ca2,,2313482,188,Q,evan-quiz,full_pf_a,,1
162,3546,189,track2,,[1],,,,,,,,0.0-191.0,"{""Q0"":""no""}",,8254.0,,,,,,,,,False,,55cf6a7b34e9060005e56ca2,,2321738,189,Q,evan-quiz,full_pf_a,,1
163,3547,190,strat,,,,,,,,,,0.0-192.0,"{""Q0"":""guess""}",,6365.0,,,,,,,,,False,,55cf6a7b34e9060005e56ca2,,2328105,190,Q,survey-text,full_pf_a,,1
