,index,Unnamed: 0,Q_name,button_pressed,choice_idxs,chosen_pos,chosen_state,chosen_state_f_1_outcome,chosen_state_f_2_outcome,f_1_reward,f_2_reward,incor_questions,internal_node_id,responses,reward_received,rt,s_1_f_1_outcome,s_1_f_1_prob,s_1_f_2_outcome,s_1_f_2_prob,s_2_f_1_outcome,s_2_f_1_prob,s_2_f_2_outcome,s_2_f_2_prob,safe_first,stimulus,subjectID,success,time_elapsed,trial_index,trial_num,trial_type,version,view_history,switching
0,13019,25,,,,2,2,1.0,0.0,-1.0,0.0,,0.0-27.0,,-1.0,1693.68,1.0,0.6,1.0,0.6,1.0,0.4,0.0,0.4,False,,57a77b4a8eccbc0001f39fc2,,897597,25,,evan-feature22,full_pf_b,,0
1,13020,26,,,,1,1,0.0,0.0,-1.0,0.0,,0.0-28.0,,0.0,2035.26,0.0,0.608053294,0.0,0.63424552,0.0,0.397152172,1.0,0.347069101,False,,57a77b4a8eccbc0001f39fc2,,909426,26,,evan-feature22,full_pf_b,,1
2,13021,27,,,,1,1,0.0,1.0,-1.0,0.0,,0.0-29.0,,0.0,2544.825,0.0,0.642237155,1.0,0.648566321,0.0,0.389407674,0.0,0.285525717,False,,57a77b4a8eccbc0001f39fc2,,921777,27,,evan-feature22,full_pf_b,,0
3,13022,28,,,,2,2,0.0,0.0,-1.0,0.0,,0.0-30.0,,0.0,1588.07,1.0,0.661086576,0.0,0.630492543,0.0,0.399058924,0.0,0.25,False,,57a77b4a8eccbc0001f39fc2,,933161,28,,evan-feature22,full_pf_b,,1
4,13023,29,,,,1,1,1.0,1.0,0.0,1.0,,0.0-31.0,,1.0,2107.33,1.0,0.631324137,1.0,0.6269842929999999,0.0,0.38734784299999997,0.0,0.25,False,,57a77b4a8eccbc0001f39fc2,,945078,29,,evan-feature22,full_pf_b,,1
5,13024,30,,,,1,1,1.0,1.0,0.0,1.0,,0.0-32.0,,1.0,1632.145,1.0,0.6381991370000001,1.0,0.68987999,0.0,0.384107265,0.0,0.271332943,False,,57a77b4a8eccbc0001f39fc2,,956520,30,,evan-feature22,full_pf_b,,0
6,13025,31,,,,2,2,1.0,0.0,-1.0,0.0,,0.0-33.0,,-1.0,2867.31,1.0,0.66034901,1.0,0.742641349,1.0,0.360225629,0.0,0.25,False,,57a77b4a8eccbc0001f39fc2,,969185,31,,evan-feature22,full_pf_b,,1
7,13026,32,,,,1,1,1.0,1.0,-1.0,0.0,,0.0-34.0,,-1.0,2270.135,1.0,0.638612418,1.0,0.75,0.0,0.367273939,1.0,0.25,False,,57a77b4a8eccbc0001f39fc2,,981243,32,,evan-feature22,full_pf_b,,1
8,13027,33,,,,2,2,1.0,0.0,0.0,1.0,,0.0-35.0,,0.0,1735.56,0.0,0.624340629,0.0,0.75,1.0,0.425829545,0.0,0.25,False,,57a77b4a8eccbc0001f39fc2,,992770,33,,evan-feature22,full_pf_b,,1
9,13028,34,,,,1,1,0.0,0.0,0.0,1.0,,0.0-36.0,,0.0,2285.155,0.0,0.621999804,0.0,0.75,1.0,0.368609357,0.0,0.25,False,,57a77b4a8eccbc0001f39fc2,,1004835,34,,evan-feature22,full_pf_b,,1
10,13029,35,,,,2,2,1.0,0.0,-1.0,0.0,,0.0-37.0,,-1.0,2399.365,0.0,0.62666403,1.0,0.75,1.0,0.311151498,0.0,0.25,False,,57a77b4a8eccbc0001f39fc2,,1017030,35,,evan-feature22,full_pf_b,,1
11,13030,36,,,,1,1,1.0,1.0,0.0,1.0,,0.0-38.0,,1.0,1598.855,1.0,0.6819650009999999,1.0,0.75,0.0,0.310763048,1.0,0.25,False,,57a77b4a8eccbc0001f39fc2,,1028410,36,,evan-feature22,full_pf_b,,1
12,13031,37,,,,1,1,0.0,0.0,-1.0,0.0,,0.0-39.0,,0.0,2081.245,0.0,0.740626951,0.0,0.75,1.0,0.25,1.0,0.25,False,,57a77b4a8eccbc0001f39fc2,,1040298,37,,evan-feature22,full_pf_b,,0
13,13032,38,,,,1,1,1.0,0.0,-1.0,0.0,,0.0-40.0,,-1.0,2198.565,1.0,0.739599242,0.0,0.742034978,0.0,0.25397114600000004,0.0,0.25,False,,57a77b4a8eccbc0001f39fc2,,1052277,38,,evan-feature22,full_pf_b,,0
14,13033,39,,,,2,2,0.0,0.0,-1.0,0.0,,0.0-41.0,,0.0,1359.115,0.0,0.732341315,1.0,0.72735643,0.0,0.25,0.0,0.25,False,,57a77b4a8eccbc0001f39fc2,,1063421,39,,evan-feature22,full_pf_b,,1
15,13034,40,,,,2,2,0.0,0.0,-1.0,0.0,,0.0-42.0,,0.0,1829.67,1.0,0.7062287770000001,1.0,0.75,0.0,0.29002151,0.0,0.288256649,False,,57a77b4a8eccbc0001f39fc2,,1075055,40,,evan-feature22,full_pf_b,,0
16,13035,41,,,,2,2,1.0,1.0,-1.0,0.0,,0.0-43.0,,-1.0,2177.325,0.0,0.7086029209999999,1.0,0.75,1.0,0.274129113,1.0,0.262851608,False,,57a77b4a8eccbc0001f39fc2,,1087029,41,,evan-feature22,full_pf_b,,0
17,13036,42,,,,2,2,0.0,1.0,-1.0,0.0,,0.0-44.0,,0.0,1912.0,1.0,0.669189651,0.0,0.727614338,0.0,0.298444036,1.0,0.296944518,False,,57a77b4a8eccbc0001f39fc2,,1098736,42,,evan-feature22,full_pf_b,,0
18,13037,43,,,,1,1,1.0,1.0,-1.0,0.0,,0.0-45.0,,-1.0,1647.73,1.0,0.6819912929999999,1.0,0.7179434290000001,0.0,0.265003961,0.0,0.28157921199999997,False,,57a77b4a8eccbc0001f39fc2,,1110183,43,,evan-feature22,full_pf_b,,1
19,13038,44,,,,2,2,0.0,1.0,0.0,1.0,,0.0-46.0,,1.0,1465.08,1.0,0.665275002,1.0,0.723065271,0.0,0.260414971,1.0,0.30973870000000003,False,,57a77b4a8eccbc0001f39fc2,,1121449,44,,evan-feature22,full_pf_b,,1
20,13039,45,,,,2,2,1.0,0.0,-1.0,0.0,,0.0-47.0,,-1.0,1815.5,1.0,0.6660593260000001,1.0,0.728032907,1.0,0.30922817,0.0,0.338778608,False,,57a77b4a8eccbc0001f39fc2,,1133049,45,,evan-feature22,full_pf_b,,0
21,13040,46,,,,1,1,1.0,1.0,-1.0,0.0,,0.0-48.0,,-1.0,1445.07,1.0,0.702068785,1.0,0.6528750879999999,0.0,0.287329608,0.0,0.35789613200000003,False,,57a77b4a8eccbc0001f39fc2,,1144289,46,,evan-feature22,full_pf_b,,1
22,13041,47,,,,2,2,1.0,0.0,-1.0,0.0,,0.0-49.0,,-1.0,1679.06,0.0,0.651939787,0.0,0.636725589,1.0,0.284834488,0.0,0.358563756,False,,57a77b4a8eccbc0001f39fc2,,1155763,47,,evan-feature22,full_pf_b,,1
23,13042,48,,,,1,1,1.0,1.0,0.0,1.0,,0.0-50.0,,1.0,1413.59,1.0,0.67573929,1.0,0.612550049,1.0,0.37130387600000003,0.0,0.383542402,False,,57a77b4a8eccbc0001f39fc2,,1166971,48,,evan-feature22,full_pf_b,,1
24,13043,49,,,,2,2,0.0,1.0,0.0,1.0,,0.0-51.0,,1.0,1616.04,0.0,0.620753801,0.0,0.60513644,0.0,0.385529434,1.0,0.340361743,False,,57a77b4a8eccbc0001f39fc2,,1178377,49,,evan-feature22,full_pf_b,,1
25,13044,50,,,,2,2,0.0,1.0,0.0,1.0,,0.0-52.0,,1.0,1730.655,0.0,0.673564893,1.0,0.672437924,0.0,0.292955382,1.0,0.337633795,False,,57a77b4a8eccbc0001f39fc2,,1189903,50,,evan-feature22,full_pf_b,,0
26,13045,51,,,,2,2,0.0,0.0,-1.0,0.0,,0.0-53.0,,0.0,1642.375,0.0,0.6749427,1.0,0.724197502,0.0,0.32391132100000003,0.0,0.350995264,False,,57a77b4a8eccbc0001f39fc2,,1201337,51,,evan-feature22,full_pf_b,,0
27,13046,52,,,,1,1,1.0,1.0,-1.0,0.0,,0.0-54.0,,-1.0,1465.58,1.0,0.6940159379999999,1.0,0.75,1.0,0.31710554399999996,0.0,0.413450341,False,,57a77b4a8eccbc0001f39fc2,,1212592,52,,evan-feature22,full_pf_b,,1
28,13047,53,,,,1,1,1.0,1.0,-1.0,0.0,,0.0-55.0,,-1.0,1485.37,1.0,0.6916018270000001,1.0,0.69001187,0.0,0.261817804,0.0,0.40038635,False,,57a77b4a8eccbc0001f39fc2,,1223886,53,,evan-feature22,full_pf_b,,0
29,13048,54,,,,2,2,0.0,0.0,-1.0,0.0,,0.0-56.0,,0.0,1610.035,0.0,0.641061544,0.0,0.71337992,0.0,0.277296461,0.0,0.47372791700000005,False,,57a77b4a8eccbc0001f39fc2,,1235287,54,,evan-feature22,full_pf_b,,1
30,13049,55,,,,2,2,0.0,0.0,-1.0,0.0,,0.0-57.0,,0.0,1368.695,1.0,0.6082438520000001,0.0,0.708471106,0.0,0.28745137,0.0,0.564174476,False,,57a77b4a8eccbc0001f39fc2,,1246440,55,,evan-feature22,full_pf_b,,0
31,13050,56,,,,2,2,0.0,0.0,-1.0,0.0,,0.0-58.0,,0.0,1686.355,0.0,0.6051112120000001,1.0,0.7118147229999999,0.0,0.272390611,0.0,0.5595149939999999,False,,57a77b4a8eccbc0001f39fc2,,1257917,56,,evan-feature22,full_pf_b,,0
32,13051,57,,,,1,1,0.0,0.0,-1.0,0.0,,0.0-59.0,,0.0,1826.34,0.0,0.582420852,0.0,0.635867583,0.0,0.31089574,0.0,0.5227206520000001,False,,57a77b4a8eccbc0001f39fc2,,1269526,57,,evan-feature22,full_pf_b,,1
33,13052,58,,,,2,2,1.0,0.0,0.0,1.0,,0.0-60.0,,0.0,1260.61,1.0,0.623195575,0.0,0.655026044,1.0,0.25,0.0,0.560387538,False,,57a77b4a8eccbc0001f39fc2,,1280590,58,,evan-feature22,full_pf_b,,1
34,13053,59,,,,2,2,0.0,1.0,-1.0,0.0,,0.0-61.0,,0.0,1205.165,1.0,0.601889598,1.0,0.678198724,0.0,0.25,1.0,0.559922936,False,,57a77b4a8eccbc0001f39fc2,,1291587,59,,evan-feature22,full_pf_b,,0
35,13054,60,,,,2,2,0.0,0.0,-1.0,0.0,,0.0-62.0,,0.0,1396.865,0.0,0.601259914,1.0,0.704681482,0.0,0.33908969299999997,0.0,0.505003715,False,,57a77b4a8eccbc0001f39fc2,,1302779,60,,evan-feature22,full_pf_b,,0
36,13055,61,,,,2,2,1.0,0.0,-1.0,0.0,,0.0-63.0,,-1.0,2010.445,0.0,0.59645454,0.0,0.710437172,1.0,0.327441879,0.0,0.391749613,False,,57a77b4a8eccbc0001f39fc2,,1314586,61,,evan-feature22,full_pf_b,,0
37,13056,62,,,,1,1,1.0,1.0,-1.0,0.0,,0.0-64.0,,-1.0,1606.34,1.0,0.529473,1.0,0.636758527,0.0,0.301338063,0.0,0.365661481,False,,57a77b4a8eccbc0001f39fc2,,1325996,62,,evan-feature22,full_pf_b,,1
38,13057,63,,,,2,2,1.0,1.0,0.0,1.0,,0.0-65.0,,1.0,1408.55,1.0,0.541657162,1.0,0.634541962,1.0,0.343535366,1.0,0.371763742,False,,57a77b4a8eccbc0001f39fc2,,1337196,63,,evan-feature22,full_pf_b,,1
39,13058,64,,,,2,2,0.0,0.0,-1.0,0.0,,0.0-66.0,,0.0,1462.985,0.0,0.5707533260000001,0.0,0.589121171,0.0,0.326428396,0.0,0.43961622899999997,False,,57a77b4a8eccbc0001f39fc2,,1348458,64,,evan-feature22,full_pf_b,,0
40,13059,65,,,,2,2,1.0,0.0,-1.0,0.0,,0.0-67.0,,-1.0,1923.565,0.0,0.5707533260000001,0.0,0.589121171,1.0,0.326428396,0.0,0.43961622899999997,False,,57a77b4a8eccbc0001f39fc2,,1360180,65,,evan-feature22,full_pf_b,,0
41,13060,66,,,,1,1,0.0,1.0,-1.0,0.0,,0.0-68.0,,0.0,1914.005,0.0,0.506271295,1.0,0.641775594,0.0,0.37149690700000004,1.0,0.404330166,False,,57a77b4a8eccbc0001f39fc2,,1371885,66,,evan-feature22,full_pf_b,,1
42,13061,67,,,,2,2,1.0,0.0,0.0,1.0,,0.0-69.0,,0.0,2010.73,1.0,0.455642565,0.0,0.623605825,1.0,0.358753011,0.0,0.346174041,False,,57a77b4a8eccbc0001f39fc2,,1383689,67,,evan-feature22,full_pf_b,,1
43,13062,68,,,,2,2,0.0,0.0,0.0,1.0,,0.0-70.0,,0.0,1389.16,1.0,0.483677308,0.0,0.5904681070000001,0.0,0.402218411,0.0,0.35344697,False,,57a77b4a8eccbc0001f39fc2,,1394865,68,,evan-feature22,full_pf_b,,0
44,13063,69,,,,2,2,0.0,1.0,0.0,1.0,,0.0-71.0,,1.0,1224.285,0.0,0.394210977,0.0,0.558925494,0.0,0.540052017,1.0,0.35182128700000004,False,,57a77b4a8eccbc0001f39fc2,,1405888,69,,evan-feature22,full_pf_b,,0
45,13064,70,,,,1,1,0.0,1.0,-1.0,0.0,,0.0-72.0,,0.0,1834.23,0.0,0.382300414,1.0,0.577670603,1.0,0.607608448,0.0,0.378261578,False,,57a77b4a8eccbc0001f39fc2,,1417511,70,,evan-feature22,full_pf_b,,1
46,13065,71,,,,1,1,0.0,0.0,-1.0,0.0,,0.0-73.0,,0.0,1933.47,0.0,0.357596762,0.0,0.5929076529999999,0.0,0.6579790010000001,0.0,0.401326777,False,,57a77b4a8eccbc0001f39fc2,,1429239,71,,evan-feature22,full_pf_b,,0
47,13066,72,,,,1,1,0.0,1.0,-1.0,0.0,,0.0-74.0,,0.0,1963.545,0.0,0.362033495,1.0,0.582308608,1.0,0.649195052,0.0,0.355158505,False,,57a77b4a8eccbc0001f39fc2,,1441007,72,,evan-feature22,full_pf_b,,0
48,13067,73,,,,1,1,0.0,1.0,-1.0,0.0,,0.0-75.0,,0.0,1002.03,0.0,0.369620635,1.0,0.669100864,1.0,0.706059111,0.0,0.362516241,False,,57a77b4a8eccbc0001f39fc2,,1451801,73,,evan-feature22,full_pf_b,,0
49,13068,74,,,,1,1,1.0,1.0,-1.0,0.0,,0.0-76.0,,-1.0,898.82,1.0,0.41477751399999996,1.0,0.7284416779999999,0.0,0.7182656940000001,0.0,0.36228040899999997,False,,57a77b4a8eccbc0001f39fc2,,1462506,74,,evan-feature22,full_pf_b,,0
50,13069,75,,,,2,2,1.0,1.0,0.0,1.0,,0.0-77.0,,1.0,1014.415,0.0,0.37675460299999997,0.0,0.703250285,1.0,0.75,1.0,0.461979164,False,,57a77b4a8eccbc0001f39fc2,,1473316,75,,evan-feature22,full_pf_b,,1
51,13070,76,,,,2,2,1.0,1.0,0.0,1.0,,0.0-78.0,,1.0,1188.88,0.0,0.398716075,1.0,0.6723864890000001,1.0,0.674153818,1.0,0.519029516,False,,57a77b4a8eccbc0001f39fc2,,1484299,76,,evan-feature22,full_pf_b,,0
52,13071,77,,,,1,1,0.0,1.0,-1.0,0.0,,0.0-79.0,,0.0,985.2999999,0.0,0.34677856700000004,1.0,0.69057175,1.0,0.6822438540000001,0.0,0.477292237,False,,57a77b4a8eccbc0001f39fc2,,1495079,77,,evan-feature22,full_pf_b,,1
53,13072,78,,,,2,2,1.0,0.0,0.0,1.0,,0.0-80.0,,0.0,1515.02,1.0,0.28580469199999997,0.0,0.68408818,1.0,0.684207565,0.0,0.49780448299999996,False,,57a77b4a8eccbc0001f39fc2,,1506400,78,,evan-feature22,full_pf_b,,1
54,13074,80,,,,2,2,1.0,0.0,-1.0,0.0,,0.0-82.0,,-1.0,2524.66,0.0,0.25,1.0,0.7405808970000001,1.0,0.679614108,0.0,0.436436964,False,,57a77b4a8eccbc0001f39fc2,,1532695,80,,evan-feature22,full_pf_b,,0
55,13075,81,,,,1,1,1.0,1.0,0.0,1.0,,0.0-83.0,,1.0,1445.935,1.0,0.29890393,1.0,0.730505706,1.0,0.7328203320000001,1.0,0.439256938,False,,57a77b4a8eccbc0001f39fc2,,1543927,81,,evan-feature22,full_pf_b,,1
56,13076,82,,,,1,1,0.0,1.0,-1.0,0.0,,0.0-84.0,,0.0,1389.37,0.0,0.326762398,1.0,0.7148059609999999,1.0,0.75,1.0,0.44389608799999997,False,,57a77b4a8eccbc0001f39fc2,,1555112,82,,evan-feature22,full_pf_b,,0
57,13077,83,,,,2,2,0.0,1.0,-1.0,0.0,,0.0-85.0,,0.0,1268.96,0.0,0.295168515,1.0,0.739760854,0.0,0.719947008,1.0,0.35277284600000003,False,,57a77b4a8eccbc0001f39fc2,,1566184,83,,evan-feature22,full_pf_b,,1
58,13078,84,,,,2,2,1.0,1.0,-1.0,0.0,,0.0-86.0,,-1.0,1565.96,0.0,0.25,1.0,0.70781482,1.0,0.75,1.0,0.286095925,False,,57a77b4a8eccbc0001f39fc2,,1577557,84,,evan-feature22,full_pf_b,,0
59,13079,85,,,,2,2,1.0,0.0,0.0,1.0,,0.0-87.0,,0.0,1484.045,0.0,0.25638190899999996,0.0,0.704088163,1.0,0.75,0.0,0.26872601399999996,False,,57a77b4a8eccbc0001f39fc2,,1588829,85,,evan-feature22,full_pf_b,,0
60,13080,86,,,,2,2,1.0,0.0,0.0,1.0,,0.0-88.0,,0.0,1224.22,0.0,0.271581126,1.0,0.669760107,1.0,0.733896663,0.0,0.273244572,False,,57a77b4a8eccbc0001f39fc2,,1599852,86,,evan-feature22,full_pf_b,,0
61,13081,87,,,,2,2,1.0,0.0,0.0,1.0,,0.0-89.0,,0.0,1158.28,1.0,0.257144401,0.0,0.600575706,1.0,0.74488122,0.0,0.25,False,,57a77b4a8eccbc0001f39fc2,,1610797,87,,evan-feature22,full_pf_b,,0
62,13082,88,,,,1,1,0.0,1.0,-1.0,0.0,,0.0-90.0,,0.0,971.5549999,0.0,0.25,1.0,0.616870026,1.0,0.723610234,0.0,0.25,False,,57a77b4a8eccbc0001f39fc2,,1621562,88,,evan-feature22,full_pf_b,,1
63,13083,89,,,,2,2,1.0,0.0,0.0,1.0,,0.0-91.0,,0.0,1653.455,0.0,0.25,0.0,0.583540187,1.0,0.7041042559999999,0.0,0.285961995,False,,57a77b4a8eccbc0001f39fc2,,1633013,89,,evan-feature22,full_pf_b,,1
64,13084,90,,,,1,1,0.0,0.0,-1.0,0.0,,0.0-92.0,,0.0,888.2500001,0.0,0.27254536,0.0,0.53875765,0.0,0.693783448,0.0,0.284961652,False,,57a77b4a8eccbc0001f39fc2,,1643695,90,,evan-feature22,full_pf_b,,1
65,13085,91,,,,2,2,1.0,1.0,0.0,1.0,,0.0-93.0,,1.0,1179.725,1.0,0.25,1.0,0.548431252,1.0,0.734221895,1.0,0.279445214,False,,57a77b4a8eccbc0001f39fc2,,1654690,91,,evan-feature22,full_pf_b,,1
66,13086,92,,,,1,1,1.0,0.0,-1.0,0.0,,0.0-94.0,,-1.0,988.23,1.0,0.258640684,0.0,0.545878066,0.0,0.725245965,0.0,0.31487537,False,,57a77b4a8eccbc0001f39fc2,,1665474,92,,evan-feature22,full_pf_b,,1
67,13087,93,,,,1,1,0.0,0.0,-1.0,0.0,,0.0-95.0,,0.0,835.8700001,0.0,0.251103711,0.0,0.5776290629999999,0.0,0.696320133,0.0,0.317831047,False,,57a77b4a8eccbc0001f39fc2,,1676113,93,,evan-feature22,full_pf_b,,0
68,13088,94,,,,1,1,1.0,0.0,-1.0,0.0,,0.0-96.0,,-1.0,1242.66,1.0,0.276630292,0.0,0.617329858,1.0,0.73838088,1.0,0.261471582,False,,57a77b4a8eccbc0001f39fc2,,1687143,94,,evan-feature22,full_pf_b,,0
69,13089,95,,,,2,2,1.0,0.0,0.0,1.0,,0.0-97.0,,0.0,1925.625,0.0,0.297716424,1.0,0.618863717,1.0,0.7402358259999999,0.0,0.262600834,False,,57a77b4a8eccbc0001f39fc2,,1698853,95,,evan-feature22,full_pf_b,,1
70,13090,96,,,,1,1,0.0,1.0,-1.0,0.0,,0.0-98.0,,0.0,967.7299998999999,0.0,0.290935512,1.0,0.695370945,1.0,0.706570507,0.0,0.280030553,False,,57a77b4a8eccbc0001f39fc2,,1709622,96,,evan-feature22,full_pf_b,,1
71,13091,97,,,,1,1,0.0,0.0,-1.0,0.0,,0.0-99.0,,0.0,893.8399999,0.0,0.25,0.0,0.6465277079999999,1.0,0.67766682,1.0,0.25,False,,57a77b4a8eccbc0001f39fc2,,1720298,97,,evan-feature22,full_pf_b,,0
72,13092,98,,,,1,1,0.0,0.0,-1.0,0.0,,0.0-100.0,,0.0,844.945,0.0,0.26463816,0.0,0.636100213,0.0,0.646048507,0.0,0.265607101,False,,57a77b4a8eccbc0001f39fc2,,1730926,98,,evan-feature22,full_pf_b,,0
73,13093,99,,,,1,1,0.0,1.0,-1.0,0.0,,0.0-101.0,,0.0,797.0350001,0.0,0.314340707,1.0,0.667795927,1.0,0.613630805,0.0,0.25,False,,57a77b4a8eccbc0001f39fc2,,1741527,99,,evan-feature22,full_pf_b,,0
74,13094,100,,,,1,1,0.0,1.0,-1.0,0.0,,0.0-102.0,,0.0,852.085,0.0,0.28685784,1.0,0.6622549529999999,1.0,0.652154117,1.0,0.25,False,,57a77b4a8eccbc0001f39fc2,,1752180,100,,evan-feature22,full_pf_b,,0
75,13095,101,,,,2,2,1.0,0.0,0.0,1.0,,0.0-103.0,,0.0,903.2150001,0.0,0.304106554,0.0,0.631289538,1.0,0.707041942,0.0,0.29314237,False,,57a77b4a8eccbc0001f39fc2,,1762871,101,,evan-feature22,full_pf_b,,1
76,13096,102,,,,2,2,1.0,1.0,0.0,1.0,,0.0-104.0,,1.0,917.08,1.0,0.304806932,1.0,0.571167718,1.0,0.680472346,1.0,0.25,False,,57a77b4a8eccbc0001f39fc2,,1773586,102,,evan-feature22,full_pf_b,,0
77,13097,103,,,,2,2,0.0,0.0,0.0,1.0,,0.0-105.0,,0.0,1008.285,1.0,0.37919861,1.0,0.5724849710000001,0.0,0.705638003,0.0,0.30179300600000003,False,,57a77b4a8eccbc0001f39fc2,,1784375,103,,evan-feature22,full_pf_b,,0
78,13098,104,,,,2,2,1.0,1.0,0.0,1.0,,0.0-106.0,,1.0,870.825,1.0,0.464277969,0.0,0.554034373,1.0,0.7372627340000001,1.0,0.264699741,False,,57a77b4a8eccbc0001f39fc2,,1795044,104,,evan-feature22,full_pf_b,,0
79,13099,105,,,,1,1,1.0,0.0,-1.0,0.0,,0.0-107.0,,-1.0,685.6,1.0,0.465104323,0.0,0.530793115,1.0,0.75,0.0,0.31683071,False,,57a77b4a8eccbc0001f39fc2,,1805536,105,,evan-feature22,full_pf_b,,1
80,13100,106,,,,2,2,1.0,1.0,0.0,1.0,,0.0-108.0,,1.0,729.9649999,0.0,0.465104323,1.0,0.530793115,1.0,0.75,1.0,0.31683071,False,,57a77b4a8eccbc0001f39fc2,,1816053,106,,evan-feature22,full_pf_b,,1
81,13101,107,,,,2,2,0.0,0.0,0.0,1.0,,0.0-109.0,,0.0,777.7099999,1.0,0.46833986,0.0,0.570249239,0.0,0.7244472590000001,0.0,0.364114163,False,,57a77b4a8eccbc0001f39fc2,,1826622,107,,evan-feature22,full_pf_b,,0
82,13102,108,,,,2,2,0.0,0.0,0.0,1.0,,0.0-110.0,,0.0,1333.46,1.0,0.445444024,1.0,0.649673355,0.0,0.6845441290000001,0.0,0.300660449,False,,57a77b4a8eccbc0001f39fc2,,1837752,108,,evan-feature22,full_pf_b,,0
83,13103,109,,,,2,2,1.0,0.0,0.0,1.0,,0.0-111.0,,0.0,1932.565,0.0,0.39909721299999995,1.0,0.6715179509999999,1.0,0.742310028,0.0,0.35496088299999995,False,,57a77b4a8eccbc0001f39fc2,,1849483,109,,evan-feature22,full_pf_b,,0
84,13104,110,,,,2,2,0.0,0.0,0.0,1.0,,0.0-112.0,,0.0,1466.885,0.0,0.37956104799999996,1.0,0.694725302,0.0,0.7181651309999999,0.0,0.38726906299999997,False,,57a77b4a8eccbc0001f39fc2,,1860751,110,,evan-feature22,full_pf_b,,0
85,13105,111,,,,1,1,1.0,1.0,0.0,1.0,,0.0-113.0,,1.0,904.665,1.0,0.404995034,1.0,0.724375412,1.0,0.6910946859999999,0.0,0.387187347,False,,57a77b4a8eccbc0001f39fc2,,1871448,111,,evan-feature22,full_pf_b,,1
86,13106,112,,,,1,1,0.0,1.0,0.0,1.0,,0.0-114.0,,1.0,805.045,0.0,0.461740803,1.0,0.75,1.0,0.75,0.0,0.34872038200000005,False,,57a77b4a8eccbc0001f39fc2,,1882042,112,,evan-feature22,full_pf_b,,0
87,13107,113,,,,2,2,1.0,0.0,-1.0,0.0,,0.0-115.0,,-1.0,1904.885,1.0,0.43821380600000004,1.0,0.738833273,1.0,0.728286963,0.0,0.399538128,False,,57a77b4a8eccbc0001f39fc2,,1893748,113,,evan-feature22,full_pf_b,,1
88,13108,114,,,,1,1,1.0,1.0,0.0,1.0,,0.0-116.0,,1.0,1468.625,1.0,0.41709882,1.0,0.736666736,1.0,0.75,1.0,0.389095584,False,,57a77b4a8eccbc0001f39fc2,,1905024,114,,evan-feature22,full_pf_b,,1
89,13109,115,,,,1,1,0.0,1.0,0.0,1.0,,0.0-117.0,,1.0,1030.075,0.0,0.39749009799999996,1.0,0.744320029,0.0,0.75,1.0,0.363848678,False,,57a77b4a8eccbc0001f39fc2,,1915846,115,,evan-feature22,full_pf_b,,0
90,13110,116,,,,2,2,1.0,0.0,-1.0,0.0,,0.0-118.0,,-1.0,1110.545,1.0,0.392653706,1.0,0.75,1.0,0.75,0.0,0.384386976,False,,57a77b4a8eccbc0001f39fc2,,1926735,116,,evan-feature22,full_pf_b,,1
91,13111,117,,,,1,1,1.0,1.0,-1.0,0.0,,0.0-119.0,,-1.0,1672.2,1.0,0.31190902600000003,1.0,0.75,1.0,0.732413819,0.0,0.413082932,False,,57a77b4a8eccbc0001f39fc2,,1938210,117,,evan-feature22,full_pf_b,,1
92,13112,118,,,,2,2,0.0,1.0,0.0,1.0,,0.0-120.0,,1.0,1837.175,0.0,0.366917648,1.0,0.740073855,0.0,0.75,1.0,0.352861979,False,,57a77b4a8eccbc0001f39fc2,,1949841,118,,evan-feature22,full_pf_b,,1
93,13113,119,,,,2,2,1.0,0.0,0.0,1.0,,0.0-121.0,,0.0,1068.535,0.0,0.3645172,1.0,0.721770713,1.0,0.75,0.0,0.404074511,False,,57a77b4a8eccbc0001f39fc2,,1960703,119,,evan-feature22,full_pf_b,,0
94,13114,120,,,,1,1,0.0,1.0,0.0,1.0,,0.0-122.0,,1.0,1283.375,0.0,0.35205600299999995,1.0,0.68983859,1.0,0.739735447,1.0,0.366895945,False,,57a77b4a8eccbc0001f39fc2,,1971807,120,,evan-feature22,full_pf_b,,1
95,13115,121,,,,1,1,0.0,0.0,0.0,1.0,,0.0-123.0,,0.0,1272.205,0.0,0.40998722600000004,0.0,0.720859127,1.0,0.673854955,0.0,0.368528541,False,,57a77b4a8eccbc0001f39fc2,,1982869,121,,evan-feature22,full_pf_b,,0
96,13116,122,,,,2,2,1.0,1.0,-1.0,0.0,,0.0-124.0,,-1.0,1615.79,0.0,0.353625316,1.0,0.75,1.0,0.695605473,1.0,0.38303674200000004,False,,57a77b4a8eccbc0001f39fc2,,1994279,122,,evan-feature22,full_pf_b,,1
97,13117,123,,,,2,2,0.0,0.0,0.0,1.0,,0.0-125.0,,0.0,2216.325,1.0,0.359216989,0.0,0.75,0.0,0.6987915090000001,0.0,0.35169046200000004,False,,57a77b4a8eccbc0001f39fc2,,2006286,123,,evan-feature22,full_pf_b,,0
98,13118,124,,,,1,1,0.0,1.0,-1.0,0.0,,0.0-126.0,,0.0,1986.815,0.0,0.35834496899999996,1.0,0.75,1.0,0.707067742,1.0,0.416763636,False,,57a77b4a8eccbc0001f39fc2,,2018075,124,,evan-feature22,full_pf_b,,1
99,13119,125,,,,1,1,0.0,0.0,-1.0,0.0,,0.0-127.0,,0.0,1463.42,0.0,0.38741613799999997,0.0,0.7177369570000001,1.0,0.734902455,0.0,0.49438664299999996,False,,57a77b4a8eccbc0001f39fc2,,2029330,125,,evan-feature22,full_pf_b,,0
100,13120,126,,,,1,1,1.0,0.0,0.0,1.0,,0.0-128.0,,0.0,1492.21,1.0,0.405255252,0.0,0.7300466640000001,1.0,0.7027748070000001,0.0,0.504359668,False,,57a77b4a8eccbc0001f39fc2,,2040619,126,,evan-feature22,full_pf_b,,0
101,13121,127,,,,1,1,1.0,1.0,0.0,1.0,,0.0-129.0,,1.0,2028.555,1.0,0.40697073,1.0,0.7260142190000001,1.0,0.724461982,0.0,0.522779179,False,,57a77b4a8eccbc0001f39fc2,,2052445,127,,evan-feature22,full_pf_b,,0
102,13122,128,,,,1,1,0.0,1.0,0.0,1.0,,0.0-130.0,,1.0,736.7049999,0.0,0.43906215299999996,1.0,0.7252802340000001,1.0,0.719079934,1.0,0.5712990579999999,False,,57a77b4a8eccbc0001f39fc2,,2062970,128,,evan-feature22,full_pf_b,,0
103,13123,129,,,,1,1,1.0,1.0,0.0,1.0,,0.0-131.0,,1.0,618.07,1.0,0.4076705,1.0,0.73280499,0.0,0.681313127,0.0,0.523891346,False,,57a77b4a8eccbc0001f39fc2,,2073383,129,,evan-feature22,full_pf_b,,0
104,13124,130,,,,1,1,0.0,1.0,0.0,1.0,,0.0-132.0,,1.0,886.08,0.0,0.399102911,1.0,0.730498344,1.0,0.661080239,0.0,0.46742603,False,,57a77b4a8eccbc0001f39fc2,,2084069,130,,evan-feature22,full_pf_b,,0
105,13125,131,,,,2,2,1.0,1.0,-1.0,0.0,,0.0-133.0,,-1.0,2147.58,0.0,0.356477282,1.0,0.712296395,1.0,0.641812684,1.0,0.44868414,False,,57a77b4a8eccbc0001f39fc2,,2096012,131,,evan-feature22,full_pf_b,,1
106,13126,132,,,,1,1,1.0,1.0,0.0,1.0,,0.0-134.0,,1.0,1120.765,1.0,0.462760722,1.0,0.692349322,1.0,0.700947931,1.0,0.394680266,False,,57a77b4a8eccbc0001f39fc2,,2106928,132,,evan-feature22,full_pf_b,,1
107,13127,133,,,,1,1,1.0,0.0,0.0,1.0,,0.0-135.0,,0.0,642.4649999,1.0,0.422306413,0.0,0.718375916,0.0,0.706340917,1.0,0.367787185,False,,57a77b4a8eccbc0001f39fc2,,2117358,133,,evan-feature22,full_pf_b,,0
108,13129,135,,,,1,1,1.0,0.0,0.0,1.0,,0.0-137.0,,0.0,1486.105,1.0,0.4582233,0.0,0.643834117,0.0,0.75,0.0,0.39615823299999997,False,,57a77b4a8eccbc0001f39fc2,,2156288,135,,evan-feature22,full_pf_b,,0
109,13130,136,,,,1,1,1.0,0.0,0.0,1.0,,0.0-138.0,,0.0,1989.825,1.0,0.43813437899999996,0.0,0.651283804,0.0,0.729674191,0.0,0.37711048,False,,57a77b4a8eccbc0001f39fc2,,2168083,136,,evan-feature22,full_pf_b,,0
110,13131,137,,,,1,1,0.0,1.0,0.0,1.0,,0.0-139.0,,1.0,1896.975,0.0,0.471199094,1.0,0.6470010979999999,0.0,0.715008097,0.0,0.410656191,False,,57a77b4a8eccbc0001f39fc2,,2179782,137,,evan-feature22,full_pf_b,,0
111,13132,138,,,,2,2,1.0,1.0,-1.0,0.0,,0.0-140.0,,-1.0,1949.205,0.0,0.42486406,0.0,0.629771829,1.0,0.6550939960000001,1.0,0.459093873,False,,57a77b4a8eccbc0001f39fc2,,2191531,138,,evan-feature22,full_pf_b,,1
112,13133,139,,,,2,2,0.0,0.0,-1.0,0.0,,0.0-141.0,,0.0,1882.625,1.0,0.4803197,0.0,0.645842715,0.0,0.6421749920000001,0.0,0.443092151,False,,57a77b4a8eccbc0001f39fc2,,2203198,139,,evan-feature22,full_pf_b,,0
113,13134,140,,,,1,1,1.0,1.0,-1.0,0.0,,0.0-142.0,,-1.0,1813.345,1.0,0.521848997,1.0,0.735801074,1.0,0.6691348460000001,1.0,0.45259351600000003,False,,57a77b4a8eccbc0001f39fc2,,2214811,140,,evan-feature22,full_pf_b,,1
114,13135,141,,,,1,1,1.0,1.0,0.0,1.0,,0.0-143.0,,1.0,1342.045,1.0,0.49565621299999996,1.0,0.742400847,1.0,0.661512553,1.0,0.483110831,False,,57a77b4a8eccbc0001f39fc2,,2225954,141,,evan-feature22,full_pf_b,,0
115,13136,142,,,,2,2,1.0,1.0,-1.0,0.0,,0.0-144.0,,-1.0,1622.835,1.0,0.521564361,1.0,0.731078632,1.0,0.6774886809999999,1.0,0.483263956,False,,57a77b4a8eccbc0001f39fc2,,2237378,142,,evan-feature22,full_pf_b,,1
116,13137,143,,,,1,1,0.0,0.0,-1.0,0.0,,0.0-145.0,,0.0,2093.53,0.0,0.558893102,0.0,0.719810023,1.0,0.67461031,1.0,0.499349834,False,,57a77b4a8eccbc0001f39fc2,,2249271,143,,evan-feature22,full_pf_b,,1
117,13138,144,,,,1,1,1.0,1.0,0.0,1.0,,0.0-146.0,,1.0,2065.8,1.0,0.611031046,1.0,0.75,1.0,0.688072995,1.0,0.5321422729999999,False,,57a77b4a8eccbc0001f39fc2,,2261148,144,,evan-feature22,full_pf_b,,0
118,13139,145,,,,2,2,1.0,0.0,-1.0,0.0,,0.0-147.0,,-1.0,1501.12,1.0,0.633223941,1.0,0.713567728,1.0,0.75,0.0,0.48185314700000004,False,,57a77b4a8eccbc0001f39fc2,,2272447,145,,evan-feature22,full_pf_b,,1
119,13140,146,,,,1,1,1.0,1.0,-1.0,0.0,,0.0-148.0,,-1.0,1638.03,1.0,0.664001694,1.0,0.705509768,1.0,0.75,1.0,0.500211065,False,,57a77b4a8eccbc0001f39fc2,,2283892,146,,evan-feature22,full_pf_b,,1
120,13141,147,,,,1,1,1.0,1.0,0.0,1.0,,0.0-149.0,,1.0,1456.495,1.0,0.664001694,1.0,0.705509768,1.0,0.75,0.0,0.500211065,False,,57a77b4a8eccbc0001f39fc2,,2295155,147,,evan-feature22,full_pf_b,,0
121,13142,148,,,,1,1,0.0,0.0,0.0,1.0,,0.0-150.0,,0.0,1265.015,0.0,0.696508041,0.0,0.71066027,1.0,0.717028709,1.0,0.49792991,False,,57a77b4a8eccbc0001f39fc2,,2306230,148,,evan-feature22,full_pf_b,,0
122,13143,149,,,,2,2,0.0,0.0,-1.0,0.0,,0.0-151.0,,0.0,2009.66,1.0,0.699883272,0.0,0.75,0.0,0.713543895,0.0,0.496962643,False,,57a77b4a8eccbc0001f39fc2,,2318039,149,,evan-feature22,full_pf_b,,1
123,13144,150,,,,2,2,0.0,0.0,0.0,1.0,,0.0-152.0,,0.0,1583.465,1.0,0.741163419,1.0,0.75,0.0,0.64691024,0.0,0.513858197,False,,57a77b4a8eccbc0001f39fc2,,2329409,150,,evan-feature22,full_pf_b,,0
124,13145,151,,,,1,1,1.0,1.0,-1.0,0.0,,0.0-153.0,,-1.0,1406.625,1.0,0.75,1.0,0.70816558,1.0,0.594499079,1.0,0.48502124,False,,57a77b4a8eccbc0001f39fc2,,2340603,151,,evan-feature22,full_pf_b,,1
125,13146,152,,,,1,1,0.0,1.0,0.0,1.0,,0.0-154.0,,1.0,1399.855,0.0,0.75,1.0,0.721848901,0.0,0.62197249,1.0,0.48263586399999997,False,,57a77b4a8eccbc0001f39fc2,,2351788,152,,evan-feature22,full_pf_b,,0
126,13147,153,,,,2,2,0.0,0.0,-1.0,0.0,,0.0-155.0,,0.0,1306.52,1.0,0.75,0.0,0.74813071,0.0,0.584357161,0.0,0.411477782,False,,57a77b4a8eccbc0001f39fc2,,2362903,153,,evan-feature22,full_pf_b,,1
127,13148,154,,,,2,2,0.0,1.0,0.0,1.0,,0.0-156.0,,1.0,1375.175,1.0,0.75,1.0,0.75,0.0,0.52287236,1.0,0.488290656,False,,57a77b4a8eccbc0001f39fc2,,2374070,154,,evan-feature22,full_pf_b,,0
128,13149,155,,,,2,2,0.0,0.0,0.0,1.0,,0.0-157.0,,0.0,887.7899999,1.0,0.75,0.0,0.75,0.0,0.544321581,0.0,0.53143059,False,,57a77b4a8eccbc0001f39fc2,,2384759,155,,evan-feature22,full_pf_b,,0
129,13150,156,,,,2,2,1.0,1.0,0.0,1.0,,0.0-158.0,,1.0,941.5900001,1.0,0.726754564,1.0,0.75,1.0,0.5129306370000001,1.0,0.530592445,False,,57a77b4a8eccbc0001f39fc2,,2395495,156,,evan-feature22,full_pf_b,,0
130,13151,157,,,,1,1,1.0,1.0,-1.0,0.0,,0.0-159.0,,-1.0,1483.63,1.0,0.75,1.0,0.7392590729999999,0.0,0.479875835,1.0,0.547007051,False,,57a77b4a8eccbc0001f39fc2,,2406791,157,,evan-feature22,full_pf_b,,1
131,13152,158,,,,2,2,1.0,0.0,-1.0,0.0,,0.0-160.0,,-1.0,1664.25,1.0,0.75,0.0,0.7393376979999999,1.0,0.546045419,0.0,0.541267353,False,,57a77b4a8eccbc0001f39fc2,,2418256,158,,evan-feature22,full_pf_b,,1
132,13153,159,,,,1,1,1.0,1.0,-1.0,0.0,,0.0-161.0,,-1.0,1945.02,1.0,0.75,1.0,0.75,0.0,0.485725895,1.0,0.527625395,False,,57a77b4a8eccbc0001f39fc2,,2429999,159,,evan-feature22,full_pf_b,,1
133,13154,160,,,,2,2,0.0,1.0,0.0,1.0,,0.0-162.0,,1.0,1203.095,1.0,0.75,1.0,0.725087974,0.0,0.488603595,1.0,0.504019206,False,,57a77b4a8eccbc0001f39fc2,,2440991,160,,evan-feature22,full_pf_b,,1
134,13155,161,,,,2,2,0.0,0.0,0.0,1.0,,0.0-163.0,,0.0,950.315,1.0,0.745504295,0.0,0.75,0.0,0.452379914,0.0,0.50131194,False,,57a77b4a8eccbc0001f39fc2,,2451730,161,,evan-feature22,full_pf_b,,0
135,13156,162,,,,1,1,0.0,1.0,0.0,1.0,,0.0-164.0,,1.0,875.315,0.0,0.728513874,1.0,0.75,0.0,0.44125567200000004,1.0,0.531454591,False,,57a77b4a8eccbc0001f39fc2,,2462405,162,,evan-feature22,full_pf_b,,1
136,13157,163,,,,1,1,0.0,1.0,-1.0,0.0,,0.0-165.0,,0.0,1711.3,0.0,0.73790804,1.0,0.75,0.0,0.413036656,1.0,0.524619035,False,,57a77b4a8eccbc0001f39fc2,,2473910,163,,evan-feature22,full_pf_b,,0
137,13158,164,,,,1,1,1.0,1.0,0.0,1.0,,0.0-166.0,,1.0,1047.25,1.0,0.7080961309999999,1.0,0.708666865,0.0,0.431915581,1.0,0.481819489,False,,57a77b4a8eccbc0001f39fc2,,2484765,164,,evan-feature22,full_pf_b,,0
138,13159,165,,,,1,1,0.0,1.0,0.0,1.0,,0.0-167.0,,1.0,969.04,0.0,0.721378003,1.0,0.71605913,0.0,0.36642387,1.0,0.5036739929999999,False,,57a77b4a8eccbc0001f39fc2,,2495531,165,,evan-feature22,full_pf_b,,0
139,13160,166,,,,1,1,1.0,1.0,0.0,1.0,,0.0-168.0,,1.0,841.04,1.0,0.7340618959999999,1.0,0.699323252,1.0,0.35298046299999997,1.0,0.511241692,False,,57a77b4a8eccbc0001f39fc2,,2506158,166,,evan-feature22,full_pf_b,,0
140,13161,167,,,,2,2,0.0,0.0,-1.0,0.0,,0.0-169.0,,0.0,1087.22,1.0,0.75,1.0,0.70412698,0.0,0.380734814,0.0,0.529580116,False,,57a77b4a8eccbc0001f39fc2,,2517045,167,,evan-feature22,full_pf_b,,1
141,13162,168,,,,1,1,1.0,1.0,0.0,1.0,,0.0-170.0,,1.0,1773.045,1.0,0.7436654909999999,1.0,0.711182751,1.0,0.41125331,0.0,0.49554405,False,,57a77b4a8eccbc0001f39fc2,,2528627,168,,evan-feature22,full_pf_b,,1
142,13163,169,,,,1,1,1.0,0.0,0.0,1.0,,0.0-171.0,,0.0,1220.2,1.0,0.731607915,0.0,0.651774583,0.0,0.35688023,0.0,0.45194491600000003,False,,57a77b4a8eccbc0001f39fc2,,2539634,169,,evan-feature22,full_pf_b,,0
143,13164,170,,,,2,2,0.0,0.0,-1.0,0.0,,0.0-172.0,,0.0,1597.075,1.0,0.75,1.0,0.75,0.0,0.283145374,0.0,0.528608005,False,,57a77b4a8eccbc0001f39fc2,,2551026,170,,evan-feature22,full_pf_b,,1
144,13165,171,,,,2,2,1.0,1.0,-1.0,0.0,,0.0-173.0,,-1.0,987.27,1.0,0.7491416890000001,1.0,0.7423785959999999,1.0,0.29135870399999997,1.0,0.498888318,False,,57a77b4a8eccbc0001f39fc2,,2561823,171,,evan-feature22,full_pf_b,,0
145,13166,172,,,,2,2,1.0,0.0,-1.0,0.0,,0.0-174.0,,-1.0,1125.985,0.0,0.708569387,1.0,0.717682277,1.0,0.294421699,0.0,0.493838163,False,,57a77b4a8eccbc0001f39fc2,,2572748,172,,evan-feature22,full_pf_b,,0
146,13167,173,,,,1,1,1.0,1.0,0.0,1.0,,0.0-175.0,,1.0,1611.69,1.0,0.75,1.0,0.7383382159999999,0.0,0.356098707,0.0,0.442533405,False,,57a77b4a8eccbc0001f39fc2,,2584152,173,,evan-feature22,full_pf_b,,1
147,13168,174,,,,1,1,0.0,1.0,0.0,1.0,,0.0-176.0,,1.0,921.0249999,0.0,0.744527075,1.0,0.75,0.0,0.334127506,0.0,0.393165805,False,,57a77b4a8eccbc0001f39fc2,,2594861,174,,evan-feature22,full_pf_b,,0
148,13169,175,,,,1,1,0.0,1.0,0.0,1.0,,0.0-177.0,,1.0,1140.565,0.0,0.75,1.0,0.75,0.0,0.33571021799999995,0.0,0.350393962,False,,57a77b4a8eccbc0001f39fc2,,2605791,175,,evan-feature22,full_pf_b,,0
149,13170,176,,,,1,1,0.0,1.0,0.0,1.0,,0.0-178.0,,1.0,1291.05,0.0,0.75,1.0,0.75,0.0,0.313628297,1.0,0.36349657399999996,False,,57a77b4a8eccbc0001f39fc2,,2616889,176,,evan-feature22,full_pf_b,,0
150,13171,177,,,,2,2,0.0,0.0,-1.0,0.0,,0.0-179.0,,0.0,1303.905,1.0,0.75,1.0,0.734284182,0.0,0.262667667,0.0,0.380199119,False,,57a77b4a8eccbc0001f39fc2,,2627973,177,,evan-feature22,full_pf_b,,1
151,13172,178,,,,1,1,1.0,1.0,0.0,1.0,,0.0-180.0,,1.0,1503.09,1.0,0.75,1.0,0.75,0.0,0.25,0.0,0.394494013,False,,57a77b4a8eccbc0001f39fc2,,2639278,178,,evan-feature22,full_pf_b,,1
152,13173,179,,,,2,2,0.0,1.0,-1.0,0.0,,0.0-181.0,,0.0,1249.12,1.0,0.722298145,1.0,0.7357822340000001,0.0,0.25,1.0,0.319142121,False,,57a77b4a8eccbc0001f39fc2,,2650310,179,,evan-feature22,full_pf_b,,1
153,13174,180,,,,2,2,1.0,1.0,-1.0,0.0,,0.0-182.0,,-1.0,839.9299999,0.0,0.73149275,1.0,0.724276446,1.0,0.305856907,1.0,0.281315057,False,,57a77b4a8eccbc0001f39fc2,,2660949,180,,evan-feature22,full_pf_b,,0
154,13175,181,,,,2,2,0.0,1.0,0.0,1.0,,0.0-183.0,,1.0,1756.6,1.0,0.7458732690000001,1.0,0.7336382459999999,0.0,0.272571964,1.0,0.266021999,False,,57a77b4a8eccbc0001f39fc2,,2672503,181,,evan-feature22,full_pf_b,,0
155,13176,182,,,,1,1,1.0,1.0,0.0,1.0,,0.0-184.0,,1.0,1084.51,1.0,0.705579037,1.0,0.720778292,0.0,0.320238144,1.0,0.30971744,False,,57a77b4a8eccbc0001f39fc2,,2683380,182,,evan-feature22,full_pf_b,,1
156,13177,183,,,,1,1,0.0,1.0,0.0,1.0,,0.0-185.0,,1.0,725.445,0.0,0.700425648,1.0,0.7198784009999999,0.0,0.272590393,1.0,0.304182931,False,,57a77b4a8eccbc0001f39fc2,,2693897,183,,evan-feature22,full_pf_b,,0
157,13178,184,,,,1,1,0.0,0.0,0.0,1.0,,0.0-186.0,,0.0,896.265,0.0,0.735590785,0.0,0.722714973,0.0,0.25,0.0,0.323421091,False,,57a77b4a8eccbc0001f39fc2,,2704575,184,,evan-feature22,full_pf_b,,0
158,13179,185,,,,1,1,1.0,1.0,0.0,1.0,,0.0-187.0,,1.0,724.39,1.0,0.724807662,1.0,0.63146213,0.0,0.36836492600000004,1.0,0.34592153299999995,False,,57a77b4a8eccbc0001f39fc2,,2715086,185,,evan-feature22,full_pf_b,,0
159,13180,186,,,,1,1,0.0,1.0,0.0,1.0,,0.0-188.0,,1.0,1074.59,0.0,0.7352796909999999,1.0,0.555111392,0.0,0.36003922,0.0,0.31433779999999995,False,,57a77b4a8eccbc0001f39fc2,,2725951,186,,evan-feature22,full_pf_b,,0
160,13181,187,notice,,,,,,,,,,0.0-189.0,"{""Q0"":""NO""}",,13654.0,,,,,,,,,False,,57a77b4a8eccbc0001f39fc2,,2739610,187,Q,survey-text,full_pf_b,,1
161,13182,188,track1,,[1],,,,,,,,0.0-190.0,"{""Q0"":""no""}",,10683.0,,,,,,,,,False,,57a77b4a8eccbc0001f39fc2,,2750308,188,Q,evan-quiz,full_pf_b,,1
162,13183,189,track2,,[1],,,,,,,,0.0-191.0,"{""Q0"":""no""}",,9562.0,,,,,,,,,False,,57a77b4a8eccbc0001f39fc2,,2759877,189,Q,evan-quiz,full_pf_b,,1
163,13184,190,strat,,,,,,,,,,0.0-192.0,"{""Q0"":""I KEPT AN EYE ON WHICH ALIENS APPEARED MORE FREQUENTLY ON EACH SIDE.""}",,79670.0,,,,,,,,,False,,57a77b4a8eccbc0001f39fc2,,2839556,190,Q,survey-text,full_pf_b,,1
