,index,Unnamed: 0,Q_name,button_pressed,choice_idxs,chosen_pos,chosen_state,chosen_state_f_1_outcome,chosen_state_f_2_outcome,f_1_reward,f_2_reward,incor_questions,internal_node_id,responses,reward_received,rt,s_1_f_1_outcome,s_1_f_1_prob,s_1_f_2_outcome,s_1_f_2_prob,s_2_f_1_outcome,s_2_f_1_prob,s_2_f_2_outcome,s_2_f_2_prob,safe_first,stimulus,subjectID,success,time_elapsed,trial_index,trial_num,trial_type,version,view_history,switching
0,1623,30,,,,2,2,1.0,0.0,0.0,1.0,,0.0-27.0,,0.0,2633.67,1.0,0.6,0.0,0.6,1.0,0.4,0.0,0.4,True,,5b3a03a71d4b680001694793,,756378,30,,evan-feature22,full_rf_b,,0
1,1624,31,,,,1,1,0.0,1.0,0.0,1.0,,0.0-28.0,,1.0,2354.985,0.0,0.608053294,1.0,0.63424552,0.0,0.397152172,0.0,0.347069101,True,,5b3a03a71d4b680001694793,,768498,31,,evan-feature22,full_rf_b,,1
2,1625,32,,,,2,2,0.0,0.0,0.0,1.0,,0.0-29.0,,0.0,1090.835,1.0,0.642237155,0.0,0.648566321,0.0,0.389407674,0.0,0.285525717,True,,5b3a03a71d4b680001694793,,779352,32,,evan-feature22,full_rf_b,,1
3,1626,33,,,,1,1,1.0,1.0,0.0,1.0,,0.0-30.0,,1.0,1430.7,1.0,0.661086576,1.0,0.630492543,0.0,0.399058924,0.0,0.25,True,,5b3a03a71d4b680001694793,,790546,33,,evan-feature22,full_rf_b,,1
4,1627,34,,,,2,2,0.0,0.0,0.0,1.0,,0.0-31.0,,0.0,953.15,1.0,0.631324137,0.0,0.6269842929999999,0.0,0.38734784299999997,0.0,0.25,True,,5b3a03a71d4b680001694793,,801263,34,,evan-feature22,full_rf_b,,1
5,1628,35,,,,1,1,0.0,1.0,0.0,1.0,,0.0-32.0,,1.0,1654.58,0.0,0.6381991370000001,1.0,0.68987999,0.0,0.384107265,0.0,0.271332943,True,,5b3a03a71d4b680001694793,,812678,35,,evan-feature22,full_rf_b,,1
6,1629,36,,,,1,1,1.0,0.0,0.0,1.0,,0.0-33.0,,0.0,1050.3,1.0,0.66034901,0.0,0.742641349,1.0,0.360225629,1.0,0.25,True,,5b3a03a71d4b680001694793,,823492,36,,evan-feature22,full_rf_b,,0
7,1630,37,,,,2,2,0.0,0.0,-1.0,0.0,,0.0-34.0,,0.0,2049.87,1.0,0.638612418,1.0,0.75,0.0,0.367273939,0.0,0.25,True,,5b3a03a71d4b680001694793,,835312,37,,evan-feature22,full_rf_b,,1
8,1631,38,,,,2,2,0.0,0.0,0.0,1.0,,0.0-35.0,,0.0,780.57,1.0,0.624340629,0.0,0.75,0.0,0.425829545,0.0,0.25,True,,5b3a03a71d4b680001694793,,845858,38,,evan-feature22,full_rf_b,,0
9,1632,39,,,,1,1,1.0,1.0,0.0,1.0,,0.0-36.0,,1.0,887.53,1.0,0.621999804,1.0,0.75,1.0,0.368609357,1.0,0.25,True,,5b3a03a71d4b680001694793,,856509,39,,evan-feature22,full_rf_b,,1
10,1633,40,,,,2,2,1.0,0.0,-1.0,0.0,,0.0-37.0,,-1.0,1442.09,1.0,0.62666403,1.0,0.75,1.0,0.311151498,0.0,0.25,True,,5b3a03a71d4b680001694793,,867722,40,,evan-feature22,full_rf_b,,1
11,1634,41,,,,SLOW,SLOW,,,-1.0,0.0,,0.0-38.0,,-3.0,,1.0,0.6819650009999999,0.0,0.75,1.0,0.310763048,0.0,0.25,True,,5b3a03a71d4b680001694793,,873531,41,,evan-feature22,full_rf_b,,1
12,1635,42,,,,2,2,0.0,1.0,0.0,1.0,,0.0-39.0,,1.0,2376.815,1.0,0.740626951,0.0,0.75,0.0,0.25,1.0,0.25,True,,5b3a03a71d4b680001694793,,885678,42,,evan-feature22,full_rf_b,,1
13,1636,43,,,,1,1,1.0,0.0,0.0,1.0,,0.0-40.0,,0.0,764.3,1.0,0.739599242,0.0,0.742034978,0.0,0.25397114600000004,0.0,0.25,True,,5b3a03a71d4b680001694793,,896213,43,,evan-feature22,full_rf_b,,1
14,1637,44,,,,SLOW,SLOW,,,0.0,1.0,,0.0-41.0,,-3.0,,1.0,0.732341315,1.0,0.72735643,0.0,0.25,1.0,0.25,True,,5b3a03a71d4b680001694793,,902027,44,,evan-feature22,full_rf_b,,1
15,1638,45,,,,SLOW,SLOW,,,0.0,1.0,,0.0-42.0,,-3.0,,0.0,0.7062287770000001,0.0,0.75,1.0,0.29002151,0.0,0.288256649,True,,5b3a03a71d4b680001694793,,907848,45,,evan-feature22,full_rf_b,,0
16,1639,46,,,,SLOW,SLOW,,,-1.0,0.0,,0.0-43.0,,-3.0,,1.0,0.7086029209999999,0.0,0.75,1.0,0.274129113,1.0,0.262851608,True,,5b3a03a71d4b680001694793,,913659,46,,evan-feature22,full_rf_b,,0
17,1640,47,,,,2,2,0.0,0.0,0.0,1.0,,0.0-44.0,,0.0,1186.385,1.0,0.669189651,0.0,0.727614338,0.0,0.298444036,0.0,0.296944518,True,,5b3a03a71d4b680001694793,,924619,47,,evan-feature22,full_rf_b,,1
18,1641,48,,,,1,1,1.0,1.0,-1.0,0.0,,0.0-45.0,,-1.0,715.665,1.0,0.6819912929999999,1.0,0.7179434290000001,1.0,0.265003961,0.0,0.28157921199999997,True,,5b3a03a71d4b680001694793,,935123,48,,evan-feature22,full_rf_b,,1
19,1642,49,,,,1,1,1.0,1.0,-1.0,0.0,,0.0-46.0,,-1.0,710.25,1.0,0.665275002,1.0,0.723065271,1.0,0.260414971,1.0,0.30973870000000003,True,,5b3a03a71d4b680001694793,,945622,49,,evan-feature22,full_rf_b,,0
20,1643,50,,,,2,2,0.0,0.0,0.0,1.0,,0.0-47.0,,0.0,506.545,1.0,0.6660593260000001,1.0,0.728032907,0.0,0.30922817,0.0,0.338778608,True,,5b3a03a71d4b680001694793,,955906,50,,evan-feature22,full_rf_b,,1
21,1644,51,,,,SLOW,SLOW,,,0.0,1.0,,0.0-48.0,,-3.0,,0.0,0.702068785,0.0,0.6528750879999999,1.0,0.287329608,1.0,0.35789613200000003,True,,5b3a03a71d4b680001694793,,961727,51,,evan-feature22,full_rf_b,,1
22,1645,52,,,,2,2,0.0,0.0,0.0,1.0,,0.0-49.0,,0.0,881.09,1.0,0.651939787,1.0,0.636725589,0.0,0.284834488,0.0,0.358563756,True,,5b3a03a71d4b680001694793,,972381,52,,evan-feature22,full_rf_b,,1
23,1646,53,,,,2,2,0.0,0.0,0.0,1.0,,0.0-50.0,,0.0,583.35,1.0,0.67573929,0.0,0.612550049,0.0,0.37130387600000003,0.0,0.383542402,True,,5b3a03a71d4b680001694793,,982743,53,,evan-feature22,full_rf_b,,0
24,1647,54,,,,2,2,0.0,0.0,0.0,1.0,,0.0-51.0,,0.0,237.605,0.0,0.620753801,0.0,0.60513644,0.0,0.385529434,0.0,0.340361743,True,,5b3a03a71d4b680001694793,,992759,54,,evan-feature22,full_rf_b,,0
25,1648,55,,,,1,1,0.0,1.0,-1.0,0.0,,0.0-52.0,,0.0,839.92,0.0,0.673564893,1.0,0.672437924,0.0,0.292955382,0.0,0.337633795,True,,5b3a03a71d4b680001694793,,1003383,55,,evan-feature22,full_rf_b,,1
26,1649,56,,,,2,2,0.0,0.0,0.0,1.0,,0.0-53.0,,0.0,52.09499999,1.0,0.6749427,1.0,0.724197502,0.0,0.32391132100000003,0.0,0.350995264,True,,5b3a03a71d4b680001694793,,1013213,56,,evan-feature22,full_rf_b,,1
27,1650,57,,,,SLOW,SLOW,,,0.0,1.0,,0.0-54.0,,-3.0,,0.0,0.6940159379999999,1.0,0.75,0.0,0.31710554399999996,0.0,0.413450341,True,,5b3a03a71d4b680001694793,,1019030,57,,evan-feature22,full_rf_b,,1
28,1651,58,,,,2,2,0.0,0.0,0.0,1.0,,0.0-55.0,,0.0,1169.935,1.0,0.6916018270000001,0.0,0.69001187,0.0,0.261817804,0.0,0.40038635,True,,5b3a03a71d4b680001694793,,1029978,58,,evan-feature22,full_rf_b,,1
29,1652,59,,,,1,1,1.0,0.0,0.0,1.0,,0.0-56.0,,0.0,2627.155,1.0,0.641061544,0.0,0.71337992,1.0,0.277296461,0.0,0.47372791700000005,True,,5b3a03a71d4b680001694793,,1042400,59,,evan-feature22,full_rf_b,,1
30,1653,60,,,,2,2,0.0,1.0,0.0,1.0,,0.0-57.0,,1.0,3097.045,1.0,0.6082438520000001,1.0,0.708471106,0.0,0.28745137,1.0,0.564174476,True,,5b3a03a71d4b680001694793,,1055290,60,,evan-feature22,full_rf_b,,1
31,1654,61,,,,2,2,1.0,0.0,-1.0,0.0,,0.0-58.0,,-1.0,2502.285,1.0,0.6051112120000001,0.0,0.7118147229999999,1.0,0.272390611,0.0,0.5595149939999999,True,,5b3a03a71d4b680001694793,,1067579,61,,evan-feature22,full_rf_b,,0
32,1655,62,,,,2,2,0.0,1.0,-1.0,0.0,,0.0-59.0,,0.0,698.975,1.0,0.582420852,1.0,0.635867583,0.0,0.31089574,1.0,0.5227206520000001,True,,5b3a03a71d4b680001694793,,1078060,62,,evan-feature22,full_rf_b,,0
33,1656,63,,,,1,1,0.0,1.0,-1.0,0.0,,0.0-60.0,,0.0,1363.495,0.0,0.623195575,1.0,0.655026044,0.0,0.25,1.0,0.560387538,True,,5b3a03a71d4b680001694793,,1089199,63,,evan-feature22,full_rf_b,,1
34,1657,64,,,,2,2,1.0,1.0,0.0,1.0,,0.0-61.0,,1.0,592.245,1.0,0.601889598,0.0,0.678198724,1.0,0.25,1.0,0.559922936,True,,5b3a03a71d4b680001694793,,1099570,64,,evan-feature22,full_rf_b,,1
35,1658,65,,,,2,2,1.0,0.0,-1.0,0.0,,0.0-62.0,,-1.0,943.2,1.0,0.601259914,1.0,0.704681482,1.0,0.33908969299999997,0.0,0.505003715,True,,5b3a03a71d4b680001694793,,1110302,65,,evan-feature22,full_rf_b,,0
36,1659,66,,,,1,1,0.0,1.0,-1.0,0.0,,0.0-63.0,,0.0,723.985,0.0,0.59645454,1.0,0.710437172,0.0,0.327441879,0.0,0.391749613,True,,5b3a03a71d4b680001694793,,1120812,66,,evan-feature22,full_rf_b,,1
37,1660,67,,,,SLOW,SLOW,,,0.0,1.0,,0.0-64.0,,-3.0,,1.0,0.529473,0.0,0.636758527,0.0,0.301338063,1.0,0.365661481,True,,5b3a03a71d4b680001694793,,1126631,67,,evan-feature22,full_rf_b,,1
38,1661,68,,,,1,1,1.0,0.0,-1.0,0.0,,0.0-65.0,,-1.0,2109.88,1.0,0.541657162,0.0,0.634541962,0.0,0.343535366,1.0,0.371763742,True,,5b3a03a71d4b680001694793,,1138515,68,,evan-feature22,full_rf_b,,1
39,1662,69,,,,2,2,0.0,0.0,-1.0,0.0,,0.0-66.0,,0.0,652.775,1.0,0.5707533260000001,0.0,0.589121171,0.0,0.326428396,0.0,0.43961622899999997,True,,5b3a03a71d4b680001694793,,1148946,69,,evan-feature22,full_rf_b,,1
40,1663,70,,,,2,2,0.0,1.0,0.0,1.0,,0.0-67.0,,1.0,822.045,0.0,0.5707533260000001,1.0,0.589121171,0.0,0.326428396,1.0,0.43961622899999997,True,,5b3a03a71d4b680001694793,,1159559,70,,evan-feature22,full_rf_b,,0
41,1664,71,,,,1,1,0.0,1.0,0.0,1.0,,0.0-68.0,,1.0,691.255,0.0,0.506271295,1.0,0.641775594,0.0,0.37149690700000004,0.0,0.404330166,True,,5b3a03a71d4b680001694793,,1170028,71,,evan-feature22,full_rf_b,,1
42,1665,72,,,,2,2,1.0,0.0,-1.0,0.0,,0.0-69.0,,-1.0,1465.175,0.0,0.455642565,1.0,0.623605825,1.0,0.358753011,0.0,0.346174041,True,,5b3a03a71d4b680001694793,,1181274,72,,evan-feature22,full_rf_b,,1
43,1666,73,,,,1,1,1.0,1.0,0.0,1.0,,0.0-70.0,,1.0,1686.295,1.0,0.483677308,1.0,0.5904681070000001,1.0,0.402218411,1.0,0.35344697,True,,5b3a03a71d4b680001694793,,1192743,73,,evan-feature22,full_rf_b,,1
44,1667,74,,,,2,2,0.0,1.0,-1.0,0.0,,0.0-71.0,,0.0,592.67,0.0,0.394210977,0.0,0.558925494,0.0,0.540052017,1.0,0.35182128700000004,True,,5b3a03a71d4b680001694793,,1203120,74,,evan-feature22,full_rf_b,,1
45,1668,75,,,,2,2,0.0,0.0,0.0,1.0,,0.0-72.0,,0.0,968.605,0.0,0.382300414,0.0,0.577670603,0.0,0.607608448,0.0,0.378261578,True,,5b3a03a71d4b680001694793,,1213862,75,,evan-feature22,full_rf_b,,0
46,1669,76,,,,1,1,0.0,0.0,-1.0,0.0,,0.0-73.0,,0.0,760.735,0.0,0.357596762,0.0,0.5929076529999999,1.0,0.6579790010000001,0.0,0.401326777,True,,5b3a03a71d4b680001694793,,1224397,76,,evan-feature22,full_rf_b,,1
47,1670,77,,,,1,1,0.0,1.0,0.0,1.0,,0.0-74.0,,1.0,1332.85,0.0,0.362033495,1.0,0.582308608,1.0,0.649195052,1.0,0.355158505,True,,5b3a03a71d4b680001694793,,1235520,77,,evan-feature22,full_rf_b,,0
48,1671,78,,,,2,2,1.0,1.0,0.0,1.0,,0.0-75.0,,1.0,754.75,0.0,0.369620635,1.0,0.669100864,1.0,0.706059111,1.0,0.362516241,True,,5b3a03a71d4b680001694793,,1246055,78,,evan-feature22,full_rf_b,,1
49,1672,79,,,,2,2,1.0,1.0,0.0,1.0,,0.0-76.0,,1.0,1085.45,0.0,0.41477751399999996,0.0,0.7284416779999999,1.0,0.7182656940000001,1.0,0.36228040899999997,True,,5b3a03a71d4b680001694793,,1256923,79,,evan-feature22,full_rf_b,,0
50,1673,80,,,,1,1,0.0,0.0,-1.0,0.0,,0.0-77.0,,0.0,795.975,0.0,0.37675460299999997,0.0,0.703250285,1.0,0.75,0.0,0.461979164,True,,5b3a03a71d4b680001694793,,1267493,80,,evan-feature22,full_rf_b,,1
51,1674,81,,,,2,2,1.0,0.0,-1.0,0.0,,0.0-78.0,,-1.0,1434.05,1.0,0.398716075,0.0,0.6723864890000001,1.0,0.674153818,0.0,0.519029516,True,,5b3a03a71d4b680001694793,,1278712,81,,evan-feature22,full_rf_b,,1
52,1675,82,,,,1,1,1.0,1.0,-1.0,0.0,,0.0-79.0,,-1.0,1507.335,1.0,0.34677856700000004,1.0,0.69057175,1.0,0.6822438540000001,0.0,0.477292237,True,,5b3a03a71d4b680001694793,,1290001,82,,evan-feature22,full_rf_b,,1
53,1676,83,,,,2,2,1.0,0.0,0.0,1.0,,0.0-80.0,,0.0,1401.785,0.0,0.28580469199999997,1.0,0.68408818,1.0,0.684207565,0.0,0.49780448299999996,True,,5b3a03a71d4b680001694793,,1301174,83,,evan-feature22,full_rf_b,,1
54,1678,85,,,,1,1,0.0,0.0,0.0,1.0,,0.0-82.0,,0.0,2301.8,0.0,0.25,0.0,0.7405808970000001,1.0,0.679614108,1.0,0.436436964,True,,5b3a03a71d4b680001694793,,1319176,85,,evan-feature22,full_rf_b,,1
55,1679,86,,,,1,1,0.0,1.0,0.0,1.0,,0.0-83.0,,1.0,1684.215,0.0,0.29890393,1.0,0.730505706,1.0,0.7328203320000001,0.0,0.439256938,True,,5b3a03a71d4b680001694793,,1330640,86,,evan-feature22,full_rf_b,,0
56,1680,87,,,,1,1,1.0,0.0,-1.0,0.0,,0.0-84.0,,-1.0,2172.885,1.0,0.326762398,0.0,0.7148059609999999,1.0,0.75,0.0,0.44389608799999997,True,,5b3a03a71d4b680001694793,,1342596,87,,evan-feature22,full_rf_b,,0
57,1681,88,,,,2,2,1.0,0.0,0.0,1.0,,0.0-85.0,,0.0,677.395,0.0,0.295168515,1.0,0.739760854,1.0,0.719947008,0.0,0.35277284600000003,True,,5b3a03a71d4b680001694793,,1353053,88,,evan-feature22,full_rf_b,,1
58,1682,89,,,,1,1,0.0,0.0,0.0,1.0,,0.0-86.0,,0.0,1913.39,0.0,0.25,0.0,0.70781482,1.0,0.75,1.0,0.286095925,True,,5b3a03a71d4b680001694793,,1364739,89,,evan-feature22,full_rf_b,,1
59,1683,90,,,,2,2,1.0,0.0,0.0,1.0,,0.0-87.0,,0.0,703.835,0.0,0.25638190899999996,0.0,0.704088163,1.0,0.75,0.0,0.26872601399999996,True,,5b3a03a71d4b680001694793,,1375226,90,,evan-feature22,full_rf_b,,1
60,1684,91,,,,1,1,0.0,1.0,-1.0,0.0,,0.0-88.0,,0.0,1722.44,0.0,0.271581126,1.0,0.669760107,0.0,0.733896663,0.0,0.273244572,True,,5b3a03a71d4b680001694793,,1386729,91,,evan-feature22,full_rf_b,,1
61,1685,92,,,,2,2,1.0,1.0,0.0,1.0,,0.0-89.0,,1.0,1935.23,0.0,0.257144401,0.0,0.600575706,1.0,0.74488122,1.0,0.25,True,,5b3a03a71d4b680001694793,,1398449,92,,evan-feature22,full_rf_b,,1
62,1686,93,,,,2,2,1.0,0.0,0.0,1.0,,0.0-90.0,,0.0,1536.835,1.0,0.25,0.0,0.616870026,1.0,0.723610234,0.0,0.25,True,,5b3a03a71d4b680001694793,,1409761,93,,evan-feature22,full_rf_b,,0
63,1687,94,,,,1,1,1.0,1.0,-1.0,0.0,,0.0-91.0,,-1.0,2129.07,1.0,0.25,1.0,0.583540187,0.0,0.7041042559999999,1.0,0.285961995,True,,5b3a03a71d4b680001694793,,1421673,94,,evan-feature22,full_rf_b,,1
64,1688,95,,,,2,2,1.0,1.0,-1.0,0.0,,0.0-92.0,,-1.0,682.715,1.0,0.27254536,0.0,0.53875765,1.0,0.693783448,1.0,0.284961652,True,,5b3a03a71d4b680001694793,,1432140,95,,evan-feature22,full_rf_b,,1
65,1689,96,,,,1,1,0.0,1.0,-1.0,0.0,,0.0-93.0,,0.0,2103.97,0.0,0.25,1.0,0.548431252,1.0,0.734221895,0.0,0.279445214,True,,5b3a03a71d4b680001694793,,1444022,96,,evan-feature22,full_rf_b,,1
66,1690,97,,,,2,2,0.0,0.0,0.0,1.0,,0.0-94.0,,0.0,579.52,0.0,0.258640684,1.0,0.545878066,0.0,0.725245965,0.0,0.31487537,True,,5b3a03a71d4b680001694793,,1454375,97,,evan-feature22,full_rf_b,,1
67,1691,98,,,,2,2,1.0,0.0,0.0,1.0,,0.0-95.0,,0.0,819.92,1.0,0.251103711,1.0,0.5776290629999999,1.0,0.696320133,0.0,0.317831047,True,,5b3a03a71d4b680001694793,,1464975,98,,evan-feature22,full_rf_b,,0
68,1692,99,,,,2,2,1.0,0.0,0.0,1.0,,0.0-96.0,,0.0,1156.145,0.0,0.276630292,0.0,0.617329858,1.0,0.73838088,0.0,0.261471582,True,,5b3a03a71d4b680001694793,,1475912,99,,evan-feature22,full_rf_b,,0
69,1693,100,,,,2,2,1.0,0.0,0.0,1.0,,0.0-97.0,,0.0,991.34,0.0,0.297716424,1.0,0.618863717,1.0,0.7402358259999999,0.0,0.262600834,True,,5b3a03a71d4b680001694793,,1486691,100,,evan-feature22,full_rf_b,,0
70,1694,101,,,,1,1,1.0,1.0,-1.0,0.0,,0.0-98.0,,-1.0,1490.235,1.0,0.290935512,1.0,0.695370945,1.0,0.706570507,1.0,0.280030553,True,,5b3a03a71d4b680001694793,,1497971,101,,evan-feature22,full_rf_b,,1
71,1695,102,,,,2,2,1.0,0.0,0.0,1.0,,0.0-99.0,,0.0,967.8,1.0,0.25,1.0,0.6465277079999999,1.0,0.67766682,0.0,0.25,True,,5b3a03a71d4b680001694793,,1508723,102,,evan-feature22,full_rf_b,,1
72,1696,103,,,,1,1,1.0,0.0,-1.0,0.0,,0.0-100.0,,-1.0,2236.87,1.0,0.26463816,0.0,0.636100213,0.0,0.646048507,0.0,0.265607101,True,,5b3a03a71d4b680001694793,,1520750,103,,evan-feature22,full_rf_b,,1
73,1697,104,,,,2,2,0.0,0.0,-1.0,0.0,,0.0-101.0,,0.0,2022.585,0.0,0.314340707,1.0,0.667795927,0.0,0.613630805,0.0,0.25,True,,5b3a03a71d4b680001694793,,1532549,104,,evan-feature22,full_rf_b,,1
74,1698,105,,,,2,2,1.0,0.0,0.0,1.0,,0.0-102.0,,0.0,1385.41,0.0,0.28685784,1.0,0.6622549529999999,1.0,0.652154117,0.0,0.25,True,,5b3a03a71d4b680001694793,,1543718,105,,evan-feature22,full_rf_b,,0
75,1699,106,,,,1,1,0.0,0.0,0.0,1.0,,0.0-103.0,,0.0,1313.015,0.0,0.304106554,0.0,0.631289538,1.0,0.707041942,0.0,0.29314237,True,,5b3a03a71d4b680001694793,,1554796,106,,evan-feature22,full_rf_b,,1
76,1700,107,,,,1,1,1.0,1.0,0.0,1.0,,0.0-104.0,,1.0,1923.45,1.0,0.304806932,1.0,0.571167718,1.0,0.680472346,0.0,0.25,True,,5b3a03a71d4b680001694793,,1566500,107,,evan-feature22,full_rf_b,,0
77,1701,108,,,,1,1,0.0,0.0,0.0,1.0,,0.0-105.0,,0.0,1820.86,0.0,0.37919861,0.0,0.5724849710000001,1.0,0.705638003,1.0,0.30179300600000003,True,,5b3a03a71d4b680001694793,,1578097,108,,evan-feature22,full_rf_b,,0
78,1702,109,,,,1,1,1.0,0.0,0.0,1.0,,0.0-106.0,,0.0,1621.055,1.0,0.464277969,0.0,0.554034373,1.0,0.7372627340000001,0.0,0.264699741,True,,5b3a03a71d4b680001694793,,1589503,109,,evan-feature22,full_rf_b,,0
79,1703,110,,,,1,1,1.0,0.0,0.0,1.0,,0.0-107.0,,0.0,1397.73,1.0,0.465104323,0.0,0.530793115,1.0,0.75,1.0,0.31683071,True,,5b3a03a71d4b680001694793,,1600674,110,,evan-feature22,full_rf_b,,0
80,1704,111,,,,1,1,0.0,1.0,-1.0,0.0,,0.0-108.0,,0.0,3814.66,0.0,0.465104323,1.0,0.530793115,1.0,0.75,1.0,0.31683071,True,,5b3a03a71d4b680001694793,,1614271,111,,evan-feature22,full_rf_b,,0
81,1705,112,,,,1,1,1.0,1.0,-1.0,0.0,,0.0-109.0,,-1.0,2528.75,1.0,0.46833986,1.0,0.570249239,0.0,0.7244472590000001,1.0,0.364114163,True,,5b3a03a71d4b680001694793,,1626577,112,,evan-feature22,full_rf_b,,0
82,1706,113,,,,2,2,1.0,1.0,-1.0,0.0,,0.0-110.0,,-1.0,907.47,0.0,0.445444024,0.0,0.649673355,1.0,0.6845441290000001,1.0,0.300660449,True,,5b3a03a71d4b680001694793,,1637265,113,,evan-feature22,full_rf_b,,1
83,1707,114,,,,1,1,1.0,1.0,-1.0,0.0,,0.0-111.0,,-1.0,1502.915,1.0,0.39909721299999995,1.0,0.6715179509999999,0.0,0.742310028,0.0,0.35496088299999995,True,,5b3a03a71d4b680001694793,,1648553,114,,evan-feature22,full_rf_b,,1
84,1708,115,,,,1,1,1.0,1.0,0.0,1.0,,0.0-112.0,,1.0,1624.535,1.0,0.37956104799999996,1.0,0.694725302,1.0,0.7181651309999999,1.0,0.38726906299999997,True,,5b3a03a71d4b680001694793,,1659962,115,,evan-feature22,full_rf_b,,0
85,1709,116,,,,2,2,1.0,0.0,0.0,1.0,,0.0-113.0,,0.0,1845.21,0.0,0.404995034,0.0,0.724375412,1.0,0.6910946859999999,0.0,0.387187347,True,,5b3a03a71d4b680001694793,,1671587,116,,evan-feature22,full_rf_b,,1
86,1710,117,,,,2,2,0.0,1.0,-1.0,0.0,,0.0-114.0,,0.0,2260.9,0.0,0.461740803,1.0,0.75,0.0,0.75,1.0,0.34872038200000005,True,,5b3a03a71d4b680001694793,,1683654,117,,evan-feature22,full_rf_b,,0
87,1711,118,,,,1,1,0.0,1.0,-1.0,0.0,,0.0-115.0,,0.0,1811.755,0.0,0.43821380600000004,1.0,0.738833273,1.0,0.728286963,0.0,0.399538128,True,,5b3a03a71d4b680001694793,,1695247,118,,evan-feature22,full_rf_b,,1
88,1712,119,,,,2,2,1.0,0.0,0.0,1.0,,0.0-116.0,,0.0,1445.385,0.0,0.41709882,1.0,0.736666736,1.0,0.75,0.0,0.389095584,True,,5b3a03a71d4b680001694793,,1706485,119,,evan-feature22,full_rf_b,,1
89,1713,120,,,,1,1,0.0,1.0,0.0,1.0,,0.0-117.0,,1.0,2005.48,0.0,0.39749009799999996,1.0,0.744320029,1.0,0.75,1.0,0.363848678,True,,5b3a03a71d4b680001694793,,1718271,120,,evan-feature22,full_rf_b,,1
90,1714,121,,,,2,2,1.0,0.0,-1.0,0.0,,0.0-118.0,,-1.0,1418.655,1.0,0.392653706,0.0,0.75,1.0,0.75,0.0,0.384386976,True,,5b3a03a71d4b680001694793,,1729477,121,,evan-feature22,full_rf_b,,1
91,1715,122,,,,2,2,1.0,1.0,0.0,1.0,,0.0-119.0,,1.0,1797.85,0.0,0.31190902600000003,1.0,0.75,1.0,0.732413819,1.0,0.413082932,True,,5b3a03a71d4b680001694793,,1741059,122,,evan-feature22,full_rf_b,,0
92,1716,123,,,,1,1,0.0,0.0,-1.0,0.0,,0.0-120.0,,0.0,1673.355,0.0,0.366917648,0.0,0.740073855,0.0,0.75,0.0,0.352861979,True,,5b3a03a71d4b680001694793,,1752508,123,,evan-feature22,full_rf_b,,1
93,1717,124,,,,2,2,1.0,0.0,-1.0,0.0,,0.0-121.0,,-1.0,1661.975,1.0,0.3645172,1.0,0.721770713,1.0,0.75,0.0,0.404074511,True,,5b3a03a71d4b680001694793,,1763957,124,,evan-feature22,full_rf_b,,1
94,1718,125,,,,1,1,0.0,1.0,-1.0,0.0,,0.0-122.0,,0.0,891.35,0.0,0.35205600299999995,1.0,0.68983859,0.0,0.739735447,0.0,0.366895945,True,,5b3a03a71d4b680001694793,,1774630,125,,evan-feature22,full_rf_b,,1
95,1719,126,,,,1,1,1.0,1.0,-1.0,0.0,,0.0-123.0,,-1.0,2008.035,1.0,0.40998722600000004,1.0,0.720859127,1.0,0.673854955,0.0,0.368528541,True,,5b3a03a71d4b680001694793,,1786410,126,,evan-feature22,full_rf_b,,0
96,1720,127,,,,2,2,1.0,1.0,-1.0,0.0,,0.0-124.0,,-1.0,797.115,0.0,0.353625316,1.0,0.75,1.0,0.695605473,1.0,0.38303674200000004,True,,5b3a03a71d4b680001694793,,1796995,127,,evan-feature22,full_rf_b,,1
97,1721,128,,,,2,2,1.0,0.0,-1.0,0.0,,0.0-125.0,,-1.0,1238.255,0.0,0.359216989,1.0,0.75,1.0,0.6987915090000001,0.0,0.35169046200000004,True,,5b3a03a71d4b680001694793,,1808014,128,,evan-feature22,full_rf_b,,0
98,1722,129,,,,1,1,0.0,1.0,-1.0,0.0,,0.0-126.0,,0.0,1300.32,0.0,0.35834496899999996,1.0,0.75,1.0,0.707067742,0.0,0.416763636,True,,5b3a03a71d4b680001694793,,1819107,129,,evan-feature22,full_rf_b,,1
99,1723,130,,,,2,2,1.0,0.0,0.0,1.0,,0.0-127.0,,0.0,1514.19,0.0,0.38741613799999997,1.0,0.7177369570000001,1.0,0.734902455,0.0,0.49438664299999996,True,,5b3a03a71d4b680001694793,,1830405,130,,evan-feature22,full_rf_b,,1
100,1724,131,,,,2,2,1.0,1.0,-1.0,0.0,,0.0-128.0,,-1.0,2508.31,1.0,0.405255252,1.0,0.7300466640000001,1.0,0.7027748070000001,1.0,0.504359668,True,,5b3a03a71d4b680001694793,,1842691,131,,evan-feature22,full_rf_b,,0
101,1725,132,,,,1,1,0.0,1.0,-1.0,0.0,,0.0-129.0,,0.0,1373.795,0.0,0.40697073,1.0,0.7260142190000001,1.0,0.724461982,0.0,0.522779179,True,,5b3a03a71d4b680001694793,,1853851,132,,evan-feature22,full_rf_b,,1
102,1726,133,,,,1,1,0.0,1.0,-1.0,0.0,,0.0-130.0,,0.0,1228.66,0.0,0.43906215299999996,1.0,0.7252802340000001,1.0,0.719079934,0.0,0.5712990579999999,True,,5b3a03a71d4b680001694793,,1864865,133,,evan-feature22,full_rf_b,,0
103,1727,134,,,,2,2,1.0,0.0,0.0,1.0,,0.0-131.0,,0.0,1599.845,0.0,0.4076705,1.0,0.73280499,1.0,0.681313127,0.0,0.523891346,True,,5b3a03a71d4b680001694793,,1876250,134,,evan-feature22,full_rf_b,,1
104,1728,135,,,,1,1,0.0,1.0,0.0,1.0,,0.0-132.0,,1.0,1121.145,0.0,0.399102911,1.0,0.730498344,1.0,0.661080239,0.0,0.46742603,True,,5b3a03a71d4b680001694793,,1887151,135,,evan-feature22,full_rf_b,,1
105,1729,136,,,,1,1,0.0,1.0,0.0,1.0,,0.0-133.0,,1.0,1643.695,0.0,0.356477282,1.0,0.712296395,0.0,0.641812684,1.0,0.44868414,True,,5b3a03a71d4b680001694793,,1898581,136,,evan-feature22,full_rf_b,,0
106,1730,137,,,,1,1,1.0,0.0,-1.0,0.0,,0.0-134.0,,-1.0,3636.21,1.0,0.462760722,0.0,0.692349322,1.0,0.700947931,0.0,0.394680266,True,,5b3a03a71d4b680001694793,,1912000,137,,evan-feature22,full_rf_b,,0
107,1731,138,,,,1,1,1.0,1.0,-1.0,0.0,,0.0-135.0,,-1.0,1904.74,1.0,0.422306413,1.0,0.718375916,1.0,0.706340917,0.0,0.367787185,True,,5b3a03a71d4b680001694793,,1923696,138,,evan-feature22,full_rf_b,,0
108,1733,140,,,,2,2,0.0,1.0,-1.0,0.0,,0.0-137.0,,0.0,1910.505,0.0,0.4582233,1.0,0.643834117,0.0,0.75,1.0,0.39615823299999997,True,,5b3a03a71d4b680001694793,,1939638,140,,evan-feature22,full_rf_b,,1
109,1734,141,,,,2,2,1.0,1.0,-1.0,0.0,,0.0-138.0,,-1.0,2028.48,0.0,0.43813437899999996,1.0,0.651283804,1.0,0.729674191,1.0,0.37711048,True,,5b3a03a71d4b680001694793,,1951456,141,,evan-feature22,full_rf_b,,0
110,1735,142,,,,1,1,0.0,1.0,-1.0,0.0,,0.0-139.0,,0.0,960.05,0.0,0.471199094,1.0,0.6470010979999999,1.0,0.715008097,1.0,0.410656191,True,,5b3a03a71d4b680001694793,,1962205,142,,evan-feature22,full_rf_b,,1
111,1736,143,,,,1,1,0.0,1.0,-1.0,0.0,,0.0-140.0,,0.0,1142.75,0.0,0.42486406,1.0,0.629771829,0.0,0.6550939960000001,0.0,0.459093873,True,,5b3a03a71d4b680001694793,,1973140,143,,evan-feature22,full_rf_b,,0
112,1737,144,,,,1,1,1.0,0.0,-1.0,0.0,,0.0-141.0,,-1.0,1317.295,1.0,0.4803197,0.0,0.645842715,1.0,0.6421749920000001,1.0,0.443092151,True,,5b3a03a71d4b680001694793,,1984243,144,,evan-feature22,full_rf_b,,0
113,1738,145,,,,1,1,1.0,1.0,0.0,1.0,,0.0-142.0,,1.0,2143.965,1.0,0.521848997,1.0,0.735801074,1.0,0.6691348460000001,0.0,0.45259351600000003,True,,5b3a03a71d4b680001694793,,1996163,145,,evan-feature22,full_rf_b,,0
114,1739,146,,,,1,1,0.0,0.0,-1.0,0.0,,0.0-143.0,,0.0,2521.875,0.0,0.49565621299999996,0.0,0.742400847,0.0,0.661512553,1.0,0.483110831,True,,5b3a03a71d4b680001694793,,2008457,146,,evan-feature22,full_rf_b,,0
115,1740,147,,,,2,2,1.0,0.0,-1.0,0.0,,0.0-144.0,,-1.0,1970.925,1.0,0.521564361,1.0,0.731078632,1.0,0.6774886809999999,0.0,0.483263956,True,,5b3a03a71d4b680001694793,,2020212,147,,evan-feature22,full_rf_b,,1
116,1741,148,,,,1,1,0.0,1.0,-1.0,0.0,,0.0-145.0,,0.0,1115.37,0.0,0.558893102,1.0,0.719810023,1.0,0.67461031,1.0,0.499349834,True,,5b3a03a71d4b680001694793,,2031114,148,,evan-feature22,full_rf_b,,1
117,1742,149,,,,1,1,1.0,1.0,-1.0,0.0,,0.0-146.0,,-1.0,1566.01,1.0,0.611031046,1.0,0.75,1.0,0.688072995,0.0,0.5321422729999999,True,,5b3a03a71d4b680001694793,,2042469,149,,evan-feature22,full_rf_b,,0
118,1743,150,,,,1,1,1.0,1.0,0.0,1.0,,0.0-147.0,,1.0,1742.07,1.0,0.633223941,1.0,0.713567728,1.0,0.75,0.0,0.48185314700000004,True,,5b3a03a71d4b680001694793,,2053993,150,,evan-feature22,full_rf_b,,0
119,1744,151,,,,2,2,0.0,0.0,-1.0,0.0,,0.0-148.0,,0.0,1279.645,1.0,0.664001694,1.0,0.705509768,0.0,0.75,0.0,0.500211065,True,,5b3a03a71d4b680001694793,,2065053,151,,evan-feature22,full_rf_b,,1
120,1745,152,,,,1,1,1.0,0.0,-1.0,0.0,,0.0-149.0,,-1.0,1571.465,1.0,0.664001694,0.0,0.705509768,1.0,0.75,0.0,0.500211065,True,,5b3a03a71d4b680001694793,,2076406,152,,evan-feature22,full_rf_b,,1
121,1746,153,,,,2,2,1.0,1.0,-1.0,0.0,,0.0-150.0,,-1.0,1292.935,0.0,0.696508041,1.0,0.71066027,1.0,0.717028709,1.0,0.49792991,True,,5b3a03a71d4b680001694793,,2087497,153,,evan-feature22,full_rf_b,,1
122,1747,154,,,,1,1,1.0,1.0,0.0,1.0,,0.0-151.0,,1.0,1066.315,1.0,0.699883272,1.0,0.75,0.0,0.713543895,1.0,0.496962643,True,,5b3a03a71d4b680001694793,,2098348,154,,evan-feature22,full_rf_b,,1
123,1748,155,,,,1,1,1.0,0.0,0.0,1.0,,0.0-152.0,,0.0,790.735,1.0,0.741163419,0.0,0.75,1.0,0.64691024,0.0,0.513858197,True,,5b3a03a71d4b680001694793,,2108919,155,,evan-feature22,full_rf_b,,0
124,1749,156,,,,1,1,1.0,0.0,0.0,1.0,,0.0-153.0,,0.0,1855.915,1.0,0.75,0.0,0.70816558,0.0,0.594499079,1.0,0.48502124,True,,5b3a03a71d4b680001694793,,2120551,156,,evan-feature22,full_rf_b,,0
125,1750,157,,,,1,1,1.0,1.0,-1.0,0.0,,0.0-154.0,,-1.0,1630.785,1.0,0.75,1.0,0.721848901,1.0,0.62197249,0.0,0.48263586399999997,True,,5b3a03a71d4b680001694793,,2131965,157,,evan-feature22,full_rf_b,,0
126,1751,158,,,,2,2,1.0,0.0,-1.0,0.0,,0.0-155.0,,-1.0,1087.37,1.0,0.75,1.0,0.74813071,1.0,0.584357161,0.0,0.411477782,True,,5b3a03a71d4b680001694793,,2142830,158,,evan-feature22,full_rf_b,,1
127,1752,159,,,,1,1,0.0,1.0,-1.0,0.0,,0.0-156.0,,0.0,1835.075,0.0,0.75,1.0,0.75,1.0,0.52287236,0.0,0.488290656,True,,5b3a03a71d4b680001694793,,2154448,159,,evan-feature22,full_rf_b,,1
128,1753,160,,,,1,1,1.0,1.0,-1.0,0.0,,0.0-157.0,,-1.0,1118.11,1.0,0.75,1.0,0.75,1.0,0.544321581,0.0,0.53143059,True,,5b3a03a71d4b680001694793,,2165351,160,,evan-feature22,full_rf_b,,0
129,1754,161,,,,2,2,1.0,0.0,-1.0,0.0,,0.0-158.0,,-1.0,1203.275,1.0,0.726754564,1.0,0.75,1.0,0.5129306370000001,0.0,0.530592445,True,,5b3a03a71d4b680001694793,,2176335,161,,evan-feature22,full_rf_b,,1
130,1755,162,,,,1,1,1.0,1.0,0.0,1.0,,0.0-159.0,,1.0,809.655,1.0,0.75,1.0,0.7392590729999999,0.0,0.479875835,1.0,0.547007051,True,,5b3a03a71d4b680001694793,,2186931,162,,evan-feature22,full_rf_b,,1
131,1756,163,,,,1,1,1.0,1.0,0.0,1.0,,0.0-160.0,,1.0,902.98,1.0,0.75,1.0,0.7393376979999999,0.0,0.546045419,0.0,0.541267353,True,,5b3a03a71d4b680001694793,,2197623,163,,evan-feature22,full_rf_b,,0
132,1757,164,,,,1,1,0.0,1.0,-1.0,0.0,,0.0-161.0,,0.0,2528.175,0.0,0.75,1.0,0.75,0.0,0.485725895,0.0,0.527625395,True,,5b3a03a71d4b680001694793,,2209935,164,,evan-feature22,full_rf_b,,0
133,1758,165,,,,2,2,1.0,0.0,0.0,1.0,,0.0-162.0,,0.0,802.05,0.0,0.75,1.0,0.725087974,1.0,0.488603595,0.0,0.504019206,True,,5b3a03a71d4b680001694793,,2220519,165,,evan-feature22,full_rf_b,,1
134,1759,166,,,,1,1,1.0,1.0,-1.0,0.0,,0.0-163.0,,-1.0,2139.57,1.0,0.745504295,1.0,0.75,1.0,0.452379914,1.0,0.50131194,True,,5b3a03a71d4b680001694793,,2232457,166,,evan-feature22,full_rf_b,,1
135,1760,167,,,,1,1,1.0,1.0,0.0,1.0,,0.0-164.0,,1.0,1399.6,1.0,0.728513874,1.0,0.75,1.0,0.44125567200000004,0.0,0.531454591,True,,5b3a03a71d4b680001694793,,2243632,167,,evan-feature22,full_rf_b,,0
136,1761,168,,,,2,2,1.0,0.0,-1.0,0.0,,0.0-165.0,,-1.0,1359.975,1.0,0.73790804,1.0,0.75,1.0,0.413036656,0.0,0.524619035,True,,5b3a03a71d4b680001694793,,2254767,168,,evan-feature22,full_rf_b,,1
137,1762,169,,,,1,1,0.0,0.0,-1.0,0.0,,0.0-166.0,,0.0,2060.92,0.0,0.7080961309999999,0.0,0.708666865,0.0,0.431915581,0.0,0.481819489,True,,5b3a03a71d4b680001694793,,2266602,169,,evan-feature22,full_rf_b,,1
138,1763,170,,,,1,1,0.0,1.0,-1.0,0.0,,0.0-167.0,,0.0,1206.85,0.0,0.721378003,1.0,0.71605913,1.0,0.36642387,1.0,0.5036739929999999,True,,5b3a03a71d4b680001694793,,2277593,170,,evan-feature22,full_rf_b,,0
139,1764,171,,,,2,2,0.0,0.0,0.0,1.0,,0.0-168.0,,0.0,1303.45,1.0,0.7340618959999999,0.0,0.699323252,0.0,0.35298046299999997,0.0,0.511241692,True,,5b3a03a71d4b680001694793,,2288672,171,,evan-feature22,full_rf_b,,1
140,1765,172,,,,1,1,1.0,1.0,0.0,1.0,,0.0-169.0,,1.0,1457.56,1.0,0.75,1.0,0.70412698,0.0,0.380734814,1.0,0.529580116,True,,5b3a03a71d4b680001694793,,2299903,172,,evan-feature22,full_rf_b,,1
141,1766,173,,,,1,1,1.0,0.0,0.0,1.0,,0.0-170.0,,0.0,1559.82,1.0,0.7436654909999999,0.0,0.711182751,1.0,0.41125331,1.0,0.49554405,True,,5b3a03a71d4b680001694793,,2311253,173,,evan-feature22,full_rf_b,,0
142,1767,174,,,,1,1,0.0,1.0,-1.0,0.0,,0.0-171.0,,0.0,2228.855,0.0,0.731607915,1.0,0.651774583,0.0,0.35688023,1.0,0.45194491600000003,True,,5b3a03a71d4b680001694793,,2323259,174,,evan-feature22,full_rf_b,,0
143,1768,175,,,,2,2,1.0,1.0,0.0,1.0,,0.0-172.0,,1.0,1572.955,1.0,0.75,1.0,0.75,1.0,0.283145374,1.0,0.528608005,True,,5b3a03a71d4b680001694793,,2334616,175,,evan-feature22,full_rf_b,,1
144,1769,176,,,,1,1,0.0,1.0,-1.0,0.0,,0.0-173.0,,0.0,2272.33,0.0,0.7491416890000001,1.0,0.7423785959999999,0.0,0.29135870399999997,0.0,0.498888318,True,,5b3a03a71d4b680001694793,,2346660,176,,evan-feature22,full_rf_b,,1
145,1770,177,,,,2,2,0.0,0.0,0.0,1.0,,0.0-174.0,,0.0,971.285,1.0,0.708569387,1.0,0.717682277,0.0,0.294421699,0.0,0.493838163,True,,5b3a03a71d4b680001694793,,2357407,177,,evan-feature22,full_rf_b,,1
146,1771,178,,,,2,2,0.0,0.0,-1.0,0.0,,0.0-175.0,,0.0,2256.53,1.0,0.75,1.0,0.7383382159999999,0.0,0.356098707,0.0,0.442533405,True,,5b3a03a71d4b680001694793,,2369440,178,,evan-feature22,full_rf_b,,0
147,1772,179,,,,1,1,1.0,0.0,-1.0,0.0,,0.0-176.0,,-1.0,2042.435,1.0,0.744527075,0.0,0.75,0.0,0.334127506,1.0,0.393165805,True,,5b3a03a71d4b680001694793,,2381269,179,,evan-feature22,full_rf_b,,1
148,1773,180,,,,2,2,1.0,0.0,-1.0,0.0,,0.0-177.0,,-1.0,694.435,1.0,0.75,1.0,0.75,1.0,0.33571021799999995,0.0,0.350393962,True,,5b3a03a71d4b680001694793,,2391746,180,,evan-feature22,full_rf_b,,1
149,1774,181,,,,2,2,0.0,1.0,0.0,1.0,,0.0-178.0,,1.0,79.065,1.0,0.75,1.0,0.75,0.0,0.313628297,1.0,0.36349657399999996,True,,5b3a03a71d4b680001694793,,2401601,181,,evan-feature22,full_rf_b,,0
150,1775,182,,,,1,1,1.0,1.0,-1.0,0.0,,0.0-179.0,,-1.0,972.305,1.0,0.75,1.0,0.734284182,0.0,0.262667667,0.0,0.380199119,True,,5b3a03a71d4b680001694793,,2412357,182,,evan-feature22,full_rf_b,,1
151,1776,183,,,,2,2,1.0,1.0,-1.0,0.0,,0.0-180.0,,-1.0,554.755,1.0,0.75,1.0,0.75,1.0,0.25,1.0,0.394494013,True,,5b3a03a71d4b680001694793,,2422695,183,,evan-feature22,full_rf_b,,1
152,1777,184,,,,1,1,1.0,0.0,-1.0,0.0,,0.0-181.0,,-1.0,1349.995,1.0,0.722298145,0.0,0.7357822340000001,1.0,0.25,0.0,0.319142121,True,,5b3a03a71d4b680001694793,,2433829,184,,evan-feature22,full_rf_b,,1
153,1778,185,,,,2,2,1.0,0.0,-1.0,0.0,,0.0-182.0,,-1.0,891.74,0.0,0.73149275,1.0,0.724276446,1.0,0.305856907,0.0,0.281315057,True,,5b3a03a71d4b680001694793,,2444503,185,,evan-feature22,full_rf_b,,1
154,1779,186,,,,1,1,1.0,1.0,-1.0,0.0,,0.0-183.0,,-1.0,1048.735,1.0,0.7458732690000001,1.0,0.7336382459999999,0.0,0.272571964,0.0,0.266021999,True,,5b3a03a71d4b680001694793,,2455326,186,,evan-feature22,full_rf_b,,1
155,1780,187,,,,2,2,1.0,1.0,0.0,1.0,,0.0-184.0,,1.0,738.565,0.0,0.705579037,1.0,0.720778292,1.0,0.320238144,1.0,0.30971744,True,,5b3a03a71d4b680001694793,,2465849,187,,evan-feature22,full_rf_b,,1
156,1781,188,,,,2,2,0.0,1.0,0.0,1.0,,0.0-185.0,,1.0,639.015,1.0,0.700425648,1.0,0.7198784009999999,0.0,0.272590393,1.0,0.304182931,True,,5b3a03a71d4b680001694793,,2476271,188,,evan-feature22,full_rf_b,,0
157,1782,189,,,,2,2,1.0,0.0,0.0,1.0,,0.0-186.0,,0.0,738.44,1.0,0.735590785,1.0,0.722714973,1.0,0.25,0.0,0.323421091,True,,5b3a03a71d4b680001694793,,2486793,189,,evan-feature22,full_rf_b,,0
158,1783,190,,,,1,1,1.0,1.0,0.0,1.0,,0.0-187.0,,1.0,1046.78,1.0,0.724807662,1.0,0.63146213,1.0,0.36836492600000004,0.0,0.34592153299999995,True,,5b3a03a71d4b680001694793,,2497624,190,,evan-feature22,full_rf_b,,1
159,1784,191,,,,1,1,1.0,1.0,-1.0,0.0,,0.0-188.0,,-1.0,2171.295,1.0,0.7352796909999999,1.0,0.555111392,0.0,0.36003922,1.0,0.31433779999999995,True,,5b3a03a71d4b680001694793,,2509578,191,,evan-feature22,full_rf_b,,0
160,1785,192,notice,,,,,,,,,,0.0-189.0,"{""Q0"":""symbals larger""}",,16483.0,,,,,,,,,True,,5b3a03a71d4b680001694793,,2526068,192,Q,survey-text,full_rf_b,,1
161,1786,193,track1,,[1],,,,,,,,0.0-190.0,"{""Q0"":""no""}",,7087.0,,,,,,,,,True,,5b3a03a71d4b680001694793,,2533170,193,Q,evan-quiz,full_rf_b,,1
162,1787,194,track2,,[1],,,,,,,,0.0-191.0,"{""Q0"":""no""}",,14194.0,,,,,,,,,True,,5b3a03a71d4b680001694793,,2547372,194,Q,evan-quiz,full_rf_b,,1
163,1788,195,strat,,,,,,,,,,0.0-192.0,"{""Q0"":""probability""}",,13121.0,,,,,,,,,True,,5b3a03a71d4b680001694793,,2560505,195,Q,survey-text,full_rf_b,,1
