,index,Unnamed: 0,Q_name,button_pressed,choice_idxs,chosen_pos,chosen_state,chosen_state_f_1_outcome,chosen_state_f_2_outcome,f_1_reward,f_2_reward,incor_questions,internal_node_id,responses,reward_received,rt,s_1_f_1_outcome,s_1_f_1_prob,s_1_f_2_outcome,s_1_f_2_prob,s_2_f_1_outcome,s_2_f_1_prob,s_2_f_2_outcome,s_2_f_2_prob,safe_first,stimulus,subjectID,success,time_elapsed,trial_index,trial_num,trial_type,version,view_history,switching
0,26937,25,,,,1,1,1.0,1.0,0.0,-1.0,,0.0-27.0,,-1.0,1256.995,1.0,0.6,1.0,0.6,0.0,0.4,0.0,0.4,False,,5ee64d41b067113b09098d5e,,534444,25,,evan-feature22,full_pf_a,,0
1,26938,26,,,,1,1,0.0,1.0,0.0,-1.0,,0.0-28.0,,-1.0,2401.78,0.0,0.608053294,1.0,0.63424552,0.0,0.397152172,0.0,0.347069101,False,,5ee64d41b067113b09098d5e,,546657,26,,evan-feature22,full_pf_a,,0
2,26939,27,,,,1,1,0.0,1.0,0.0,-1.0,,0.0-29.0,,-1.0,2793.815,0.0,0.642237155,1.0,0.648566321,0.0,0.389407674,0.0,0.285525717,False,,5ee64d41b067113b09098d5e,,559261,27,,evan-feature22,full_pf_a,,0
3,26940,28,,,,1,1,1.0,0.0,0.0,-1.0,,0.0-30.0,,0.0,1590.255,1.0,0.661086576,0.0,0.630492543,1.0,0.399058924,0.0,0.25,False,,5ee64d41b067113b09098d5e,,570653,28,,evan-feature22,full_pf_a,,0
4,26941,29,,,,2,2,1.0,0.0,0.0,-1.0,,0.0-31.0,,0.0,1101.42,0.0,0.631324137,1.0,0.6269842929999999,1.0,0.38734784299999997,0.0,0.25,False,,5ee64d41b067113b09098d5e,,581562,29,,evan-feature22,full_pf_a,,1
5,26942,30,,,,2,2,1.0,0.0,0.0,-1.0,,0.0-32.0,,0.0,1530.53,1.0,0.6381991370000001,0.0,0.68987999,1.0,0.384107265,0.0,0.271332943,False,,5ee64d41b067113b09098d5e,,592884,30,,evan-feature22,full_pf_a,,0
6,26943,31,,,,2,2,1.0,0.0,0.0,-1.0,,0.0-33.0,,0.0,1279.95,1.0,0.66034901,1.0,0.742641349,1.0,0.360225629,0.0,0.25,False,,5ee64d41b067113b09098d5e,,603960,31,,evan-feature22,full_pf_a,,0
7,26944,32,,,,1,1,1.0,0.0,1.0,0.0,,0.0-34.0,,1.0,2523.79,1.0,0.638612418,0.0,0.75,0.0,0.367273939,0.0,0.25,False,,5ee64d41b067113b09098d5e,,616287,32,,evan-feature22,full_pf_a,,1
8,26945,33,,,,1,1,0.0,1.0,0.0,-1.0,,0.0-35.0,,-1.0,1755.57,0.0,0.624340629,1.0,0.75,0.0,0.425829545,0.0,0.25,False,,5ee64d41b067113b09098d5e,,627829,33,,evan-feature22,full_pf_a,,0
9,26946,34,,,,2,2,1.0,0.0,0.0,-1.0,,0.0-36.0,,0.0,1726.995,0.0,0.621999804,1.0,0.75,1.0,0.368609357,0.0,0.25,False,,5ee64d41b067113b09098d5e,,639353,34,,evan-feature22,full_pf_a,,1
10,26947,35,,,,2,2,1.0,1.0,1.0,0.0,,0.0-37.0,,1.0,1018.425,1.0,0.62666403,1.0,0.75,1.0,0.311151498,1.0,0.25,False,,5ee64d41b067113b09098d5e,,650180,35,,evan-feature22,full_pf_a,,0
11,26948,36,,,,SLOW,SLOW,,,1.0,0.0,,0.0-38.0,,-3.0,,0.0,0.6819650009999999,1.0,0.75,0.0,0.310763048,1.0,0.25,False,,5ee64d41b067113b09098d5e,,656003,36,,evan-feature22,full_pf_a,,1
12,26949,37,,,,1,1,0.0,1.0,0.0,-1.0,,0.0-39.0,,-1.0,432.32,0.0,0.740626951,1.0,0.75,0.0,0.25,0.0,0.25,False,,5ee64d41b067113b09098d5e,,666253,37,,evan-feature22,full_pf_a,,1
13,26950,38,,,,1,1,1.0,1.0,0.0,-1.0,,0.0-40.0,,-1.0,520.015,1.0,0.739599242,1.0,0.742034978,0.0,0.25397114600000004,0.0,0.25,False,,5ee64d41b067113b09098d5e,,676574,38,,evan-feature22,full_pf_a,,0
14,26951,39,,,,1,1,0.0,1.0,0.0,-1.0,,0.0-41.0,,-1.0,924.18,0.0,0.732341315,1.0,0.72735643,1.0,0.25,1.0,0.25,False,,5ee64d41b067113b09098d5e,,687320,39,,evan-feature22,full_pf_a,,0
15,26952,40,,,,2,2,0.0,0.0,0.0,-1.0,,0.0-42.0,,0.0,1084.655,1.0,0.7062287770000001,1.0,0.75,0.0,0.29002151,0.0,0.288256649,False,,5ee64d41b067113b09098d5e,,698208,40,,evan-feature22,full_pf_a,,1
16,26953,41,,,,1,1,1.0,1.0,1.0,0.0,,0.0-43.0,,1.0,536.755,1.0,0.7086029209999999,1.0,0.75,0.0,0.274129113,0.0,0.262851608,False,,5ee64d41b067113b09098d5e,,708559,41,,evan-feature22,full_pf_a,,1
17,26954,42,,,,1,1,0.0,0.0,0.0,-1.0,,0.0-44.0,,0.0,2349.91,0.0,0.669189651,0.0,0.727614338,0.0,0.298444036,0.0,0.296944518,False,,5ee64d41b067113b09098d5e,,720701,42,,evan-feature22,full_pf_a,,0
18,26955,43,,,,2,2,0.0,1.0,1.0,0.0,,0.0-45.0,,0.0,1271.595,0.0,0.6819912929999999,0.0,0.7179434290000001,0.0,0.265003961,1.0,0.28157921199999997,False,,5ee64d41b067113b09098d5e,,731753,43,,evan-feature22,full_pf_a,,1
19,26956,44,,,,2,2,0.0,0.0,1.0,0.0,,0.0-46.0,,0.0,1609.58,1.0,0.665275002,1.0,0.723065271,0.0,0.260414971,0.0,0.30973870000000003,False,,5ee64d41b067113b09098d5e,,743158,44,,evan-feature22,full_pf_a,,0
20,26957,45,,,,2,2,1.0,0.0,0.0,-1.0,,0.0-47.0,,0.0,1055.875,1.0,0.6660593260000001,1.0,0.728032907,1.0,0.30922817,0.0,0.338778608,False,,5ee64d41b067113b09098d5e,,754022,45,,evan-feature22,full_pf_a,,0
21,26958,46,,,,2,2,0.0,0.0,0.0,-1.0,,0.0-48.0,,0.0,550.41,1.0,0.702068785,1.0,0.6528750879999999,0.0,0.287329608,0.0,0.35789613200000003,False,,5ee64d41b067113b09098d5e,,764373,46,,evan-feature22,full_pf_a,,0
22,26959,47,,,,1,1,1.0,1.0,0.0,-1.0,,0.0-49.0,,-1.0,1291.53,1.0,0.651939787,1.0,0.636725589,1.0,0.284834488,1.0,0.358563756,False,,5ee64d41b067113b09098d5e,,775470,47,,evan-feature22,full_pf_a,,1
23,26960,48,,,,2,2,0.0,1.0,0.0,-1.0,,0.0-50.0,,-1.0,530.915,0.0,0.67573929,1.0,0.612550049,0.0,0.37130387600000003,1.0,0.383542402,False,,5ee64d41b067113b09098d5e,,785798,48,,evan-feature22,full_pf_a,,1
24,26961,49,,,,2,2,0.0,0.0,0.0,-1.0,,0.0-51.0,,0.0,605.675,1.0,0.620753801,0.0,0.60513644,0.0,0.385529434,0.0,0.340361743,False,,5ee64d41b067113b09098d5e,,796212,49,,evan-feature22,full_pf_a,,0
25,26962,50,,,,2,2,0.0,1.0,1.0,0.0,,0.0-52.0,,0.0,2888.64,1.0,0.673564893,0.0,0.672437924,0.0,0.292955382,1.0,0.337633795,False,,5ee64d41b067113b09098d5e,,808877,50,,evan-feature22,full_pf_a,,0
26,26963,51,,,,1,1,1.0,0.0,0.0,-1.0,,0.0-53.0,,0.0,3189.055,1.0,0.6749427,0.0,0.724197502,0.0,0.32391132100000003,0.0,0.350995264,False,,5ee64d41b067113b09098d5e,,821864,51,,evan-feature22,full_pf_a,,1
27,26964,52,,,,1,1,0.0,1.0,0.0,-1.0,,0.0-54.0,,-1.0,875.425,0.0,0.6940159379999999,1.0,0.75,0.0,0.31710554399999996,0.0,0.413450341,False,,5ee64d41b067113b09098d5e,,832548,52,,evan-feature22,full_pf_a,,0
28,26965,53,,,,2,2,1.0,0.0,0.0,-1.0,,0.0-55.0,,0.0,2529.345,1.0,0.6916018270000001,1.0,0.69001187,1.0,0.261817804,0.0,0.40038635,False,,5ee64d41b067113b09098d5e,,844866,53,,evan-feature22,full_pf_a,,1
29,26966,54,,,,1,1,0.0,0.0,0.0,-1.0,,0.0-56.0,,0.0,1123.2,0.0,0.641061544,0.0,0.71337992,1.0,0.277296461,1.0,0.47372791700000005,False,,5ee64d41b067113b09098d5e,,855778,54,,evan-feature22,full_pf_a,,1
30,26967,55,,,,2,2,0.0,0.0,0.0,-1.0,,0.0-57.0,,0.0,1388.875,1.0,0.6082438520000001,1.0,0.708471106,0.0,0.28745137,0.0,0.564174476,False,,5ee64d41b067113b09098d5e,,866974,55,,evan-feature22,full_pf_a,,1
31,26968,56,,,,2,2,0.0,1.0,1.0,0.0,,0.0-58.0,,0.0,1208.045,0.0,0.6051112120000001,1.0,0.7118147229999999,0.0,0.272390611,1.0,0.5595149939999999,False,,5ee64d41b067113b09098d5e,,877977,56,,evan-feature22,full_pf_a,,0
32,26969,57,,,,1,1,0.0,1.0,1.0,0.0,,0.0-59.0,,0.0,1093.445,0.0,0.582420852,1.0,0.635867583,0.0,0.31089574,1.0,0.5227206520000001,False,,5ee64d41b067113b09098d5e,,888867,57,,evan-feature22,full_pf_a,,1
33,26970,58,,,,1,1,0.0,0.0,1.0,0.0,,0.0-60.0,,0.0,1627.695,0.0,0.623195575,0.0,0.655026044,0.0,0.25,0.0,0.560387538,False,,5ee64d41b067113b09098d5e,,900311,58,,evan-feature22,full_pf_a,,0
34,26971,59,,,,1,1,0.0,1.0,0.0,-1.0,,0.0-61.0,,-1.0,1158.53,0.0,0.601889598,1.0,0.678198724,1.0,0.25,0.0,0.559922936,False,,5ee64d41b067113b09098d5e,,911263,59,,evan-feature22,full_pf_a,,0
35,26972,60,,,,2,2,1.0,1.0,1.0,0.0,,0.0-62.0,,1.0,719.545,1.0,0.601259914,1.0,0.704681482,1.0,0.33908969299999997,1.0,0.505003715,False,,5ee64d41b067113b09098d5e,,921782,60,,evan-feature22,full_pf_a,,1
36,26973,61,,,,1,1,1.0,0.0,1.0,0.0,,0.0-63.0,,1.0,600.885,1.0,0.59645454,0.0,0.710437172,0.0,0.327441879,0.0,0.391749613,False,,5ee64d41b067113b09098d5e,,932180,61,,evan-feature22,full_pf_a,,1
37,26974,62,,,,1,1,1.0,1.0,0.0,-1.0,,0.0-64.0,,-1.0,850.99,1.0,0.529473,1.0,0.636758527,1.0,0.301338063,1.0,0.365661481,False,,5ee64d41b067113b09098d5e,,942838,62,,evan-feature22,full_pf_a,,0
38,26975,63,,,,2,2,0.0,0.0,1.0,0.0,,0.0-65.0,,0.0,887.29,0.0,0.541657162,1.0,0.634541962,0.0,0.343535366,0.0,0.371763742,False,,5ee64d41b067113b09098d5e,,953553,63,,evan-feature22,full_pf_a,,1
39,26976,64,,,,1,1,1.0,0.0,1.0,0.0,,0.0-66.0,,1.0,678.74,1.0,0.5707533260000001,0.0,0.589121171,1.0,0.326428396,1.0,0.43961622899999997,False,,5ee64d41b067113b09098d5e,,964040,64,,evan-feature22,full_pf_a,,1
40,26977,65,,,,1,1,0.0,1.0,0.0,-1.0,,0.0-67.0,,-1.0,489.045,0.0,0.5707533260000001,1.0,0.589121171,1.0,0.326428396,1.0,0.43961622899999997,False,,5ee64d41b067113b09098d5e,,974317,65,,evan-feature22,full_pf_a,,0
41,26978,66,,,,2,2,0.0,0.0,0.0,-1.0,,0.0-68.0,,0.0,784.75,1.0,0.506271295,0.0,0.641775594,0.0,0.37149690700000004,0.0,0.404330166,False,,5ee64d41b067113b09098d5e,,984887,66,,evan-feature22,full_pf_a,,1
42,26979,67,,,,1,1,1.0,1.0,1.0,0.0,,0.0-69.0,,1.0,860.375,1.0,0.455642565,1.0,0.623605825,0.0,0.358753011,0.0,0.346174041,False,,5ee64d41b067113b09098d5e,,995545,67,,evan-feature22,full_pf_a,,1
43,26980,68,,,,1,1,0.0,1.0,0.0,-1.0,,0.0-70.0,,-1.0,448.775,0.0,0.483677308,1.0,0.5904681070000001,1.0,0.402218411,0.0,0.35344697,False,,5ee64d41b067113b09098d5e,,1005777,68,,evan-feature22,full_pf_a,,0
44,26981,69,,,,1,1,0.0,0.0,1.0,0.0,,0.0-71.0,,0.0,759.58,0.0,0.394210977,0.0,0.558925494,1.0,0.540052017,1.0,0.35182128700000004,False,,5ee64d41b067113b09098d5e,,1016333,69,,evan-feature22,full_pf_a,,0
45,26982,70,,,,2,2,0.0,0.0,0.0,-1.0,,0.0-72.0,,0.0,704.895,0.0,0.382300414,1.0,0.577670603,0.0,0.607608448,0.0,0.378261578,False,,5ee64d41b067113b09098d5e,,1026839,70,,evan-feature22,full_pf_a,,1
46,26983,71,,,,2,2,1.0,0.0,1.0,0.0,,0.0-73.0,,1.0,589.055,1.0,0.357596762,1.0,0.5929076529999999,1.0,0.6579790010000001,0.0,0.401326777,False,,5ee64d41b067113b09098d5e,,1037225,71,,evan-feature22,full_pf_a,,0
47,26984,72,,,,2,2,1.0,0.0,0.0,-1.0,,0.0-74.0,,0.0,400.305,0.0,0.362033495,0.0,0.582308608,1.0,0.649195052,0.0,0.355158505,False,,5ee64d41b067113b09098d5e,,1047433,72,,evan-feature22,full_pf_a,,0
48,26985,73,,,,1,1,0.0,0.0,0.0,-1.0,,0.0-75.0,,0.0,543.26,0.0,0.369620635,0.0,0.669100864,0.0,0.706059111,0.0,0.362516241,False,,5ee64d41b067113b09098d5e,,1057771,73,,evan-feature22,full_pf_a,,1
49,26986,74,,,,1,1,0.0,1.0,0.0,-1.0,,0.0-76.0,,-1.0,364.225,0.0,0.41477751399999996,1.0,0.7284416779999999,1.0,0.7182656940000001,0.0,0.36228040899999997,False,,5ee64d41b067113b09098d5e,,1067940,74,,evan-feature22,full_pf_a,,0
50,26987,75,,,,2,2,1.0,0.0,1.0,0.0,,0.0-77.0,,1.0,3053.695,0.0,0.37675460299999997,0.0,0.703250285,1.0,0.75,0.0,0.461979164,False,,5ee64d41b067113b09098d5e,,1080797,75,,evan-feature22,full_pf_a,,1
51,26988,76,,,,2,2,1.0,0.0,1.0,0.0,,0.0-78.0,,1.0,1747.955,1.0,0.398716075,1.0,0.6723864890000001,1.0,0.674153818,0.0,0.519029516,False,,5ee64d41b067113b09098d5e,,1092340,76,,evan-feature22,full_pf_a,,0
52,26989,77,,,,2,2,1.0,0.0,1.0,0.0,,0.0-79.0,,1.0,503.04,1.0,0.34677856700000004,1.0,0.69057175,1.0,0.6822438540000001,0.0,0.477292237,False,,5ee64d41b067113b09098d5e,,1102641,77,,evan-feature22,full_pf_a,,0
53,26990,78,,,,2,2,1.0,0.0,0.0,-1.0,,0.0-80.0,,0.0,546.08,0.0,0.28580469199999997,1.0,0.68408818,1.0,0.684207565,0.0,0.49780448299999996,False,,5ee64d41b067113b09098d5e,,1112975,78,,evan-feature22,full_pf_a,,0
54,26992,80,,,,2,2,1.0,0.0,0.0,-1.0,,0.0-82.0,,0.0,658.535,0.0,0.25,1.0,0.7405808970000001,1.0,0.679614108,0.0,0.436436964,False,,5ee64d41b067113b09098d5e,,1127295,80,,evan-feature22,full_pf_a,,0
55,26993,81,,,,2,2,1.0,0.0,0.0,-1.0,,0.0-83.0,,0.0,593.79,0.0,0.29890393,0.0,0.730505706,1.0,0.7328203320000001,0.0,0.439256938,False,,5ee64d41b067113b09098d5e,,1137712,81,,evan-feature22,full_pf_a,,0
56,26994,82,,,,2,2,1.0,0.0,1.0,0.0,,0.0-84.0,,1.0,1050.085,0.0,0.326762398,1.0,0.7148059609999999,1.0,0.75,0.0,0.44389608799999997,False,,5ee64d41b067113b09098d5e,,1148550,82,,evan-feature22,full_pf_a,,0
57,26995,83,,,,2,2,1.0,1.0,0.0,-1.0,,0.0-85.0,,-1.0,587.92,0.0,0.295168515,0.0,0.739760854,1.0,0.719947008,1.0,0.35277284600000003,False,,5ee64d41b067113b09098d5e,,1158931,83,,evan-feature22,full_pf_a,,0
58,26996,84,,,,1,1,0.0,1.0,0.0,-1.0,,0.0-86.0,,-1.0,495.64,0.0,0.25,1.0,0.70781482,1.0,0.75,0.0,0.286095925,False,,5ee64d41b067113b09098d5e,,1169223,84,,evan-feature22,full_pf_a,,1
59,26997,85,,,,2,2,0.0,0.0,0.0,-1.0,,0.0-87.0,,0.0,626.63,0.0,0.25638190899999996,1.0,0.704088163,0.0,0.75,0.0,0.26872601399999996,False,,5ee64d41b067113b09098d5e,,1179672,85,,evan-feature22,full_pf_a,,1
60,26998,86,,,,1,1,0.0,0.0,1.0,0.0,,0.0-88.0,,0.0,490.15,0.0,0.271581126,0.0,0.669760107,1.0,0.733896663,0.0,0.273244572,False,,5ee64d41b067113b09098d5e,,1189957,86,,evan-feature22,full_pf_a,,1
61,26999,87,,,,1,1,0.0,0.0,0.0,-1.0,,0.0-89.0,,0.0,1117.425,0.0,0.257144401,0.0,0.600575706,1.0,0.74488122,1.0,0.25,False,,5ee64d41b067113b09098d5e,,1200877,87,,evan-feature22,full_pf_a,,0
62,27000,88,,,,1,1,0.0,1.0,0.0,-1.0,,0.0-90.0,,-1.0,501.655,0.0,0.25,1.0,0.616870026,1.0,0.723610234,0.0,0.25,False,,5ee64d41b067113b09098d5e,,1211176,88,,evan-feature22,full_pf_a,,0
63,27001,89,,,,1,1,0.0,0.0,1.0,0.0,,0.0-91.0,,0.0,524.11,0.0,0.25,0.0,0.583540187,1.0,0.7041042559999999,0.0,0.285961995,False,,5ee64d41b067113b09098d5e,,1221496,89,,evan-feature22,full_pf_a,,0
64,27002,90,,,,1,1,1.0,1.0,1.0,0.0,,0.0-92.0,,1.0,1357.275,1.0,0.27254536,1.0,0.53875765,0.0,0.693783448,0.0,0.284961652,False,,5ee64d41b067113b09098d5e,,1232647,90,,evan-feature22,full_pf_a,,0
65,27003,91,,,,2,2,1.0,0.0,1.0,0.0,,0.0-93.0,,1.0,523.11,0.0,0.25,1.0,0.548431252,1.0,0.734221895,0.0,0.279445214,False,,5ee64d41b067113b09098d5e,,1242974,91,,evan-feature22,full_pf_a,,1
66,27004,92,,,,SLOW,SLOW,,,0.0,-1.0,,0.0-94.0,,-3.0,,0.0,0.258640684,1.0,0.545878066,0.0,0.725245965,0.0,0.31487537,False,,5ee64d41b067113b09098d5e,,1248790,92,,evan-feature22,full_pf_a,,1
67,27005,93,,,,1,1,0.0,0.0,0.0,-1.0,,0.0-95.0,,0.0,694.23,0.0,0.251103711,0.0,0.5776290629999999,1.0,0.696320133,0.0,0.317831047,False,,5ee64d41b067113b09098d5e,,1259273,93,,evan-feature22,full_pf_a,,1
68,27006,94,,,,2,2,1.0,0.0,0.0,-1.0,,0.0-96.0,,0.0,451.645,1.0,0.276630292,1.0,0.617329858,1.0,0.73838088,0.0,0.261471582,False,,5ee64d41b067113b09098d5e,,1269524,94,,evan-feature22,full_pf_a,,1
69,27007,95,,,,1,1,1.0,1.0,0.0,-1.0,,0.0-97.0,,-1.0,597.37,1.0,0.297716424,1.0,0.618863717,1.0,0.7402358259999999,0.0,0.262600834,False,,5ee64d41b067113b09098d5e,,1279961,95,,evan-feature22,full_pf_a,,1
70,27008,96,,,,2,2,1.0,0.0,1.0,0.0,,0.0-98.0,,1.0,316.145,0.0,0.290935512,1.0,0.695370945,1.0,0.706570507,0.0,0.280030553,False,,5ee64d41b067113b09098d5e,,1290075,96,,evan-feature22,full_pf_a,,1
71,27009,97,,,,1,1,0.0,0.0,0.0,-1.0,,0.0-99.0,,0.0,286.465,0.0,0.25,0.0,0.6465277079999999,0.0,0.67766682,0.0,0.25,False,,5ee64d41b067113b09098d5e,,1300185,97,,evan-feature22,full_pf_a,,1
72,27010,98,,,,1,1,0.0,1.0,1.0,0.0,,0.0-100.0,,0.0,399.36,0.0,0.26463816,1.0,0.636100213,1.0,0.646048507,1.0,0.265607101,False,,5ee64d41b067113b09098d5e,,1310419,98,,evan-feature22,full_pf_a,,0
73,27011,99,,,,1,1,0.0,1.0,1.0,0.0,,0.0-101.0,,0.0,750.7,0.0,0.314340707,1.0,0.667795927,1.0,0.613630805,0.0,0.25,False,,5ee64d41b067113b09098d5e,,1320965,99,,evan-feature22,full_pf_a,,0
74,27012,100,,,,1,1,0.0,0.0,0.0,-1.0,,0.0-102.0,,0.0,972.21,0.0,0.28685784,0.0,0.6622549529999999,0.0,0.652154117,0.0,0.25,False,,5ee64d41b067113b09098d5e,,1331737,100,,evan-feature22,full_pf_a,,0
75,27013,101,,,,2,2,1.0,1.0,0.0,-1.0,,0.0-103.0,,-1.0,508.39,1.0,0.304106554,1.0,0.631289538,1.0,0.707041942,1.0,0.29314237,False,,5ee64d41b067113b09098d5e,,1342044,101,,evan-feature22,full_pf_a,,1
76,27014,102,,,,1,1,0.0,1.0,0.0,-1.0,,0.0-104.0,,-1.0,697.5,0.0,0.304806932,1.0,0.571167718,1.0,0.680472346,0.0,0.25,False,,5ee64d41b067113b09098d5e,,1352524,102,,evan-feature22,full_pf_a,,1
77,27015,103,,,,1,1,1.0,0.0,0.0,-1.0,,0.0-105.0,,0.0,897.55,1.0,0.37919861,0.0,0.5724849710000001,1.0,0.705638003,0.0,0.30179300600000003,False,,5ee64d41b067113b09098d5e,,1363210,103,,evan-feature22,full_pf_a,,0
78,27016,104,,,,1,1,1.0,1.0,0.0,-1.0,,0.0-106.0,,-1.0,445.265,1.0,0.464277969,1.0,0.554034373,1.0,0.7372627340000001,0.0,0.264699741,False,,5ee64d41b067113b09098d5e,,1373470,104,,evan-feature22,full_pf_a,,0
79,27017,105,,,,2,2,1.0,0.0,0.0,-1.0,,0.0-107.0,,0.0,368.565,1.0,0.465104323,1.0,0.530793115,1.0,0.75,0.0,0.31683071,False,,5ee64d41b067113b09098d5e,,1383630,105,,evan-feature22,full_pf_a,,1
80,27018,106,,,,2,2,0.0,0.0,1.0,0.0,,0.0-108.0,,0.0,511.715,1.0,0.465104323,0.0,0.530793115,0.0,0.75,0.0,0.31683071,False,,5ee64d41b067113b09098d5e,,1393939,106,,evan-feature22,full_pf_a,,0
81,27019,107,,,,2,2,1.0,1.0,1.0,0.0,,0.0-109.0,,1.0,748.565,0.0,0.46833986,1.0,0.570249239,1.0,0.7244472590000001,1.0,0.364114163,False,,5ee64d41b067113b09098d5e,,1404499,107,,evan-feature22,full_pf_a,,0
82,27020,108,,,,1,1,0.0,0.0,1.0,0.0,,0.0-110.0,,0.0,780.1,0.0,0.445444024,0.0,0.649673355,1.0,0.6845441290000001,0.0,0.300660449,False,,5ee64d41b067113b09098d5e,,1415070,108,,evan-feature22,full_pf_a,,1
83,27021,109,,,,1,1,1.0,1.0,1.0,0.0,,0.0-111.0,,1.0,398.24,1.0,0.39909721299999995,1.0,0.6715179509999999,1.0,0.742310028,0.0,0.35496088299999995,False,,5ee64d41b067113b09098d5e,,1425275,109,,evan-feature22,full_pf_a,,0
84,27022,110,,,,2,2,0.0,0.0,0.0,-1.0,,0.0-112.0,,0.0,488.76,0.0,0.37956104799999996,1.0,0.694725302,0.0,0.7181651309999999,0.0,0.38726906299999997,False,,5ee64d41b067113b09098d5e,,1435568,110,,evan-feature22,full_pf_a,,1
85,27023,111,,,,SLOW,SLOW,,,0.0,-1.0,,0.0-113.0,,-3.0,,0.0,0.404995034,0.0,0.724375412,0.0,0.6910946859999999,0.0,0.387187347,False,,5ee64d41b067113b09098d5e,,1441400,111,,evan-feature22,full_pf_a,,1
86,27024,112,,,,1,1,0.0,0.0,1.0,0.0,,0.0-114.0,,0.0,598.5,0.0,0.461740803,0.0,0.75,0.0,0.75,0.0,0.34872038200000005,False,,5ee64d41b067113b09098d5e,,1451798,112,,evan-feature22,full_pf_a,,1
87,27025,113,,,,1,1,1.0,1.0,1.0,0.0,,0.0-115.0,,1.0,401.12,1.0,0.43821380600000004,1.0,0.738833273,1.0,0.728286963,0.0,0.399538128,False,,5ee64d41b067113b09098d5e,,1462007,113,,evan-feature22,full_pf_a,,0
88,27026,114,,,,1,1,1.0,1.0,0.0,-1.0,,0.0-116.0,,-1.0,1095.615,1.0,0.41709882,1.0,0.736666736,1.0,0.75,0.0,0.389095584,False,,5ee64d41b067113b09098d5e,,1472895,114,,evan-feature22,full_pf_a,,0
89,27027,115,,,,1,1,0.0,1.0,0.0,-1.0,,0.0-117.0,,-1.0,367.98,0.0,0.39749009799999996,1.0,0.744320029,1.0,0.75,1.0,0.363848678,False,,5ee64d41b067113b09098d5e,,1483055,115,,evan-feature22,full_pf_a,,0
90,27028,116,,,,1,1,0.0,0.0,1.0,0.0,,0.0-118.0,,0.0,1136.2,0.0,0.392653706,0.0,0.75,1.0,0.75,1.0,0.384386976,False,,5ee64d41b067113b09098d5e,,1493985,116,,evan-feature22,full_pf_a,,0
91,27029,117,,,,2,2,0.0,1.0,0.0,-1.0,,0.0-119.0,,-1.0,575.275,1.0,0.31190902600000003,1.0,0.75,0.0,0.732413819,1.0,0.413082932,False,,5ee64d41b067113b09098d5e,,1504348,117,,evan-feature22,full_pf_a,,1
92,27030,118,,,,2,2,1.0,0.0,1.0,0.0,,0.0-120.0,,1.0,933.2,0.0,0.366917648,1.0,0.740073855,1.0,0.75,0.0,0.352861979,False,,5ee64d41b067113b09098d5e,,1515084,118,,evan-feature22,full_pf_a,,0
93,27031,119,,,,2,2,1.0,0.0,1.0,0.0,,0.0-121.0,,1.0,518.88,0.0,0.3645172,0.0,0.721770713,1.0,0.75,0.0,0.404074511,False,,5ee64d41b067113b09098d5e,,1525408,119,,evan-feature22,full_pf_a,,0
94,27032,120,,,,1,1,1.0,1.0,1.0,0.0,,0.0-122.0,,1.0,559.635,1.0,0.35205600299999995,1.0,0.68983859,1.0,0.739735447,0.0,0.366895945,False,,5ee64d41b067113b09098d5e,,1535763,120,,evan-feature22,full_pf_a,,1
95,27033,121,,,,1,1,0.0,1.0,1.0,0.0,,0.0-123.0,,0.0,306.225,0.0,0.40998722600000004,1.0,0.720859127,1.0,0.673854955,1.0,0.368528541,False,,5ee64d41b067113b09098d5e,,1545865,121,,evan-feature22,full_pf_a,,0
96,27034,122,,,,2,2,0.0,0.0,1.0,0.0,,0.0-124.0,,0.0,383.03,1.0,0.353625316,1.0,0.75,0.0,0.695605473,0.0,0.38303674200000004,False,,5ee64d41b067113b09098d5e,,1556035,122,,evan-feature22,full_pf_a,,1
97,27035,123,,,,1,1,0.0,0.0,1.0,0.0,,0.0-125.0,,0.0,389.31,0.0,0.359216989,0.0,0.75,0.0,0.6987915090000001,0.0,0.35169046200000004,False,,5ee64d41b067113b09098d5e,,1566216,123,,evan-feature22,full_pf_a,,1
98,27036,124,,,,2,2,1.0,0.0,1.0,0.0,,0.0-126.0,,1.0,536.435,0.0,0.35834496899999996,1.0,0.75,1.0,0.707067742,0.0,0.416763636,False,,5ee64d41b067113b09098d5e,,1576559,124,,evan-feature22,full_pf_a,,1
99,27037,125,,,,2,2,0.0,0.0,0.0,-1.0,,0.0-127.0,,0.0,403.26,1.0,0.38741613799999997,1.0,0.7177369570000001,0.0,0.734902455,0.0,0.49438664299999996,False,,5ee64d41b067113b09098d5e,,1586743,125,,evan-feature22,full_pf_a,,0
100,27038,126,,,,1,1,0.0,1.0,1.0,0.0,,0.0-128.0,,0.0,593.605,0.0,0.405255252,1.0,0.7300466640000001,0.0,0.7027748070000001,1.0,0.504359668,False,,5ee64d41b067113b09098d5e,,1597150,126,,evan-feature22,full_pf_a,,1
101,27039,127,,,,1,1,0.0,1.0,1.0,0.0,,0.0-129.0,,0.0,434.82,0.0,0.40697073,1.0,0.7260142190000001,1.0,0.724461982,0.0,0.522779179,False,,5ee64d41b067113b09098d5e,,1607374,127,,evan-feature22,full_pf_a,,0
102,27040,128,,,,2,2,0.0,1.0,1.0,0.0,,0.0-130.0,,0.0,306.7,0.0,0.43906215299999996,1.0,0.7252802340000001,0.0,0.719079934,1.0,0.5712990579999999,False,,5ee64d41b067113b09098d5e,,1617474,128,,evan-feature22,full_pf_a,,1
103,27041,129,,,,2,2,1.0,0.0,0.0,-1.0,,0.0-131.0,,0.0,3703.385,0.0,0.4076705,0.0,0.73280499,1.0,0.681313127,0.0,0.523891346,False,,5ee64d41b067113b09098d5e,,1630977,129,,evan-feature22,full_pf_a,,0
104,27042,130,,,,2,2,0.0,1.0,0.0,-1.0,,0.0-132.0,,-1.0,763.405,1.0,0.399102911,1.0,0.730498344,0.0,0.661080239,1.0,0.46742603,False,,5ee64d41b067113b09098d5e,,1641555,130,,evan-feature22,full_pf_a,,0
105,27043,131,,,,1,1,1.0,1.0,0.0,-1.0,,0.0-133.0,,-1.0,814.32,1.0,0.356477282,1.0,0.712296395,0.0,0.641812684,0.0,0.44868414,False,,5ee64d41b067113b09098d5e,,1652178,131,,evan-feature22,full_pf_a,,1
106,27044,132,,,,2,2,0.0,0.0,1.0,0.0,,0.0-134.0,,0.0,462.585,1.0,0.462760722,0.0,0.692349322,0.0,0.700947931,0.0,0.394680266,False,,5ee64d41b067113b09098d5e,,1662452,132,,evan-feature22,full_pf_a,,1
107,27045,133,,,,1,1,0.0,1.0,1.0,0.0,,0.0-135.0,,0.0,343.265,0.0,0.422306413,1.0,0.718375916,1.0,0.706340917,0.0,0.367787185,False,,5ee64d41b067113b09098d5e,,1672597,133,,evan-feature22,full_pf_a,,1
108,27047,135,,,,1,1,1.0,1.0,1.0,0.0,,0.0-137.0,,1.0,515.13,1.0,0.4582233,1.0,0.643834117,1.0,0.75,1.0,0.39615823299999997,False,,5ee64d41b067113b09098d5e,,1686748,135,,evan-feature22,full_pf_a,,0
109,27048,136,,,,1,1,0.0,1.0,1.0,0.0,,0.0-138.0,,0.0,435.235,0.0,0.43813437899999996,1.0,0.651283804,1.0,0.729674191,1.0,0.37711048,False,,5ee64d41b067113b09098d5e,,1696985,136,,evan-feature22,full_pf_a,,0
110,27049,137,,,,1,1,0.0,0.0,1.0,0.0,,0.0-139.0,,0.0,304.94,0.0,0.471199094,0.0,0.6470010979999999,0.0,0.715008097,1.0,0.410656191,False,,5ee64d41b067113b09098d5e,,1707085,137,,evan-feature22,full_pf_a,,0
111,27050,138,,,,1,1,1.0,0.0,1.0,0.0,,0.0-140.0,,1.0,522.795,1.0,0.42486406,0.0,0.629771829,1.0,0.6550939960000001,0.0,0.459093873,False,,5ee64d41b067113b09098d5e,,1717402,138,,evan-feature22,full_pf_a,,0
112,27051,139,,,,1,1,1.0,1.0,1.0,0.0,,0.0-141.0,,1.0,392.625,1.0,0.4803197,1.0,0.645842715,1.0,0.6421749920000001,0.0,0.443092151,False,,5ee64d41b067113b09098d5e,,1727613,139,,evan-feature22,full_pf_a,,0
113,27052,140,,,,2,2,1.0,0.0,0.0,-1.0,,0.0-142.0,,0.0,500.355,1.0,0.521848997,1.0,0.735801074,1.0,0.6691348460000001,0.0,0.45259351600000003,False,,5ee64d41b067113b09098d5e,,1737915,140,,evan-feature22,full_pf_a,,1
114,27053,141,,,,1,1,1.0,0.0,1.0,0.0,,0.0-143.0,,1.0,548.9,1.0,0.49565621299999996,0.0,0.742400847,0.0,0.661512553,0.0,0.483110831,False,,5ee64d41b067113b09098d5e,,1748248,141,,evan-feature22,full_pf_a,,1
115,27054,142,,,,1,1,1.0,1.0,1.0,0.0,,0.0-144.0,,1.0,355.5,1.0,0.521564361,1.0,0.731078632,0.0,0.6774886809999999,1.0,0.483263956,False,,5ee64d41b067113b09098d5e,,1758398,142,,evan-feature22,full_pf_a,,0
116,27055,143,,,,1,1,0.0,1.0,1.0,0.0,,0.0-145.0,,0.0,284.42,0.0,0.558893102,1.0,0.719810023,1.0,0.67461031,0.0,0.499349834,False,,5ee64d41b067113b09098d5e,,1768489,143,,evan-feature22,full_pf_a,,0
117,27056,144,,,,2,2,0.0,0.0,1.0,0.0,,0.0-146.0,,0.0,579.505,0.0,0.611031046,0.0,0.75,0.0,0.688072995,0.0,0.5321422729999999,False,,5ee64d41b067113b09098d5e,,1778874,144,,evan-feature22,full_pf_a,,1
118,27057,145,,,,1,1,0.0,1.0,0.0,-1.0,,0.0-147.0,,-1.0,466.375,0.0,0.633223941,1.0,0.713567728,0.0,0.75,1.0,0.48185314700000004,False,,5ee64d41b067113b09098d5e,,1789155,145,,evan-feature22,full_pf_a,,1
119,27058,146,,,,1,1,0.0,1.0,1.0,0.0,,0.0-148.0,,0.0,1401.485,0.0,0.664001694,1.0,0.705509768,0.0,0.75,0.0,0.500211065,False,,5ee64d41b067113b09098d5e,,1800354,146,,evan-feature22,full_pf_a,,0
120,27059,147,,,,2,2,0.0,0.0,1.0,0.0,,0.0-149.0,,0.0,1072.23,1.0,0.664001694,1.0,0.705509768,0.0,0.75,0.0,0.500211065,False,,5ee64d41b067113b09098d5e,,1811236,147,,evan-feature22,full_pf_a,,1
121,27060,148,,,,2,2,1.0,1.0,1.0,0.0,,0.0-150.0,,1.0,927.935,1.0,0.696508041,1.0,0.71066027,1.0,0.717028709,1.0,0.49792991,False,,5ee64d41b067113b09098d5e,,1821995,148,,evan-feature22,full_pf_a,,0
122,27061,149,,,,1,1,1.0,1.0,0.0,-1.0,,0.0-151.0,,-1.0,425.32,1.0,0.699883272,1.0,0.75,1.0,0.713543895,1.0,0.496962643,False,,5ee64d41b067113b09098d5e,,1832231,149,,evan-feature22,full_pf_a,,1
123,27062,150,,,,SLOW,SLOW,,,0.0,-1.0,,0.0-152.0,,-3.0,,1.0,0.741163419,1.0,0.75,0.0,0.64691024,1.0,0.513858197,False,,5ee64d41b067113b09098d5e,,1838040,150,,evan-feature22,full_pf_a,,1
124,27063,151,,,,2,2,1.0,0.0,0.0,-1.0,,0.0-153.0,,0.0,948.135,1.0,0.75,1.0,0.70816558,1.0,0.594499079,0.0,0.48502124,False,,5ee64d41b067113b09098d5e,,1848800,151,,evan-feature22,full_pf_a,,1
125,27064,152,,,,2,2,1.0,1.0,1.0,0.0,,0.0-154.0,,1.0,403.235,1.0,0.75,1.0,0.721848901,1.0,0.62197249,1.0,0.48263586399999997,False,,5ee64d41b067113b09098d5e,,1859030,152,,evan-feature22,full_pf_a,,0
126,27065,153,,,,2,2,1.0,0.0,1.0,0.0,,0.0-155.0,,1.0,870.005,1.0,0.75,0.0,0.74813071,1.0,0.584357161,0.0,0.411477782,False,,5ee64d41b067113b09098d5e,,1869720,153,,evan-feature22,full_pf_a,,0
127,27066,154,,,,2,2,1.0,0.0,1.0,0.0,,0.0-156.0,,1.0,901.735,1.0,0.75,1.0,0.75,1.0,0.52287236,0.0,0.488290656,False,,5ee64d41b067113b09098d5e,,1880439,154,,evan-feature22,full_pf_a,,0
128,27067,155,,,,2,2,1.0,1.0,1.0,0.0,,0.0-157.0,,1.0,495.055,0.0,0.75,0.0,0.75,1.0,0.544321581,1.0,0.53143059,False,,5ee64d41b067113b09098d5e,,1890740,155,,evan-feature22,full_pf_a,,0
129,27068,156,,,,2,2,0.0,0.0,1.0,0.0,,0.0-158.0,,0.0,584.19,0.0,0.726754564,0.0,0.75,0.0,0.5129306370000001,0.0,0.530592445,False,,5ee64d41b067113b09098d5e,,1901130,156,,evan-feature22,full_pf_a,,0
130,27069,157,,,,1,1,1.0,1.0,0.0,-1.0,,0.0-159.0,,-1.0,482.785,1.0,0.75,1.0,0.7392590729999999,0.0,0.479875835,1.0,0.547007051,False,,5ee64d41b067113b09098d5e,,1911433,157,,evan-feature22,full_pf_a,,1
131,27070,158,,,,2,2,1.0,1.0,0.0,-1.0,,0.0-160.0,,-1.0,621.42,0.0,0.75,1.0,0.7393376979999999,1.0,0.546045419,1.0,0.541267353,False,,5ee64d41b067113b09098d5e,,1921874,158,,evan-feature22,full_pf_a,,1
132,27071,159,,,,2,2,1.0,0.0,1.0,0.0,,0.0-161.0,,1.0,410.69,1.0,0.75,1.0,0.75,1.0,0.485725895,0.0,0.527625395,False,,5ee64d41b067113b09098d5e,,1932090,159,,evan-feature22,full_pf_a,,0
133,27072,160,,,,2,2,0.0,0.0,0.0,-1.0,,0.0-162.0,,0.0,759.375,0.0,0.75,0.0,0.725087974,0.0,0.488603595,0.0,0.504019206,False,,5ee64d41b067113b09098d5e,,1942672,160,,evan-feature22,full_pf_a,,0
134,27073,161,,,,1,1,1.0,1.0,1.0,0.0,,0.0-163.0,,1.0,342.375,1.0,0.745504295,1.0,0.75,1.0,0.452379914,1.0,0.50131194,False,,5ee64d41b067113b09098d5e,,1952806,161,,evan-feature22,full_pf_a,,1
135,27074,162,,,,1,1,1.0,0.0,0.0,-1.0,,0.0-164.0,,0.0,304.04,1.0,0.728513874,0.0,0.75,1.0,0.44125567200000004,1.0,0.531454591,False,,5ee64d41b067113b09098d5e,,1962935,162,,evan-feature22,full_pf_a,,0
136,27075,163,,,,1,1,0.0,1.0,1.0,0.0,,0.0-165.0,,0.0,383.255,0.0,0.73790804,1.0,0.75,0.0,0.413036656,0.0,0.524619035,False,,5ee64d41b067113b09098d5e,,1973137,163,,evan-feature22,full_pf_a,,0
137,27076,164,,,,1,1,1.0,1.0,1.0,0.0,,0.0-166.0,,1.0,420.235,1.0,0.7080961309999999,1.0,0.708666865,1.0,0.431915581,0.0,0.481819489,False,,5ee64d41b067113b09098d5e,,1983344,164,,evan-feature22,full_pf_a,,0
138,27077,165,,,,1,1,1.0,0.0,1.0,0.0,,0.0-167.0,,1.0,480.775,1.0,0.721378003,0.0,0.71605913,1.0,0.36642387,0.0,0.5036739929999999,False,,5ee64d41b067113b09098d5e,,1993649,165,,evan-feature22,full_pf_a,,0
139,27078,166,,,,2,2,0.0,1.0,0.0,-1.0,,0.0-168.0,,-1.0,504.49,1.0,0.7340618959999999,0.0,0.699323252,0.0,0.35298046299999997,1.0,0.511241692,False,,5ee64d41b067113b09098d5e,,2003944,166,,evan-feature22,full_pf_a,,1
140,27079,167,,,,1,1,0.0,1.0,0.0,-1.0,,0.0-169.0,,-1.0,630.565,0.0,0.75,1.0,0.70412698,1.0,0.380734814,0.0,0.529580116,False,,5ee64d41b067113b09098d5e,,2014366,167,,evan-feature22,full_pf_a,,1
141,27080,168,,,,1,1,1.0,1.0,0.0,-1.0,,0.0-170.0,,-1.0,328.72,1.0,0.7436654909999999,1.0,0.711182751,0.0,0.41125331,1.0,0.49554405,False,,5ee64d41b067113b09098d5e,,2024481,168,,evan-feature22,full_pf_a,,0
142,27081,169,,,,1,1,1.0,0.0,1.0,0.0,,0.0-171.0,,1.0,378.215,1.0,0.731607915,0.0,0.651774583,1.0,0.35688023,0.0,0.45194491600000003,False,,5ee64d41b067113b09098d5e,,2034670,169,,evan-feature22,full_pf_a,,0
143,27082,170,,,,1,1,1.0,1.0,0.0,-1.0,,0.0-172.0,,-1.0,402.215,1.0,0.75,1.0,0.75,1.0,0.283145374,1.0,0.528608005,False,,5ee64d41b067113b09098d5e,,2044879,170,,evan-feature22,full_pf_a,,0
144,27083,171,,,,1,1,1.0,1.0,1.0,0.0,,0.0-173.0,,1.0,468.425,1.0,0.7491416890000001,1.0,0.7423785959999999,1.0,0.29135870399999997,0.0,0.498888318,False,,5ee64d41b067113b09098d5e,,2055153,171,,evan-feature22,full_pf_a,,0
145,27084,172,,,,1,1,1.0,1.0,0.0,-1.0,,0.0-174.0,,-1.0,446.48,1.0,0.708569387,1.0,0.717682277,0.0,0.294421699,1.0,0.493838163,False,,5ee64d41b067113b09098d5e,,2065391,172,,evan-feature22,full_pf_a,,0
146,27085,173,,,,1,1,1.0,1.0,1.0,0.0,,0.0-175.0,,1.0,327.94,1.0,0.75,1.0,0.7383382159999999,0.0,0.356098707,0.0,0.442533405,False,,5ee64d41b067113b09098d5e,,2075507,173,,evan-feature22,full_pf_a,,0
147,27086,174,,,,1,1,1.0,1.0,1.0,0.0,,0.0-176.0,,1.0,542.005,1.0,0.744527075,1.0,0.75,0.0,0.334127506,0.0,0.393165805,False,,5ee64d41b067113b09098d5e,,2085856,174,,evan-feature22,full_pf_a,,0
148,27087,175,,,,1,1,1.0,1.0,1.0,0.0,,0.0-177.0,,1.0,542.84,1.0,0.75,1.0,0.75,0.0,0.33571021799999995,0.0,0.350393962,False,,5ee64d41b067113b09098d5e,,2096195,175,,evan-feature22,full_pf_a,,0
149,27088,176,,,,1,1,0.0,1.0,0.0,-1.0,,0.0-178.0,,-1.0,365.12,0.0,0.75,1.0,0.75,0.0,0.313628297,0.0,0.36349657399999996,False,,5ee64d41b067113b09098d5e,,2106359,176,,evan-feature22,full_pf_a,,0
150,27089,177,,,,1,1,1.0,0.0,1.0,0.0,,0.0-179.0,,1.0,402.3,1.0,0.75,0.0,0.734284182,0.0,0.262667667,1.0,0.380199119,False,,5ee64d41b067113b09098d5e,,2116554,177,,evan-feature22,full_pf_a,,0
151,27090,178,,,,2,2,0.0,1.0,1.0,0.0,,0.0-180.0,,0.0,503.695,0.0,0.75,1.0,0.75,0.0,0.25,1.0,0.394494013,False,,5ee64d41b067113b09098d5e,,2126868,178,,evan-feature22,full_pf_a,,1
152,27091,179,,,,2,2,1.0,0.0,1.0,0.0,,0.0-181.0,,1.0,1181.895,0.0,0.722298145,0.0,0.7357822340000001,1.0,0.25,0.0,0.319142121,False,,5ee64d41b067113b09098d5e,,2137836,179,,evan-feature22,full_pf_a,,0
153,27092,180,,,,2,2,0.0,0.0,1.0,0.0,,0.0-182.0,,0.0,404.355,1.0,0.73149275,1.0,0.724276446,0.0,0.305856907,0.0,0.281315057,False,,5ee64d41b067113b09098d5e,,2148038,180,,evan-feature22,full_pf_a,,0
154,27093,181,,,,2,2,0.0,1.0,1.0,0.0,,0.0-183.0,,0.0,1363.39,1.0,0.7458732690000001,1.0,0.7336382459999999,0.0,0.272571964,1.0,0.266021999,False,,5ee64d41b067113b09098d5e,,2159190,181,,evan-feature22,full_pf_a,,0
155,27094,182,,,,1,1,1.0,1.0,0.0,-1.0,,0.0-184.0,,-1.0,658.755,1.0,0.705579037,1.0,0.720778292,0.0,0.320238144,0.0,0.30971744,False,,5ee64d41b067113b09098d5e,,2169639,182,,evan-feature22,full_pf_a,,1
156,27095,183,,,,1,1,1.0,1.0,0.0,-1.0,,0.0-185.0,,-1.0,585.77,1.0,0.700425648,1.0,0.7198784009999999,0.0,0.272590393,0.0,0.304182931,False,,5ee64d41b067113b09098d5e,,2180020,183,,evan-feature22,full_pf_a,,0
157,27096,184,,,,2,2,1.0,0.0,0.0,-1.0,,0.0-186.0,,0.0,716.1,1.0,0.735590785,1.0,0.722714973,1.0,0.25,0.0,0.323421091,False,,5ee64d41b067113b09098d5e,,2190546,184,,evan-feature22,full_pf_a,,1
158,27097,185,,,,2,2,1.0,0.0,0.0,-1.0,,0.0-187.0,,0.0,527.595,0.0,0.724807662,1.0,0.63146213,1.0,0.36836492600000004,0.0,0.34592153299999995,False,,5ee64d41b067113b09098d5e,,2200869,185,,evan-feature22,full_pf_a,,0
159,27098,186,,,,2,2,0.0,1.0,1.0,0.0,,0.0-188.0,,0.0,723.735,1.0,0.7352796909999999,1.0,0.555111392,0.0,0.36003922,1.0,0.31433779999999995,False,,5ee64d41b067113b09098d5e,,2211387,186,,evan-feature22,full_pf_a,,0
160,27099,187,notice,,,,,,,,,,0.0-189.0,"{""Q0"":""no""}",,10041.0,,,,,,,,,False,,5ee64d41b067113b09098d5e,,2221430,187,Q,survey-text,full_pf_a,,1
161,27100,188,track1,,[1],,,,,,,,0.0-190.0,"{""Q0"":""no""}",,4160.0,,,,,,,,,False,,5ee64d41b067113b09098d5e,,2225594,188,Q,evan-quiz,full_pf_a,,1
162,27101,189,track2,,[1],,,,,,,,0.0-191.0,"{""Q0"":""no""}",,4834.0,,,,,,,,,False,,5ee64d41b067113b09098d5e,,2230431,189,Q,evan-quiz,full_pf_a,,1
163,27102,190,strat,,,,,,,,,,0.0-192.0,"{""Q0"":""I kept on changing strategy""}",,25364.0,,,,,,,,,False,,5ee64d41b067113b09098d5e,,2255798,190,Q,survey-text,full_pf_a,,1
