,index,Unnamed: 0,Q_name,button_pressed,choice_idxs,chosen_pos,chosen_state,chosen_state_f_1_outcome,chosen_state_f_2_outcome,f_1_reward,f_2_reward,incor_questions,internal_node_id,responses,reward_received,rt,s_1_f_1_outcome,s_1_f_1_prob,s_1_f_2_outcome,s_1_f_2_prob,s_2_f_1_outcome,s_2_f_1_prob,s_2_f_2_outcome,s_2_f_2_prob,safe_first,stimulus,subjectID,success,time_elapsed,trial_index,trial_num,trial_type,version,view_history,switching
0,34074,25,,,,2,2,0.0,0.0,0.0,1.0,,0.0-27.0,,0.0,2827.09,0.0,0.6,0.0,0.6,0.0,0.4,0.0,0.4,True,,5f5f70aac2a0f3021e66c22c,,467243,25,,evan-feature22,full_rf_b,,0
1,34075,26,,,,2,2,0.0,0.0,0.0,1.0,,0.0-28.0,,0.0,980.1749999,1.0,0.608053294,0.0,0.63424552,0.0,0.397152172,0.0,0.347069101,True,,5f5f70aac2a0f3021e66c22c,,477985,26,,evan-feature22,full_rf_b,,0
2,34076,27,,,,2,2,1.0,1.0,0.0,1.0,,0.0-29.0,,1.0,785.315,1.0,0.642237155,1.0,0.648566321,1.0,0.389407674,1.0,0.285525717,True,,5f5f70aac2a0f3021e66c22c,,488539,27,,evan-feature22,full_rf_b,,0
3,34077,28,,,,1,1,0.0,1.0,0.0,1.0,,0.0-30.0,,1.0,575.72,0.0,0.661086576,1.0,0.630492543,0.0,0.399058924,0.0,0.25,True,,5f5f70aac2a0f3021e66c22c,,498881,28,,evan-feature22,full_rf_b,,1
4,34078,29,,,,1,1,1.0,1.0,0.0,1.0,,0.0-31.0,,1.0,1058.335,1.0,0.631324137,1.0,0.6269842929999999,1.0,0.38734784299999997,1.0,0.25,True,,5f5f70aac2a0f3021e66c22c,,509709,29,,evan-feature22,full_rf_b,,0
5,34079,30,,,,2,2,0.0,0.0,0.0,1.0,,0.0-32.0,,0.0,629.525,1.0,0.6381991370000001,1.0,0.68987999,0.0,0.384107265,0.0,0.271332943,True,,5f5f70aac2a0f3021e66c22c,,520098,30,,evan-feature22,full_rf_b,,1
6,34080,31,,,,1,1,1.0,1.0,0.0,1.0,,0.0-33.0,,1.0,547.695,1.0,0.66034901,1.0,0.742641349,1.0,0.360225629,1.0,0.25,True,,5f5f70aac2a0f3021e66c22c,,530411,31,,evan-feature22,full_rf_b,,1
7,34081,32,,,,2,2,1.0,1.0,-1.0,0.0,,0.0-34.0,,-1.0,930.375,0.0,0.638612418,1.0,0.75,1.0,0.367273939,1.0,0.25,True,,5f5f70aac2a0f3021e66c22c,,541102,32,,evan-feature22,full_rf_b,,1
8,34082,33,,,,1,1,0.0,1.0,0.0,1.0,,0.0-35.0,,1.0,966.32,0.0,0.624340629,1.0,0.75,0.0,0.425829545,0.0,0.25,True,,5f5f70aac2a0f3021e66c22c,,551833,33,,evan-feature22,full_rf_b,,1
9,34083,34,,,,2,2,1.0,0.0,0.0,1.0,,0.0-36.0,,0.0,3401.69,0.0,0.621999804,1.0,0.75,1.0,0.368609357,0.0,0.25,True,,5f5f70aac2a0f3021e66c22c,,564999,34,,evan-feature22,full_rf_b,,1
10,34084,35,,,,1,1,0.0,1.0,-1.0,0.0,,0.0-37.0,,0.0,1561.77,0.0,0.62666403,1.0,0.75,0.0,0.311151498,0.0,0.25,True,,5f5f70aac2a0f3021e66c22c,,576325,35,,evan-feature22,full_rf_b,,1
11,34085,36,,,,2,2,0.0,1.0,-1.0,0.0,,0.0-38.0,,0.0,2584.885,1.0,0.6819650009999999,1.0,0.75,0.0,0.310763048,1.0,0.25,True,,5f5f70aac2a0f3021e66c22c,,588672,36,,evan-feature22,full_rf_b,,1
12,34086,37,,,,2,2,1.0,1.0,0.0,1.0,,0.0-39.0,,1.0,1795.06,1.0,0.740626951,1.0,0.75,1.0,0.25,1.0,0.25,True,,5f5f70aac2a0f3021e66c22c,,600231,37,,evan-feature22,full_rf_b,,0
13,34087,38,,,,SLOW,SLOW,,,0.0,1.0,,0.0-40.0,,-3.0,,1.0,0.739599242,0.0,0.742034978,0.0,0.25397114600000004,1.0,0.25,True,,5f5f70aac2a0f3021e66c22c,,606037,38,,evan-feature22,full_rf_b,,1
14,34088,39,,,,2,2,0.0,0.0,0.0,1.0,,0.0-41.0,,0.0,1007.73,0.0,0.732341315,1.0,0.72735643,0.0,0.25,0.0,0.25,True,,5f5f70aac2a0f3021e66c22c,,616809,39,,evan-feature22,full_rf_b,,1
15,34089,40,,,,2,2,0.0,0.0,0.0,1.0,,0.0-42.0,,0.0,1146.635,1.0,0.7062287770000001,1.0,0.75,0.0,0.29002151,0.0,0.288256649,True,,5f5f70aac2a0f3021e66c22c,,627718,40,,evan-feature22,full_rf_b,,0
16,34090,41,,,,2,2,0.0,1.0,-1.0,0.0,,0.0-43.0,,0.0,859.6300001,1.0,0.7086029209999999,1.0,0.75,0.0,0.274129113,1.0,0.262851608,True,,5f5f70aac2a0f3021e66c22c,,638341,41,,evan-feature22,full_rf_b,,0
17,34091,42,,,,2,2,1.0,1.0,0.0,1.0,,0.0-44.0,,1.0,1191.26,0.0,0.669189651,1.0,0.727614338,1.0,0.298444036,1.0,0.296944518,True,,5f5f70aac2a0f3021e66c22c,,649300,42,,evan-feature22,full_rf_b,,0
18,34092,43,,,,1,1,1.0,1.0,-1.0,0.0,,0.0-45.0,,-1.0,1022.53,1.0,0.6819912929999999,1.0,0.7179434290000001,0.0,0.265003961,1.0,0.28157921199999997,True,,5f5f70aac2a0f3021e66c22c,,660091,43,,evan-feature22,full_rf_b,,1
19,34093,44,,,,1,1,1.0,1.0,-1.0,0.0,,0.0-46.0,,-1.0,1712.71,1.0,0.665275002,1.0,0.723065271,0.0,0.260414971,0.0,0.30973870000000003,True,,5f5f70aac2a0f3021e66c22c,,671573,44,,evan-feature22,full_rf_b,,0
20,34094,45,,,,2,2,1.0,1.0,0.0,1.0,,0.0-47.0,,1.0,636.135,1.0,0.6660593260000001,0.0,0.728032907,1.0,0.30922817,1.0,0.338778608,True,,5f5f70aac2a0f3021e66c22c,,681980,45,,evan-feature22,full_rf_b,,1
21,34095,46,,,,1,1,0.0,0.0,0.0,1.0,,0.0-48.0,,0.0,3162.11,0.0,0.702068785,0.0,0.6528750879999999,0.0,0.287329608,0.0,0.35789613200000003,True,,5f5f70aac2a0f3021e66c22c,,694906,46,,evan-feature22,full_rf_b,,1
22,34096,47,,,,2,2,0.0,0.0,0.0,1.0,,0.0-49.0,,0.0,2269.095,1.0,0.651939787,0.0,0.636725589,0.0,0.284834488,0.0,0.358563756,True,,5f5f70aac2a0f3021e66c22c,,706938,47,,evan-feature22,full_rf_b,,1
23,34097,48,,,,2,2,0.0,0.0,0.0,1.0,,0.0-50.0,,0.0,2924.695,0.0,0.67573929,0.0,0.612550049,0.0,0.37130387600000003,0.0,0.383542402,True,,5f5f70aac2a0f3021e66c22c,,719625,48,,evan-feature22,full_rf_b,,0
24,34098,49,,,,SLOW,SLOW,,,0.0,1.0,,0.0-51.0,,-3.0,,1.0,0.620753801,0.0,0.60513644,1.0,0.385529434,0.0,0.340361743,True,,5f5f70aac2a0f3021e66c22c,,725433,49,,evan-feature22,full_rf_b,,1
25,34099,50,,,,2,2,0.0,0.0,-1.0,0.0,,0.0-52.0,,0.0,3222.51,1.0,0.673564893,0.0,0.672437924,0.0,0.292955382,0.0,0.337633795,True,,5f5f70aac2a0f3021e66c22c,,738416,50,,evan-feature22,full_rf_b,,1
26,34100,51,,,,1,1,0.0,1.0,0.0,1.0,,0.0-53.0,,1.0,554.8149999,0.0,0.6749427,1.0,0.724197502,0.0,0.32391132100000003,0.0,0.350995264,True,,5f5f70aac2a0f3021e66c22c,,748734,51,,evan-feature22,full_rf_b,,1
27,34101,52,,,,1,1,0.0,0.0,0.0,1.0,,0.0-54.0,,0.0,692.58,0.0,0.6940159379999999,0.0,0.75,1.0,0.31710554399999996,1.0,0.413450341,True,,5f5f70aac2a0f3021e66c22c,,759190,52,,evan-feature22,full_rf_b,,0
28,34102,53,,,,2,2,0.0,0.0,0.0,1.0,,0.0-55.0,,0.0,709.02,1.0,0.6916018270000001,1.0,0.69001187,0.0,0.261817804,0.0,0.40038635,True,,5f5f70aac2a0f3021e66c22c,,769663,53,,evan-feature22,full_rf_b,,1
29,34103,54,,,,2,2,0.0,1.0,0.0,1.0,,0.0-56.0,,1.0,582.14,1.0,0.641061544,1.0,0.71337992,0.0,0.277296461,1.0,0.47372791700000005,True,,5f5f70aac2a0f3021e66c22c,,780010,54,,evan-feature22,full_rf_b,,0
30,34104,55,,,,1,1,1.0,0.0,0.0,1.0,,0.0-57.0,,0.0,878.97,1.0,0.6082438520000001,0.0,0.708471106,0.0,0.28745137,0.0,0.564174476,True,,5f5f70aac2a0f3021e66c22c,,790655,55,,evan-feature22,full_rf_b,,1
31,34105,56,,,,2,2,0.0,1.0,-1.0,0.0,,0.0-58.0,,0.0,483.4,1.0,0.6051112120000001,1.0,0.7118147229999999,0.0,0.272390611,1.0,0.5595149939999999,True,,5f5f70aac2a0f3021e66c22c,,800902,56,,evan-feature22,full_rf_b,,1
32,34106,57,,,,2,2,0.0,1.0,-1.0,0.0,,0.0-59.0,,0.0,823.1200001,0.0,0.582420852,1.0,0.635867583,0.0,0.31089574,1.0,0.5227206520000001,True,,5f5f70aac2a0f3021e66c22c,,811492,57,,evan-feature22,full_rf_b,,0
33,34107,58,,,,2,2,1.0,0.0,-1.0,0.0,,0.0-60.0,,-1.0,1406.82,1.0,0.623195575,1.0,0.655026044,1.0,0.25,0.0,0.560387538,True,,5f5f70aac2a0f3021e66c22c,,822665,58,,evan-feature22,full_rf_b,,0
34,34108,59,,,,1,1,1.0,1.0,0.0,1.0,,0.0-61.0,,1.0,549.9049999,1.0,0.601889598,1.0,0.678198724,0.0,0.25,0.0,0.559922936,True,,5f5f70aac2a0f3021e66c22c,,832981,59,,evan-feature22,full_rf_b,,1
35,34109,60,,,,2,2,1.0,0.0,-1.0,0.0,,0.0-62.0,,-1.0,745.6700001,1.0,0.601259914,0.0,0.704681482,1.0,0.33908969299999997,0.0,0.505003715,True,,5f5f70aac2a0f3021e66c22c,,843493,60,,evan-feature22,full_rf_b,,1
36,34110,61,,,,1,1,1.0,0.0,-1.0,0.0,,0.0-63.0,,-1.0,364.515,1.0,0.59645454,0.0,0.710437172,0.0,0.327441879,0.0,0.391749613,True,,5f5f70aac2a0f3021e66c22c,,853619,61,,evan-feature22,full_rf_b,,1
37,34111,62,,,,2,2,1.0,0.0,0.0,1.0,,0.0-64.0,,0.0,450.88499989999997,1.0,0.529473,1.0,0.636758527,1.0,0.301338063,0.0,0.365661481,True,,5f5f70aac2a0f3021e66c22c,,863835,62,,evan-feature22,full_rf_b,,1
38,34112,63,,,,2,2,0.0,0.0,-1.0,0.0,,0.0-65.0,,0.0,1045.47,1.0,0.541657162,1.0,0.634541962,0.0,0.343535366,0.0,0.371763742,True,,5f5f70aac2a0f3021e66c22c,,874640,63,,evan-feature22,full_rf_b,,0
39,34113,64,,,,1,1,0.0,0.0,-1.0,0.0,,0.0-66.0,,0.0,748.7250001,0.0,0.5707533260000001,0.0,0.589121171,1.0,0.326428396,0.0,0.43961622899999997,True,,5f5f70aac2a0f3021e66c22c,,885150,64,,evan-feature22,full_rf_b,,1
40,34114,65,,,,1,1,1.0,1.0,0.0,1.0,,0.0-67.0,,1.0,508.075,1.0,0.5707533260000001,1.0,0.589121171,0.0,0.326428396,1.0,0.43961622899999997,True,,5f5f70aac2a0f3021e66c22c,,895423,65,,evan-feature22,full_rf_b,,0
41,34115,66,,,,1,1,1.0,1.0,0.0,1.0,,0.0-68.0,,1.0,589.29,1.0,0.506271295,1.0,0.641775594,0.0,0.37149690700000004,1.0,0.404330166,True,,5f5f70aac2a0f3021e66c22c,,905780,66,,evan-feature22,full_rf_b,,0
42,34116,67,,,,1,1,1.0,1.0,-1.0,0.0,,0.0-69.0,,-1.0,821.915,1.0,0.455642565,1.0,0.623605825,0.0,0.358753011,1.0,0.346174041,True,,5f5f70aac2a0f3021e66c22c,,916367,67,,evan-feature22,full_rf_b,,0
43,34117,68,,,,1,1,1.0,0.0,0.0,1.0,,0.0-70.0,,0.0,919.3200001,1.0,0.483677308,0.0,0.5904681070000001,1.0,0.402218411,0.0,0.35344697,True,,5f5f70aac2a0f3021e66c22c,,927051,68,,evan-feature22,full_rf_b,,0
44,34118,69,,,,2,2,0.0,0.0,-1.0,0.0,,0.0-71.0,,0.0,931.135,0.0,0.394210977,0.0,0.558925494,0.0,0.540052017,0.0,0.35182128700000004,True,,5f5f70aac2a0f3021e66c22c,,937747,69,,evan-feature22,full_rf_b,,1
45,34119,70,,,,2,2,0.0,0.0,0.0,1.0,,0.0-72.0,,0.0,361.915,1.0,0.382300414,0.0,0.577670603,0.0,0.607608448,0.0,0.378261578,True,,5f5f70aac2a0f3021e66c22c,,947873,70,,evan-feature22,full_rf_b,,0
46,34120,71,,,,1,1,0.0,1.0,-1.0,0.0,,0.0-73.0,,0.0,895.24,0.0,0.357596762,1.0,0.5929076529999999,1.0,0.6579790010000001,0.0,0.401326777,True,,5f5f70aac2a0f3021e66c22c,,958533,71,,evan-feature22,full_rf_b,,1
47,34121,72,,,,1,1,1.0,1.0,0.0,1.0,,0.0-74.0,,1.0,384.2399999,1.0,0.362033495,1.0,0.582308608,0.0,0.649195052,0.0,0.355158505,True,,5f5f70aac2a0f3021e66c22c,,968682,72,,evan-feature22,full_rf_b,,0
48,34122,73,,,,2,2,1.0,0.0,0.0,1.0,,0.0-75.0,,0.0,567.1399999,0.0,0.369620635,0.0,0.669100864,1.0,0.706059111,0.0,0.362516241,True,,5f5f70aac2a0f3021e66c22c,,979013,73,,evan-feature22,full_rf_b,,1
49,34123,74,,,,1,1,0.0,0.0,0.0,1.0,,0.0-76.0,,0.0,660.47,0.0,0.41477751399999996,0.0,0.7284416779999999,1.0,0.7182656940000001,1.0,0.36228040899999997,True,,5f5f70aac2a0f3021e66c22c,,989439,74,,evan-feature22,full_rf_b,,1
50,34124,75,,,,2,2,1.0,1.0,-1.0,0.0,,0.0-77.0,,-1.0,608.995,1.0,0.37675460299999997,1.0,0.703250285,1.0,0.75,1.0,0.461979164,True,,5f5f70aac2a0f3021e66c22c,,999815,75,,evan-feature22,full_rf_b,,1
51,34125,76,,,,2,2,0.0,1.0,-1.0,0.0,,0.0-78.0,,0.0,1949.31,0.0,0.398716075,0.0,0.6723864890000001,0.0,0.674153818,1.0,0.519029516,True,,5f5f70aac2a0f3021e66c22c,,1011527,76,,evan-feature22,full_rf_b,,0
52,34126,77,,,,1,1,0.0,1.0,-1.0,0.0,,0.0-79.0,,0.0,720.235,0.0,0.34677856700000004,1.0,0.69057175,0.0,0.6822438540000001,1.0,0.477292237,True,,5f5f70aac2a0f3021e66c22c,,1022008,77,,evan-feature22,full_rf_b,,1
53,34127,78,,,,2,2,1.0,1.0,0.0,1.0,,0.0-80.0,,1.0,1584.085,0.0,0.28580469199999997,1.0,0.68408818,1.0,0.684207565,1.0,0.49780448299999996,True,,5f5f70aac2a0f3021e66c22c,,1033357,78,,evan-feature22,full_rf_b,,1
54,34129,80,,,,1,1,1.0,1.0,0.0,1.0,,0.0-82.0,,1.0,103.08,1.0,0.25,1.0,0.7405808970000001,0.0,0.679614108,1.0,0.436436964,True,,5f5f70aac2a0f3021e66c22c,,1046063,80,,evan-feature22,full_rf_b,,1
55,34130,81,,,,1,1,1.0,1.0,0.0,1.0,,0.0-83.0,,1.0,931.5050001,1.0,0.29890393,1.0,0.730505706,1.0,0.7328203320000001,0.0,0.439256938,True,,5f5f70aac2a0f3021e66c22c,,1056759,81,,evan-feature22,full_rf_b,,0
56,34131,82,,,,1,1,0.0,1.0,-1.0,0.0,,0.0-84.0,,0.0,844.925,0.0,0.326762398,1.0,0.7148059609999999,1.0,0.75,0.0,0.44389608799999997,True,,5f5f70aac2a0f3021e66c22c,,1067370,82,,evan-feature22,full_rf_b,,0
57,34132,83,,,,2,2,1.0,0.0,0.0,1.0,,0.0-85.0,,0.0,685.575,1.0,0.295168515,1.0,0.739760854,1.0,0.719947008,0.0,0.35277284600000003,True,,5f5f70aac2a0f3021e66c22c,,1077817,83,,evan-feature22,full_rf_b,,1
58,34133,84,,,,2,2,1.0,0.0,0.0,1.0,,0.0-86.0,,0.0,400.53,1.0,0.25,0.0,0.70781482,1.0,0.75,0.0,0.286095925,True,,5f5f70aac2a0f3021e66c22c,,1087985,84,,evan-feature22,full_rf_b,,0
59,34134,85,,,,1,1,1.0,1.0,0.0,1.0,,0.0-87.0,,1.0,483.63,1.0,0.25638190899999996,1.0,0.704088163,1.0,0.75,1.0,0.26872601399999996,True,,5f5f70aac2a0f3021e66c22c,,1098234,85,,evan-feature22,full_rf_b,,1
60,34135,86,,,,1,1,0.0,0.0,-1.0,0.0,,0.0-88.0,,0.0,614.68,0.0,0.271581126,0.0,0.669760107,0.0,0.733896663,0.0,0.273244572,True,,5f5f70aac2a0f3021e66c22c,,1108611,86,,evan-feature22,full_rf_b,,0
61,34136,87,,,,1,1,1.0,1.0,0.0,1.0,,0.0-89.0,,1.0,612.6849999,1.0,0.257144401,1.0,0.600575706,1.0,0.74488122,1.0,0.25,True,,5f5f70aac2a0f3021e66c22c,,1118992,87,,evan-feature22,full_rf_b,,0
62,34137,88,,,,1,1,0.0,1.0,0.0,1.0,,0.0-90.0,,1.0,482.245,0.0,0.25,1.0,0.616870026,1.0,0.723610234,1.0,0.25,True,,5f5f70aac2a0f3021e66c22c,,1129239,88,,evan-feature22,full_rf_b,,0
63,34138,89,,,,1,1,0.0,1.0,-1.0,0.0,,0.0-91.0,,0.0,927.56,0.0,0.25,1.0,0.583540187,1.0,0.7041042559999999,0.0,0.285961995,True,,5f5f70aac2a0f3021e66c22c,,1139935,89,,evan-feature22,full_rf_b,,0
64,34139,90,,,,1,1,0.0,1.0,-1.0,0.0,,0.0-92.0,,0.0,748.7699999,0.0,0.27254536,1.0,0.53875765,1.0,0.693783448,0.0,0.284961652,True,,5f5f70aac2a0f3021e66c22c,,1150451,90,,evan-feature22,full_rf_b,,0
65,34140,91,,,,1,1,0.0,0.0,-1.0,0.0,,0.0-93.0,,0.0,985.84,0.0,0.25,0.0,0.548431252,1.0,0.734221895,0.0,0.279445214,True,,5f5f70aac2a0f3021e66c22c,,1161198,91,,evan-feature22,full_rf_b,,0
66,34141,92,,,,1,1,0.0,0.0,0.0,1.0,,0.0-94.0,,0.0,1354.99,0.0,0.258640684,0.0,0.545878066,0.0,0.725245965,1.0,0.31487537,True,,5f5f70aac2a0f3021e66c22c,,1172315,92,,evan-feature22,full_rf_b,,0
67,34142,93,,,,1,1,0.0,1.0,0.0,1.0,,0.0-95.0,,1.0,755.37,0.0,0.251103711,1.0,0.5776290629999999,0.0,0.696320133,0.0,0.317831047,True,,5f5f70aac2a0f3021e66c22c,,1182837,93,,evan-feature22,full_rf_b,,0
68,34143,94,,,,1,1,0.0,0.0,0.0,1.0,,0.0-96.0,,0.0,1411.985,0.0,0.276630292,0.0,0.617329858,1.0,0.73838088,0.0,0.261471582,True,,5f5f70aac2a0f3021e66c22c,,1194012,94,,evan-feature22,full_rf_b,,0
69,34144,95,,,,1,1,1.0,1.0,0.0,1.0,,0.0-97.0,,1.0,742.905,1.0,0.297716424,1.0,0.618863717,1.0,0.7402358259999999,1.0,0.262600834,True,,5f5f70aac2a0f3021e66c22c,,1204523,95,,evan-feature22,full_rf_b,,0
70,34145,96,,,,1,1,0.0,0.0,-1.0,0.0,,0.0-98.0,,0.0,777.105,0.0,0.290935512,0.0,0.695370945,0.0,0.706570507,0.0,0.280030553,True,,5f5f70aac2a0f3021e66c22c,,1215063,96,,evan-feature22,full_rf_b,,0
71,34146,97,,,,1,1,0.0,1.0,0.0,1.0,,0.0-99.0,,1.0,833.745,0.0,0.25,1.0,0.6465277079999999,1.0,0.67766682,0.0,0.25,True,,5f5f70aac2a0f3021e66c22c,,1225661,97,,evan-feature22,full_rf_b,,0
72,34147,98,,,,1,1,0.0,0.0,-1.0,0.0,,0.0-100.0,,0.0,1069.76,0.0,0.26463816,0.0,0.636100213,1.0,0.646048507,0.0,0.265607101,True,,5f5f70aac2a0f3021e66c22c,,1236490,98,,evan-feature22,full_rf_b,,0
73,34148,99,,,,1,1,1.0,1.0,-1.0,0.0,,0.0-101.0,,-1.0,2725.33,1.0,0.314340707,1.0,0.667795927,0.0,0.613630805,0.0,0.25,True,,5f5f70aac2a0f3021e66c22c,,1248983,99,,evan-feature22,full_rf_b,,0
74,34149,100,,,,1,1,1.0,0.0,0.0,1.0,,0.0-102.0,,0.0,1547.735,1.0,0.28685784,0.0,0.6622549529999999,1.0,0.652154117,0.0,0.25,True,,5f5f70aac2a0f3021e66c22c,,1260294,100,,evan-feature22,full_rf_b,,0
75,34150,101,,,,2,2,1.0,0.0,0.0,1.0,,0.0-103.0,,0.0,2922.31,0.0,0.304106554,0.0,0.631289538,1.0,0.707041942,0.0,0.29314237,True,,5f5f70aac2a0f3021e66c22c,,1272980,101,,evan-feature22,full_rf_b,,1
76,34151,102,,,,1,1,1.0,0.0,0.0,1.0,,0.0-104.0,,0.0,328.8200001,1.0,0.304806932,0.0,0.571167718,1.0,0.680472346,1.0,0.25,True,,5f5f70aac2a0f3021e66c22c,,1283077,102,,evan-feature22,full_rf_b,,1
77,34152,103,,,,2,2,1.0,1.0,0.0,1.0,,0.0-105.0,,1.0,415.8,0.0,0.37919861,0.0,0.5724849710000001,1.0,0.705638003,1.0,0.30179300600000003,True,,5f5f70aac2a0f3021e66c22c,,1293254,103,,evan-feature22,full_rf_b,,1
78,34153,104,,,,1,1,1.0,0.0,0.0,1.0,,0.0-106.0,,0.0,1253.45,1.0,0.464277969,0.0,0.554034373,1.0,0.7372627340000001,0.0,0.264699741,True,,5f5f70aac2a0f3021e66c22c,,1304276,104,,evan-feature22,full_rf_b,,1
79,34154,105,,,,2,2,0.0,0.0,0.0,1.0,,0.0-107.0,,0.0,810.0149999,0.0,0.465104323,0.0,0.530793115,0.0,0.75,0.0,0.31683071,True,,5f5f70aac2a0f3021e66c22c,,1314848,105,,evan-feature22,full_rf_b,,1
80,34155,106,,,,1,1,0.0,0.0,-1.0,0.0,,0.0-108.0,,0.0,3246.985,0.0,0.465104323,0.0,0.530793115,0.0,0.75,1.0,0.31683071,True,,5f5f70aac2a0f3021e66c22c,,1327857,106,,evan-feature22,full_rf_b,,1
81,34156,107,,,,2,2,1.0,1.0,-1.0,0.0,,0.0-109.0,,-1.0,690.4300001,1.0,0.46833986,1.0,0.570249239,1.0,0.7244472590000001,1.0,0.364114163,True,,5f5f70aac2a0f3021e66c22c,,1338319,107,,evan-feature22,full_rf_b,,1
82,34157,108,,,,1,1,1.0,1.0,-1.0,0.0,,0.0-110.0,,-1.0,280.15,1.0,0.445444024,1.0,0.649673355,1.0,0.6845441290000001,1.0,0.300660449,True,,5f5f70aac2a0f3021e66c22c,,1348362,108,,evan-feature22,full_rf_b,,1
83,34158,109,,,,1,1,1.0,1.0,-1.0,0.0,,0.0-111.0,,-1.0,1061.85,1.0,0.39909721299999995,1.0,0.6715179509999999,1.0,0.742310028,0.0,0.35496088299999995,True,,5f5f70aac2a0f3021e66c22c,,1359191,109,,evan-feature22,full_rf_b,,0
84,34159,110,,,,1,1,0.0,1.0,0.0,1.0,,0.0-112.0,,1.0,593.7399998999999,0.0,0.37956104799999996,1.0,0.694725302,0.0,0.7181651309999999,1.0,0.38726906299999997,True,,5f5f70aac2a0f3021e66c22c,,1369546,110,,evan-feature22,full_rf_b,,0
85,34160,111,,,,1,1,1.0,1.0,0.0,1.0,,0.0-113.0,,1.0,1082.585,1.0,0.404995034,1.0,0.724375412,1.0,0.6910946859999999,0.0,0.387187347,True,,5f5f70aac2a0f3021e66c22c,,1380392,111,,evan-feature22,full_rf_b,,0
86,34161,112,,,,1,1,1.0,1.0,-1.0,0.0,,0.0-114.0,,-1.0,3253.665,1.0,0.461740803,1.0,0.75,1.0,0.75,1.0,0.34872038200000005,True,,5f5f70aac2a0f3021e66c22c,,1393412,112,,evan-feature22,full_rf_b,,0
87,34162,113,,,,1,1,1.0,1.0,-1.0,0.0,,0.0-115.0,,-1.0,682.705,1.0,0.43821380600000004,1.0,0.738833273,0.0,0.728286963,1.0,0.399538128,True,,5f5f70aac2a0f3021e66c22c,,1403862,113,,evan-feature22,full_rf_b,,0
88,34163,114,,,,1,1,1.0,1.0,0.0,1.0,,0.0-116.0,,1.0,421.405,1.0,0.41709882,1.0,0.736666736,0.0,0.75,0.0,0.389095584,True,,5f5f70aac2a0f3021e66c22c,,1414048,114,,evan-feature22,full_rf_b,,0
89,34164,115,,,,SLOW,SLOW,,,0.0,1.0,,0.0-117.0,,-3.0,,0.0,0.39749009799999996,0.0,0.744320029,1.0,0.75,0.0,0.363848678,True,,5f5f70aac2a0f3021e66c22c,,1419853,115,,evan-feature22,full_rf_b,,1
90,34165,116,,,,SLOW,SLOW,,,-1.0,0.0,,0.0-118.0,,-3.0,,0.0,0.392653706,1.0,0.75,1.0,0.75,1.0,0.384386976,True,,5f5f70aac2a0f3021e66c22c,,1425663,116,,evan-feature22,full_rf_b,,0
91,34166,117,,,,1,1,1.0,0.0,0.0,1.0,,0.0-119.0,,0.0,260.58,1.0,0.31190902600000003,0.0,0.75,1.0,0.732413819,1.0,0.413082932,True,,5f5f70aac2a0f3021e66c22c,,1435686,117,,evan-feature22,full_rf_b,,1
92,34167,118,,,,2,2,1.0,1.0,-1.0,0.0,,0.0-120.0,,-1.0,1934.245,0.0,0.366917648,1.0,0.740073855,1.0,0.75,1.0,0.352861979,True,,5f5f70aac2a0f3021e66c22c,,1447386,118,,evan-feature22,full_rf_b,,1
93,34168,119,,,,1,1,0.0,1.0,-1.0,0.0,,0.0-121.0,,0.0,442.39,0.0,0.3645172,1.0,0.721770713,1.0,0.75,1.0,0.404074511,True,,5f5f70aac2a0f3021e66c22c,,1457598,119,,evan-feature22,full_rf_b,,1
94,34169,120,,,,2,2,1.0,0.0,-1.0,0.0,,0.0-122.0,,-1.0,299.1000001,0.0,0.35205600299999995,1.0,0.68983859,1.0,0.739735447,0.0,0.366895945,True,,5f5f70aac2a0f3021e66c22c,,1467658,120,,evan-feature22,full_rf_b,,1
95,34170,121,,,,1,1,0.0,0.0,-1.0,0.0,,0.0-123.0,,0.0,404.18,0.0,0.40998722600000004,0.0,0.720859127,1.0,0.673854955,0.0,0.368528541,True,,5f5f70aac2a0f3021e66c22c,,1477822,121,,evan-feature22,full_rf_b,,1
96,34171,122,,,,1,1,1.0,1.0,-1.0,0.0,,0.0-124.0,,-1.0,545.6299999,1.0,0.353625316,1.0,0.75,0.0,0.695605473,1.0,0.38303674200000004,True,,5f5f70aac2a0f3021e66c22c,,1488136,122,,evan-feature22,full_rf_b,,0
97,34172,123,,,,1,1,0.0,0.0,-1.0,0.0,,0.0-125.0,,0.0,457.625,0.0,0.359216989,0.0,0.75,1.0,0.6987915090000001,0.0,0.35169046200000004,True,,5f5f70aac2a0f3021e66c22c,,1498354,123,,evan-feature22,full_rf_b,,0
98,34173,124,,,,1,1,0.0,1.0,-1.0,0.0,,0.0-126.0,,0.0,1301.57,0.0,0.35834496899999996,1.0,0.75,1.0,0.707067742,0.0,0.416763636,True,,5f5f70aac2a0f3021e66c22c,,1509423,124,,evan-feature22,full_rf_b,,0
99,34174,125,,,,1,1,0.0,1.0,0.0,1.0,,0.0-127.0,,1.0,470.4700001,0.0,0.38741613799999997,1.0,0.7177369570000001,1.0,0.734902455,0.0,0.49438664299999996,True,,5f5f70aac2a0f3021e66c22c,,1519658,125,,evan-feature22,full_rf_b,,0
100,34175,126,,,,1,1,0.0,1.0,-1.0,0.0,,0.0-128.0,,0.0,1041.23,0.0,0.405255252,1.0,0.7300466640000001,0.0,0.7027748070000001,0.0,0.504359668,True,,5f5f70aac2a0f3021e66c22c,,1530461,126,,evan-feature22,full_rf_b,,0
101,34176,127,,,,1,1,1.0,1.0,-1.0,0.0,,0.0-129.0,,-1.0,608.57,1.0,0.40697073,1.0,0.7260142190000001,1.0,0.724461982,0.0,0.522779179,True,,5f5f70aac2a0f3021e66c22c,,1540839,127,,evan-feature22,full_rf_b,,0
102,34177,128,,,,2,2,1.0,1.0,-1.0,0.0,,0.0-130.0,,-1.0,507.0249999,1.0,0.43906215299999996,1.0,0.7252802340000001,1.0,0.719079934,1.0,0.5712990579999999,True,,5f5f70aac2a0f3021e66c22c,,1551112,128,,evan-feature22,full_rf_b,,1
103,34178,129,,,,1,1,0.0,1.0,0.0,1.0,,0.0-131.0,,1.0,346.9,0.0,0.4076705,1.0,0.73280499,0.0,0.681313127,0.0,0.523891346,True,,5f5f70aac2a0f3021e66c22c,,1561222,129,,evan-feature22,full_rf_b,,1
104,34179,130,,,,1,1,0.0,1.0,0.0,1.0,,0.0-132.0,,1.0,867.695,0.0,0.399102911,1.0,0.730498344,0.0,0.661080239,1.0,0.46742603,True,,5f5f70aac2a0f3021e66c22c,,1571852,130,,evan-feature22,full_rf_b,,0
105,34180,131,,,,1,1,1.0,1.0,0.0,1.0,,0.0-133.0,,1.0,767.8,1.0,0.356477282,1.0,0.712296395,1.0,0.641812684,0.0,0.44868414,True,,5f5f70aac2a0f3021e66c22c,,1582385,131,,evan-feature22,full_rf_b,,0
106,34181,132,,,,1,1,1.0,1.0,-1.0,0.0,,0.0-134.0,,-1.0,542.7199999,1.0,0.462760722,1.0,0.692349322,1.0,0.700947931,1.0,0.394680266,True,,5f5f70aac2a0f3021e66c22c,,1592694,132,,evan-feature22,full_rf_b,,0
107,34182,133,,,,1,1,1.0,1.0,-1.0,0.0,,0.0-135.0,,-1.0,913.27,1.0,0.422306413,1.0,0.718375916,1.0,0.706340917,0.0,0.367787185,True,,5f5f70aac2a0f3021e66c22c,,1603371,133,,evan-feature22,full_rf_b,,0
108,34184,135,,,,1,1,0.0,0.0,-1.0,0.0,,0.0-137.0,,0.0,1144.96,0.0,0.4582233,0.0,0.643834117,1.0,0.75,1.0,0.39615823299999997,True,,5f5f70aac2a0f3021e66c22c,,1616476,135,,evan-feature22,full_rf_b,,0
109,34185,136,,,,1,1,0.0,1.0,-1.0,0.0,,0.0-138.0,,0.0,520.8099999,0.0,0.43813437899999996,1.0,0.651283804,1.0,0.729674191,0.0,0.37711048,True,,5f5f70aac2a0f3021e66c22c,,1626758,136,,evan-feature22,full_rf_b,,0
110,34186,137,,,,1,1,1.0,0.0,-1.0,0.0,,0.0-139.0,,-1.0,496.845,1.0,0.471199094,0.0,0.6470010979999999,0.0,0.715008097,1.0,0.410656191,True,,5f5f70aac2a0f3021e66c22c,,1637019,137,,evan-feature22,full_rf_b,,0
111,34187,138,,,,1,1,0.0,1.0,-1.0,0.0,,0.0-140.0,,0.0,659.8800001,0.0,0.42486406,1.0,0.629771829,0.0,0.6550939960000001,1.0,0.459093873,True,,5f5f70aac2a0f3021e66c22c,,1647444,138,,evan-feature22,full_rf_b,,0
112,34188,139,,,,1,1,0.0,1.0,-1.0,0.0,,0.0-141.0,,0.0,390.26499989999996,0.0,0.4803197,1.0,0.645842715,1.0,0.6421749920000001,0.0,0.443092151,True,,5f5f70aac2a0f3021e66c22c,,1657600,139,,evan-feature22,full_rf_b,,0
113,34189,140,,,,1,1,0.0,1.0,0.0,1.0,,0.0-142.0,,1.0,520.87,0.0,0.521848997,1.0,0.735801074,1.0,0.6691348460000001,0.0,0.45259351600000003,True,,5f5f70aac2a0f3021e66c22c,,1667889,140,,evan-feature22,full_rf_b,,0
114,34190,141,,,,1,1,1.0,1.0,-1.0,0.0,,0.0-143.0,,-1.0,907.5099999,1.0,0.49565621299999996,1.0,0.742400847,1.0,0.661512553,1.0,0.483110831,True,,5f5f70aac2a0f3021e66c22c,,1678564,141,,evan-feature22,full_rf_b,,0
115,34191,142,,,,1,1,1.0,0.0,-1.0,0.0,,0.0-144.0,,-1.0,978.9,1.0,0.521564361,0.0,0.731078632,0.0,0.6774886809999999,0.0,0.483263956,True,,5f5f70aac2a0f3021e66c22c,,1689307,142,,evan-feature22,full_rf_b,,0
116,34192,143,,,,1,1,1.0,1.0,-1.0,0.0,,0.0-145.0,,-1.0,935.5050001,1.0,0.558893102,1.0,0.719810023,0.0,0.67461031,0.0,0.499349834,True,,5f5f70aac2a0f3021e66c22c,,1700010,143,,evan-feature22,full_rf_b,,0
117,34193,144,,,,1,1,1.0,0.0,-1.0,0.0,,0.0-146.0,,-1.0,674.245,1.0,0.611031046,0.0,0.75,1.0,0.688072995,1.0,0.5321422729999999,True,,5f5f70aac2a0f3021e66c22c,,1710447,144,,evan-feature22,full_rf_b,,0
118,34194,145,,,,2,2,1.0,1.0,0.0,1.0,,0.0-147.0,,1.0,594.3,0.0,0.633223941,1.0,0.713567728,1.0,0.75,1.0,0.48185314700000004,True,,5f5f70aac2a0f3021e66c22c,,1720808,145,,evan-feature22,full_rf_b,,1
119,34195,146,,,,2,2,1.0,0.0,-1.0,0.0,,0.0-148.0,,-1.0,1276.055,1.0,0.664001694,0.0,0.705509768,1.0,0.75,0.0,0.500211065,True,,5f5f70aac2a0f3021e66c22c,,1731847,146,,evan-feature22,full_rf_b,,0
120,34196,147,,,,2,2,1.0,0.0,-1.0,0.0,,0.0-149.0,,-1.0,1716.855,1.0,0.664001694,1.0,0.705509768,1.0,0.75,0.0,0.500211065,True,,5f5f70aac2a0f3021e66c22c,,1743327,147,,evan-feature22,full_rf_b,,0
121,34197,148,,,,2,2,0.0,0.0,-1.0,0.0,,0.0-150.0,,0.0,409.705,1.0,0.696508041,1.0,0.71066027,0.0,0.717028709,0.0,0.49792991,True,,5f5f70aac2a0f3021e66c22c,,1753503,148,,evan-feature22,full_rf_b,,0
122,34198,149,,,,2,2,0.0,0.0,0.0,1.0,,0.0-151.0,,0.0,588.05,0.0,0.699883272,0.0,0.75,0.0,0.713543895,0.0,0.496962643,True,,5f5f70aac2a0f3021e66c22c,,1763854,149,,evan-feature22,full_rf_b,,0
123,34199,150,,,,2,2,1.0,0.0,0.0,1.0,,0.0-152.0,,0.0,1835.475,0.0,0.741163419,0.0,0.75,1.0,0.64691024,0.0,0.513858197,True,,5f5f70aac2a0f3021e66c22c,,1775450,150,,evan-feature22,full_rf_b,,0
124,34200,151,,,,2,2,0.0,1.0,0.0,1.0,,0.0-153.0,,1.0,979.6699999,1.0,0.75,0.0,0.70816558,0.0,0.594499079,1.0,0.48502124,True,,5f5f70aac2a0f3021e66c22c,,1786193,151,,evan-feature22,full_rf_b,,0
125,34201,152,,,,1,1,1.0,1.0,-1.0,0.0,,0.0-154.0,,-1.0,1414.635,1.0,0.75,1.0,0.721848901,1.0,0.62197249,1.0,0.48263586399999997,True,,5f5f70aac2a0f3021e66c22c,,1797370,152,,evan-feature22,full_rf_b,,1
126,34202,153,,,,1,1,1.0,0.0,-1.0,0.0,,0.0-155.0,,-1.0,939.06,1.0,0.75,0.0,0.74813071,0.0,0.584357161,0.0,0.411477782,True,,5f5f70aac2a0f3021e66c22c,,1808075,153,,evan-feature22,full_rf_b,,0
127,34203,154,,,,1,1,1.0,0.0,-1.0,0.0,,0.0-156.0,,-1.0,577.145,1.0,0.75,0.0,0.75,0.0,0.52287236,0.0,0.488290656,True,,5f5f70aac2a0f3021e66c22c,,1818420,154,,evan-feature22,full_rf_b,,0
128,34204,155,,,,1,1,1.0,1.0,-1.0,0.0,,0.0-157.0,,-1.0,697.8450001,1.0,0.75,1.0,0.75,1.0,0.544321581,0.0,0.53143059,True,,5f5f70aac2a0f3021e66c22c,,1828881,155,,evan-feature22,full_rf_b,,0
129,34205,156,,,,2,2,0.0,1.0,-1.0,0.0,,0.0-158.0,,0.0,354.13499989999997,1.0,0.726754564,0.0,0.75,0.0,0.5129306370000001,1.0,0.530592445,True,,5f5f70aac2a0f3021e66c22c,,1838995,156,,evan-feature22,full_rf_b,,1
130,34206,157,,,,2,2,1.0,1.0,0.0,1.0,,0.0-159.0,,1.0,716.79,1.0,0.75,0.0,0.7392590729999999,1.0,0.479875835,1.0,0.547007051,True,,5f5f70aac2a0f3021e66c22c,,1849480,157,,evan-feature22,full_rf_b,,0
131,34207,158,,,,2,2,1.0,1.0,0.0,1.0,,0.0-160.0,,1.0,812.925,1.0,0.75,1.0,0.7393376979999999,1.0,0.546045419,1.0,0.541267353,True,,5f5f70aac2a0f3021e66c22c,,1860065,158,,evan-feature22,full_rf_b,,0
132,34208,159,,,,2,2,0.0,1.0,-1.0,0.0,,0.0-161.0,,0.0,533.7,1.0,0.75,1.0,0.75,0.0,0.485725895,1.0,0.527625395,True,,5f5f70aac2a0f3021e66c22c,,1870365,159,,evan-feature22,full_rf_b,,0
133,34209,160,,,,2,2,0.0,0.0,0.0,1.0,,0.0-162.0,,0.0,487.6250001,1.0,0.75,1.0,0.725087974,0.0,0.488603595,0.0,0.504019206,True,,5f5f70aac2a0f3021e66c22c,,1880616,160,,evan-feature22,full_rf_b,,0
134,34210,161,,,,2,2,1.0,1.0,-1.0,0.0,,0.0-163.0,,-1.0,360.425,1.0,0.745504295,0.0,0.75,1.0,0.452379914,1.0,0.50131194,True,,5f5f70aac2a0f3021e66c22c,,1890739,161,,evan-feature22,full_rf_b,,0
135,34211,162,,,,2,2,0.0,1.0,0.0,1.0,,0.0-164.0,,1.0,1095.9,1.0,0.728513874,1.0,0.75,0.0,0.44125567200000004,1.0,0.531454591,True,,5f5f70aac2a0f3021e66c22c,,1901596,162,,evan-feature22,full_rf_b,,0
136,34212,163,,,,2,2,1.0,0.0,-1.0,0.0,,0.0-165.0,,-1.0,1187.32,0.0,0.73790804,0.0,0.75,1.0,0.413036656,0.0,0.524619035,True,,5f5f70aac2a0f3021e66c22c,,1912545,163,,evan-feature22,full_rf_b,,0
137,34213,164,,,,2,2,1.0,0.0,-1.0,0.0,,0.0-166.0,,-1.0,1255.175,1.0,0.7080961309999999,1.0,0.708666865,1.0,0.431915581,0.0,0.481819489,True,,5f5f70aac2a0f3021e66c22c,,1923565,164,,evan-feature22,full_rf_b,,0
138,34214,165,,,,1,1,1.0,0.0,-1.0,0.0,,0.0-167.0,,-1.0,479.2600001,1.0,0.721378003,0.0,0.71605913,0.0,0.36642387,1.0,0.5036739929999999,True,,5f5f70aac2a0f3021e66c22c,,1933807,165,,evan-feature22,full_rf_b,,1
139,34215,166,,,,2,2,1.0,0.0,0.0,1.0,,0.0-168.0,,0.0,2015.31,1.0,0.7340618959999999,1.0,0.699323252,1.0,0.35298046299999997,0.0,0.511241692,True,,5f5f70aac2a0f3021e66c22c,,1945589,166,,evan-feature22,full_rf_b,,1
140,34216,167,,,,2,2,0.0,0.0,0.0,1.0,,0.0-169.0,,0.0,3308.575,1.0,0.75,1.0,0.70412698,0.0,0.380734814,0.0,0.529580116,True,,5f5f70aac2a0f3021e66c22c,,1958659,167,,evan-feature22,full_rf_b,,0
141,34217,168,,,,2,2,1.0,0.0,0.0,1.0,,0.0-170.0,,0.0,2700.255,1.0,0.7436654909999999,0.0,0.711182751,1.0,0.41125331,0.0,0.49554405,True,,5f5f70aac2a0f3021e66c22c,,1971124,168,,evan-feature22,full_rf_b,,0
142,34218,169,,,,2,2,0.0,0.0,-1.0,0.0,,0.0-171.0,,0.0,1146.72,0.0,0.731607915,1.0,0.651774583,0.0,0.35688023,0.0,0.45194491600000003,True,,5f5f70aac2a0f3021e66c22c,,1982033,169,,evan-feature22,full_rf_b,,0
143,34219,170,,,,2,2,1.0,0.0,0.0,1.0,,0.0-172.0,,0.0,1852.395,1.0,0.75,0.0,0.75,1.0,0.283145374,0.0,0.528608005,True,,5f5f70aac2a0f3021e66c22c,,1993648,170,,evan-feature22,full_rf_b,,0
144,34220,171,,,,2,2,0.0,1.0,-1.0,0.0,,0.0-173.0,,0.0,857.145,1.0,0.7491416890000001,1.0,0.7423785959999999,0.0,0.29135870399999997,1.0,0.498888318,True,,5f5f70aac2a0f3021e66c22c,,2004269,171,,evan-feature22,full_rf_b,,0
145,34221,172,,,,2,2,0.0,0.0,0.0,1.0,,0.0-174.0,,0.0,882.5150001000001,0.0,0.708569387,1.0,0.717682277,0.0,0.294421699,0.0,0.493838163,True,,5f5f70aac2a0f3021e66c22c,,2014914,172,,evan-feature22,full_rf_b,,0
146,34222,173,,,,2,2,1.0,1.0,-1.0,0.0,,0.0-175.0,,-1.0,1226.1,0.0,0.75,1.0,0.7383382159999999,1.0,0.356098707,1.0,0.442533405,True,,5f5f70aac2a0f3021e66c22c,,2025911,173,,evan-feature22,full_rf_b,,0
147,34223,174,,,,2,2,0.0,0.0,-1.0,0.0,,0.0-176.0,,0.0,1364.82,0.0,0.744527075,1.0,0.75,0.0,0.334127506,0.0,0.393165805,True,,5f5f70aac2a0f3021e66c22c,,2037036,174,,evan-feature22,full_rf_b,,0
148,34224,175,,,,2,2,1.0,0.0,-1.0,0.0,,0.0-177.0,,-1.0,1012.665,1.0,0.75,1.0,0.75,1.0,0.33571021799999995,0.0,0.350393962,True,,5f5f70aac2a0f3021e66c22c,,2047813,175,,evan-feature22,full_rf_b,,0
149,34225,176,,,,1,1,1.0,1.0,0.0,1.0,,0.0-178.0,,1.0,1759.245,1.0,0.75,1.0,0.75,0.0,0.313628297,0.0,0.36349657399999996,True,,5f5f70aac2a0f3021e66c22c,,2059340,176,,evan-feature22,full_rf_b,,1
150,34226,177,,,,1,1,0.0,1.0,-1.0,0.0,,0.0-179.0,,0.0,673.5299999,0.0,0.75,1.0,0.734284182,0.0,0.262667667,0.0,0.380199119,True,,5f5f70aac2a0f3021e66c22c,,2069776,177,,evan-feature22,full_rf_b,,0
151,34227,178,,,,1,1,0.0,1.0,-1.0,0.0,,0.0-180.0,,0.0,734.075,0.0,0.75,1.0,0.75,0.0,0.25,1.0,0.394494013,True,,5f5f70aac2a0f3021e66c22c,,2080280,178,,evan-feature22,full_rf_b,,0
152,34228,179,,,,1,1,1.0,0.0,-1.0,0.0,,0.0-181.0,,-1.0,1150.29,1.0,0.722298145,0.0,0.7357822340000001,0.0,0.25,0.0,0.319142121,True,,5f5f70aac2a0f3021e66c22c,,2091193,179,,evan-feature22,full_rf_b,,0
153,34229,180,,,,1,1,0.0,1.0,-1.0,0.0,,0.0-182.0,,0.0,584.61,0.0,0.73149275,1.0,0.724276446,0.0,0.305856907,1.0,0.281315057,True,,5f5f70aac2a0f3021e66c22c,,2101541,180,,evan-feature22,full_rf_b,,0
154,34230,181,,,,2,2,0.0,0.0,-1.0,0.0,,0.0-183.0,,0.0,824.5549999,1.0,0.7458732690000001,0.0,0.7336382459999999,0.0,0.272571964,0.0,0.266021999,True,,5f5f70aac2a0f3021e66c22c,,2112129,181,,evan-feature22,full_rf_b,,1
155,34231,182,,,,2,2,0.0,0.0,0.0,1.0,,0.0-184.0,,0.0,1050.07,0.0,0.705579037,0.0,0.720778292,0.0,0.320238144,0.0,0.30971744,True,,5f5f70aac2a0f3021e66c22c,,2122942,182,,evan-feature22,full_rf_b,,0
156,34232,183,,,,2,2,0.0,1.0,0.0,1.0,,0.0-185.0,,1.0,910.175,0.0,0.700425648,1.0,0.7198784009999999,0.0,0.272590393,1.0,0.304182931,True,,5f5f70aac2a0f3021e66c22c,,2133617,183,,evan-feature22,full_rf_b,,0
157,34233,184,,,,2,2,0.0,1.0,0.0,1.0,,0.0-186.0,,1.0,611.5049999,1.0,0.735590785,1.0,0.722714973,0.0,0.25,1.0,0.323421091,True,,5f5f70aac2a0f3021e66c22c,,2143990,184,,evan-feature22,full_rf_b,,0
158,34234,185,,,,2,2,0.0,0.0,0.0,1.0,,0.0-187.0,,0.0,807.49,0.0,0.724807662,1.0,0.63146213,0.0,0.36836492600000004,0.0,0.34592153299999995,True,,5f5f70aac2a0f3021e66c22c,,2154564,185,,evan-feature22,full_rf_b,,0
159,34235,186,,,,1,1,1.0,1.0,-1.0,0.0,,0.0-188.0,,-1.0,736.405,1.0,0.7352796909999999,1.0,0.555111392,1.0,0.36003922,0.0,0.31433779999999995,True,,5f5f70aac2a0f3021e66c22c,,2165070,186,,evan-feature22,full_rf_b,,1
160,34236,187,notice,,,,,,,,,,0.0-189.0,"{""Q0"":""the probability switches""}",,17482.0,,,,,,,,,True,,5f5f70aac2a0f3021e66c22c,,2182556,187,Q,survey-text,full_rf_b,,1
161,34237,188,track1,,[1],,,,,,,,0.0-190.0,"{""Q0"":""no""}",,3139.0,,,,,,,,,True,,5f5f70aac2a0f3021e66c22c,,2185707,188,Q,evan-quiz,full_rf_b,,1
162,34238,189,track2,,[1],,,,,,,,0.0-191.0,"{""Q0"":""no""}",,6622.0,,,,,,,,,True,,5f5f70aac2a0f3021e66c22c,,2192335,189,Q,evan-quiz,full_rf_b,,1
163,34239,190,strat,,,,,,,,,,0.0-192.0,"{""Q0"":""try to work out a pattern""}",,20963.0,,,,,,,,,True,,5f5f70aac2a0f3021e66c22c,,2213304,190,Q,survey-text,full_rf_b,,1
