,index,Unnamed: 0,Q_name,button_pressed,choice_idxs,chosen_pos,chosen_state,chosen_state_f_1_outcome,chosen_state_f_2_outcome,f_1_reward,f_2_reward,incor_questions,internal_node_id,responses,reward_received,rt,s_1_f_1_outcome,s_1_f_1_prob,s_1_f_2_outcome,s_1_f_2_prob,s_2_f_1_outcome,s_2_f_1_prob,s_2_f_2_outcome,s_2_f_2_prob,safe_first,stimulus,subjectID,success,time_elapsed,trial_index,trial_num,trial_type,version,view_history,switching
0,23275,25,,,,2,2,1.0,1.0,-1.0,0.0,,0.0-27.0,,-1.0,1785.24,1.0,0.6,0.0,0.6,1.0,0.4,1.0,0.4,False,,5e931494e2bcb364d069bc8a,,611732,25,,evan-feature22,full_pf_b,,0
1,23276,26,,,,2,2,1.0,0.0,-1.0,0.0,,0.0-28.0,,-1.0,1715.19,1.0,0.608053294,1.0,0.63424552,1.0,0.397152172,0.0,0.347069101,False,,5e931494e2bcb364d069bc8a,,623235,26,,evan-feature22,full_pf_b,,0
2,23277,27,,,,2,2,0.0,0.0,-1.0,0.0,,0.0-29.0,,0.0,2167.27,1.0,0.642237155,1.0,0.648566321,0.0,0.389407674,0.0,0.285525717,False,,5e931494e2bcb364d069bc8a,,635187,27,,evan-feature22,full_pf_b,,0
3,23278,28,,,,1,1,1.0,1.0,-1.0,0.0,,0.0-30.0,,-1.0,2159.715,1.0,0.661086576,1.0,0.630492543,0.0,0.399058924,0.0,0.25,False,,5e931494e2bcb364d069bc8a,,647129,28,,evan-feature22,full_pf_b,,1
4,23279,29,,,,2,2,0.0,1.0,0.0,1.0,,0.0-31.0,,1.0,1512.93,1.0,0.631324137,0.0,0.6269842929999999,0.0,0.38734784299999997,1.0,0.25,False,,5e931494e2bcb364d069bc8a,,658422,29,,evan-feature22,full_pf_b,,1
5,23280,30,,,,2,2,0.0,0.0,0.0,1.0,,0.0-32.0,,0.0,1415.065,1.0,0.6381991370000001,1.0,0.68987999,0.0,0.384107265,0.0,0.271332943,False,,5e931494e2bcb364d069bc8a,,669613,30,,evan-feature22,full_pf_b,,0
6,23281,31,,,,2,2,1.0,0.0,-1.0,0.0,,0.0-33.0,,-1.0,1358.325,1.0,0.66034901,0.0,0.742641349,1.0,0.360225629,0.0,0.25,False,,5e931494e2bcb364d069bc8a,,680752,31,,evan-feature22,full_pf_b,,0
7,23282,32,,,,2,2,0.0,0.0,-1.0,0.0,,0.0-34.0,,0.0,903.12,1.0,0.638612418,0.0,0.75,0.0,0.367273939,0.0,0.25,False,,5e931494e2bcb364d069bc8a,,691438,32,,evan-feature22,full_pf_b,,0
8,23283,33,,,,2,2,0.0,0.0,0.0,1.0,,0.0-35.0,,0.0,1525.54,1.0,0.624340629,1.0,0.75,0.0,0.425829545,0.0,0.25,False,,5e931494e2bcb364d069bc8a,,702746,33,,evan-feature22,full_pf_b,,0
9,23284,34,,,,1,1,0.0,1.0,0.0,1.0,,0.0-36.0,,1.0,687.0899999,0.0,0.621999804,1.0,0.75,0.0,0.368609357,0.0,0.25,False,,5e931494e2bcb364d069bc8a,,713211,34,,evan-feature22,full_pf_b,,1
10,23285,35,,,,2,2,0.0,1.0,-1.0,0.0,,0.0-37.0,,0.0,2395.245,0.0,0.62666403,1.0,0.75,0.0,0.311151498,1.0,0.25,False,,5e931494e2bcb364d069bc8a,,725388,35,,evan-feature22,full_pf_b,,1
11,23286,36,,,,2,2,0.0,0.0,0.0,1.0,,0.0-38.0,,0.0,996.45,0.0,0.6819650009999999,1.0,0.75,0.0,0.310763048,0.0,0.25,False,,5e931494e2bcb364d069bc8a,,736167,36,,evan-feature22,full_pf_b,,0
12,23287,37,,,,1,1,1.0,1.0,-1.0,0.0,,0.0-39.0,,-1.0,2371.175,1.0,0.740626951,1.0,0.75,0.0,0.25,1.0,0.25,False,,5e931494e2bcb364d069bc8a,,748313,37,,evan-feature22,full_pf_b,,1
13,23288,38,,,,2,2,0.0,0.0,-1.0,0.0,,0.0-40.0,,0.0,1228.385,0.0,0.739599242,1.0,0.742034978,0.0,0.25397114600000004,0.0,0.25,False,,5e931494e2bcb364d069bc8a,,759317,38,,evan-feature22,full_pf_b,,1
14,23289,39,,,,2,2,1.0,0.0,-1.0,0.0,,0.0-41.0,,-1.0,1933.17,1.0,0.732341315,1.0,0.72735643,1.0,0.25,0.0,0.25,False,,5e931494e2bcb364d069bc8a,,771035,39,,evan-feature22,full_pf_b,,0
15,23290,40,,,,1,1,1.0,1.0,-1.0,0.0,,0.0-42.0,,-1.0,2504.92,1.0,0.7062287770000001,1.0,0.75,0.0,0.29002151,0.0,0.288256649,False,,5e931494e2bcb364d069bc8a,,783327,40,,evan-feature22,full_pf_b,,1
16,23291,41,,,,2,2,0.0,1.0,-1.0,0.0,,0.0-43.0,,0.0,1607.365,1.0,0.7086029209999999,1.0,0.75,0.0,0.274129113,1.0,0.262851608,False,,5e931494e2bcb364d069bc8a,,794719,41,,evan-feature22,full_pf_b,,1
17,23292,42,,,,2,2,0.0,0.0,-1.0,0.0,,0.0-44.0,,0.0,1019.595,1.0,0.669189651,1.0,0.727614338,0.0,0.298444036,0.0,0.296944518,False,,5e931494e2bcb364d069bc8a,,805519,42,,evan-feature22,full_pf_b,,0
18,23293,43,,,,2,2,0.0,1.0,-1.0,0.0,,0.0-45.0,,0.0,1383.12,1.0,0.6819912929999999,1.0,0.7179434290000001,0.0,0.265003961,1.0,0.28157921199999997,False,,5e931494e2bcb364d069bc8a,,816675,43,,evan-feature22,full_pf_b,,0
19,23294,44,,,,2,2,0.0,0.0,0.0,1.0,,0.0-46.0,,0.0,1733.76,1.0,0.665275002,1.0,0.723065271,0.0,0.260414971,0.0,0.30973870000000003,False,,5e931494e2bcb364d069bc8a,,828189,44,,evan-feature22,full_pf_b,,0
20,23295,45,,,,2,2,0.0,0.0,-1.0,0.0,,0.0-47.0,,0.0,2011.15,0.0,0.6660593260000001,0.0,0.728032907,0.0,0.30922817,0.0,0.338778608,False,,5e931494e2bcb364d069bc8a,,839976,45,,evan-feature22,full_pf_b,,0
21,23296,46,,,,2,2,1.0,0.0,-1.0,0.0,,0.0-48.0,,-1.0,1156.195,1.0,0.702068785,1.0,0.6528750879999999,1.0,0.287329608,0.0,0.35789613200000003,False,,5e931494e2bcb364d069bc8a,,850917,46,,evan-feature22,full_pf_b,,0
22,23297,47,,,,2,2,0.0,0.0,-1.0,0.0,,0.0-49.0,,0.0,1790.445,0.0,0.651939787,0.0,0.636725589,0.0,0.284834488,0.0,0.358563756,False,,5e931494e2bcb364d069bc8a,,862488,47,,evan-feature22,full_pf_b,,0
23,23298,48,,,,1,1,0.0,1.0,0.0,1.0,,0.0-50.0,,1.0,1922.65,0.0,0.67573929,1.0,0.612550049,1.0,0.37130387600000003,0.0,0.383542402,False,,5e931494e2bcb364d069bc8a,,874190,48,,evan-feature22,full_pf_b,,1
24,23299,49,,,,1,1,1.0,1.0,0.0,1.0,,0.0-51.0,,1.0,1861.965,1.0,0.620753801,1.0,0.60513644,0.0,0.385529434,0.0,0.340361743,False,,5e931494e2bcb364d069bc8a,,885834,49,,evan-feature22,full_pf_b,,0
25,23300,50,,,,1,1,1.0,1.0,0.0,1.0,,0.0-52.0,,1.0,2102.615,1.0,0.673564893,1.0,0.672437924,0.0,0.292955382,0.0,0.337633795,False,,5e931494e2bcb364d069bc8a,,897704,50,,evan-feature22,full_pf_b,,0
26,23301,51,,,,2,2,0.0,0.0,-1.0,0.0,,0.0-53.0,,0.0,1337.155,1.0,0.6749427,0.0,0.724197502,0.0,0.32391132100000003,0.0,0.350995264,False,,5e931494e2bcb364d069bc8a,,908820,51,,evan-feature22,full_pf_b,,1
27,23302,52,,,,2,2,0.0,0.0,-1.0,0.0,,0.0-54.0,,0.0,941.2049999,1.0,0.6940159379999999,1.0,0.75,0.0,0.31710554399999996,0.0,0.413450341,False,,5e931494e2bcb364d069bc8a,,919533,52,,evan-feature22,full_pf_b,,0
28,23303,53,,,,2,2,1.0,0.0,-1.0,0.0,,0.0-55.0,,-1.0,1866.74,0.0,0.6916018270000001,1.0,0.69001187,1.0,0.261817804,0.0,0.40038635,False,,5e931494e2bcb364d069bc8a,,931184,53,,evan-feature22,full_pf_b,,0
29,23304,54,,,,1,1,1.0,0.0,-1.0,0.0,,0.0-56.0,,-1.0,934.92,1.0,0.641061544,0.0,0.71337992,0.0,0.277296461,1.0,0.47372791700000005,False,,5e931494e2bcb364d069bc8a,,941903,54,,evan-feature22,full_pf_b,,1
30,23305,55,,,,2,2,0.0,0.0,-1.0,0.0,,0.0-57.0,,0.0,1437.695,1.0,0.6082438520000001,1.0,0.708471106,0.0,0.28745137,0.0,0.564174476,False,,5e931494e2bcb364d069bc8a,,953118,55,,evan-feature22,full_pf_b,,1
31,23306,56,,,,2,2,0.0,1.0,-1.0,0.0,,0.0-58.0,,0.0,1489.535,1.0,0.6051112120000001,1.0,0.7118147229999999,0.0,0.272390611,1.0,0.5595149939999999,False,,5e931494e2bcb364d069bc8a,,964388,56,,evan-feature22,full_pf_b,,0
32,23307,57,,,,2,2,0.0,1.0,-1.0,0.0,,0.0-59.0,,0.0,1259.63,0.0,0.582420852,1.0,0.635867583,0.0,0.31089574,1.0,0.5227206520000001,False,,5e931494e2bcb364d069bc8a,,975418,57,,evan-feature22,full_pf_b,,0
33,23308,58,,,,1,1,1.0,0.0,0.0,1.0,,0.0-60.0,,0.0,1178.35,1.0,0.623195575,0.0,0.655026044,0.0,0.25,0.0,0.560387538,False,,5e931494e2bcb364d069bc8a,,986372,58,,evan-feature22,full_pf_b,,1
34,23309,59,,,,2,2,0.0,1.0,-1.0,0.0,,0.0-61.0,,0.0,1395.725,0.0,0.601889598,1.0,0.678198724,0.0,0.25,1.0,0.559922936,False,,5e931494e2bcb364d069bc8a,,997551,59,,evan-feature22,full_pf_b,,1
35,23310,60,,,,2,2,0.0,1.0,-1.0,0.0,,0.0-62.0,,0.0,1373.33,0.0,0.601259914,1.0,0.704681482,0.0,0.33908969299999997,1.0,0.505003715,False,,5e931494e2bcb364d069bc8a,,1008699,60,,evan-feature22,full_pf_b,,0
36,23311,61,,,,2,2,0.0,0.0,-1.0,0.0,,0.0-63.0,,0.0,1135.44,1.0,0.59645454,0.0,0.710437172,0.0,0.327441879,0.0,0.391749613,False,,5e931494e2bcb364d069bc8a,,1019615,61,,evan-feature22,full_pf_b,,0
37,23312,62,,,,2,2,0.0,0.0,-1.0,0.0,,0.0-64.0,,0.0,973.6100001,1.0,0.529473,1.0,0.636758527,0.0,0.301338063,0.0,0.365661481,False,,5e931494e2bcb364d069bc8a,,1030375,62,,evan-feature22,full_pf_b,,0
38,23313,63,,,,1,1,1.0,0.0,0.0,1.0,,0.0-65.0,,0.0,1037.18,1.0,0.541657162,0.0,0.634541962,1.0,0.343535366,0.0,0.371763742,False,,5e931494e2bcb364d069bc8a,,1041195,63,,evan-feature22,full_pf_b,,1
39,23314,64,,,,2,2,0.0,0.0,-1.0,0.0,,0.0-66.0,,0.0,1279.365,1.0,0.5707533260000001,1.0,0.589121171,0.0,0.326428396,0.0,0.43961622899999997,False,,5e931494e2bcb364d069bc8a,,1052258,64,,evan-feature22,full_pf_b,,1
40,23315,65,,,,2,2,1.0,1.0,-1.0,0.0,,0.0-67.0,,-1.0,1026.89,1.0,0.5707533260000001,0.0,0.589121171,1.0,0.326428396,1.0,0.43961622899999997,False,,5e931494e2bcb364d069bc8a,,1063067,65,,evan-feature22,full_pf_b,,0
41,23316,66,,,,2,2,0.0,1.0,-1.0,0.0,,0.0-68.0,,0.0,1141.725,0.0,0.506271295,1.0,0.641775594,0.0,0.37149690700000004,1.0,0.404330166,False,,5e931494e2bcb364d069bc8a,,1073996,66,,evan-feature22,full_pf_b,,0
42,23317,67,,,,1,1,0.0,1.0,0.0,1.0,,0.0-69.0,,1.0,1446.735,0.0,0.455642565,1.0,0.623605825,0.0,0.358753011,1.0,0.346174041,False,,5e931494e2bcb364d069bc8a,,1085234,67,,evan-feature22,full_pf_b,,1
43,23318,68,,,,1,1,0.0,0.0,0.0,1.0,,0.0-70.0,,0.0,1727.11,0.0,0.483677308,0.0,0.5904681070000001,1.0,0.402218411,0.0,0.35344697,False,,5e931494e2bcb364d069bc8a,,1096745,68,,evan-feature22,full_pf_b,,0
44,23319,69,,,,SLOW,SLOW,,,0.0,1.0,,0.0-71.0,,-3.0,,0.0,0.394210977,1.0,0.558925494,1.0,0.540052017,1.0,0.35182128700000004,False,,5e931494e2bcb364d069bc8a,,1102562,69,,evan-feature22,full_pf_b,,1
45,23320,70,,,,2,2,1.0,0.0,-1.0,0.0,,0.0-72.0,,-1.0,1172.17,0.0,0.382300414,1.0,0.577670603,1.0,0.607608448,0.0,0.378261578,False,,5e931494e2bcb364d069bc8a,,1113516,70,,evan-feature22,full_pf_b,,1
46,23321,71,,,,1,1,0.0,0.0,-1.0,0.0,,0.0-73.0,,0.0,833.65,0.0,0.357596762,0.0,0.5929076529999999,0.0,0.6579790010000001,0.0,0.401326777,False,,5e931494e2bcb364d069bc8a,,1124136,71,,evan-feature22,full_pf_b,,1
47,23322,72,,,,2,2,1.0,0.0,-1.0,0.0,,0.0-74.0,,-1.0,1317.6,0.0,0.362033495,1.0,0.582308608,1.0,0.649195052,0.0,0.355158505,False,,5e931494e2bcb364d069bc8a,,1135230,72,,evan-feature22,full_pf_b,,1
48,23323,73,,,,1,1,1.0,1.0,-1.0,0.0,,0.0-75.0,,-1.0,1257.66,1.0,0.369620635,1.0,0.669100864,1.0,0.706059111,0.0,0.362516241,False,,5e931494e2bcb364d069bc8a,,1146267,73,,evan-feature22,full_pf_b,,1
49,23324,74,,,,2,2,1.0,0.0,-1.0,0.0,,0.0-76.0,,-1.0,1526.06,0.0,0.41477751399999996,0.0,0.7284416779999999,1.0,0.7182656940000001,0.0,0.36228040899999997,False,,5e931494e2bcb364d069bc8a,,1157562,74,,evan-feature22,full_pf_b,,1
50,23325,75,,,,1,1,1.0,1.0,0.0,1.0,,0.0-77.0,,1.0,982.2900001,1.0,0.37675460299999997,1.0,0.703250285,1.0,0.75,1.0,0.461979164,False,,5e931494e2bcb364d069bc8a,,1168321,75,,evan-feature22,full_pf_b,,1
51,23326,76,,,,2,2,1.0,0.0,0.0,1.0,,0.0-78.0,,0.0,1891.405,0.0,0.398716075,0.0,0.6723864890000001,1.0,0.674153818,0.0,0.519029516,False,,5e931494e2bcb364d069bc8a,,1179995,76,,evan-feature22,full_pf_b,,1
52,23327,77,,,,1,1,0.0,1.0,-1.0,0.0,,0.0-79.0,,0.0,2251.275,0.0,0.34677856700000004,1.0,0.69057175,1.0,0.6822438540000001,0.0,0.477292237,False,,5e931494e2bcb364d069bc8a,,1192020,77,,evan-feature22,full_pf_b,,1
53,23328,78,,,,1,1,0.0,0.0,0.0,1.0,,0.0-80.0,,0.0,1879.03,0.0,0.28580469199999997,0.0,0.68408818,1.0,0.684207565,0.0,0.49780448299999996,False,,5e931494e2bcb364d069bc8a,,1203678,78,,evan-feature22,full_pf_b,,0
54,23330,80,,,,2,2,1.0,0.0,-1.0,0.0,,0.0-82.0,,-1.0,1808.83,0.0,0.25,1.0,0.7405808970000001,1.0,0.679614108,0.0,0.436436964,False,,5e931494e2bcb364d069bc8a,,1218960,80,,evan-feature22,full_pf_b,,1
55,23331,81,,,,1,1,1.0,1.0,0.0,1.0,,0.0-83.0,,1.0,1268.79,1.0,0.29890393,1.0,0.730505706,1.0,0.7328203320000001,0.0,0.439256938,False,,5e931494e2bcb364d069bc8a,,1230015,81,,evan-feature22,full_pf_b,,1
56,23332,82,,,,2,2,1.0,1.0,-1.0,0.0,,0.0-84.0,,-1.0,3407.39,1.0,0.326762398,0.0,0.7148059609999999,1.0,0.75,1.0,0.44389608799999997,False,,5e931494e2bcb364d069bc8a,,1243210,82,,evan-feature22,full_pf_b,,1
57,23333,83,,,,1,1,0.0,0.0,-1.0,0.0,,0.0-85.0,,0.0,2363.635,0.0,0.295168515,0.0,0.739760854,1.0,0.719947008,1.0,0.35277284600000003,False,,5e931494e2bcb364d069bc8a,,1255353,83,,evan-feature22,full_pf_b,,1
58,23334,84,,,,2,2,1.0,0.0,-1.0,0.0,,0.0-86.0,,-1.0,842.095,0.0,0.25,1.0,0.70781482,1.0,0.75,0.0,0.286095925,False,,5e931494e2bcb364d069bc8a,,1265972,84,,evan-feature22,full_pf_b,,1
59,23335,85,,,,2,2,1.0,0.0,0.0,1.0,,0.0-87.0,,0.0,1938.995,1.0,0.25638190899999996,0.0,0.704088163,1.0,0.75,0.0,0.26872601399999996,False,,5e931494e2bcb364d069bc8a,,1277698,85,,evan-feature22,full_pf_b,,0
60,23336,86,,,,1,1,0.0,0.0,0.0,1.0,,0.0-88.0,,0.0,1730.65,0.0,0.271581126,0.0,0.669760107,1.0,0.733896663,0.0,0.273244572,False,,5e931494e2bcb364d069bc8a,,1289204,86,,evan-feature22,full_pf_b,,1
61,23337,87,,,,2,2,1.0,1.0,0.0,1.0,,0.0-89.0,,1.0,1630.715,1.0,0.257144401,1.0,0.600575706,1.0,0.74488122,1.0,0.25,False,,5e931494e2bcb364d069bc8a,,1300623,87,,evan-feature22,full_pf_b,,1
62,23338,88,,,,1,1,0.0,0.0,-1.0,0.0,,0.0-90.0,,0.0,1851.815,0.0,0.25,0.0,0.616870026,1.0,0.723610234,0.0,0.25,False,,5e931494e2bcb364d069bc8a,,1312260,88,,evan-feature22,full_pf_b,,1
63,23339,89,,,,2,2,1.0,0.0,0.0,1.0,,0.0-91.0,,0.0,1811.96,0.0,0.25,1.0,0.583540187,1.0,0.7041042559999999,0.0,0.285961995,False,,5e931494e2bcb364d069bc8a,,1323854,89,,evan-feature22,full_pf_b,,1
64,23340,90,,,,1,1,0.0,1.0,-1.0,0.0,,0.0-92.0,,0.0,1697.2,0.0,0.27254536,1.0,0.53875765,1.0,0.693783448,0.0,0.284961652,False,,5e931494e2bcb364d069bc8a,,1335333,90,,evan-feature22,full_pf_b,,1
65,23341,91,,,,1,1,0.0,0.0,0.0,1.0,,0.0-93.0,,0.0,1037.27,0.0,0.25,0.0,0.548431252,0.0,0.734221895,0.0,0.279445214,False,,5e931494e2bcb364d069bc8a,,1346145,91,,evan-feature22,full_pf_b,,0
66,23342,92,,,,1,1,0.0,0.0,-1.0,0.0,,0.0-94.0,,0.0,1615.92,0.0,0.258640684,0.0,0.545878066,1.0,0.725245965,0.0,0.31487537,False,,5e931494e2bcb364d069bc8a,,1357541,92,,evan-feature22,full_pf_b,,0
67,23343,93,,,,1,1,1.0,1.0,-1.0,0.0,,0.0-95.0,,-1.0,1281.16,1.0,0.251103711,1.0,0.5776290629999999,1.0,0.696320133,1.0,0.317831047,False,,5e931494e2bcb364d069bc8a,,1368605,93,,evan-feature22,full_pf_b,,0
68,23344,94,,,,2,2,1.0,1.0,-1.0,0.0,,0.0-96.0,,-1.0,962.11,0.0,0.276630292,0.0,0.617329858,1.0,0.73838088,1.0,0.261471582,False,,5e931494e2bcb364d069bc8a,,1379347,94,,evan-feature22,full_pf_b,,1
69,23345,95,,,,1,1,0.0,1.0,0.0,1.0,,0.0-97.0,,1.0,1200.7,0.0,0.297716424,1.0,0.618863717,0.0,0.7402358259999999,0.0,0.262600834,False,,5e931494e2bcb364d069bc8a,,1390331,95,,evan-feature22,full_pf_b,,1
70,23346,96,,,,2,2,1.0,0.0,-1.0,0.0,,0.0-98.0,,-1.0,2414.14,0.0,0.290935512,1.0,0.695370945,1.0,0.706570507,0.0,0.280030553,False,,5e931494e2bcb364d069bc8a,,1402523,96,,evan-feature22,full_pf_b,,1
71,23347,97,,,,2,2,0.0,0.0,-1.0,0.0,,0.0-99.0,,0.0,1273.26,0.0,0.25,0.0,0.6465277079999999,0.0,0.67766682,0.0,0.25,False,,5e931494e2bcb364d069bc8a,,1413581,97,,evan-feature22,full_pf_b,,0
72,23348,98,,,,2,2,1.0,1.0,-1.0,0.0,,0.0-100.0,,-1.0,1334.45,1.0,0.26463816,0.0,0.636100213,1.0,0.646048507,1.0,0.265607101,False,,5e931494e2bcb364d069bc8a,,1424702,98,,evan-feature22,full_pf_b,,0
73,23349,99,,,,1,1,0.0,0.0,-1.0,0.0,,0.0-101.0,,0.0,1426.05,0.0,0.314340707,0.0,0.667795927,1.0,0.613630805,0.0,0.25,False,,5e931494e2bcb364d069bc8a,,1435903,99,,evan-feature22,full_pf_b,,1
74,23350,100,,,,1,1,1.0,1.0,-1.0,0.0,,0.0-102.0,,-1.0,1508.98,1.0,0.28685784,1.0,0.6622549529999999,1.0,0.652154117,0.0,0.25,False,,5e931494e2bcb364d069bc8a,,1447193,100,,evan-feature22,full_pf_b,,0
75,23351,101,,,,2,2,0.0,1.0,0.0,1.0,,0.0-103.0,,1.0,1826.495,1.0,0.304106554,1.0,0.631289538,0.0,0.707041942,1.0,0.29314237,False,,5e931494e2bcb364d069bc8a,,1458801,101,,evan-feature22,full_pf_b,,1
76,23352,102,,,,2,2,0.0,0.0,0.0,1.0,,0.0-104.0,,0.0,1726.915,0.0,0.304806932,1.0,0.571167718,0.0,0.680472346,0.0,0.25,False,,5e931494e2bcb364d069bc8a,,1470304,102,,evan-feature22,full_pf_b,,0
77,23353,103,,,,2,2,1.0,0.0,0.0,1.0,,0.0-105.0,,0.0,2026.26,0.0,0.37919861,1.0,0.5724849710000001,1.0,0.705638003,0.0,0.30179300600000003,False,,5e931494e2bcb364d069bc8a,,1482098,103,,evan-feature22,full_pf_b,,0
78,23354,104,,,,2,2,1.0,0.0,0.0,1.0,,0.0-106.0,,0.0,2116.95,1.0,0.464277969,0.0,0.554034373,1.0,0.7372627340000001,0.0,0.264699741,False,,5e931494e2bcb364d069bc8a,,1493990,104,,evan-feature22,full_pf_b,,0
79,23355,105,,,,1,1,0.0,0.0,-1.0,0.0,,0.0-107.0,,0.0,2509.905,0.0,0.465104323,0.0,0.530793115,1.0,0.75,0.0,0.31683071,False,,5e931494e2bcb364d069bc8a,,1506287,105,,evan-feature22,full_pf_b,,1
80,23356,106,,,,2,2,1.0,0.0,0.0,1.0,,0.0-108.0,,0.0,2075.44,1.0,0.465104323,1.0,0.530793115,1.0,0.75,0.0,0.31683071,False,,5e931494e2bcb364d069bc8a,,1518144,106,,evan-feature22,full_pf_b,,1
81,23357,107,,,,2,2,1.0,1.0,0.0,1.0,,0.0-109.0,,1.0,1821.3,1.0,0.46833986,1.0,0.570249239,1.0,0.7244472590000001,1.0,0.364114163,False,,5e931494e2bcb364d069bc8a,,1529742,107,,evan-feature22,full_pf_b,,0
82,23358,108,,,,2,2,0.0,0.0,0.0,1.0,,0.0-110.0,,0.0,1395.51,1.0,0.445444024,1.0,0.649673355,0.0,0.6845441290000001,0.0,0.300660449,False,,5e931494e2bcb364d069bc8a,,1540918,108,,evan-feature22,full_pf_b,,0
83,23359,109,,,,1,1,1.0,1.0,0.0,1.0,,0.0-111.0,,1.0,1233.61,1.0,0.39909721299999995,1.0,0.6715179509999999,1.0,0.742310028,1.0,0.35496088299999995,False,,5e931494e2bcb364d069bc8a,,1551933,109,,evan-feature22,full_pf_b,,1
84,23360,110,,,,2,2,1.0,0.0,0.0,1.0,,0.0-112.0,,0.0,3042.415,1.0,0.37956104799999996,0.0,0.694725302,1.0,0.7181651309999999,0.0,0.38726906299999997,False,,5e931494e2bcb364d069bc8a,,1564758,110,,evan-feature22,full_pf_b,,1
85,23361,111,,,,1,1,0.0,1.0,0.0,1.0,,0.0-113.0,,1.0,1557.28,0.0,0.404995034,1.0,0.724375412,1.0,0.6910946859999999,1.0,0.387187347,False,,5e931494e2bcb364d069bc8a,,1576104,111,,evan-feature22,full_pf_b,,1
86,23362,112,,,,2,2,1.0,0.0,0.0,1.0,,0.0-114.0,,0.0,1571.58,1.0,0.461740803,1.0,0.75,1.0,0.75,0.0,0.34872038200000005,False,,5e931494e2bcb364d069bc8a,,1587452,112,,evan-feature22,full_pf_b,,1
87,23363,113,,,,2,2,0.0,0.0,-1.0,0.0,,0.0-115.0,,0.0,1288.17,1.0,0.43821380600000004,0.0,0.738833273,0.0,0.728286963,0.0,0.399538128,False,,5e931494e2bcb364d069bc8a,,1598519,113,,evan-feature22,full_pf_b,,0
88,23364,114,,,,1,1,0.0,1.0,0.0,1.0,,0.0-116.0,,1.0,1405.295,0.0,0.41709882,1.0,0.736666736,1.0,0.75,1.0,0.389095584,False,,5e931494e2bcb364d069bc8a,,1609704,114,,evan-feature22,full_pf_b,,1
89,23365,115,,,,1,1,0.0,1.0,0.0,1.0,,0.0-117.0,,1.0,1655.24,0.0,0.39749009799999996,1.0,0.744320029,1.0,0.75,0.0,0.363848678,False,,5e931494e2bcb364d069bc8a,,1621140,115,,evan-feature22,full_pf_b,,0
90,23366,116,,,,2,2,0.0,1.0,-1.0,0.0,,0.0-118.0,,0.0,1437.12,0.0,0.392653706,1.0,0.75,0.0,0.75,1.0,0.384386976,False,,5e931494e2bcb364d069bc8a,,1632359,116,,evan-feature22,full_pf_b,,1
91,23367,117,,,,2,2,1.0,1.0,-1.0,0.0,,0.0-119.0,,-1.0,1022.08,0.0,0.31190902600000003,1.0,0.75,1.0,0.732413819,1.0,0.413082932,False,,5e931494e2bcb364d069bc8a,,1643156,117,,evan-feature22,full_pf_b,,0
92,23368,118,,,,1,1,0.0,1.0,0.0,1.0,,0.0-120.0,,1.0,1319.69,0.0,0.366917648,1.0,0.740073855,1.0,0.75,1.0,0.352861979,False,,5e931494e2bcb364d069bc8a,,1654255,118,,evan-feature22,full_pf_b,,1
93,23369,119,,,,2,2,1.0,1.0,0.0,1.0,,0.0-121.0,,1.0,1031.875,0.0,0.3645172,1.0,0.721770713,1.0,0.75,1.0,0.404074511,False,,5e931494e2bcb364d069bc8a,,1665067,119,,evan-feature22,full_pf_b,,1
94,23370,120,,,,2,2,1.0,0.0,0.0,1.0,,0.0-122.0,,0.0,2054.375,0.0,0.35205600299999995,1.0,0.68983859,1.0,0.739735447,0.0,0.366895945,False,,5e931494e2bcb364d069bc8a,,1676903,120,,evan-feature22,full_pf_b,,0
95,23371,121,,,,1,1,0.0,1.0,0.0,1.0,,0.0-123.0,,1.0,808.57,0.0,0.40998722600000004,1.0,0.720859127,0.0,0.673854955,0.0,0.368528541,False,,5e931494e2bcb364d069bc8a,,1687498,121,,evan-feature22,full_pf_b,,1
96,23372,122,,,,2,2,1.0,1.0,-1.0,0.0,,0.0-124.0,,-1.0,1557.91,1.0,0.353625316,1.0,0.75,1.0,0.695605473,1.0,0.38303674200000004,False,,5e931494e2bcb364d069bc8a,,1698836,122,,evan-feature22,full_pf_b,,1
97,23373,123,,,,1,1,1.0,0.0,0.0,1.0,,0.0-125.0,,0.0,1150.03,1.0,0.359216989,0.0,0.75,1.0,0.6987915090000001,1.0,0.35169046200000004,False,,5e931494e2bcb364d069bc8a,,1709764,123,,evan-feature22,full_pf_b,,1
98,23374,124,,,,2,2,1.0,0.0,-1.0,0.0,,0.0-126.0,,-1.0,2280.015,1.0,0.35834496899999996,1.0,0.75,1.0,0.707067742,0.0,0.416763636,False,,5e931494e2bcb364d069bc8a,,1721821,124,,evan-feature22,full_pf_b,,1
99,23375,125,,,,2,2,0.0,1.0,-1.0,0.0,,0.0-127.0,,0.0,1981.345,0.0,0.38741613799999997,1.0,0.7177369570000001,0.0,0.734902455,1.0,0.49438664299999996,False,,5e931494e2bcb364d069bc8a,,1733584,125,,evan-feature22,full_pf_b,,0
100,23376,126,,,,1,1,0.0,1.0,0.0,1.0,,0.0-128.0,,1.0,1264.77,0.0,0.405255252,1.0,0.7300466640000001,0.0,0.7027748070000001,1.0,0.504359668,False,,5e931494e2bcb364d069bc8a,,1744619,126,,evan-feature22,full_pf_b,,1
101,23377,127,,,,2,2,1.0,1.0,0.0,1.0,,0.0-129.0,,1.0,949.565,1.0,0.40697073,1.0,0.7260142190000001,1.0,0.724461982,1.0,0.522779179,False,,5e931494e2bcb364d069bc8a,,1755352,127,,evan-feature22,full_pf_b,,1
102,23378,128,,,,1,1,1.0,1.0,0.0,1.0,,0.0-130.0,,1.0,1147.065,1.0,0.43906215299999996,1.0,0.7252802340000001,1.0,0.719079934,0.0,0.5712990579999999,False,,5e931494e2bcb364d069bc8a,,1766284,128,,evan-feature22,full_pf_b,,1
103,23379,129,,,,2,2,0.0,1.0,0.0,1.0,,0.0-131.0,,1.0,866.1399999,0.0,0.4076705,1.0,0.73280499,0.0,0.681313127,1.0,0.523891346,False,,5e931494e2bcb364d069bc8a,,1776932,129,,evan-feature22,full_pf_b,,1
104,23380,130,,,,1,1,1.0,1.0,0.0,1.0,,0.0-132.0,,1.0,1726.535,1.0,0.399102911,1.0,0.730498344,1.0,0.661080239,0.0,0.46742603,False,,5e931494e2bcb364d069bc8a,,1788436,130,,evan-feature22,full_pf_b,,1
105,23381,131,,,,1,1,0.0,1.0,-1.0,0.0,,0.0-133.0,,0.0,918.255,0.0,0.356477282,1.0,0.712296395,1.0,0.641812684,1.0,0.44868414,False,,5e931494e2bcb364d069bc8a,,1799145,131,,evan-feature22,full_pf_b,,0
106,23382,132,,,,1,1,0.0,1.0,0.0,1.0,,0.0-134.0,,1.0,1348.41,0.0,0.462760722,1.0,0.692349322,0.0,0.700947931,0.0,0.394680266,False,,5e931494e2bcb364d069bc8a,,1810275,132,,evan-feature22,full_pf_b,,0
107,23383,133,,,,1,1,0.0,1.0,0.0,1.0,,0.0-135.0,,1.0,2745.99,0.0,0.422306413,1.0,0.718375916,0.0,0.706340917,0.0,0.367787185,False,,5e931494e2bcb364d069bc8a,,1822796,133,,evan-feature22,full_pf_b,,0
108,23385,135,,,,1,1,0.0,1.0,0.0,1.0,,0.0-137.0,,1.0,1959.635,0.0,0.4582233,1.0,0.643834117,1.0,0.75,0.0,0.39615823299999997,False,,5e931494e2bcb364d069bc8a,,1836502,135,,evan-feature22,full_pf_b,,0
109,23386,136,,,,2,2,1.0,1.0,0.0,1.0,,0.0-138.0,,1.0,692.3849999,1.0,0.43813437899999996,1.0,0.651283804,1.0,0.729674191,1.0,0.37711048,False,,5e931494e2bcb364d069bc8a,,1846977,136,,evan-feature22,full_pf_b,,1
110,23387,137,,,,1,1,0.0,0.0,0.0,1.0,,0.0-139.0,,0.0,1743.855,0.0,0.471199094,0.0,0.6470010979999999,1.0,0.715008097,1.0,0.410656191,False,,5e931494e2bcb364d069bc8a,,1858504,137,,evan-feature22,full_pf_b,,1
111,23388,138,,,,1,1,0.0,1.0,-1.0,0.0,,0.0-140.0,,0.0,1407.735,0.0,0.42486406,1.0,0.629771829,1.0,0.6550939960000001,1.0,0.459093873,False,,5e931494e2bcb364d069bc8a,,1869690,138,,evan-feature22,full_pf_b,,0
112,23389,139,,,,2,2,0.0,1.0,-1.0,0.0,,0.0-141.0,,0.0,2881.98,1.0,0.4803197,1.0,0.645842715,0.0,0.6421749920000001,1.0,0.443092151,False,,5e931494e2bcb364d069bc8a,,1882353,139,,evan-feature22,full_pf_b,,1
113,23390,140,,,,2,2,1.0,0.0,-1.0,0.0,,0.0-142.0,,-1.0,1573.635,0.0,0.521848997,1.0,0.735801074,1.0,0.6691348460000001,0.0,0.45259351600000003,False,,5e931494e2bcb364d069bc8a,,1893709,140,,evan-feature22,full_pf_b,,0
114,23391,141,,,,1,1,1.0,0.0,0.0,1.0,,0.0-143.0,,0.0,855.305,1.0,0.49565621299999996,0.0,0.742400847,1.0,0.661512553,1.0,0.483110831,False,,5e931494e2bcb364d069bc8a,,1904347,141,,evan-feature22,full_pf_b,,1
115,23392,142,,,,2,2,1.0,0.0,-1.0,0.0,,0.0-144.0,,-1.0,1291.915,0.0,0.521564361,1.0,0.731078632,1.0,0.6774886809999999,0.0,0.483263956,False,,5e931494e2bcb364d069bc8a,,1915412,142,,evan-feature22,full_pf_b,,1
116,23393,143,,,,2,2,0.0,0.0,-1.0,0.0,,0.0-145.0,,0.0,1516.09,1.0,0.558893102,1.0,0.719810023,0.0,0.67461031,0.0,0.499349834,False,,5e931494e2bcb364d069bc8a,,1926701,143,,evan-feature22,full_pf_b,,0
117,23394,144,,,,1,1,1.0,1.0,0.0,1.0,,0.0-146.0,,1.0,2011.745,1.0,0.611031046,1.0,0.75,1.0,0.688072995,0.0,0.5321422729999999,False,,5e931494e2bcb364d069bc8a,,1938493,144,,evan-feature22,full_pf_b,,1
118,23395,145,,,,2,2,1.0,0.0,-1.0,0.0,,0.0-147.0,,-1.0,1589.54,1.0,0.633223941,1.0,0.713567728,1.0,0.75,0.0,0.48185314700000004,False,,5e931494e2bcb364d069bc8a,,1949862,145,,evan-feature22,full_pf_b,,1
119,23396,146,,,,2,2,1.0,0.0,-1.0,0.0,,0.0-148.0,,-1.0,1649.51,1.0,0.664001694,1.0,0.705509768,1.0,0.75,0.0,0.500211065,False,,5e931494e2bcb364d069bc8a,,1961291,146,,evan-feature22,full_pf_b,,0
120,23397,147,,,,1,1,1.0,0.0,0.0,1.0,,0.0-149.0,,0.0,1233.23,1.0,0.664001694,0.0,0.705509768,1.0,0.75,1.0,0.500211065,False,,5e931494e2bcb364d069bc8a,,1972303,147,,evan-feature22,full_pf_b,,1
121,23398,148,,,,1,1,1.0,1.0,0.0,1.0,,0.0-150.0,,1.0,1292.83,1.0,0.696508041,1.0,0.71066027,0.0,0.717028709,0.0,0.49792991,False,,5e931494e2bcb364d069bc8a,,1983376,148,,evan-feature22,full_pf_b,,0
122,23399,149,,,,2,2,0.0,1.0,-1.0,0.0,,0.0-151.0,,0.0,1497.66,0.0,0.699883272,1.0,0.75,0.0,0.713543895,1.0,0.496962643,False,,5e931494e2bcb364d069bc8a,,1994656,149,,evan-feature22,full_pf_b,,1
123,23400,150,,,,1,1,1.0,1.0,0.0,1.0,,0.0-152.0,,1.0,1681.62,1.0,0.741163419,1.0,0.75,0.0,0.64691024,0.0,0.513858197,False,,5e931494e2bcb364d069bc8a,,2006125,150,,evan-feature22,full_pf_b,,1
124,23401,151,,,,2,2,1.0,1.0,-1.0,0.0,,0.0-153.0,,-1.0,1432.64,1.0,0.75,0.0,0.70816558,1.0,0.594499079,1.0,0.48502124,False,,5e931494e2bcb364d069bc8a,,2017331,151,,evan-feature22,full_pf_b,,1
125,23402,152,,,,1,1,1.0,0.0,0.0,1.0,,0.0-154.0,,0.0,1074.37,1.0,0.75,0.0,0.721848901,0.0,0.62197249,1.0,0.48263586399999997,False,,5e931494e2bcb364d069bc8a,,2028183,152,,evan-feature22,full_pf_b,,1
126,23403,153,,,,2,2,1.0,0.0,-1.0,0.0,,0.0-155.0,,-1.0,1271.47,1.0,0.75,1.0,0.74813071,1.0,0.584357161,0.0,0.411477782,False,,5e931494e2bcb364d069bc8a,,2039235,153,,evan-feature22,full_pf_b,,1
127,23404,154,,,,1,1,1.0,0.0,0.0,1.0,,0.0-156.0,,0.0,1387.625,1.0,0.75,0.0,0.75,1.0,0.52287236,0.0,0.488290656,False,,5e931494e2bcb364d069bc8a,,2050406,154,,evan-feature22,full_pf_b,,1
128,23405,155,,,,1,1,1.0,1.0,0.0,1.0,,0.0-157.0,,1.0,973.55,1.0,0.75,1.0,0.75,1.0,0.544321581,0.0,0.53143059,False,,5e931494e2bcb364d069bc8a,,2061162,155,,evan-feature22,full_pf_b,,0
129,23406,156,,,,1,1,1.0,1.0,0.0,1.0,,0.0-158.0,,1.0,932.685,1.0,0.726754564,1.0,0.75,1.0,0.5129306370000001,0.0,0.530592445,False,,5e931494e2bcb364d069bc8a,,2071875,156,,evan-feature22,full_pf_b,,0
130,23407,157,,,,1,1,1.0,1.0,-1.0,0.0,,0.0-159.0,,-1.0,1510.575,1.0,0.75,1.0,0.7392590729999999,1.0,0.479875835,0.0,0.547007051,False,,5e931494e2bcb364d069bc8a,,2083162,157,,evan-feature22,full_pf_b,,0
131,23408,158,,,,2,2,1.0,1.0,-1.0,0.0,,0.0-160.0,,-1.0,2051.495,1.0,0.75,1.0,0.7393376979999999,1.0,0.546045419,1.0,0.541267353,False,,5e931494e2bcb364d069bc8a,,2094997,158,,evan-feature22,full_pf_b,,1
132,23409,159,,,,2,2,1.0,1.0,-1.0,0.0,,0.0-161.0,,-1.0,1156.8,0.0,0.75,1.0,0.75,1.0,0.485725895,1.0,0.527625395,False,,5e931494e2bcb364d069bc8a,,2105933,159,,evan-feature22,full_pf_b,,0
133,23410,160,,,,1,1,1.0,1.0,0.0,1.0,,0.0-162.0,,1.0,2039.175,1.0,0.75,1.0,0.725087974,1.0,0.488603595,0.0,0.504019206,False,,5e931494e2bcb364d069bc8a,,2117753,160,,evan-feature22,full_pf_b,,1
134,23411,161,,,,1,1,1.0,1.0,0.0,1.0,,0.0-163.0,,1.0,1162.945,1.0,0.745504295,1.0,0.75,0.0,0.452379914,1.0,0.50131194,False,,5e931494e2bcb364d069bc8a,,2128700,161,,evan-feature22,full_pf_b,,0
135,23412,162,,,,1,1,1.0,1.0,0.0,1.0,,0.0-164.0,,1.0,1191.355,1.0,0.728513874,1.0,0.75,1.0,0.44125567200000004,1.0,0.531454591,False,,5e931494e2bcb364d069bc8a,,2139673,162,,evan-feature22,full_pf_b,,0
136,23413,163,,,,1,1,1.0,0.0,-1.0,0.0,,0.0-165.0,,-1.0,1507.05,1.0,0.73790804,0.0,0.75,1.0,0.413036656,0.0,0.524619035,False,,5e931494e2bcb364d069bc8a,,2150953,163,,evan-feature22,full_pf_b,,0
137,23414,164,,,,2,2,0.0,1.0,0.0,1.0,,0.0-166.0,,1.0,982.6,1.0,0.7080961309999999,1.0,0.708666865,0.0,0.431915581,1.0,0.481819489,False,,5e931494e2bcb364d069bc8a,,2161714,164,,evan-feature22,full_pf_b,,1
138,23415,165,,,,2,2,0.0,1.0,0.0,1.0,,0.0-167.0,,1.0,1262.26,1.0,0.721378003,1.0,0.71605913,0.0,0.36642387,1.0,0.5036739929999999,False,,5e931494e2bcb364d069bc8a,,2172752,165,,evan-feature22,full_pf_b,,0
139,23416,166,,,,1,1,1.0,1.0,0.0,1.0,,0.0-168.0,,1.0,1246.245,1.0,0.7340618959999999,1.0,0.699323252,0.0,0.35298046299999997,0.0,0.511241692,False,,5e931494e2bcb364d069bc8a,,2183775,166,,evan-feature22,full_pf_b,,1
140,23417,167,,,,2,2,0.0,0.0,-1.0,0.0,,0.0-169.0,,0.0,1392.19,1.0,0.75,1.0,0.70412698,0.0,0.380734814,0.0,0.529580116,False,,5e931494e2bcb364d069bc8a,,2194954,167,,evan-feature22,full_pf_b,,1
141,23418,168,,,,1,1,1.0,1.0,0.0,1.0,,0.0-170.0,,1.0,1332.13,1.0,0.7436654909999999,1.0,0.711182751,0.0,0.41125331,1.0,0.49554405,False,,5e931494e2bcb364d069bc8a,,2206067,168,,evan-feature22,full_pf_b,,1
142,23419,169,,,,1,1,0.0,0.0,0.0,1.0,,0.0-171.0,,0.0,1412.815,0.0,0.731607915,0.0,0.651774583,0.0,0.35688023,0.0,0.45194491600000003,False,,5e931494e2bcb364d069bc8a,,2217261,169,,evan-feature22,full_pf_b,,0
143,23420,170,,,,2,2,0.0,1.0,-1.0,0.0,,0.0-172.0,,0.0,1139.49,1.0,0.75,1.0,0.75,0.0,0.283145374,1.0,0.528608005,False,,5e931494e2bcb364d069bc8a,,2228181,170,,evan-feature22,full_pf_b,,1
144,23421,171,,,,2,2,0.0,1.0,-1.0,0.0,,0.0-173.0,,0.0,1000.915,1.0,0.7491416890000001,1.0,0.7423785959999999,0.0,0.29135870399999997,1.0,0.498888318,False,,5e931494e2bcb364d069bc8a,,2238963,171,,evan-feature22,full_pf_b,,0
145,23422,172,,,,2,2,0.0,0.0,-1.0,0.0,,0.0-174.0,,0.0,1173.855,1.0,0.708569387,0.0,0.717682277,0.0,0.294421699,0.0,0.493838163,False,,5e931494e2bcb364d069bc8a,,2249908,172,,evan-feature22,full_pf_b,,0
146,23423,173,,,,1,1,1.0,1.0,0.0,1.0,,0.0-175.0,,1.0,1689.09,1.0,0.75,1.0,0.7383382159999999,0.0,0.356098707,1.0,0.442533405,False,,5e931494e2bcb364d069bc8a,,2261372,173,,evan-feature22,full_pf_b,,1
147,23424,174,,,,1,1,1.0,1.0,0.0,1.0,,0.0-176.0,,1.0,1263.3,1.0,0.744527075,1.0,0.75,0.0,0.334127506,0.0,0.393165805,False,,5e931494e2bcb364d069bc8a,,2272409,174,,evan-feature22,full_pf_b,,0
148,23425,175,,,,1,1,0.0,1.0,0.0,1.0,,0.0-177.0,,1.0,1128.66,0.0,0.75,1.0,0.75,0.0,0.33571021799999995,0.0,0.350393962,False,,5e931494e2bcb364d069bc8a,,2283314,175,,evan-feature22,full_pf_b,,0
149,23426,176,,,,2,2,1.0,0.0,0.0,1.0,,0.0-178.0,,0.0,2177.755,1.0,0.75,0.0,0.75,1.0,0.313628297,0.0,0.36349657399999996,False,,5e931494e2bcb364d069bc8a,,2295268,176,,evan-feature22,full_pf_b,,1
150,23427,177,,,,2,2,0.0,0.0,-1.0,0.0,,0.0-179.0,,0.0,1551.87,1.0,0.75,0.0,0.734284182,0.0,0.262667667,0.0,0.380199119,False,,5e931494e2bcb364d069bc8a,,2306598,177,,evan-feature22,full_pf_b,,0
151,23428,178,,,,1,1,1.0,0.0,0.0,1.0,,0.0-180.0,,0.0,1240.95,1.0,0.75,0.0,0.75,1.0,0.25,1.0,0.394494013,False,,5e931494e2bcb364d069bc8a,,2317624,178,,evan-feature22,full_pf_b,,1
152,23429,179,,,,2,2,0.0,0.0,-1.0,0.0,,0.0-181.0,,0.0,1358.935,0.0,0.722298145,1.0,0.7357822340000001,0.0,0.25,0.0,0.319142121,False,,5e931494e2bcb364d069bc8a,,2328762,179,,evan-feature22,full_pf_b,,1
153,23430,180,,,,2,2,0.0,0.0,-1.0,0.0,,0.0-182.0,,0.0,1526.22,1.0,0.73149275,1.0,0.724276446,0.0,0.305856907,0.0,0.281315057,False,,5e931494e2bcb364d069bc8a,,2340078,180,,evan-feature22,full_pf_b,,0
154,23431,181,,,,1,1,1.0,1.0,0.0,1.0,,0.0-183.0,,1.0,904.98,1.0,0.7458732690000001,1.0,0.7336382459999999,0.0,0.272571964,0.0,0.266021999,False,,5e931494e2bcb364d069bc8a,,2350767,181,,evan-feature22,full_pf_b,,1
155,23432,182,,,,1,1,1.0,1.0,0.0,1.0,,0.0-184.0,,1.0,1046.335,1.0,0.705579037,1.0,0.720778292,0.0,0.320238144,0.0,0.30971744,False,,5e931494e2bcb364d069bc8a,,2361597,182,,evan-feature22,full_pf_b,,0
156,23433,183,,,,1,1,0.0,1.0,0.0,1.0,,0.0-185.0,,1.0,2692.995,0.0,0.700425648,1.0,0.7198784009999999,1.0,0.272590393,0.0,0.304182931,False,,5e931494e2bcb364d069bc8a,,2374075,183,,evan-feature22,full_pf_b,,0
157,23434,184,,,,1,1,1.0,1.0,0.0,1.0,,0.0-186.0,,1.0,1422.19,1.0,0.735590785,1.0,0.722714973,0.0,0.25,1.0,0.323421091,False,,5e931494e2bcb364d069bc8a,,2385270,184,,evan-feature22,full_pf_b,,0
158,23435,185,,,,1,1,1.0,1.0,0.0,1.0,,0.0-187.0,,1.0,1425.36,1.0,0.724807662,1.0,0.63146213,0.0,0.36836492600000004,0.0,0.34592153299999995,False,,5e931494e2bcb364d069bc8a,,2396479,185,,evan-feature22,full_pf_b,,0
159,23436,186,,,,1,1,1.0,0.0,0.0,1.0,,0.0-188.0,,0.0,1287.43,1.0,0.7352796909999999,0.0,0.555111392,1.0,0.36003922,0.0,0.31433779999999995,False,,5e931494e2bcb364d069bc8a,,2407549,186,,evan-feature22,full_pf_b,,0
160,23437,187,notice,,,,,,,,,,0.0-189.0,"{""Q0"":""The aliens seemed more predictable""}",,18765.0,,,,,,,,,False,,5e931494e2bcb364d069bc8a,,2426316,187,Q,survey-text,full_pf_b,,1
161,23438,188,track1,,[1],,,,,,,,0.0-190.0,"{""Q0"":""no""}",,3362.0,,,,,,,,,False,,5e931494e2bcb364d069bc8a,,2429681,188,Q,evan-quiz,full_pf_b,,1
162,23439,189,track2,,[1],,,,,,,,0.0-191.0,"{""Q0"":""no""}",,7200.0,,,,,,,,,False,,5e931494e2bcb364d069bc8a,,2436887,189,Q,evan-quiz,full_pf_b,,1
163,23440,190,strat,,,,,,,,,,0.0-192.0,"{""Q0"":""Try to remember the past few aliens through each door""}",,19271.0,,,,,,,,,False,,5e931494e2bcb364d069bc8a,,2456164,190,Q,survey-text,full_pf_b,,1
