,index,Unnamed: 0,Q_name,button_pressed,choice_idxs,chosen_pos,chosen_state,chosen_state_f_1_outcome,chosen_state_f_2_outcome,f_1_reward,f_2_reward,incor_questions,internal_node_id,responses,reward_received,rt,s_1_f_1_outcome,s_1_f_1_prob,s_1_f_2_outcome,s_1_f_2_prob,s_2_f_1_outcome,s_2_f_1_prob,s_2_f_2_outcome,s_2_f_2_prob,safe_first,stimulus,subjectID,success,time_elapsed,trial_index,trial_num,trial_type,version,view_history,switching
0,13416,25,,,,1,1,1.0,0.0,0.0,1.0,,0.0-27.0,,0.0,1047.185,1.0,0.6,0.0,0.6,0.0,0.4,0.0,0.4,True,,5f0c5aa0fc8e5a5afdc94761,,591325,25,,evan-feature22,full_rf_b,,0
1,13417,26,,,,1,1,0.0,0.0,0.0,1.0,,0.0-28.0,,0.0,699.255,0.0,0.608053294,0.0,0.63424552,1.0,0.397152172,0.0,0.347069101,True,,5f0c5aa0fc8e5a5afdc94761,,601805,26,,evan-feature22,full_rf_b,,0
2,13418,27,,,,2,2,1.0,0.0,0.0,1.0,,0.0-29.0,,0.0,782.28,0.0,0.642237155,1.0,0.648566321,1.0,0.389407674,0.0,0.285525717,True,,5f0c5aa0fc8e5a5afdc94761,,612367,27,,evan-feature22,full_rf_b,,1
3,13419,28,,,,2,2,0.0,1.0,0.0,1.0,,0.0-30.0,,1.0,329.155,1.0,0.661086576,1.0,0.630492543,0.0,0.399058924,1.0,0.25,True,,5f0c5aa0fc8e5a5afdc94761,,622474,28,,evan-feature22,full_rf_b,,0
4,13420,29,,,,1,1,0.0,0.0,0.0,1.0,,0.0-31.0,,0.0,2054.005,0.0,0.631324137,0.0,0.6269842929999999,0.0,0.38734784299999997,1.0,0.25,True,,5f0c5aa0fc8e5a5afdc94761,,634311,29,,evan-feature22,full_rf_b,,1
5,13421,30,,,,2,2,0.0,0.0,0.0,1.0,,0.0-32.0,,0.0,2751.995,1.0,0.6381991370000001,0.0,0.68987999,0.0,0.384107265,0.0,0.271332943,True,,5f0c5aa0fc8e5a5afdc94761,,646843,30,,evan-feature22,full_rf_b,,1
6,13422,31,,,,2,2,1.0,0.0,0.0,1.0,,0.0-33.0,,0.0,1572.43,1.0,0.66034901,0.0,0.742641349,1.0,0.360225629,0.0,0.25,True,,5f0c5aa0fc8e5a5afdc94761,,658199,31,,evan-feature22,full_rf_b,,0
7,13423,32,,,,2,2,1.0,0.0,-1.0,0.0,,0.0-34.0,,-1.0,2798.14,1.0,0.638612418,1.0,0.75,1.0,0.367273939,0.0,0.25,True,,5f0c5aa0fc8e5a5afdc94761,,670785,32,,evan-feature22,full_rf_b,,0
8,13424,33,,,,1,1,0.0,1.0,0.0,1.0,,0.0-35.0,,1.0,2335.76,0.0,0.624340629,1.0,0.75,1.0,0.425829545,0.0,0.25,True,,5f0c5aa0fc8e5a5afdc94761,,682905,33,,evan-feature22,full_rf_b,,1
9,13425,34,,,,1,1,1.0,1.0,0.0,1.0,,0.0-36.0,,1.0,900.53,1.0,0.621999804,1.0,0.75,0.0,0.368609357,0.0,0.25,True,,5f0c5aa0fc8e5a5afdc94761,,693591,34,,evan-feature22,full_rf_b,,0
10,13426,35,,,,2,2,0.0,0.0,-1.0,0.0,,0.0-37.0,,0.0,1805.56,1.0,0.62666403,1.0,0.75,0.0,0.311151498,0.0,0.25,True,,5f0c5aa0fc8e5a5afdc94761,,705172,35,,evan-feature22,full_rf_b,,1
11,13427,36,,,,2,2,1.0,0.0,-1.0,0.0,,0.0-38.0,,-1.0,2070.975,0.0,0.6819650009999999,1.0,0.75,1.0,0.310763048,0.0,0.25,True,,5f0c5aa0fc8e5a5afdc94761,,717026,36,,evan-feature22,full_rf_b,,0
12,13428,37,,,,1,1,1.0,0.0,0.0,1.0,,0.0-39.0,,0.0,1250.315,1.0,0.740626951,0.0,0.75,0.0,0.25,0.0,0.25,True,,5f0c5aa0fc8e5a5afdc94761,,728054,37,,evan-feature22,full_rf_b,,1
13,13429,38,,,,1,1,1.0,1.0,0.0,1.0,,0.0-40.0,,1.0,350.0150001,1.0,0.739599242,1.0,0.742034978,0.0,0.25397114600000004,1.0,0.25,True,,5f0c5aa0fc8e5a5afdc94761,,738192,38,,evan-feature22,full_rf_b,,0
14,13430,39,,,,1,1,0.0,0.0,0.0,1.0,,0.0-41.0,,0.0,590.475,0.0,0.732341315,0.0,0.72735643,0.0,0.25,1.0,0.25,True,,5f0c5aa0fc8e5a5afdc94761,,748563,39,,evan-feature22,full_rf_b,,0
15,13431,40,,,,1,1,1.0,1.0,0.0,1.0,,0.0-42.0,,1.0,1416.33,1.0,0.7062287770000001,1.0,0.75,0.0,0.29002151,0.0,0.288256649,True,,5f0c5aa0fc8e5a5afdc94761,,759758,40,,evan-feature22,full_rf_b,,0
16,13432,41,,,,1,1,1.0,1.0,-1.0,0.0,,0.0-43.0,,-1.0,660.255,1.0,0.7086029209999999,1.0,0.75,0.0,0.274129113,0.0,0.262851608,True,,5f0c5aa0fc8e5a5afdc94761,,770202,41,,evan-feature22,full_rf_b,,0
17,13433,42,,,,1,1,0.0,1.0,0.0,1.0,,0.0-44.0,,1.0,1464.985,0.0,0.669189651,1.0,0.727614338,1.0,0.298444036,1.0,0.296944518,True,,5f0c5aa0fc8e5a5afdc94761,,781448,42,,evan-feature22,full_rf_b,,0
18,13434,43,,,,2,2,1.0,1.0,-1.0,0.0,,0.0-45.0,,-1.0,2210.33,1.0,0.6819912929999999,0.0,0.7179434290000001,1.0,0.265003961,1.0,0.28157921199999997,True,,5f0c5aa0fc8e5a5afdc94761,,793441,43,,evan-feature22,full_rf_b,,1
19,13435,44,,,,2,2,0.0,0.0,-1.0,0.0,,0.0-46.0,,0.0,2344.83,1.0,0.665275002,0.0,0.723065271,0.0,0.260414971,0.0,0.30973870000000003,True,,5f0c5aa0fc8e5a5afdc94761,,805570,44,,evan-feature22,full_rf_b,,0
20,13436,45,,,,1,1,0.0,1.0,0.0,1.0,,0.0-47.0,,1.0,1462.97,0.0,0.6660593260000001,1.0,0.728032907,0.0,0.30922817,0.0,0.338778608,True,,5f0c5aa0fc8e5a5afdc94761,,816809,45,,evan-feature22,full_rf_b,,1
21,13437,46,,,,1,1,0.0,0.0,0.0,1.0,,0.0-48.0,,0.0,918.8100001,0.0,0.702068785,0.0,0.6528750879999999,0.0,0.287329608,0.0,0.35789613200000003,True,,5f0c5aa0fc8e5a5afdc94761,,827509,46,,evan-feature22,full_rf_b,,0
22,13438,47,,,,1,1,0.0,1.0,0.0,1.0,,0.0-49.0,,1.0,619.555,0.0,0.651939787,1.0,0.636725589,0.0,0.284834488,0.0,0.358563756,True,,5f0c5aa0fc8e5a5afdc94761,,837901,47,,evan-feature22,full_rf_b,,0
23,13439,48,,,,1,1,1.0,0.0,0.0,1.0,,0.0-50.0,,0.0,778.5,1.0,0.67573929,0.0,0.612550049,0.0,0.37130387600000003,1.0,0.383542402,True,,5f0c5aa0fc8e5a5afdc94761,,848468,48,,evan-feature22,full_rf_b,,0
24,13440,49,,,,1,1,1.0,1.0,0.0,1.0,,0.0-51.0,,1.0,1170.985,1.0,0.620753801,1.0,0.60513644,1.0,0.385529434,1.0,0.340361743,True,,5f0c5aa0fc8e5a5afdc94761,,859423,49,,evan-feature22,full_rf_b,,0
25,13441,50,,,,1,1,1.0,1.0,-1.0,0.0,,0.0-52.0,,-1.0,2810.065,1.0,0.673564893,1.0,0.672437924,0.0,0.292955382,0.0,0.337633795,True,,5f0c5aa0fc8e5a5afdc94761,,872022,50,,evan-feature22,full_rf_b,,0
26,13442,51,,,,1,1,1.0,0.0,0.0,1.0,,0.0-53.0,,0.0,1371.305,1.0,0.6749427,0.0,0.724197502,0.0,0.32391132100000003,1.0,0.350995264,True,,5f0c5aa0fc8e5a5afdc94761,,883178,51,,evan-feature22,full_rf_b,,0
27,13443,52,,,,2,2,0.0,0.0,0.0,1.0,,0.0-54.0,,0.0,863.255,1.0,0.6940159379999999,0.0,0.75,0.0,0.31710554399999996,0.0,0.413450341,True,,5f0c5aa0fc8e5a5afdc94761,,893816,52,,evan-feature22,full_rf_b,,1
28,13444,53,,,,2,2,0.0,0.0,0.0,1.0,,0.0-55.0,,0.0,671.785,1.0,0.6916018270000001,1.0,0.69001187,0.0,0.261817804,0.0,0.40038635,True,,5f0c5aa0fc8e5a5afdc94761,,904266,53,,evan-feature22,full_rf_b,,0
29,13445,54,,,,2,2,0.0,1.0,0.0,1.0,,0.0-56.0,,1.0,833.77,0.0,0.641061544,1.0,0.71337992,0.0,0.277296461,1.0,0.47372791700000005,True,,5f0c5aa0fc8e5a5afdc94761,,914876,54,,evan-feature22,full_rf_b,,0
30,13446,55,,,,2,2,0.0,0.0,0.0,1.0,,0.0-57.0,,0.0,671.095,1.0,0.6082438520000001,0.0,0.708471106,0.0,0.28745137,0.0,0.564174476,True,,5f0c5aa0fc8e5a5afdc94761,,925325,55,,evan-feature22,full_rf_b,,0
31,13447,56,,,,2,2,0.0,0.0,-1.0,0.0,,0.0-58.0,,0.0,2274.59,1.0,0.6051112120000001,1.0,0.7118147229999999,0.0,0.272390611,0.0,0.5595149939999999,True,,5f0c5aa0fc8e5a5afdc94761,,937386,56,,evan-feature22,full_rf_b,,0
32,13448,57,,,,2,2,1.0,0.0,-1.0,0.0,,0.0-59.0,,-1.0,1421.445,1.0,0.582420852,1.0,0.635867583,1.0,0.31089574,0.0,0.5227206520000001,True,,5f0c5aa0fc8e5a5afdc94761,,948592,57,,evan-feature22,full_rf_b,,0
33,13449,58,,,,2,2,0.0,1.0,-1.0,0.0,,0.0-60.0,,0.0,1686.87,1.0,0.623195575,0.0,0.655026044,0.0,0.25,1.0,0.560387538,True,,5f0c5aa0fc8e5a5afdc94761,,960063,58,,evan-feature22,full_rf_b,,0
34,13450,59,,,,2,2,0.0,1.0,0.0,1.0,,0.0-61.0,,1.0,2139.245,0.0,0.601889598,0.0,0.678198724,0.0,0.25,1.0,0.559922936,True,,5f0c5aa0fc8e5a5afdc94761,,971984,59,,evan-feature22,full_rf_b,,0
35,13451,60,,,,2,2,0.0,0.0,-1.0,0.0,,0.0-62.0,,0.0,2068.63,1.0,0.601259914,1.0,0.704681482,0.0,0.33908969299999997,0.0,0.505003715,True,,5f0c5aa0fc8e5a5afdc94761,,983835,60,,evan-feature22,full_rf_b,,0
36,13452,61,,,,2,2,1.0,0.0,-1.0,0.0,,0.0-63.0,,-1.0,1219.005,1.0,0.59645454,1.0,0.710437172,1.0,0.327441879,0.0,0.391749613,True,,5f0c5aa0fc8e5a5afdc94761,,994835,61,,evan-feature22,full_rf_b,,0
37,13453,62,,,,2,2,0.0,1.0,0.0,1.0,,0.0-64.0,,1.0,1474.04,1.0,0.529473,1.0,0.636758527,0.0,0.301338063,1.0,0.365661481,True,,5f0c5aa0fc8e5a5afdc94761,,1006094,62,,evan-feature22,full_rf_b,,0
38,13454,63,,,,2,2,1.0,1.0,-1.0,0.0,,0.0-65.0,,-1.0,2081.355,1.0,0.541657162,0.0,0.634541962,1.0,0.343535366,1.0,0.371763742,True,,5f0c5aa0fc8e5a5afdc94761,,1017956,63,,evan-feature22,full_rf_b,,0
39,13455,64,,,,2,2,1.0,1.0,-1.0,0.0,,0.0-66.0,,-1.0,1080.065,0.0,0.5707533260000001,1.0,0.589121171,1.0,0.326428396,1.0,0.43961622899999997,True,,5f0c5aa0fc8e5a5afdc94761,,1028820,64,,evan-feature22,full_rf_b,,0
40,13456,65,,,,2,2,1.0,1.0,0.0,1.0,,0.0-67.0,,1.0,2631.665,0.0,0.5707533260000001,1.0,0.589121171,1.0,0.326428396,1.0,0.43961622899999997,True,,5f0c5aa0fc8e5a5afdc94761,,1041242,65,,evan-feature22,full_rf_b,,0
41,13457,66,,,,2,2,0.0,0.0,0.0,1.0,,0.0-68.0,,0.0,1191.01,1.0,0.506271295,1.0,0.641775594,0.0,0.37149690700000004,0.0,0.404330166,True,,5f0c5aa0fc8e5a5afdc94761,,1052214,66,,evan-feature22,full_rf_b,,0
42,13458,67,,,,1,1,0.0,1.0,-1.0,0.0,,0.0-69.0,,0.0,1085.56,0.0,0.455642565,1.0,0.623605825,0.0,0.358753011,0.0,0.346174041,True,,5f0c5aa0fc8e5a5afdc94761,,1063079,67,,evan-feature22,full_rf_b,,1
43,13459,68,,,,1,1,0.0,0.0,0.0,1.0,,0.0-70.0,,0.0,706.84,0.0,0.483677308,0.0,0.5904681070000001,0.0,0.402218411,1.0,0.35344697,True,,5f0c5aa0fc8e5a5afdc94761,,1073566,68,,evan-feature22,full_rf_b,,0
44,13460,69,,,,1,1,1.0,1.0,-1.0,0.0,,0.0-71.0,,-1.0,1228.135,1.0,0.394210977,1.0,0.558925494,1.0,0.540052017,0.0,0.35182128700000004,True,,5f0c5aa0fc8e5a5afdc94761,,1084576,69,,evan-feature22,full_rf_b,,0
45,13461,70,,,,2,2,1.0,0.0,0.0,1.0,,0.0-72.0,,0.0,2281.57,0.0,0.382300414,1.0,0.577670603,1.0,0.607608448,0.0,0.378261578,True,,5f0c5aa0fc8e5a5afdc94761,,1096637,70,,evan-feature22,full_rf_b,,1
46,13462,71,,,,2,2,1.0,0.0,-1.0,0.0,,0.0-73.0,,-1.0,3204.0,1.0,0.357596762,1.0,0.5929076529999999,1.0,0.6579790010000001,0.0,0.401326777,True,,5f0c5aa0fc8e5a5afdc94761,,1109617,71,,evan-feature22,full_rf_b,,0
47,13463,72,,,,1,1,0.0,1.0,0.0,1.0,,0.0-74.0,,1.0,1951.825,0.0,0.362033495,1.0,0.582308608,0.0,0.649195052,0.0,0.355158505,True,,5f0c5aa0fc8e5a5afdc94761,,1121340,72,,evan-feature22,full_rf_b,,1
48,13464,73,,,,1,1,0.0,1.0,0.0,1.0,,0.0-75.0,,1.0,1244.985,0.0,0.369620635,1.0,0.669100864,1.0,0.706059111,1.0,0.362516241,True,,5f0c5aa0fc8e5a5afdc94761,,1132362,73,,evan-feature22,full_rf_b,,0
49,13465,74,,,,1,1,1.0,1.0,0.0,1.0,,0.0-76.0,,1.0,1037.925,1.0,0.41477751399999996,1.0,0.7284416779999999,0.0,0.7182656940000001,1.0,0.36228040899999997,True,,5f0c5aa0fc8e5a5afdc94761,,1143169,74,,evan-feature22,full_rf_b,,0
50,13466,75,,,,2,2,1.0,0.0,-1.0,0.0,,0.0-77.0,,-1.0,2702.78,1.0,0.37675460299999997,1.0,0.703250285,1.0,0.75,0.0,0.461979164,True,,5f0c5aa0fc8e5a5afdc94761,,1155652,75,,evan-feature22,full_rf_b,,1
51,13467,76,,,,2,2,1.0,0.0,-1.0,0.0,,0.0-78.0,,-1.0,1346.045,0.0,0.398716075,1.0,0.6723864890000001,1.0,0.674153818,0.0,0.519029516,True,,5f0c5aa0fc8e5a5afdc94761,,1166779,76,,evan-feature22,full_rf_b,,0
52,13468,77,,,,1,1,1.0,0.0,-1.0,0.0,,0.0-79.0,,-1.0,1699.1,1.0,0.34677856700000004,0.0,0.69057175,0.0,0.6822438540000001,0.0,0.477292237,True,,5f0c5aa0fc8e5a5afdc94761,,1178261,77,,evan-feature22,full_rf_b,,1
53,13469,78,,,,1,1,0.0,1.0,0.0,1.0,,0.0-80.0,,1.0,1352.53,0.0,0.28580469199999997,1.0,0.68408818,0.0,0.684207565,1.0,0.49780448299999996,True,,5f0c5aa0fc8e5a5afdc94761,,1189391,78,,evan-feature22,full_rf_b,,0
54,13471,80,,,,1,1,0.0,1.0,0.0,1.0,,0.0-82.0,,1.0,1324.15,0.0,0.25,1.0,0.7405808970000001,1.0,0.679614108,1.0,0.436436964,True,,5f0c5aa0fc8e5a5afdc94761,,1204770,80,,evan-feature22,full_rf_b,,0
55,13472,81,,,,1,1,0.0,1.0,0.0,1.0,,0.0-83.0,,1.0,987.1200001,0.0,0.29890393,1.0,0.730505706,0.0,0.7328203320000001,1.0,0.439256938,True,,5f0c5aa0fc8e5a5afdc94761,,1215532,81,,evan-feature22,full_rf_b,,0
56,13473,82,,,,1,1,1.0,1.0,-1.0,0.0,,0.0-84.0,,-1.0,1528.5,1.0,0.326762398,1.0,0.7148059609999999,0.0,0.75,1.0,0.44389608799999997,True,,5f0c5aa0fc8e5a5afdc94761,,1226847,82,,evan-feature22,full_rf_b,,0
57,13474,83,,,,1,1,0.0,1.0,0.0,1.0,,0.0-85.0,,1.0,1285.515,0.0,0.295168515,1.0,0.739760854,1.0,0.719947008,1.0,0.35277284600000003,True,,5f0c5aa0fc8e5a5afdc94761,,1237915,83,,evan-feature22,full_rf_b,,0
58,13475,84,,,,1,1,0.0,1.0,0.0,1.0,,0.0-86.0,,1.0,1080.995,0.0,0.25,1.0,0.70781482,0.0,0.75,1.0,0.286095925,True,,5f0c5aa0fc8e5a5afdc94761,,1248780,84,,evan-feature22,full_rf_b,,0
59,13476,85,,,,1,1,1.0,1.0,0.0,1.0,,0.0-87.0,,1.0,1022.065,1.0,0.25638190899999996,1.0,0.704088163,1.0,0.75,0.0,0.26872601399999996,True,,5f0c5aa0fc8e5a5afdc94761,,1259576,85,,evan-feature22,full_rf_b,,0
60,13477,86,,,,2,2,1.0,1.0,-1.0,0.0,,0.0-88.0,,-1.0,2523.915,0.0,0.271581126,1.0,0.669760107,1.0,0.733896663,1.0,0.273244572,True,,5f0c5aa0fc8e5a5afdc94761,,1271884,86,,evan-feature22,full_rf_b,,1
61,13478,87,,,,1,1,0.0,1.0,0.0,1.0,,0.0-89.0,,1.0,765.15,0.0,0.257144401,1.0,0.600575706,1.0,0.74488122,0.0,0.25,True,,5f0c5aa0fc8e5a5afdc94761,,1282433,87,,evan-feature22,full_rf_b,,1
62,13479,88,,,,1,1,0.0,1.0,0.0,1.0,,0.0-90.0,,1.0,825.965,0.0,0.25,1.0,0.616870026,1.0,0.723610234,0.0,0.25,True,,5f0c5aa0fc8e5a5afdc94761,,1293043,88,,evan-feature22,full_rf_b,,0
63,13480,89,,,,1,1,1.0,1.0,-1.0,0.0,,0.0-91.0,,-1.0,1127.475,1.0,0.25,1.0,0.583540187,1.0,0.7041042559999999,0.0,0.285961995,True,,5f0c5aa0fc8e5a5afdc94761,,1303946,89,,evan-feature22,full_rf_b,,0
64,13481,90,,,,1,1,0.0,0.0,-1.0,0.0,,0.0-92.0,,0.0,928.615,0.0,0.27254536,0.0,0.53875765,1.0,0.693783448,0.0,0.284961652,True,,5f0c5aa0fc8e5a5afdc94761,,1314659,90,,evan-feature22,full_rf_b,,0
65,13482,91,,,,1,1,0.0,0.0,-1.0,0.0,,0.0-93.0,,0.0,1006.34,0.0,0.25,0.0,0.548431252,1.0,0.734221895,0.0,0.279445214,True,,5f0c5aa0fc8e5a5afdc94761,,1325444,91,,evan-feature22,full_rf_b,,0
66,13483,92,,,,1,1,0.0,1.0,0.0,1.0,,0.0-94.0,,1.0,1316.635,0.0,0.258640684,1.0,0.545878066,1.0,0.725245965,0.0,0.31487537,True,,5f0c5aa0fc8e5a5afdc94761,,1336539,92,,evan-feature22,full_rf_b,,0
67,13484,93,,,,1,1,1.0,0.0,0.0,1.0,,0.0-95.0,,0.0,718.3950001000001,1.0,0.251103711,0.0,0.5776290629999999,1.0,0.696320133,0.0,0.317831047,True,,5f0c5aa0fc8e5a5afdc94761,,1347044,93,,evan-feature22,full_rf_b,,0
68,13485,94,,,,1,1,1.0,0.0,0.0,1.0,,0.0-96.0,,0.0,860.845,1.0,0.276630292,0.0,0.617329858,1.0,0.73838088,0.0,0.261471582,True,,5f0c5aa0fc8e5a5afdc94761,,1357681,94,,evan-feature22,full_rf_b,,0
69,13486,95,,,,1,1,1.0,1.0,0.0,1.0,,0.0-97.0,,1.0,694.61,1.0,0.297716424,1.0,0.618863717,0.0,0.7402358259999999,0.0,0.262600834,True,,5f0c5aa0fc8e5a5afdc94761,,1368164,95,,evan-feature22,full_rf_b,,0
70,13487,96,,,,2,2,1.0,0.0,-1.0,0.0,,0.0-98.0,,-1.0,780.21,0.0,0.290935512,0.0,0.695370945,1.0,0.706570507,0.0,0.280030553,True,,5f0c5aa0fc8e5a5afdc94761,,1378727,96,,evan-feature22,full_rf_b,,1
71,13488,97,,,,1,1,0.0,1.0,0.0,1.0,,0.0-99.0,,1.0,896.28,0.0,0.25,1.0,0.6465277079999999,0.0,0.67766682,0.0,0.25,True,,5f0c5aa0fc8e5a5afdc94761,,1389408,97,,evan-feature22,full_rf_b,,1
72,13489,98,,,,1,1,0.0,0.0,-1.0,0.0,,0.0-100.0,,0.0,2222.08,0.0,0.26463816,0.0,0.636100213,1.0,0.646048507,1.0,0.265607101,True,,5f0c5aa0fc8e5a5afdc94761,,1401412,98,,evan-feature22,full_rf_b,,0
73,13490,99,,,,1,1,0.0,0.0,-1.0,0.0,,0.0-101.0,,0.0,1202.395,0.0,0.314340707,0.0,0.667795927,0.0,0.613630805,0.0,0.25,True,,5f0c5aa0fc8e5a5afdc94761,,1412401,99,,evan-feature22,full_rf_b,,0
74,13491,100,,,,1,1,0.0,1.0,0.0,1.0,,0.0-102.0,,1.0,765.08,0.0,0.28685784,1.0,0.6622549529999999,1.0,0.652154117,1.0,0.25,True,,5f0c5aa0fc8e5a5afdc94761,,1422940,100,,evan-feature22,full_rf_b,,0
75,13492,101,,,,1,1,0.0,1.0,0.0,1.0,,0.0-103.0,,1.0,1106.04,0.0,0.304106554,1.0,0.631289538,1.0,0.707041942,0.0,0.29314237,True,,5f0c5aa0fc8e5a5afdc94761,,1433818,101,,evan-feature22,full_rf_b,,0
76,13493,102,,,,1,1,1.0,1.0,0.0,1.0,,0.0-104.0,,1.0,834.9200001,1.0,0.304806932,1.0,0.571167718,1.0,0.680472346,0.0,0.25,True,,5f0c5aa0fc8e5a5afdc94761,,1444435,102,,evan-feature22,full_rf_b,,0
77,13494,103,,,,1,1,0.0,1.0,0.0,1.0,,0.0-105.0,,1.0,1160.61,0.0,0.37919861,1.0,0.5724849710000001,1.0,0.705638003,1.0,0.30179300600000003,True,,5f0c5aa0fc8e5a5afdc94761,,1455378,103,,evan-feature22,full_rf_b,,0
78,13495,104,,,,1,1,0.0,0.0,0.0,1.0,,0.0-106.0,,0.0,779.1299999,0.0,0.464277969,0.0,0.554034373,1.0,0.7372627340000001,0.0,0.264699741,True,,5f0c5aa0fc8e5a5afdc94761,,1465943,104,,evan-feature22,full_rf_b,,0
79,13496,105,,,,1,1,0.0,1.0,0.0,1.0,,0.0-107.0,,1.0,1493.175,0.0,0.465104323,1.0,0.530793115,0.0,0.75,1.0,0.31683071,True,,5f0c5aa0fc8e5a5afdc94761,,1477216,105,,evan-feature22,full_rf_b,,0
80,13497,106,,,,1,1,0.0,1.0,-1.0,0.0,,0.0-108.0,,0.0,1659.67,0.0,0.465104323,1.0,0.530793115,1.0,0.75,0.0,0.31683071,True,,5f0c5aa0fc8e5a5afdc94761,,1488657,106,,evan-feature22,full_rf_b,,0
81,13498,107,,,,1,1,0.0,1.0,-1.0,0.0,,0.0-109.0,,0.0,592.49,0.0,0.46833986,1.0,0.570249239,0.0,0.7244472590000001,1.0,0.364114163,True,,5f0c5aa0fc8e5a5afdc94761,,1499027,107,,evan-feature22,full_rf_b,,0
82,13499,108,,,,1,1,0.0,1.0,-1.0,0.0,,0.0-110.0,,0.0,664.5150001000001,0.0,0.445444024,1.0,0.649673355,1.0,0.6845441290000001,0.0,0.300660449,True,,5f0c5aa0fc8e5a5afdc94761,,1509473,108,,evan-feature22,full_rf_b,,0
83,13500,109,,,,1,1,0.0,0.0,-1.0,0.0,,0.0-111.0,,0.0,889.86,0.0,0.39909721299999995,0.0,0.6715179509999999,1.0,0.742310028,0.0,0.35496088299999995,True,,5f0c5aa0fc8e5a5afdc94761,,1520145,109,,evan-feature22,full_rf_b,,0
84,13501,110,,,,1,1,0.0,1.0,0.0,1.0,,0.0-112.0,,1.0,648.44,0.0,0.37956104799999996,1.0,0.694725302,0.0,0.7181651309999999,1.0,0.38726906299999997,True,,5f0c5aa0fc8e5a5afdc94761,,1530575,110,,evan-feature22,full_rf_b,,0
85,13502,111,,,,1,1,1.0,0.0,0.0,1.0,,0.0-113.0,,0.0,795.1199999,1.0,0.404995034,0.0,0.724375412,0.0,0.6910946859999999,0.0,0.387187347,True,,5f0c5aa0fc8e5a5afdc94761,,1541148,111,,evan-feature22,full_rf_b,,0
86,13503,112,,,,1,1,1.0,1.0,-1.0,0.0,,0.0-114.0,,-1.0,1181.975,1.0,0.461740803,1.0,0.75,0.0,0.75,0.0,0.34872038200000005,True,,5f0c5aa0fc8e5a5afdc94761,,1552114,112,,evan-feature22,full_rf_b,,0
87,13504,113,,,,1,1,0.0,1.0,-1.0,0.0,,0.0-115.0,,0.0,990.46,0.0,0.43821380600000004,1.0,0.738833273,0.0,0.728286963,1.0,0.399538128,True,,5f0c5aa0fc8e5a5afdc94761,,1562882,113,,evan-feature22,full_rf_b,,0
88,13505,114,,,,1,1,0.0,1.0,0.0,1.0,,0.0-116.0,,1.0,775.2499999,0.0,0.41709882,1.0,0.736666736,1.0,0.75,1.0,0.389095584,True,,5f0c5aa0fc8e5a5afdc94761,,1573436,114,,evan-feature22,full_rf_b,,0
89,13506,115,,,,1,1,1.0,0.0,0.0,1.0,,0.0-117.0,,0.0,834.5100001000001,1.0,0.39749009799999996,0.0,0.744320029,1.0,0.75,1.0,0.363848678,True,,5f0c5aa0fc8e5a5afdc94761,,1584053,115,,evan-feature22,full_rf_b,,0
90,13507,116,,,,1,1,0.0,0.0,-1.0,0.0,,0.0-118.0,,0.0,1204.02,0.0,0.392653706,0.0,0.75,1.0,0.75,1.0,0.384386976,True,,5f0c5aa0fc8e5a5afdc94761,,1595028,116,,evan-feature22,full_rf_b,,0
91,13508,117,,,,1,1,0.0,1.0,0.0,1.0,,0.0-119.0,,1.0,1046.345,0.0,0.31190902600000003,1.0,0.75,0.0,0.732413819,0.0,0.413082932,True,,5f0c5aa0fc8e5a5afdc94761,,1605847,117,,evan-feature22,full_rf_b,,0
92,13509,118,,,,1,1,0.0,1.0,-1.0,0.0,,0.0-120.0,,0.0,820.3,0.0,0.366917648,1.0,0.740073855,1.0,0.75,1.0,0.352861979,True,,5f0c5aa0fc8e5a5afdc94761,,1616441,118,,evan-feature22,full_rf_b,,0
93,13510,119,,,,1,1,0.0,0.0,-1.0,0.0,,0.0-121.0,,0.0,974.085,0.0,0.3645172,0.0,0.721770713,1.0,0.75,0.0,0.404074511,True,,5f0c5aa0fc8e5a5afdc94761,,1627189,119,,evan-feature22,full_rf_b,,0
94,13511,120,,,,1,1,0.0,1.0,-1.0,0.0,,0.0-122.0,,0.0,1360.525,0.0,0.35205600299999995,1.0,0.68983859,1.0,0.739735447,0.0,0.366895945,True,,5f0c5aa0fc8e5a5afdc94761,,1638330,120,,evan-feature22,full_rf_b,,0
95,13512,121,,,,1,1,1.0,1.0,-1.0,0.0,,0.0-123.0,,-1.0,1196.25,1.0,0.40998722600000004,1.0,0.720859127,0.0,0.673854955,1.0,0.368528541,True,,5f0c5aa0fc8e5a5afdc94761,,1649308,121,,evan-feature22,full_rf_b,,0
96,13513,122,,,,1,1,1.0,0.0,-1.0,0.0,,0.0-124.0,,-1.0,1585.28,1.0,0.353625316,0.0,0.75,1.0,0.695605473,1.0,0.38303674200000004,True,,5f0c5aa0fc8e5a5afdc94761,,1660670,122,,evan-feature22,full_rf_b,,0
97,13514,123,,,,1,1,1.0,1.0,-1.0,0.0,,0.0-125.0,,-1.0,583.84,1.0,0.359216989,1.0,0.75,0.0,0.6987915090000001,1.0,0.35169046200000004,True,,5f0c5aa0fc8e5a5afdc94761,,1671038,123,,evan-feature22,full_rf_b,,0
98,13515,124,,,,2,2,1.0,0.0,-1.0,0.0,,0.0-126.0,,-1.0,878.53,0.0,0.35834496899999996,1.0,0.75,1.0,0.707067742,0.0,0.416763636,True,,5f0c5aa0fc8e5a5afdc94761,,1681697,124,,evan-feature22,full_rf_b,,1
99,13516,125,,,,1,1,1.0,0.0,0.0,1.0,,0.0-127.0,,0.0,1169.99,1.0,0.38741613799999997,0.0,0.7177369570000001,1.0,0.734902455,1.0,0.49438664299999996,True,,5f0c5aa0fc8e5a5afdc94761,,1692654,125,,evan-feature22,full_rf_b,,1
100,13517,126,,,,2,2,1.0,0.0,-1.0,0.0,,0.0-128.0,,-1.0,1324.83,1.0,0.405255252,0.0,0.7300466640000001,1.0,0.7027748070000001,0.0,0.504359668,True,,5f0c5aa0fc8e5a5afdc94761,,1703757,126,,evan-feature22,full_rf_b,,1
101,13518,127,,,,1,1,0.0,1.0,-1.0,0.0,,0.0-129.0,,0.0,605.5149999,0.0,0.40697073,1.0,0.7260142190000001,1.0,0.724461982,0.0,0.522779179,True,,5f0c5aa0fc8e5a5afdc94761,,1714144,127,,evan-feature22,full_rf_b,,1
102,13519,128,,,,1,1,1.0,1.0,-1.0,0.0,,0.0-130.0,,-1.0,3795.6,1.0,0.43906215299999996,1.0,0.7252802340000001,1.0,0.719079934,0.0,0.5712990579999999,True,,5f0c5aa0fc8e5a5afdc94761,,1727719,128,,evan-feature22,full_rf_b,,0
103,13520,129,,,,1,1,1.0,1.0,0.0,1.0,,0.0-131.0,,1.0,1691.82,1.0,0.4076705,1.0,0.73280499,0.0,0.681313127,0.0,0.523891346,True,,5f0c5aa0fc8e5a5afdc94761,,1739189,129,,evan-feature22,full_rf_b,,0
104,13521,130,,,,1,1,0.0,0.0,0.0,1.0,,0.0-132.0,,0.0,2957.975,0.0,0.399102911,0.0,0.730498344,1.0,0.661080239,1.0,0.46742603,True,,5f0c5aa0fc8e5a5afdc94761,,1751935,130,,evan-feature22,full_rf_b,,0
105,13522,131,,,,2,2,1.0,1.0,0.0,1.0,,0.0-133.0,,1.0,649.415,0.0,0.356477282,1.0,0.712296395,1.0,0.641812684,1.0,0.44868414,True,,5f0c5aa0fc8e5a5afdc94761,,1762357,131,,evan-feature22,full_rf_b,,1
106,13523,132,,,,2,2,0.0,0.0,-1.0,0.0,,0.0-134.0,,0.0,1539.745,1.0,0.462760722,0.0,0.692349322,0.0,0.700947931,0.0,0.394680266,True,,5f0c5aa0fc8e5a5afdc94761,,1773670,132,,evan-feature22,full_rf_b,,0
107,13524,133,,,,2,2,1.0,1.0,-1.0,0.0,,0.0-135.0,,-1.0,948.355,0.0,0.422306413,1.0,0.718375916,1.0,0.706340917,1.0,0.367787185,True,,5f0c5aa0fc8e5a5afdc94761,,1784393,133,,evan-feature22,full_rf_b,,0
108,13526,135,,,,2,2,1.0,1.0,-1.0,0.0,,0.0-137.0,,-1.0,972.6199999,0.0,0.4582233,1.0,0.643834117,1.0,0.75,1.0,0.39615823299999997,True,,5f0c5aa0fc8e5a5afdc94761,,1800668,135,,evan-feature22,full_rf_b,,0
109,13527,136,,,,1,1,1.0,1.0,-1.0,0.0,,0.0-138.0,,-1.0,819.75,1.0,0.43813437899999996,1.0,0.651283804,1.0,0.729674191,0.0,0.37711048,True,,5f0c5aa0fc8e5a5afdc94761,,1811276,136,,evan-feature22,full_rf_b,,1
110,13528,137,,,,1,1,0.0,0.0,-1.0,0.0,,0.0-139.0,,0.0,682.415,0.0,0.471199094,0.0,0.6470010979999999,0.0,0.715008097,0.0,0.410656191,True,,5f0c5aa0fc8e5a5afdc94761,,1821740,137,,evan-feature22,full_rf_b,,0
111,13529,138,,,,1,1,1.0,1.0,-1.0,0.0,,0.0-140.0,,-1.0,1457.65,1.0,0.42486406,1.0,0.629771829,0.0,0.6550939960000001,1.0,0.459093873,True,,5f0c5aa0fc8e5a5afdc94761,,1832983,138,,evan-feature22,full_rf_b,,0
112,13530,139,,,,1,1,0.0,0.0,-1.0,0.0,,0.0-141.0,,0.0,1119.705,0.0,0.4803197,0.0,0.645842715,0.0,0.6421749920000001,1.0,0.443092151,True,,5f0c5aa0fc8e5a5afdc94761,,1843890,139,,evan-feature22,full_rf_b,,0
113,13531,140,,,,1,1,1.0,1.0,0.0,1.0,,0.0-142.0,,1.0,740.665,1.0,0.521848997,1.0,0.735801074,1.0,0.6691348460000001,0.0,0.45259351600000003,True,,5f0c5aa0fc8e5a5afdc94761,,1854417,140,,evan-feature22,full_rf_b,,0
114,13532,141,,,,2,2,1.0,1.0,-1.0,0.0,,0.0-143.0,,-1.0,973.4,1.0,0.49565621299999996,1.0,0.742400847,1.0,0.661512553,1.0,0.483110831,True,,5f0c5aa0fc8e5a5afdc94761,,1865175,141,,evan-feature22,full_rf_b,,1
115,13533,142,,,,1,1,1.0,0.0,-1.0,0.0,,0.0-144.0,,-1.0,1004.72,1.0,0.521564361,0.0,0.731078632,1.0,0.6774886809999999,0.0,0.483263956,True,,5f0c5aa0fc8e5a5afdc94761,,1875963,142,,evan-feature22,full_rf_b,,1
116,13534,143,,,,1,1,1.0,0.0,-1.0,0.0,,0.0-145.0,,-1.0,1026.495,1.0,0.558893102,0.0,0.719810023,1.0,0.67461031,1.0,0.499349834,True,,5f0c5aa0fc8e5a5afdc94761,,1886771,143,,evan-feature22,full_rf_b,,0
117,13535,144,,,,1,1,0.0,0.0,-1.0,0.0,,0.0-146.0,,0.0,1714.81,0.0,0.611031046,0.0,0.75,1.0,0.688072995,0.0,0.5321422729999999,True,,5f0c5aa0fc8e5a5afdc94761,,1898263,144,,evan-feature22,full_rf_b,,0
118,13536,145,,,,1,1,1.0,0.0,0.0,1.0,,0.0-147.0,,0.0,1012.625,1.0,0.633223941,0.0,0.713567728,1.0,0.75,0.0,0.48185314700000004,True,,5f0c5aa0fc8e5a5afdc94761,,1909056,145,,evan-feature22,full_rf_b,,0
119,13537,146,,,,2,2,1.0,0.0,-1.0,0.0,,0.0-148.0,,-1.0,1315.93,1.0,0.664001694,0.0,0.705509768,1.0,0.75,0.0,0.500211065,True,,5f0c5aa0fc8e5a5afdc94761,,1920153,146,,evan-feature22,full_rf_b,,1
120,13538,147,,,,1,1,1.0,1.0,-1.0,0.0,,0.0-149.0,,-1.0,410.945,1.0,0.664001694,1.0,0.705509768,1.0,0.75,0.0,0.500211065,True,,5f0c5aa0fc8e5a5afdc94761,,1930348,147,,evan-feature22,full_rf_b,,1
121,13539,148,,,,2,2,0.0,1.0,-1.0,0.0,,0.0-150.0,,0.0,1270.035,0.0,0.696508041,1.0,0.71066027,0.0,0.717028709,1.0,0.49792991,True,,5f0c5aa0fc8e5a5afdc94761,,1941392,148,,evan-feature22,full_rf_b,,1
122,13540,149,,,,2,2,1.0,1.0,0.0,1.0,,0.0-151.0,,1.0,1443.115,1.0,0.699883272,1.0,0.75,1.0,0.713543895,1.0,0.496962643,True,,5f0c5aa0fc8e5a5afdc94761,,1952612,149,,evan-feature22,full_rf_b,,0
123,13541,150,,,,2,2,0.0,1.0,0.0,1.0,,0.0-152.0,,1.0,2917.745,0.0,0.741163419,0.0,0.75,0.0,0.64691024,1.0,0.513858197,True,,5f0c5aa0fc8e5a5afdc94761,,1965314,150,,evan-feature22,full_rf_b,,0
124,13542,151,,,,2,2,1.0,1.0,0.0,1.0,,0.0-153.0,,1.0,639.205,0.0,0.75,0.0,0.70816558,1.0,0.594499079,1.0,0.48502124,True,,5f0c5aa0fc8e5a5afdc94761,,1975737,151,,evan-feature22,full_rf_b,,0
125,13543,152,,,,1,1,1.0,1.0,-1.0,0.0,,0.0-154.0,,-1.0,1673.07,1.0,0.75,1.0,0.721848901,1.0,0.62197249,0.0,0.48263586399999997,True,,5f0c5aa0fc8e5a5afdc94761,,1987193,152,,evan-feature22,full_rf_b,,1
126,13544,153,,,,2,2,1.0,1.0,-1.0,0.0,,0.0-155.0,,-1.0,441.155,1.0,0.75,1.0,0.74813071,1.0,0.584357161,1.0,0.411477782,True,,5f0c5aa0fc8e5a5afdc94761,,1997415,153,,evan-feature22,full_rf_b,,1
127,13545,154,,,,2,2,0.0,1.0,-1.0,0.0,,0.0-156.0,,0.0,1026.08,1.0,0.75,0.0,0.75,0.0,0.52287236,1.0,0.488290656,True,,5f0c5aa0fc8e5a5afdc94761,,2008222,154,,evan-feature22,full_rf_b,,0
128,13546,155,,,,1,1,0.0,1.0,-1.0,0.0,,0.0-157.0,,0.0,2018.36,0.0,0.75,1.0,0.75,1.0,0.544321581,1.0,0.53143059,True,,5f0c5aa0fc8e5a5afdc94761,,2020013,155,,evan-feature22,full_rf_b,,1
129,13547,156,,,,2,2,1.0,0.0,-1.0,0.0,,0.0-158.0,,-1.0,833.86,1.0,0.726754564,1.0,0.75,1.0,0.5129306370000001,0.0,0.530592445,True,,5f0c5aa0fc8e5a5afdc94761,,2030625,156,,evan-feature22,full_rf_b,,1
130,13548,157,,,,1,1,1.0,1.0,0.0,1.0,,0.0-159.0,,1.0,1567.425,1.0,0.75,1.0,0.7392590729999999,1.0,0.479875835,1.0,0.547007051,True,,5f0c5aa0fc8e5a5afdc94761,,2041979,157,,evan-feature22,full_rf_b,,1
131,13549,158,,,,1,1,0.0,1.0,0.0,1.0,,0.0-160.0,,1.0,1090.63,0.0,0.75,1.0,0.7393376979999999,1.0,0.546045419,1.0,0.541267353,True,,5f0c5aa0fc8e5a5afdc94761,,2052854,158,,evan-feature22,full_rf_b,,0
132,13550,159,,,,1,1,1.0,0.0,-1.0,0.0,,0.0-161.0,,-1.0,1216.13,1.0,0.75,0.0,0.75,1.0,0.485725895,1.0,0.527625395,True,,5f0c5aa0fc8e5a5afdc94761,,2063846,159,,evan-feature22,full_rf_b,,0
133,13551,160,,,,1,1,1.0,1.0,0.0,1.0,,0.0-162.0,,1.0,1576.515,1.0,0.75,1.0,0.725087974,0.0,0.488603595,1.0,0.504019206,True,,5f0c5aa0fc8e5a5afdc94761,,2075204,160,,evan-feature22,full_rf_b,,0
134,13552,161,,,,1,1,1.0,0.0,-1.0,0.0,,0.0-163.0,,-1.0,2514.755,1.0,0.745504295,0.0,0.75,1.0,0.452379914,1.0,0.50131194,True,,5f0c5aa0fc8e5a5afdc94761,,2087500,161,,evan-feature22,full_rf_b,,0
135,13553,162,,,,1,1,0.0,1.0,0.0,1.0,,0.0-164.0,,1.0,1201.37,0.0,0.728513874,1.0,0.75,1.0,0.44125567200000004,0.0,0.531454591,True,,5f0c5aa0fc8e5a5afdc94761,,2098485,162,,evan-feature22,full_rf_b,,0
136,13554,163,,,,2,2,0.0,0.0,-1.0,0.0,,0.0-165.0,,0.0,1936.115,1.0,0.73790804,1.0,0.75,0.0,0.413036656,0.0,0.524619035,True,,5f0c5aa0fc8e5a5afdc94761,,2110201,163,,evan-feature22,full_rf_b,,1
137,13555,164,,,,2,2,0.0,0.0,-1.0,0.0,,0.0-166.0,,0.0,1772.43,1.0,0.7080961309999999,0.0,0.708666865,0.0,0.431915581,0.0,0.481819489,True,,5f0c5aa0fc8e5a5afdc94761,,2121757,164,,evan-feature22,full_rf_b,,0
138,13556,165,,,,1,1,1.0,1.0,-1.0,0.0,,0.0-167.0,,-1.0,1334.79,1.0,0.721378003,1.0,0.71605913,1.0,0.36642387,0.0,0.5036739929999999,True,,5f0c5aa0fc8e5a5afdc94761,,2132876,165,,evan-feature22,full_rf_b,,1
139,13557,166,,,,1,1,1.0,1.0,0.0,1.0,,0.0-168.0,,1.0,2400.425,1.0,0.7340618959999999,1.0,0.699323252,0.0,0.35298046299999997,1.0,0.511241692,True,,5f0c5aa0fc8e5a5afdc94761,,2145056,166,,evan-feature22,full_rf_b,,0
140,13558,167,,,,1,1,1.0,1.0,0.0,1.0,,0.0-169.0,,1.0,1223.38,1.0,0.75,1.0,0.70412698,0.0,0.380734814,0.0,0.529580116,True,,5f0c5aa0fc8e5a5afdc94761,,2156055,167,,evan-feature22,full_rf_b,,0
141,13559,168,,,,1,1,1.0,0.0,0.0,1.0,,0.0-170.0,,0.0,725.87,1.0,0.7436654909999999,0.0,0.711182751,0.0,0.41125331,1.0,0.49554405,True,,5f0c5aa0fc8e5a5afdc94761,,2166566,168,,evan-feature22,full_rf_b,,0
142,13560,169,,,,2,2,0.0,1.0,-1.0,0.0,,0.0-171.0,,0.0,1741.315,1.0,0.731607915,1.0,0.651774583,0.0,0.35688023,1.0,0.45194491600000003,True,,5f0c5aa0fc8e5a5afdc94761,,2178084,169,,evan-feature22,full_rf_b,,1
143,13561,170,,,,1,1,1.0,1.0,0.0,1.0,,0.0-172.0,,1.0,1326.425,1.0,0.75,1.0,0.75,1.0,0.283145374,0.0,0.528608005,True,,5f0c5aa0fc8e5a5afdc94761,,2189190,170,,evan-feature22,full_rf_b,,1
144,13562,171,,,,2,2,1.0,1.0,-1.0,0.0,,0.0-173.0,,-1.0,1203.28,0.0,0.7491416890000001,1.0,0.7423785959999999,1.0,0.29135870399999997,1.0,0.498888318,True,,5f0c5aa0fc8e5a5afdc94761,,2200175,171,,evan-feature22,full_rf_b,,1
145,13563,172,,,,1,1,1.0,1.0,0.0,1.0,,0.0-174.0,,1.0,1314.51,1.0,0.708569387,1.0,0.717682277,1.0,0.294421699,1.0,0.493838163,True,,5f0c5aa0fc8e5a5afdc94761,,2211271,172,,evan-feature22,full_rf_b,,1
146,13564,173,,,,2,2,0.0,1.0,-1.0,0.0,,0.0-175.0,,0.0,1979.0,1.0,0.75,1.0,0.7383382159999999,0.0,0.356098707,1.0,0.442533405,True,,5f0c5aa0fc8e5a5afdc94761,,2223023,173,,evan-feature22,full_rf_b,,1
147,13565,174,,,,2,2,0.0,1.0,-1.0,0.0,,0.0-176.0,,0.0,1592.64,1.0,0.744527075,1.0,0.75,0.0,0.334127506,1.0,0.393165805,True,,5f0c5aa0fc8e5a5afdc94761,,2234392,174,,evan-feature22,full_rf_b,,0
148,13566,175,,,,2,2,1.0,0.0,-1.0,0.0,,0.0-177.0,,-1.0,841.32,1.0,0.75,1.0,0.75,1.0,0.33571021799999995,0.0,0.350393962,True,,5f0c5aa0fc8e5a5afdc94761,,2245006,175,,evan-feature22,full_rf_b,,0
149,13567,176,,,,2,2,0.0,0.0,0.0,1.0,,0.0-178.0,,0.0,3874.765,1.0,0.75,1.0,0.75,0.0,0.313628297,0.0,0.36349657399999996,True,,5f0c5aa0fc8e5a5afdc94761,,2258662,176,,evan-feature22,full_rf_b,,0
150,13568,177,,,,2,2,0.0,1.0,-1.0,0.0,,0.0-179.0,,0.0,1225.335,0.0,0.75,1.0,0.734284182,0.0,0.262667667,1.0,0.380199119,True,,5f0c5aa0fc8e5a5afdc94761,,2269655,177,,evan-feature22,full_rf_b,,0
151,13569,178,,,,2,2,0.0,1.0,-1.0,0.0,,0.0-180.0,,0.0,806.785,1.0,0.75,1.0,0.75,0.0,0.25,1.0,0.394494013,True,,5f0c5aa0fc8e5a5afdc94761,,2280247,178,,evan-feature22,full_rf_b,,0
152,13570,179,,,,2,2,1.0,1.0,-1.0,0.0,,0.0-181.0,,-1.0,2195.23,1.0,0.722298145,1.0,0.7357822340000001,1.0,0.25,1.0,0.319142121,True,,5f0c5aa0fc8e5a5afdc94761,,2292225,179,,evan-feature22,full_rf_b,,0
153,13571,180,,,,2,2,0.0,0.0,-1.0,0.0,,0.0-182.0,,0.0,1716.765,1.0,0.73149275,1.0,0.724276446,0.0,0.305856907,0.0,0.281315057,True,,5f0c5aa0fc8e5a5afdc94761,,2303729,180,,evan-feature22,full_rf_b,,0
154,13572,181,,,,1,1,1.0,0.0,-1.0,0.0,,0.0-183.0,,-1.0,1821.17,1.0,0.7458732690000001,0.0,0.7336382459999999,0.0,0.272571964,0.0,0.266021999,True,,5f0c5aa0fc8e5a5afdc94761,,2315321,181,,evan-feature22,full_rf_b,,1
155,13573,182,,,,SLOW,SLOW,,,0.0,1.0,,0.0-184.0,,-3.0,,1.0,0.705579037,1.0,0.720778292,0.0,0.320238144,1.0,0.30971744,True,,5f0c5aa0fc8e5a5afdc94761,,2321138,182,,evan-feature22,full_rf_b,,1
156,13574,183,,,,2,2,1.0,0.0,0.0,1.0,,0.0-185.0,,0.0,780.375,1.0,0.700425648,0.0,0.7198784009999999,1.0,0.272590393,0.0,0.304182931,True,,5f0c5aa0fc8e5a5afdc94761,,2331698,183,,evan-feature22,full_rf_b,,1
157,13575,184,,,,1,1,1.0,1.0,0.0,1.0,,0.0-186.0,,1.0,1499.575,1.0,0.735590785,1.0,0.722714973,0.0,0.25,1.0,0.323421091,True,,5f0c5aa0fc8e5a5afdc94761,,2342987,184,,evan-feature22,full_rf_b,,1
158,13576,185,,,,1,1,1.0,1.0,0.0,1.0,,0.0-187.0,,1.0,578.1899999,1.0,0.724807662,1.0,0.63146213,0.0,0.36836492600000004,1.0,0.34592153299999995,True,,5f0c5aa0fc8e5a5afdc94761,,2353351,185,,evan-feature22,full_rf_b,,0
159,13577,186,,,,2,2,0.0,0.0,-1.0,0.0,,0.0-188.0,,0.0,1396.91,0.0,0.7352796909999999,1.0,0.555111392,0.0,0.36003922,0.0,0.31433779999999995,True,,5f0c5aa0fc8e5a5afdc94761,,2364532,186,,evan-feature22,full_rf_b,,1
160,13578,187,notice,,,,,,,,,,0.0-189.0,"{""Q0"":""second was easier to notice""}",,13490.0,,,,,,,,,True,,5f0c5aa0fc8e5a5afdc94761,,2378023,187,Q,survey-text,full_rf_b,,1
161,13579,188,track1,,[1],,,,,,,,0.0-190.0,"{""Q0"":""no""}",,4972.0,,,,,,,,,True,,5f0c5aa0fc8e5a5afdc94761,,2383000,188,Q,evan-quiz,full_rf_b,,1
162,13580,189,track2,,[0],,,,,,,,0.0-191.0,"{""Q0"":""yes""}",,7978.0,,,,,,,,,True,,5f0c5aa0fc8e5a5afdc94761,,2390985,189,Q,evan-quiz,full_rf_b,,1
163,13581,190,strat,,,,,,,,,,0.0-192.0,"{""Q0"":""focused on the black mainly to try and see where it came up""}",,15650.0,,,,,,,,,True,,5f0c5aa0fc8e5a5afdc94761,,2406642,190,Q,survey-text,full_rf_b,,1
