,index,Unnamed: 0,Q_name,button_pressed,choice_idxs,chosen_pos,chosen_state,chosen_state_f_1_outcome,chosen_state_f_2_outcome,f_1_reward,f_2_reward,incor_questions,internal_node_id,responses,reward_received,rt,s_1_f_1_outcome,s_1_f_1_prob,s_1_f_2_outcome,s_1_f_2_prob,s_2_f_1_outcome,s_2_f_1_prob,s_2_f_2_outcome,s_2_f_2_prob,safe_first,stimulus,subjectID,success,time_elapsed,trial_index,trial_num,trial_type,version,view_history,switching
0,36421,30,,,,1,1,1.0,1.0,1.0,0.0,,0.0-27.0,,1.0,2473.17,1.0,0.6,1.0,0.6,0.0,0.4,1.0,0.4,True,,5f2c620abb242611c4607aa1,,627896,30,,evan-feature22,full_rf_a,,0
1,36422,31,,,,1,1,0.0,1.0,1.0,0.0,,0.0-28.0,,0.0,1200.22,0.0,0.608053294,1.0,0.63424552,1.0,0.397152172,0.0,0.347069101,True,,5f2c620abb242611c4607aa1,,638865,31,,evan-feature22,full_rf_a,,0
2,36423,32,,,,1,1,0.0,1.0,1.0,0.0,,0.0-29.0,,0.0,776.935,0.0,0.642237155,1.0,0.648566321,1.0,0.389407674,0.0,0.285525717,True,,5f2c620abb242611c4607aa1,,649410,32,,evan-feature22,full_rf_a,,0
3,36424,33,,,,2,2,0.0,0.0,1.0,0.0,,0.0-30.0,,0.0,1785.765,1.0,0.661086576,1.0,0.630492543,0.0,0.399058924,0.0,0.25,True,,5f2c620abb242611c4607aa1,,660962,33,,evan-feature22,full_rf_a,,1
4,36425,34,,,,2,2,0.0,0.0,0.0,-1.0,,0.0-31.0,,0.0,1330.195,1.0,0.631324137,0.0,0.6269842929999999,0.0,0.38734784299999997,0.0,0.25,True,,5f2c620abb242611c4607aa1,,672054,34,,evan-feature22,full_rf_a,,0
5,36426,35,,,,SLOW,SLOW,,,0.0,-1.0,,0.0-32.0,,-3.0,,1.0,0.6381991370000001,1.0,0.68987999,1.0,0.384107265,0.0,0.271332943,True,,5f2c620abb242611c4607aa1,,677862,35,,evan-feature22,full_rf_a,,1
6,36427,36,,,,2,2,0.0,0.0,1.0,0.0,,0.0-33.0,,0.0,1102.42,1.0,0.66034901,1.0,0.742641349,0.0,0.360225629,0.0,0.25,True,,5f2c620abb242611c4607aa1,,688725,36,,evan-feature22,full_rf_a,,1
7,36428,37,,,,2,2,0.0,0.0,1.0,0.0,,0.0-34.0,,0.0,912.865,0.0,0.638612418,0.0,0.75,0.0,0.367273939,0.0,0.25,True,,5f2c620abb242611c4607aa1,,699401,37,,evan-feature22,full_rf_a,,0
8,36429,38,,,,1,1,0.0,1.0,0.0,-1.0,,0.0-35.0,,-1.0,654.06,0.0,0.624340629,1.0,0.75,0.0,0.425829545,1.0,0.25,True,,5f2c620abb242611c4607aa1,,709819,38,,evan-feature22,full_rf_a,,1
9,36430,39,,,,1,1,1.0,0.0,0.0,-1.0,,0.0-36.0,,0.0,1505.41,1.0,0.621999804,0.0,0.75,1.0,0.368609357,1.0,0.25,True,,5f2c620abb242611c4607aa1,,721087,39,,evan-feature22,full_rf_a,,0
10,36431,40,,,,1,1,0.0,0.0,1.0,0.0,,0.0-37.0,,0.0,1003.85,0.0,0.62666403,0.0,0.75,1.0,0.311151498,1.0,0.25,True,,5f2c620abb242611c4607aa1,,731851,40,,evan-feature22,full_rf_a,,0
11,36432,41,,,,1,1,1.0,0.0,0.0,-1.0,,0.0-38.0,,0.0,720.94,1.0,0.6819650009999999,0.0,0.75,1.0,0.310763048,0.0,0.25,True,,5f2c620abb242611c4607aa1,,742335,41,,evan-feature22,full_rf_a,,0
12,36433,42,,,,1,1,1.0,0.0,1.0,0.0,,0.0-39.0,,1.0,553.21,1.0,0.740626951,0.0,0.75,1.0,0.25,0.0,0.25,True,,5f2c620abb242611c4607aa1,,752656,42,,evan-feature22,full_rf_a,,0
13,36434,43,,,,1,1,0.0,0.0,1.0,0.0,,0.0-40.0,,0.0,477.645,0.0,0.739599242,0.0,0.742034978,1.0,0.25397114600000004,0.0,0.25,True,,5f2c620abb242611c4607aa1,,762901,43,,evan-feature22,full_rf_a,,0
14,36435,44,,,,2,2,0.0,0.0,1.0,0.0,,0.0-41.0,,0.0,466.7,1.0,0.732341315,1.0,0.72735643,0.0,0.25,0.0,0.25,True,,5f2c620abb242611c4607aa1,,773132,44,,evan-feature22,full_rf_a,,1
15,36436,45,,,,2,2,0.0,0.0,1.0,0.0,,0.0-42.0,,0.0,553.855,1.0,0.7062287770000001,0.0,0.75,0.0,0.29002151,0.0,0.288256649,True,,5f2c620abb242611c4607aa1,,783445,45,,evan-feature22,full_rf_a,,0
16,36437,46,,,,2,2,0.0,0.0,1.0,0.0,,0.0-43.0,,0.0,427.38,1.0,0.7086029209999999,1.0,0.75,0.0,0.274129113,0.0,0.262851608,True,,5f2c620abb242611c4607aa1,,793633,46,,evan-feature22,full_rf_a,,0
17,36438,47,,,,1,1,1.0,0.0,1.0,0.0,,0.0-44.0,,1.0,590.43,1.0,0.669189651,0.0,0.727614338,0.0,0.298444036,1.0,0.296944518,True,,5f2c620abb242611c4607aa1,,803987,47,,evan-feature22,full_rf_a,,1
18,36439,48,,,,1,1,1.0,0.0,1.0,0.0,,0.0-45.0,,1.0,721.445,1.0,0.6819912929999999,0.0,0.7179434290000001,1.0,0.265003961,0.0,0.28157921199999997,True,,5f2c620abb242611c4607aa1,,814474,48,,evan-feature22,full_rf_a,,0
19,36440,49,,,,1,1,1.0,0.0,0.0,-1.0,,0.0-46.0,,0.0,2603.24,1.0,0.665275002,0.0,0.723065271,1.0,0.260414971,1.0,0.30973870000000003,True,,5f2c620abb242611c4607aa1,,826838,49,,evan-feature22,full_rf_a,,0
20,36441,50,,,,1,1,0.0,1.0,1.0,0.0,,0.0-47.0,,0.0,518.23,0.0,0.6660593260000001,1.0,0.728032907,0.0,0.30922817,0.0,0.338778608,True,,5f2c620abb242611c4607aa1,,837121,50,,evan-feature22,full_rf_a,,0
21,36442,51,,,,2,2,0.0,0.0,1.0,0.0,,0.0-48.0,,0.0,538.705,0.0,0.702068785,1.0,0.6528750879999999,0.0,0.287329608,0.0,0.35789613200000003,True,,5f2c620abb242611c4607aa1,,847421,51,,evan-feature22,full_rf_a,,1
22,36443,52,,,,2,2,1.0,0.0,1.0,0.0,,0.0-49.0,,1.0,744.13,1.0,0.651939787,0.0,0.636725589,1.0,0.284834488,0.0,0.358563756,True,,5f2c620abb242611c4607aa1,,857926,52,,evan-feature22,full_rf_a,,0
23,36444,53,,,,2,2,0.0,0.0,0.0,-1.0,,0.0-50.0,,0.0,404.075,0.0,0.67573929,1.0,0.612550049,0.0,0.37130387600000003,0.0,0.383542402,True,,5f2c620abb242611c4607aa1,,868091,53,,evan-feature22,full_rf_a,,0
24,36445,54,,,,2,2,0.0,0.0,0.0,-1.0,,0.0-51.0,,0.0,849.955,0.0,0.620753801,1.0,0.60513644,0.0,0.385529434,0.0,0.340361743,True,,5f2c620abb242611c4607aa1,,878706,54,,evan-feature22,full_rf_a,,0
25,36446,55,,,,2,2,1.0,0.0,0.0,-1.0,,0.0-52.0,,0.0,723.92,1.0,0.673564893,0.0,0.672437924,1.0,0.292955382,0.0,0.337633795,True,,5f2c620abb242611c4607aa1,,889192,55,,evan-feature22,full_rf_a,,0
26,36447,56,,,,2,2,1.0,0.0,1.0,0.0,,0.0-53.0,,1.0,482.54,0.0,0.6749427,0.0,0.724197502,1.0,0.32391132100000003,0.0,0.350995264,True,,5f2c620abb242611c4607aa1,,899435,56,,evan-feature22,full_rf_a,,0
27,36448,57,,,,2,2,1.0,1.0,1.0,0.0,,0.0-54.0,,1.0,548.085,1.0,0.6940159379999999,1.0,0.75,1.0,0.31710554399999996,1.0,0.413450341,True,,5f2c620abb242611c4607aa1,,909746,57,,evan-feature22,full_rf_a,,0
28,36449,58,,,,2,2,0.0,0.0,1.0,0.0,,0.0-55.0,,0.0,469.375,1.0,0.6916018270000001,0.0,0.69001187,0.0,0.261817804,0.0,0.40038635,True,,5f2c620abb242611c4607aa1,,919977,58,,evan-feature22,full_rf_a,,0
29,36450,59,,,,1,1,0.0,1.0,1.0,0.0,,0.0-56.0,,0.0,428.125,0.0,0.641061544,1.0,0.71337992,0.0,0.277296461,0.0,0.47372791700000005,True,,5f2c620abb242611c4607aa1,,930170,59,,evan-feature22,full_rf_a,,1
30,36451,60,,,,2,2,0.0,1.0,1.0,0.0,,0.0-57.0,,0.0,534.53,0.0,0.6082438520000001,0.0,0.708471106,0.0,0.28745137,1.0,0.564174476,True,,5f2c620abb242611c4607aa1,,940472,60,,evan-feature22,full_rf_a,,1
31,36452,61,,,,2,2,1.0,0.0,1.0,0.0,,0.0-58.0,,1.0,447.585,1.0,0.6051112120000001,1.0,0.7118147229999999,1.0,0.272390611,0.0,0.5595149939999999,True,,5f2c620abb242611c4607aa1,,950683,61,,evan-feature22,full_rf_a,,0
32,36453,62,,,,1,1,1.0,0.0,1.0,0.0,,0.0-59.0,,1.0,377.94,1.0,0.582420852,0.0,0.635867583,0.0,0.31089574,1.0,0.5227206520000001,True,,5f2c620abb242611c4607aa1,,960824,62,,evan-feature22,full_rf_a,,1
33,36454,63,,,,2,2,0.0,0.0,0.0,-1.0,,0.0-60.0,,0.0,482.11,1.0,0.623195575,0.0,0.655026044,0.0,0.25,0.0,0.560387538,True,,5f2c620abb242611c4607aa1,,971073,63,,evan-feature22,full_rf_a,,1
34,36455,64,,,,1,1,0.0,1.0,1.0,0.0,,0.0-61.0,,0.0,555.39,0.0,0.601889598,1.0,0.678198724,0.0,0.25,1.0,0.559922936,True,,5f2c620abb242611c4607aa1,,981391,64,,evan-feature22,full_rf_a,,1
35,36456,65,,,,2,2,1.0,0.0,1.0,0.0,,0.0-62.0,,1.0,399.71,1.0,0.601259914,1.0,0.704681482,1.0,0.33908969299999997,0.0,0.505003715,True,,5f2c620abb242611c4607aa1,,991551,65,,evan-feature22,full_rf_a,,1
36,36457,66,,,,1,1,1.0,1.0,1.0,0.0,,0.0-63.0,,1.0,388.745,1.0,0.59645454,1.0,0.710437172,1.0,0.327441879,1.0,0.391749613,True,,5f2c620abb242611c4607aa1,,1001701,66,,evan-feature22,full_rf_a,,1
37,36458,67,,,,2,2,0.0,1.0,1.0,0.0,,0.0-64.0,,0.0,586.605,0.0,0.529473,0.0,0.636758527,0.0,0.301338063,1.0,0.365661481,True,,5f2c620abb242611c4607aa1,,1012057,67,,evan-feature22,full_rf_a,,1
38,36459,68,,,,1,1,1.0,1.0,0.0,-1.0,,0.0-65.0,,-1.0,919.18,1.0,0.541657162,1.0,0.634541962,0.0,0.343535366,0.0,0.371763742,True,,5f2c620abb242611c4607aa1,,1022740,68,,evan-feature22,full_rf_a,,1
39,36460,69,,,,1,1,0.0,0.0,1.0,0.0,,0.0-66.0,,0.0,559.3,0.0,0.5707533260000001,0.0,0.589121171,0.0,0.326428396,1.0,0.43961622899999997,True,,5f2c620abb242611c4607aa1,,1033066,69,,evan-feature22,full_rf_a,,0
40,36461,70,,,,1,1,0.0,1.0,1.0,0.0,,0.0-67.0,,0.0,586.465,0.0,0.5707533260000001,1.0,0.589121171,1.0,0.326428396,1.0,0.43961622899999997,True,,5f2c620abb242611c4607aa1,,1043414,70,,evan-feature22,full_rf_a,,0
41,36462,71,,,,2,2,1.0,0.0,1.0,0.0,,0.0-68.0,,1.0,624.18,1.0,0.506271295,1.0,0.641775594,1.0,0.37149690700000004,0.0,0.404330166,True,,5f2c620abb242611c4607aa1,,1053800,71,,evan-feature22,full_rf_a,,1
42,36463,72,,,,1,1,0.0,1.0,0.0,-1.0,,0.0-69.0,,-1.0,869.675,0.0,0.455642565,1.0,0.623605825,0.0,0.358753011,0.0,0.346174041,True,,5f2c620abb242611c4607aa1,,1064435,72,,evan-feature22,full_rf_a,,1
43,36464,73,,,,2,2,1.0,0.0,0.0,-1.0,,0.0-70.0,,0.0,353.2,1.0,0.483677308,1.0,0.5904681070000001,1.0,0.402218411,0.0,0.35344697,True,,5f2c620abb242611c4607aa1,,1074556,73,,evan-feature22,full_rf_a,,1
44,36465,74,,,,2,2,0.0,0.0,0.0,-1.0,,0.0-71.0,,0.0,684.725,0.0,0.394210977,1.0,0.558925494,0.0,0.540052017,0.0,0.35182128700000004,True,,5f2c620abb242611c4607aa1,,1085007,74,,evan-feature22,full_rf_a,,0
45,36466,75,,,,2,2,0.0,0.0,1.0,0.0,,0.0-72.0,,0.0,478.585,0.0,0.382300414,1.0,0.577670603,0.0,0.607608448,0.0,0.378261578,True,,5f2c620abb242611c4607aa1,,1095244,75,,evan-feature22,full_rf_a,,0
46,36467,76,,,,2,2,1.0,0.0,1.0,0.0,,0.0-73.0,,1.0,456.39,1.0,0.357596762,1.0,0.5929076529999999,1.0,0.6579790010000001,0.0,0.401326777,True,,5f2c620abb242611c4607aa1,,1105460,76,,evan-feature22,full_rf_a,,0
47,36468,77,,,,2,2,1.0,0.0,1.0,0.0,,0.0-74.0,,1.0,387.755,1.0,0.362033495,1.0,0.582308608,1.0,0.649195052,0.0,0.355158505,True,,5f2c620abb242611c4607aa1,,1115607,77,,evan-feature22,full_rf_a,,0
48,36469,78,,,,2,2,0.0,1.0,1.0,0.0,,0.0-75.0,,0.0,317.425,0.0,0.369620635,1.0,0.669100864,0.0,0.706059111,1.0,0.362516241,True,,5f2c620abb242611c4607aa1,,1125689,78,,evan-feature22,full_rf_a,,0
49,36470,79,,,,1,1,1.0,1.0,1.0,0.0,,0.0-76.0,,1.0,424.01,1.0,0.41477751399999996,1.0,0.7284416779999999,0.0,0.7182656940000001,0.0,0.36228040899999997,True,,5f2c620abb242611c4607aa1,,1135879,79,,evan-feature22,full_rf_a,,1
50,36471,80,,,,1,1,0.0,1.0,0.0,-1.0,,0.0-77.0,,-1.0,365.43,0.0,0.37675460299999997,1.0,0.703250285,1.0,0.75,0.0,0.461979164,True,,5f2c620abb242611c4607aa1,,1146008,80,,evan-feature22,full_rf_a,,0
51,36472,81,,,,2,2,1.0,1.0,0.0,-1.0,,0.0-78.0,,-1.0,385.365,0.0,0.398716075,1.0,0.6723864890000001,1.0,0.674153818,1.0,0.519029516,True,,5f2c620abb242611c4607aa1,,1156155,81,,evan-feature22,full_rf_a,,1
52,36473,82,,,,2,2,1.0,1.0,1.0,0.0,,0.0-79.0,,1.0,453.12,0.0,0.34677856700000004,1.0,0.69057175,1.0,0.6822438540000001,1.0,0.477292237,True,,5f2c620abb242611c4607aa1,,1166369,82,,evan-feature22,full_rf_a,,0
53,36474,83,,,,2,2,1.0,0.0,0.0,-1.0,,0.0-80.0,,0.0,400.8,0.0,0.28580469199999997,1.0,0.68408818,1.0,0.684207565,0.0,0.49780448299999996,True,,5f2c620abb242611c4607aa1,,1176534,83,,evan-feature22,full_rf_a,,0
54,36476,85,,,,2,2,1.0,0.0,1.0,0.0,,0.0-82.0,,1.0,987.385,0.0,0.25,1.0,0.7405808970000001,1.0,0.679614108,0.0,0.436436964,True,,5f2c620abb242611c4607aa1,,1189950,85,,evan-feature22,full_rf_a,,0
55,36477,86,,,,2,2,1.0,1.0,0.0,-1.0,,0.0-83.0,,-1.0,502.935,0.0,0.29890393,1.0,0.730505706,1.0,0.7328203320000001,1.0,0.439256938,True,,5f2c620abb242611c4607aa1,,1200211,86,,evan-feature22,full_rf_a,,0
56,36478,87,,,,2,2,1.0,0.0,1.0,0.0,,0.0-84.0,,1.0,507.57,0.0,0.326762398,0.0,0.7148059609999999,1.0,0.75,0.0,0.44389608799999997,True,,5f2c620abb242611c4607aa1,,1210494,87,,evan-feature22,full_rf_a,,0
57,36479,88,,,,2,2,1.0,0.0,1.0,0.0,,0.0-85.0,,1.0,505.685,1.0,0.295168515,1.0,0.739760854,1.0,0.719947008,0.0,0.35277284600000003,True,,5f2c620abb242611c4607aa1,,1220761,88,,evan-feature22,full_rf_a,,0
58,36480,89,,,,2,2,1.0,0.0,1.0,0.0,,0.0-86.0,,1.0,329.765,0.0,0.25,0.0,0.70781482,1.0,0.75,0.0,0.286095925,True,,5f2c620abb242611c4607aa1,,1230853,89,,evan-feature22,full_rf_a,,0
59,36481,90,,,,2,2,1.0,0.0,0.0,-1.0,,0.0-87.0,,0.0,335.82,0.0,0.25638190899999996,1.0,0.704088163,1.0,0.75,0.0,0.26872601399999996,True,,5f2c620abb242611c4607aa1,,1240950,90,,evan-feature22,full_rf_a,,0
60,36482,91,,,,2,2,1.0,0.0,0.0,-1.0,,0.0-88.0,,0.0,334.07,0.0,0.271581126,1.0,0.669760107,1.0,0.733896663,0.0,0.273244572,True,,5f2c620abb242611c4607aa1,,1251046,91,,evan-feature22,full_rf_a,,0
61,36483,92,,,,2,2,1.0,0.0,0.0,-1.0,,0.0-89.0,,0.0,341.115,0.0,0.257144401,0.0,0.600575706,1.0,0.74488122,0.0,0.25,True,,5f2c620abb242611c4607aa1,,1261154,92,,evan-feature22,full_rf_a,,0
62,36484,93,,,,2,2,1.0,0.0,1.0,0.0,,0.0-90.0,,1.0,355.99,0.0,0.25,1.0,0.616870026,1.0,0.723610234,0.0,0.25,True,,5f2c620abb242611c4607aa1,,1271271,93,,evan-feature22,full_rf_a,,0
63,36485,94,,,,2,2,1.0,1.0,0.0,-1.0,,0.0-91.0,,-1.0,677.295,1.0,0.25,0.0,0.583540187,1.0,0.7041042559999999,1.0,0.285961995,True,,5f2c620abb242611c4607aa1,,1281711,94,,evan-feature22,full_rf_a,,0
64,36486,95,,,,2,2,1.0,0.0,1.0,0.0,,0.0-92.0,,1.0,370.83,1.0,0.27254536,1.0,0.53875765,1.0,0.693783448,0.0,0.284961652,True,,5f2c620abb242611c4607aa1,,1291846,95,,evan-feature22,full_rf_a,,0
65,36487,96,,,,2,2,1.0,0.0,0.0,-1.0,,0.0-93.0,,0.0,360.745,0.0,0.25,1.0,0.548431252,1.0,0.734221895,0.0,0.279445214,True,,5f2c620abb242611c4607aa1,,1301968,96,,evan-feature22,full_rf_a,,0
66,36488,97,,,,2,2,1.0,0.0,1.0,0.0,,0.0-94.0,,1.0,612.535,0.0,0.258640684,1.0,0.545878066,1.0,0.725245965,0.0,0.31487537,True,,5f2c620abb242611c4607aa1,,1312344,97,,evan-feature22,full_rf_a,,0
67,36489,98,,,,2,2,1.0,0.0,1.0,0.0,,0.0-95.0,,1.0,378.77,0.0,0.251103711,1.0,0.5776290629999999,1.0,0.696320133,0.0,0.317831047,True,,5f2c620abb242611c4607aa1,,1322488,98,,evan-feature22,full_rf_a,,0
68,36490,99,,,,2,2,1.0,0.0,1.0,0.0,,0.0-96.0,,1.0,509.995,0.0,0.276630292,1.0,0.617329858,1.0,0.73838088,0.0,0.261471582,True,,5f2c620abb242611c4607aa1,,1332775,99,,evan-feature22,full_rf_a,,0
69,36491,100,,,,2,2,1.0,0.0,0.0,-1.0,,0.0-97.0,,0.0,595.185,1.0,0.297716424,1.0,0.618863717,1.0,0.7402358259999999,0.0,0.262600834,True,,5f2c620abb242611c4607aa1,,1343141,100,,evan-feature22,full_rf_a,,0
70,36492,101,,,,2,2,0.0,0.0,1.0,0.0,,0.0-98.0,,0.0,395.675,0.0,0.290935512,1.0,0.695370945,0.0,0.706570507,0.0,0.280030553,True,,5f2c620abb242611c4607aa1,,1353297,101,,evan-feature22,full_rf_a,,0
71,36493,102,,,,2,2,1.0,0.0,1.0,0.0,,0.0-99.0,,1.0,376.18,0.0,0.25,1.0,0.6465277079999999,1.0,0.67766682,0.0,0.25,True,,5f2c620abb242611c4607aa1,,1363442,102,,evan-feature22,full_rf_a,,0
72,36494,103,,,,2,2,1.0,0.0,1.0,0.0,,0.0-100.0,,1.0,641.32,1.0,0.26463816,0.0,0.636100213,1.0,0.646048507,0.0,0.265607101,True,,5f2c620abb242611c4607aa1,,1373844,103,,evan-feature22,full_rf_a,,0
73,36495,104,,,,2,2,1.0,1.0,1.0,0.0,,0.0-101.0,,1.0,660.495,0.0,0.314340707,0.0,0.667795927,1.0,0.613630805,1.0,0.25,True,,5f2c620abb242611c4607aa1,,1384266,104,,evan-feature22,full_rf_a,,0
74,36496,105,,,,2,2,0.0,0.0,1.0,0.0,,0.0-102.0,,0.0,696.32,1.0,0.28685784,1.0,0.6622549529999999,0.0,0.652154117,0.0,0.25,True,,5f2c620abb242611c4607aa1,,1394723,105,,evan-feature22,full_rf_a,,0
75,36497,106,,,,2,2,1.0,0.0,0.0,-1.0,,0.0-103.0,,0.0,690.31,0.0,0.304106554,1.0,0.631289538,1.0,0.707041942,0.0,0.29314237,True,,5f2c620abb242611c4607aa1,,1405177,106,,evan-feature22,full_rf_a,,0
76,36498,107,,,,2,2,0.0,1.0,0.0,-1.0,,0.0-104.0,,-1.0,556.77,0.0,0.304806932,1.0,0.571167718,0.0,0.680472346,1.0,0.25,True,,5f2c620abb242611c4607aa1,,1415496,107,,evan-feature22,full_rf_a,,0
77,36499,108,,,,2,2,1.0,0.0,0.0,-1.0,,0.0-105.0,,0.0,523.72,0.0,0.37919861,1.0,0.5724849710000001,1.0,0.705638003,0.0,0.30179300600000003,True,,5f2c620abb242611c4607aa1,,1425789,108,,evan-feature22,full_rf_a,,0
78,36500,109,,,,2,2,0.0,1.0,0.0,-1.0,,0.0-106.0,,-1.0,30.77999997,0.0,0.464277969,1.0,0.554034373,0.0,0.7372627340000001,1.0,0.264699741,True,,5f2c620abb242611c4607aa1,,1435585,109,,evan-feature22,full_rf_a,,0
79,36501,110,,,,2,2,1.0,1.0,1.0,0.0,,0.0-107.0,,1.0,592.355,1.0,0.465104323,0.0,0.530793115,1.0,0.75,1.0,0.31683071,True,,5f2c620abb242611c4607aa1,,1445943,110,,evan-feature22,full_rf_a,,0
80,36502,111,,,,2,2,0.0,1.0,0.0,-1.0,,0.0-108.0,,-1.0,688.83,0.0,0.465104323,1.0,0.530793115,0.0,0.75,1.0,0.31683071,True,,5f2c620abb242611c4607aa1,,1456393,111,,evan-feature22,full_rf_a,,0
81,36503,112,,,,2,2,1.0,1.0,0.0,-1.0,,0.0-109.0,,-1.0,668.84,1.0,0.46833986,1.0,0.570249239,1.0,0.7244472590000001,1.0,0.364114163,True,,5f2c620abb242611c4607aa1,,1466823,112,,evan-feature22,full_rf_a,,0
82,36504,113,,,,2,2,0.0,0.0,0.0,-1.0,,0.0-110.0,,0.0,627.12,1.0,0.445444024,1.0,0.649673355,0.0,0.6845441290000001,0.0,0.300660449,True,,5f2c620abb242611c4607aa1,,1477208,113,,evan-feature22,full_rf_a,,0
83,36505,114,,,,2,2,1.0,0.0,0.0,-1.0,,0.0-111.0,,0.0,663.215,1.0,0.39909721299999995,1.0,0.6715179509999999,1.0,0.742310028,0.0,0.35496088299999995,True,,5f2c620abb242611c4607aa1,,1487637,114,,evan-feature22,full_rf_a,,0
84,36506,115,,,,2,2,1.0,0.0,0.0,-1.0,,0.0-112.0,,0.0,450.125,0.0,0.37956104799999996,1.0,0.694725302,1.0,0.7181651309999999,0.0,0.38726906299999997,True,,5f2c620abb242611c4607aa1,,1497847,115,,evan-feature22,full_rf_a,,0
85,36507,116,,,,2,2,1.0,0.0,0.0,-1.0,,0.0-113.0,,0.0,380.35,1.0,0.404995034,0.0,0.724375412,1.0,0.6910946859999999,0.0,0.387187347,True,,5f2c620abb242611c4607aa1,,1507993,116,,evan-feature22,full_rf_a,,0
86,36508,117,,,,2,2,1.0,0.0,0.0,-1.0,,0.0-114.0,,0.0,711.3,1.0,0.461740803,1.0,0.75,1.0,0.75,0.0,0.34872038200000005,True,,5f2c620abb242611c4607aa1,,1518463,117,,evan-feature22,full_rf_a,,0
87,36509,118,,,,2,2,0.0,0.0,1.0,0.0,,0.0-115.0,,0.0,570.705,0.0,0.43821380600000004,1.0,0.738833273,0.0,0.728286963,0.0,0.399538128,True,,5f2c620abb242611c4607aa1,,1528795,118,,evan-feature22,full_rf_a,,0
88,36510,119,,,,2,2,1.0,1.0,0.0,-1.0,,0.0-116.0,,-1.0,629.67,1.0,0.41709882,1.0,0.736666736,1.0,0.75,1.0,0.389095584,True,,5f2c620abb242611c4607aa1,,1539194,119,,evan-feature22,full_rf_a,,0
89,36511,120,,,,2,2,0.0,1.0,0.0,-1.0,,0.0-117.0,,-1.0,551.46,0.0,0.39749009799999996,1.0,0.744320029,0.0,0.75,1.0,0.363848678,True,,5f2c620abb242611c4607aa1,,1549507,120,,evan-feature22,full_rf_a,,0
90,36512,121,,,,2,2,1.0,0.0,1.0,0.0,,0.0-118.0,,1.0,402.755,0.0,0.392653706,1.0,0.75,1.0,0.75,0.0,0.384386976,True,,5f2c620abb242611c4607aa1,,1559669,121,,evan-feature22,full_rf_a,,0
91,36513,122,,,,2,2,1.0,0.0,1.0,0.0,,0.0-119.0,,1.0,502.625,0.0,0.31190902600000003,1.0,0.75,1.0,0.732413819,0.0,0.413082932,True,,5f2c620abb242611c4607aa1,,1569933,122,,evan-feature22,full_rf_a,,0
92,36514,123,,,,2,2,1.0,0.0,0.0,-1.0,,0.0-120.0,,0.0,655.585,1.0,0.366917648,1.0,0.740073855,1.0,0.75,0.0,0.352861979,True,,5f2c620abb242611c4607aa1,,1580353,123,,evan-feature22,full_rf_a,,0
93,36515,124,,,,2,2,1.0,0.0,0.0,-1.0,,0.0-121.0,,0.0,626.32,0.0,0.3645172,1.0,0.721770713,1.0,0.75,0.0,0.404074511,True,,5f2c620abb242611c4607aa1,,1590745,124,,evan-feature22,full_rf_a,,0
94,36516,125,,,,2,2,1.0,1.0,0.0,-1.0,,0.0-122.0,,-1.0,618.13,1.0,0.35205600299999995,0.0,0.68983859,1.0,0.739735447,1.0,0.366895945,True,,5f2c620abb242611c4607aa1,,1601126,125,,evan-feature22,full_rf_a,,0
95,36517,126,,,,2,2,0.0,0.0,0.0,-1.0,,0.0-123.0,,0.0,342.675,1.0,0.40998722600000004,1.0,0.720859127,0.0,0.673854955,0.0,0.368528541,True,,5f2c620abb242611c4607aa1,,1611230,126,,evan-feature22,full_rf_a,,0
96,36518,127,,,,2,2,1.0,1.0,1.0,0.0,,0.0-124.0,,1.0,911.85,0.0,0.353625316,0.0,0.75,1.0,0.695605473,1.0,0.38303674200000004,True,,5f2c620abb242611c4607aa1,,1621903,127,,evan-feature22,full_rf_a,,0
97,36519,128,,,,2,2,0.0,0.0,0.0,-1.0,,0.0-125.0,,0.0,685.38,1.0,0.359216989,1.0,0.75,0.0,0.6987915090000001,0.0,0.35169046200000004,True,,5f2c620abb242611c4607aa1,,1632354,128,,evan-feature22,full_rf_a,,0
98,36520,129,,,,2,2,0.0,0.0,1.0,0.0,,0.0-126.0,,0.0,533.155,1.0,0.35834496899999996,1.0,0.75,0.0,0.707067742,0.0,0.416763636,True,,5f2c620abb242611c4607aa1,,1642651,129,,evan-feature22,full_rf_a,,0
99,36521,130,,,,2,2,1.0,0.0,1.0,0.0,,0.0-127.0,,1.0,940.3,1.0,0.38741613799999997,1.0,0.7177369570000001,1.0,0.734902455,0.0,0.49438664299999996,True,,5f2c620abb242611c4607aa1,,1653356,130,,evan-feature22,full_rf_a,,0
100,36522,131,,,,2,2,0.0,0.0,0.0,-1.0,,0.0-128.0,,0.0,658.115,1.0,0.405255252,1.0,0.7300466640000001,0.0,0.7027748070000001,0.0,0.504359668,True,,5f2c620abb242611c4607aa1,,1663781,131,,evan-feature22,full_rf_a,,0
101,36523,132,,,,2,2,1.0,0.0,0.0,-1.0,,0.0-129.0,,0.0,424.065,0.0,0.40697073,0.0,0.7260142190000001,1.0,0.724461982,0.0,0.522779179,True,,5f2c620abb242611c4607aa1,,1673969,132,,evan-feature22,full_rf_a,,0
102,36524,133,,,,2,2,1.0,0.0,0.0,-1.0,,0.0-130.0,,0.0,643.275,0.0,0.43906215299999996,0.0,0.7252802340000001,1.0,0.719079934,0.0,0.5712990579999999,True,,5f2c620abb242611c4607aa1,,1684381,133,,evan-feature22,full_rf_a,,0
103,36525,134,,,,2,2,1.0,1.0,0.0,-1.0,,0.0-131.0,,-1.0,492.625,0.0,0.4076705,1.0,0.73280499,1.0,0.681313127,1.0,0.523891346,True,,5f2c620abb242611c4607aa1,,1694640,134,,evan-feature22,full_rf_a,,0
104,36526,135,,,,2,2,1.0,1.0,0.0,-1.0,,0.0-132.0,,-1.0,670.01,0.0,0.399102911,0.0,0.730498344,1.0,0.661080239,1.0,0.46742603,True,,5f2c620abb242611c4607aa1,,1705074,135,,evan-feature22,full_rf_a,,0
105,36527,136,,,,2,2,1.0,0.0,1.0,0.0,,0.0-133.0,,1.0,542.36,0.0,0.356477282,0.0,0.712296395,1.0,0.641812684,0.0,0.44868414,True,,5f2c620abb242611c4607aa1,,1715377,136,,evan-feature22,full_rf_a,,0
106,36528,137,,,,2,2,1.0,0.0,0.0,-1.0,,0.0-134.0,,0.0,361.355,1.0,0.462760722,1.0,0.692349322,1.0,0.700947931,0.0,0.394680266,True,,5f2c620abb242611c4607aa1,,1725499,137,,evan-feature22,full_rf_a,,0
107,36529,138,,,,2,2,0.0,0.0,0.0,-1.0,,0.0-135.0,,0.0,397.095,1.0,0.422306413,1.0,0.718375916,0.0,0.706340917,0.0,0.367787185,True,,5f2c620abb242611c4607aa1,,1735660,138,,evan-feature22,full_rf_a,,0
108,36531,140,,,,2,2,0.0,0.0,0.0,-1.0,,0.0-137.0,,0.0,1005.145,0.0,0.4582233,1.0,0.643834117,0.0,0.75,0.0,0.39615823299999997,True,,5f2c620abb242611c4607aa1,,1749511,140,,evan-feature22,full_rf_a,,0
109,36532,141,,,,2,2,1.0,0.0,0.0,-1.0,,0.0-138.0,,0.0,986.69,0.0,0.43813437899999996,0.0,0.651283804,1.0,0.729674191,0.0,0.37711048,True,,5f2c620abb242611c4607aa1,,1760261,141,,evan-feature22,full_rf_a,,0
110,36533,142,,,,2,2,1.0,0.0,0.0,-1.0,,0.0-139.0,,0.0,570.98,1.0,0.471199094,1.0,0.6470010979999999,1.0,0.715008097,0.0,0.410656191,True,,5f2c620abb242611c4607aa1,,1770595,142,,evan-feature22,full_rf_a,,0
111,36534,143,,,,2,2,0.0,1.0,1.0,0.0,,0.0-140.0,,0.0,724.1,1.0,0.42486406,1.0,0.629771829,0.0,0.6550939960000001,1.0,0.459093873,True,,5f2c620abb242611c4607aa1,,1781091,143,,evan-feature22,full_rf_a,,0
112,36535,144,,,,2,2,1.0,0.0,1.0,0.0,,0.0-141.0,,1.0,475.48,1.0,0.4803197,1.0,0.645842715,1.0,0.6421749920000001,0.0,0.443092151,True,,5f2c620abb242611c4607aa1,,1791331,144,,evan-feature22,full_rf_a,,0
113,36536,145,,,,2,2,1.0,0.0,1.0,0.0,,0.0-142.0,,1.0,423.74,1.0,0.521848997,1.0,0.735801074,1.0,0.6691348460000001,0.0,0.45259351600000003,True,,5f2c620abb242611c4607aa1,,1801521,145,,evan-feature22,full_rf_a,,0
114,36537,146,,,,2,2,1.0,0.0,0.0,-1.0,,0.0-143.0,,0.0,665.97,1.0,0.49565621299999996,1.0,0.742400847,1.0,0.661512553,0.0,0.483110831,True,,5f2c620abb242611c4607aa1,,1811946,146,,evan-feature22,full_rf_a,,0
115,36538,147,,,,2,2,0.0,0.0,1.0,0.0,,0.0-144.0,,0.0,1087.185,1.0,0.521564361,1.0,0.731078632,0.0,0.6774886809999999,0.0,0.483263956,True,,5f2c620abb242611c4607aa1,,1822793,147,,evan-feature22,full_rf_a,,0
116,36539,148,,,,2,2,1.0,0.0,1.0,0.0,,0.0-145.0,,1.0,654.52,0.0,0.558893102,1.0,0.719810023,1.0,0.67461031,0.0,0.499349834,True,,5f2c620abb242611c4607aa1,,1833216,148,,evan-feature22,full_rf_a,,0
117,36540,149,,,,2,2,1.0,1.0,0.0,-1.0,,0.0-146.0,,-1.0,667.425,1.0,0.611031046,0.0,0.75,1.0,0.688072995,1.0,0.5321422729999999,True,,5f2c620abb242611c4607aa1,,1843642,149,,evan-feature22,full_rf_a,,0
118,36541,150,,,,2,2,1.0,0.0,1.0,0.0,,0.0-147.0,,1.0,452.815,1.0,0.633223941,1.0,0.713567728,1.0,0.75,0.0,0.48185314700000004,True,,5f2c620abb242611c4607aa1,,1853861,150,,evan-feature22,full_rf_a,,0
119,36542,151,,,,2,2,1.0,0.0,1.0,0.0,,0.0-148.0,,1.0,571.75,0.0,0.664001694,0.0,0.705509768,1.0,0.75,0.0,0.500211065,True,,5f2c620abb242611c4607aa1,,1864194,151,,evan-feature22,full_rf_a,,0
120,36543,152,,,,2,2,0.0,0.0,0.0,-1.0,,0.0-149.0,,0.0,495.955,1.0,0.664001694,1.0,0.705509768,0.0,0.75,0.0,0.500211065,True,,5f2c620abb242611c4607aa1,,1874447,152,,evan-feature22,full_rf_a,,0
121,36544,153,,,,2,2,1.0,1.0,0.0,-1.0,,0.0-150.0,,-1.0,558.43,1.0,0.696508041,1.0,0.71066027,1.0,0.717028709,1.0,0.49792991,True,,5f2c620abb242611c4607aa1,,1884774,153,,evan-feature22,full_rf_a,,0
122,36545,154,,,,2,2,1.0,0.0,1.0,0.0,,0.0-151.0,,1.0,664.38,1.0,0.699883272,1.0,0.75,1.0,0.713543895,0.0,0.496962643,True,,5f2c620abb242611c4607aa1,,1895199,154,,evan-feature22,full_rf_a,,0
123,36546,155,,,,2,2,1.0,0.0,0.0,-1.0,,0.0-152.0,,0.0,575.3,1.0,0.741163419,1.0,0.75,1.0,0.64691024,0.0,0.513858197,True,,5f2c620abb242611c4607aa1,,1905540,155,,evan-feature22,full_rf_a,,0
124,36547,156,,,,2,2,0.0,1.0,1.0,0.0,,0.0-153.0,,0.0,849.07,1.0,0.75,1.0,0.70816558,0.0,0.594499079,1.0,0.48502124,True,,5f2c620abb242611c4607aa1,,1916148,156,,evan-feature22,full_rf_a,,0
125,36548,157,,,,2,2,1.0,1.0,0.0,-1.0,,0.0-154.0,,-1.0,476.11,1.0,0.75,1.0,0.721848901,1.0,0.62197249,1.0,0.48263586399999997,True,,5f2c620abb242611c4607aa1,,1926386,157,,evan-feature22,full_rf_a,,0
126,36549,158,,,,2,2,1.0,0.0,1.0,0.0,,0.0-155.0,,1.0,620.665,0.0,0.75,1.0,0.74813071,1.0,0.584357161,0.0,0.411477782,True,,5f2c620abb242611c4607aa1,,1936771,158,,evan-feature22,full_rf_a,,0
127,36550,159,,,,2,2,1.0,0.0,0.0,-1.0,,0.0-156.0,,0.0,447.675,0.0,0.75,0.0,0.75,1.0,0.52287236,0.0,0.488290656,True,,5f2c620abb242611c4607aa1,,1946980,159,,evan-feature22,full_rf_a,,0
128,36551,160,,,,2,2,1.0,0.0,0.0,-1.0,,0.0-157.0,,0.0,894.975,0.0,0.75,1.0,0.75,1.0,0.544321581,0.0,0.53143059,True,,5f2c620abb242611c4607aa1,,1957635,160,,evan-feature22,full_rf_a,,0
129,36552,161,,,,2,2,0.0,0.0,0.0,-1.0,,0.0-158.0,,0.0,441.655,1.0,0.726754564,1.0,0.75,0.0,0.5129306370000001,0.0,0.530592445,True,,5f2c620abb242611c4607aa1,,1967836,161,,evan-feature22,full_rf_a,,0
130,36553,162,,,,2,2,0.0,1.0,1.0,0.0,,0.0-159.0,,0.0,514.72,0.0,0.75,1.0,0.7392590729999999,0.0,0.479875835,1.0,0.547007051,True,,5f2c620abb242611c4607aa1,,1978118,162,,evan-feature22,full_rf_a,,0
131,36554,163,,,,2,2,0.0,1.0,1.0,0.0,,0.0-160.0,,0.0,418.855,1.0,0.75,1.0,0.7393376979999999,0.0,0.546045419,1.0,0.541267353,True,,5f2c620abb242611c4607aa1,,1988302,163,,evan-feature22,full_rf_a,,0
132,36555,164,,,,1,1,1.0,1.0,1.0,0.0,,0.0-161.0,,1.0,447.725,1.0,0.75,1.0,0.75,1.0,0.485725895,0.0,0.527625395,True,,5f2c620abb242611c4607aa1,,1998516,164,,evan-feature22,full_rf_a,,1
133,36556,165,,,,1,1,0.0,0.0,0.0,-1.0,,0.0-162.0,,0.0,1272.985,0.0,0.75,0.0,0.725087974,0.0,0.488603595,1.0,0.504019206,True,,5f2c620abb242611c4607aa1,,2009551,165,,evan-feature22,full_rf_a,,0
134,36557,166,,,,1,1,1.0,1.0,0.0,-1.0,,0.0-163.0,,-1.0,534.85,1.0,0.745504295,1.0,0.75,1.0,0.452379914,0.0,0.50131194,True,,5f2c620abb242611c4607aa1,,2019849,166,,evan-feature22,full_rf_a,,0
135,36558,167,,,,2,2,1.0,0.0,0.0,-1.0,,0.0-164.0,,0.0,573.6,1.0,0.728513874,1.0,0.75,1.0,0.44125567200000004,0.0,0.531454591,True,,5f2c620abb242611c4607aa1,,2030183,167,,evan-feature22,full_rf_a,,1
136,36559,168,,,,2,2,0.0,1.0,1.0,0.0,,0.0-165.0,,0.0,694.75,1.0,0.73790804,1.0,0.75,0.0,0.413036656,1.0,0.524619035,True,,5f2c620abb242611c4607aa1,,2040638,168,,evan-feature22,full_rf_a,,0
137,36560,169,,,,SLOW,SLOW,,,0.0,-1.0,,0.0-166.0,,-3.0,,0.0,0.7080961309999999,0.0,0.708666865,0.0,0.431915581,1.0,0.481819489,True,,5f2c620abb242611c4607aa1,,2046443,169,,evan-feature22,full_rf_a,,1
138,36561,170,,,,1,1,1.0,1.0,0.0,-1.0,,0.0-167.0,,-1.0,497.945,1.0,0.721378003,1.0,0.71605913,0.0,0.36642387,0.0,0.5036739929999999,True,,5f2c620abb242611c4607aa1,,2056704,170,,evan-feature22,full_rf_a,,1
139,36562,171,,,,1,1,1.0,1.0,0.0,-1.0,,0.0-168.0,,-1.0,693.52,1.0,0.7340618959999999,1.0,0.699323252,0.0,0.35298046299999997,1.0,0.511241692,True,,5f2c620abb242611c4607aa1,,2067158,171,,evan-feature22,full_rf_a,,0
140,36563,172,,,,1,1,1.0,0.0,1.0,0.0,,0.0-169.0,,1.0,438.065,1.0,0.75,0.0,0.70412698,0.0,0.380734814,0.0,0.529580116,True,,5f2c620abb242611c4607aa1,,2077357,172,,evan-feature22,full_rf_a,,0
141,36564,173,,,,1,1,1.0,1.0,0.0,-1.0,,0.0-170.0,,-1.0,400.135,1.0,0.7436654909999999,1.0,0.711182751,0.0,0.41125331,1.0,0.49554405,True,,5f2c620abb242611c4607aa1,,2087521,173,,evan-feature22,full_rf_a,,0
142,36565,174,,,,1,1,1.0,1.0,0.0,-1.0,,0.0-171.0,,-1.0,473.585,1.0,0.731607915,1.0,0.651774583,1.0,0.35688023,1.0,0.45194491600000003,True,,5f2c620abb242611c4607aa1,,2097752,174,,evan-feature22,full_rf_a,,0
143,36566,175,,,,1,1,1.0,1.0,1.0,0.0,,0.0-172.0,,1.0,604.02,1.0,0.75,1.0,0.75,1.0,0.283145374,1.0,0.528608005,True,,5f2c620abb242611c4607aa1,,2108119,175,,evan-feature22,full_rf_a,,0
144,36567,176,,,,1,1,1.0,1.0,1.0,0.0,,0.0-173.0,,1.0,570.885,1.0,0.7491416890000001,1.0,0.7423785959999999,0.0,0.29135870399999997,0.0,0.498888318,True,,5f2c620abb242611c4607aa1,,2118450,176,,evan-feature22,full_rf_a,,0
145,36568,177,,,,1,1,1.0,1.0,1.0,0.0,,0.0-174.0,,1.0,568.15,1.0,0.708569387,1.0,0.717682277,0.0,0.294421699,1.0,0.493838163,True,,5f2c620abb242611c4607aa1,,2128783,177,,evan-feature22,full_rf_a,,0
146,36569,178,,,,2,2,0.0,0.0,0.0,-1.0,,0.0-175.0,,0.0,974.12,1.0,0.75,1.0,0.7383382159999999,0.0,0.356098707,0.0,0.442533405,True,,5f2c620abb242611c4607aa1,,2139520,178,,evan-feature22,full_rf_a,,1
147,36570,179,,,,2,2,0.0,1.0,0.0,-1.0,,0.0-176.0,,-1.0,1064.485,1.0,0.744527075,1.0,0.75,0.0,0.334127506,1.0,0.393165805,True,,5f2c620abb242611c4607aa1,,2150343,179,,evan-feature22,full_rf_a,,0
148,36571,180,,,,1,1,1.0,0.0,0.0,-1.0,,0.0-177.0,,0.0,705.575,1.0,0.75,0.0,0.75,0.0,0.33571021799999995,1.0,0.350393962,True,,5f2c620abb242611c4607aa1,,2160813,180,,evan-feature22,full_rf_a,,1
149,36572,181,,,,1,1,0.0,1.0,0.0,-1.0,,0.0-178.0,,-1.0,638.605,0.0,0.75,1.0,0.75,0.0,0.313628297,0.0,0.36349657399999996,True,,5f2c620abb242611c4607aa1,,2171213,181,,evan-feature22,full_rf_a,,0
150,36573,182,,,,1,1,0.0,1.0,1.0,0.0,,0.0-179.0,,0.0,679.05,0.0,0.75,1.0,0.734284182,1.0,0.262667667,0.0,0.380199119,True,,5f2c620abb242611c4607aa1,,2181652,182,,evan-feature22,full_rf_a,,0
151,36574,183,,,,2,2,0.0,1.0,0.0,-1.0,,0.0-180.0,,-1.0,537.64,1.0,0.75,1.0,0.75,0.0,0.25,1.0,0.394494013,True,,5f2c620abb242611c4607aa1,,2191954,183,,evan-feature22,full_rf_a,,1
152,36575,184,,,,1,1,0.0,1.0,1.0,0.0,,0.0-181.0,,0.0,394.67,0.0,0.722298145,1.0,0.7357822340000001,0.0,0.25,0.0,0.319142121,True,,5f2c620abb242611c4607aa1,,2202110,184,,evan-feature22,full_rf_a,,1
153,36576,185,,,,1,1,1.0,1.0,1.0,0.0,,0.0-182.0,,1.0,542.565,1.0,0.73149275,1.0,0.724276446,1.0,0.305856907,0.0,0.281315057,True,,5f2c620abb242611c4607aa1,,2212415,185,,evan-feature22,full_rf_a,,0
154,36577,186,,,,2,2,1.0,0.0,0.0,-1.0,,0.0-183.0,,0.0,710.97,1.0,0.7458732690000001,1.0,0.7336382459999999,1.0,0.272571964,0.0,0.266021999,True,,5f2c620abb242611c4607aa1,,2222887,186,,evan-feature22,full_rf_a,,1
155,36578,187,,,,2,2,1.0,1.0,0.0,-1.0,,0.0-184.0,,-1.0,380.66,1.0,0.705579037,1.0,0.720778292,1.0,0.320238144,1.0,0.30971744,True,,5f2c620abb242611c4607aa1,,2233028,187,,evan-feature22,full_rf_a,,0
156,36579,188,,,,1,1,1.0,1.0,0.0,-1.0,,0.0-185.0,,-1.0,635.5,1.0,0.700425648,1.0,0.7198784009999999,1.0,0.272590393,0.0,0.304182931,True,,5f2c620abb242611c4607aa1,,2243428,188,,evan-feature22,full_rf_a,,1
157,36580,189,,,,1,1,1.0,1.0,0.0,-1.0,,0.0-186.0,,-1.0,499.405,1.0,0.735590785,1.0,0.722714973,0.0,0.25,0.0,0.323421091,True,,5f2c620abb242611c4607aa1,,2253689,189,,evan-feature22,full_rf_a,,0
158,36581,190,,,,1,1,1.0,1.0,0.0,-1.0,,0.0-187.0,,-1.0,440.795,1.0,0.724807662,1.0,0.63146213,1.0,0.36836492600000004,0.0,0.34592153299999995,True,,5f2c620abb242611c4607aa1,,2263889,190,,evan-feature22,full_rf_a,,0
159,36582,191,,,,2,2,1.0,0.0,0.0,-1.0,,0.0-188.0,,0.0,429.065,0.0,0.7352796909999999,0.0,0.555111392,1.0,0.36003922,0.0,0.31433779999999995,True,,5f2c620abb242611c4607aa1,,2274079,191,,evan-feature22,full_rf_a,,1
160,36583,192,notice,,,,,,,,,,0.0-189.0,"{""Q0"":""Second was more repetitive ""}",,29527.0,,,,,,,,,True,,5f2c620abb242611c4607aa1,,2303607,192,Q,survey-text,full_rf_a,,1
161,36584,193,track1,,[1],,,,,,,,0.0-190.0,"{""Q0"":""no""}",,3422.0,,,,,,,,,True,,5f2c620abb242611c4607aa1,,2307033,193,Q,evan-quiz,full_rf_a,,1
162,36585,194,track2,,[0],,,,,,,,0.0-191.0,"{""Q0"":""yes""}",,8350.0,,,,,,,,,True,,5f2c620abb242611c4607aa1,,2315389,194,Q,evan-quiz,full_rf_a,,1
163,36586,195,strat,,,,,,,,,,0.0-192.0,"{""Q0"":""Spotting a pattern""}",,15700.0,,,,,,,,,True,,5f2c620abb242611c4607aa1,,2331096,195,Q,survey-text,full_rf_a,,1
