,index,Unnamed: 0,Q_name,button_pressed,choice_idxs,chosen_pos,chosen_state,chosen_state_f_1_outcome,chosen_state_f_2_outcome,f_1_reward,f_2_reward,incor_questions,internal_node_id,responses,reward_received,rt,s_1_f_1_outcome,s_1_f_1_prob,s_1_f_2_outcome,s_1_f_2_prob,s_2_f_1_outcome,s_2_f_1_prob,s_2_f_2_outcome,s_2_f_2_prob,safe_first,stimulus,subjectID,success,time_elapsed,trial_index,trial_num,trial_type,version,view_history,switching
0,37381,25,,,,1,1,1.0,0.0,0.0,-1.0,,0.0-27.0,,0.0,910.0,1.0,0.6,0.0,0.6,1.0,0.4,1.0,0.4,False,,5cd6c6fd987ddd00187b79fd,,801805,25,,evan-feature22,full_pf_a,,0
1,37382,26,,,,2,2,0.0,0.0,0.0,-1.0,,0.0-28.0,,0.0,383.0,0.0,0.608053294,0.0,0.63424552,0.0,0.397152172,0.0,0.347069101,False,,5cd6c6fd987ddd00187b79fd,,811945,26,,evan-feature22,full_pf_a,,1
2,37383,27,,,,2,2,0.0,0.0,0.0,-1.0,,0.0-29.0,,0.0,534.0,0.0,0.642237155,1.0,0.648566321,0.0,0.389407674,0.0,0.285525717,False,,5cd6c6fd987ddd00187b79fd,,822241,27,,evan-feature22,full_pf_a,,0
3,37384,28,,,,2,2,1.0,0.0,0.0,-1.0,,0.0-30.0,,0.0,807.0,1.0,0.661086576,1.0,0.630492543,1.0,0.399058924,0.0,0.25,False,,5cd6c6fd987ddd00187b79fd,,832807,28,,evan-feature22,full_pf_a,,0
4,37385,29,,,,1,1,0.0,1.0,0.0,-1.0,,0.0-31.0,,-1.0,322.0,0.0,0.631324137,1.0,0.6269842929999999,0.0,0.38734784299999997,0.0,0.25,False,,5cd6c6fd987ddd00187b79fd,,842891,29,,evan-feature22,full_pf_a,,1
5,37386,30,,,,1,1,1.0,0.0,0.0,-1.0,,0.0-32.0,,0.0,346.0,1.0,0.6381991370000001,0.0,0.68987999,0.0,0.384107265,0.0,0.271332943,False,,5cd6c6fd987ddd00187b79fd,,852995,30,,evan-feature22,full_pf_a,,0
6,37387,31,,,,1,1,1.0,1.0,0.0,-1.0,,0.0-33.0,,-1.0,397.0,1.0,0.66034901,1.0,0.742641349,1.0,0.360225629,0.0,0.25,False,,5cd6c6fd987ddd00187b79fd,,863150,31,,evan-feature22,full_pf_a,,0
7,37388,32,,,,2,2,0.0,0.0,1.0,0.0,,0.0-34.0,,0.0,653.0,0.0,0.638612418,1.0,0.75,0.0,0.367273939,0.0,0.25,False,,5cd6c6fd987ddd00187b79fd,,873564,32,,evan-feature22,full_pf_a,,1
8,37389,33,,,,1,1,1.0,1.0,0.0,-1.0,,0.0-35.0,,-1.0,283.0,1.0,0.624340629,1.0,0.75,0.0,0.425829545,1.0,0.25,False,,5cd6c6fd987ddd00187b79fd,,883605,33,,evan-feature22,full_pf_a,,1
9,37390,34,,,,1,1,0.0,1.0,0.0,-1.0,,0.0-36.0,,-1.0,275.0,0.0,0.621999804,1.0,0.75,0.0,0.368609357,0.0,0.25,False,,5cd6c6fd987ddd00187b79fd,,893640,34,,evan-feature22,full_pf_a,,0
10,37391,35,,,,2,2,0.0,0.0,1.0,0.0,,0.0-37.0,,0.0,226.0,1.0,0.62666403,1.0,0.75,0.0,0.311151498,0.0,0.25,False,,5cd6c6fd987ddd00187b79fd,,903628,35,,evan-feature22,full_pf_a,,1
11,37392,36,,,,2,2,0.0,0.0,1.0,0.0,,0.0-38.0,,0.0,465.0,0.0,0.6819650009999999,1.0,0.75,0.0,0.310763048,0.0,0.25,False,,5cd6c6fd987ddd00187b79fd,,913853,36,,evan-feature22,full_pf_a,,0
12,37393,37,,,,1,1,1.0,1.0,0.0,-1.0,,0.0-39.0,,-1.0,288.0,1.0,0.740626951,1.0,0.75,0.0,0.25,1.0,0.25,False,,5cd6c6fd987ddd00187b79fd,,923896,37,,evan-feature22,full_pf_a,,1
13,37394,38,,,,2,2,0.0,1.0,0.0,-1.0,,0.0-40.0,,-1.0,480.0,1.0,0.739599242,1.0,0.742034978,0.0,0.25397114600000004,1.0,0.25,False,,5cd6c6fd987ddd00187b79fd,,934136,38,,evan-feature22,full_pf_a,,1
14,37395,39,,,,1,1,1.0,1.0,0.0,-1.0,,0.0-41.0,,-1.0,551.0,1.0,0.732341315,1.0,0.72735643,0.0,0.25,0.0,0.25,False,,5cd6c6fd987ddd00187b79fd,,944445,39,,evan-feature22,full_pf_a,,1
15,37396,40,,,,2,2,0.0,1.0,0.0,-1.0,,0.0-42.0,,-1.0,261.0,0.0,0.7062287770000001,1.0,0.75,0.0,0.29002151,1.0,0.288256649,False,,5cd6c6fd987ddd00187b79fd,,954464,40,,evan-feature22,full_pf_a,,1
16,37397,41,,,,2,2,0.0,0.0,1.0,0.0,,0.0-43.0,,0.0,1110.0,1.0,0.7086029209999999,1.0,0.75,0.0,0.274129113,0.0,0.262851608,False,,5cd6c6fd987ddd00187b79fd,,965330,41,,evan-feature22,full_pf_a,,0
17,37398,42,,,,2,2,1.0,1.0,0.0,-1.0,,0.0-44.0,,-1.0,340.0,1.0,0.669189651,1.0,0.727614338,1.0,0.298444036,1.0,0.296944518,False,,5cd6c6fd987ddd00187b79fd,,975429,42,,evan-feature22,full_pf_a,,0
18,37399,43,,,,1,1,1.0,0.0,1.0,0.0,,0.0-45.0,,1.0,622.0,1.0,0.6819912929999999,0.0,0.7179434290000001,0.0,0.265003961,0.0,0.28157921199999997,False,,5cd6c6fd987ddd00187b79fd,,985810,43,,evan-feature22,full_pf_a,,1
19,37400,44,,,,1,1,1.0,1.0,1.0,0.0,,0.0-46.0,,1.0,350.0,1.0,0.665275002,1.0,0.723065271,1.0,0.260414971,1.0,0.30973870000000003,False,,5cd6c6fd987ddd00187b79fd,,995919,44,,evan-feature22,full_pf_a,,0
20,37401,45,,,,2,2,0.0,1.0,0.0,-1.0,,0.0-47.0,,-1.0,262.0,1.0,0.6660593260000001,1.0,0.728032907,0.0,0.30922817,1.0,0.338778608,False,,5cd6c6fd987ddd00187b79fd,,1005941,45,,evan-feature22,full_pf_a,,1
21,37402,46,,,,2,2,0.0,0.0,0.0,-1.0,,0.0-48.0,,0.0,345.0,0.0,0.702068785,0.0,0.6528750879999999,0.0,0.287329608,0.0,0.35789613200000003,False,,5cd6c6fd987ddd00187b79fd,,1016046,46,,evan-feature22,full_pf_a,,0
22,37403,47,,,,2,2,0.0,0.0,0.0,-1.0,,0.0-49.0,,0.0,313.0,1.0,0.651939787,1.0,0.636725589,0.0,0.284834488,0.0,0.358563756,False,,5cd6c6fd987ddd00187b79fd,,1026120,47,,evan-feature22,full_pf_a,,0
23,37404,48,,,,1,1,0.0,1.0,0.0,-1.0,,0.0-50.0,,-1.0,993.0,0.0,0.67573929,1.0,0.612550049,0.0,0.37130387600000003,1.0,0.383542402,False,,5cd6c6fd987ddd00187b79fd,,1036872,48,,evan-feature22,full_pf_a,,1
24,37405,49,,,,1,1,0.0,1.0,0.0,-1.0,,0.0-51.0,,-1.0,282.0,0.0,0.620753801,1.0,0.60513644,1.0,0.385529434,1.0,0.340361743,False,,5cd6c6fd987ddd00187b79fd,,1046917,49,,evan-feature22,full_pf_a,,0
25,37406,50,,,,1,1,1.0,1.0,1.0,0.0,,0.0-52.0,,1.0,410.0,1.0,0.673564893,1.0,0.672437924,0.0,0.292955382,0.0,0.337633795,False,,5cd6c6fd987ddd00187b79fd,,1057086,50,,evan-feature22,full_pf_a,,0
26,37407,51,,,,2,2,1.0,0.0,0.0,-1.0,,0.0-53.0,,0.0,254.0,0.0,0.6749427,0.0,0.724197502,1.0,0.32391132100000003,0.0,0.350995264,False,,5cd6c6fd987ddd00187b79fd,,1067097,51,,evan-feature22,full_pf_a,,1
27,37408,52,,,,1,1,1.0,1.0,0.0,-1.0,,0.0-54.0,,-1.0,309.0,1.0,0.6940159379999999,1.0,0.75,1.0,0.31710554399999996,0.0,0.413450341,False,,5cd6c6fd987ddd00187b79fd,,1077165,52,,evan-feature22,full_pf_a,,1
28,37409,53,,,,1,1,1.0,1.0,0.0,-1.0,,0.0-55.0,,-1.0,566.0,1.0,0.6916018270000001,1.0,0.69001187,0.0,0.261817804,0.0,0.40038635,False,,5cd6c6fd987ddd00187b79fd,,1087489,53,,evan-feature22,full_pf_a,,0
29,37410,54,,,,2,2,0.0,0.0,0.0,-1.0,,0.0-56.0,,0.0,361.0,1.0,0.641061544,1.0,0.71337992,0.0,0.277296461,0.0,0.47372791700000005,False,,5cd6c6fd987ddd00187b79fd,,1097610,54,,evan-feature22,full_pf_a,,1
30,37411,55,,,,2,2,1.0,1.0,0.0,-1.0,,0.0-57.0,,-1.0,267.0,1.0,0.6082438520000001,1.0,0.708471106,1.0,0.28745137,1.0,0.564174476,False,,5cd6c6fd987ddd00187b79fd,,1107635,55,,evan-feature22,full_pf_a,,0
31,37412,56,,,,2,2,1.0,0.0,1.0,0.0,,0.0-58.0,,1.0,575.0,0.0,0.6051112120000001,1.0,0.7118147229999999,1.0,0.272390611,0.0,0.5595149939999999,False,,5cd6c6fd987ddd00187b79fd,,1117971,56,,evan-feature22,full_pf_a,,0
32,37413,57,,,,2,2,0.0,0.0,1.0,0.0,,0.0-59.0,,0.0,458.0,0.0,0.582420852,1.0,0.635867583,0.0,0.31089574,0.0,0.5227206520000001,False,,5cd6c6fd987ddd00187b79fd,,1128188,57,,evan-feature22,full_pf_a,,0
33,37414,58,,,,1,1,1.0,1.0,1.0,0.0,,0.0-60.0,,1.0,267.0,1.0,0.623195575,1.0,0.655026044,0.0,0.25,1.0,0.560387538,False,,5cd6c6fd987ddd00187b79fd,,1138212,58,,evan-feature22,full_pf_a,,1
34,37415,59,,,,1,1,1.0,1.0,0.0,-1.0,,0.0-61.0,,-1.0,361.0,1.0,0.601889598,1.0,0.678198724,0.0,0.25,0.0,0.559922936,False,,5cd6c6fd987ddd00187b79fd,,1148329,59,,evan-feature22,full_pf_a,,0
35,37416,60,,,,2,2,0.0,1.0,1.0,0.0,,0.0-62.0,,0.0,307.0,1.0,0.601259914,1.0,0.704681482,0.0,0.33908969299999997,1.0,0.505003715,False,,5cd6c6fd987ddd00187b79fd,,1158392,60,,evan-feature22,full_pf_a,,1
36,37417,61,,,,2,2,0.0,0.0,1.0,0.0,,0.0-63.0,,0.0,810.0,1.0,0.59645454,1.0,0.710437172,0.0,0.327441879,0.0,0.391749613,False,,5cd6c6fd987ddd00187b79fd,,1168958,61,,evan-feature22,full_pf_a,,0
37,37418,62,,,,1,1,0.0,1.0,0.0,-1.0,,0.0-64.0,,-1.0,560.0,0.0,0.529473,1.0,0.636758527,0.0,0.301338063,1.0,0.365661481,False,,5cd6c6fd987ddd00187b79fd,,1179278,62,,evan-feature22,full_pf_a,,1
38,37419,63,,,,2,2,0.0,1.0,1.0,0.0,,0.0-65.0,,0.0,356.0,0.0,0.541657162,0.0,0.634541962,0.0,0.343535366,1.0,0.371763742,False,,5cd6c6fd987ddd00187b79fd,,1189395,63,,evan-feature22,full_pf_a,,1
39,37420,64,,,,2,2,0.0,0.0,1.0,0.0,,0.0-66.0,,0.0,277.0,0.0,0.5707533260000001,1.0,0.589121171,0.0,0.326428396,0.0,0.43961622899999997,False,,5cd6c6fd987ddd00187b79fd,,1199433,64,,evan-feature22,full_pf_a,,0
40,37421,65,,,,2,2,0.0,0.0,0.0,-1.0,,0.0-67.0,,0.0,870.0,1.0,0.5707533260000001,1.0,0.589121171,0.0,0.326428396,0.0,0.43961622899999997,False,,5cd6c6fd987ddd00187b79fd,,1210058,65,,evan-feature22,full_pf_a,,0
41,37422,66,,,,1,1,0.0,0.0,0.0,-1.0,,0.0-68.0,,0.0,377.0,0.0,0.506271295,0.0,0.641775594,1.0,0.37149690700000004,1.0,0.404330166,False,,5cd6c6fd987ddd00187b79fd,,1220196,66,,evan-feature22,full_pf_a,,1
42,37423,67,,,,2,2,0.0,1.0,1.0,0.0,,0.0-69.0,,0.0,270.0,0.0,0.455642565,1.0,0.623605825,0.0,0.358753011,1.0,0.346174041,False,,5cd6c6fd987ddd00187b79fd,,1230222,67,,evan-feature22,full_pf_a,,1
43,37424,68,,,,2,2,1.0,0.0,0.0,-1.0,,0.0-70.0,,0.0,28.0,0.0,0.483677308,1.0,0.5904681070000001,1.0,0.402218411,0.0,0.35344697,False,,5cd6c6fd987ddd00187b79fd,,1240008,68,,evan-feature22,full_pf_a,,0
44,37425,69,,,,2,2,1.0,1.0,1.0,0.0,,0.0-71.0,,1.0,286.0,1.0,0.394210977,0.0,0.558925494,1.0,0.540052017,1.0,0.35182128700000004,False,,5cd6c6fd987ddd00187b79fd,,1250055,69,,evan-feature22,full_pf_a,,0
45,37426,70,,,,1,1,0.0,1.0,0.0,-1.0,,0.0-72.0,,-1.0,978.0,0.0,0.382300414,1.0,0.577670603,1.0,0.607608448,0.0,0.378261578,False,,5cd6c6fd987ddd00187b79fd,,1260791,70,,evan-feature22,full_pf_a,,1
46,37427,71,,,,2,2,1.0,1.0,1.0,0.0,,0.0-73.0,,1.0,613.0,0.0,0.357596762,0.0,0.5929076529999999,1.0,0.6579790010000001,1.0,0.401326777,False,,5cd6c6fd987ddd00187b79fd,,1271165,71,,evan-feature22,full_pf_a,,1
47,37428,72,,,,2,2,1.0,0.0,0.0,-1.0,,0.0-74.0,,0.0,323.0,1.0,0.362033495,1.0,0.582308608,1.0,0.649195052,0.0,0.355158505,False,,5cd6c6fd987ddd00187b79fd,,1281246,72,,evan-feature22,full_pf_a,,0
48,37429,73,,,,2,2,1.0,1.0,0.0,-1.0,,0.0-75.0,,-1.0,293.0,0.0,0.369620635,1.0,0.669100864,1.0,0.706059111,1.0,0.362516241,False,,5cd6c6fd987ddd00187b79fd,,1291295,73,,evan-feature22,full_pf_a,,0
49,37430,74,,,,2,2,1.0,0.0,0.0,-1.0,,0.0-76.0,,0.0,325.0,0.0,0.41477751399999996,1.0,0.7284416779999999,1.0,0.7182656940000001,0.0,0.36228040899999997,False,,5cd6c6fd987ddd00187b79fd,,1301379,74,,evan-feature22,full_pf_a,,0
50,37431,75,,,,1,1,0.0,1.0,1.0,0.0,,0.0-77.0,,0.0,353.0,0.0,0.37675460299999997,1.0,0.703250285,1.0,0.75,1.0,0.461979164,False,,5cd6c6fd987ddd00187b79fd,,1311491,75,,evan-feature22,full_pf_a,,1
51,37432,76,,,,1,1,0.0,1.0,1.0,0.0,,0.0-78.0,,0.0,566.0,0.0,0.398716075,1.0,0.6723864890000001,0.0,0.674153818,0.0,0.519029516,False,,5cd6c6fd987ddd00187b79fd,,1321817,76,,evan-feature22,full_pf_a,,0
52,37433,77,,,,1,1,0.0,1.0,1.0,0.0,,0.0-79.0,,0.0,338.0,0.0,0.34677856700000004,1.0,0.69057175,1.0,0.6822438540000001,0.0,0.477292237,False,,5cd6c6fd987ddd00187b79fd,,1331914,77,,evan-feature22,full_pf_a,,0
53,37434,78,,,,2,2,1.0,1.0,0.0,-1.0,,0.0-80.0,,-1.0,270.0,1.0,0.28580469199999997,1.0,0.68408818,1.0,0.684207565,1.0,0.49780448299999996,False,,5cd6c6fd987ddd00187b79fd,,1341945,78,,evan-feature22,full_pf_a,,1
54,37436,80,,,,1,1,1.0,1.0,0.0,-1.0,,0.0-82.0,,-1.0,476.0,1.0,0.25,1.0,0.7405808970000001,1.0,0.679614108,1.0,0.436436964,False,,5cd6c6fd987ddd00187b79fd,,1354821,80,,evan-feature22,full_pf_a,,1
55,37437,81,,,,2,2,0.0,0.0,0.0,-1.0,,0.0-83.0,,0.0,286.0,1.0,0.29890393,1.0,0.730505706,0.0,0.7328203320000001,0.0,0.439256938,False,,5cd6c6fd987ddd00187b79fd,,1364863,81,,evan-feature22,full_pf_a,,1
56,37438,82,,,,2,2,1.0,1.0,1.0,0.0,,0.0-84.0,,1.0,280.0,0.0,0.326762398,1.0,0.7148059609999999,1.0,0.75,1.0,0.44389608799999997,False,,5cd6c6fd987ddd00187b79fd,,1374902,82,,evan-feature22,full_pf_a,,0
57,37439,83,,,,2,2,1.0,0.0,0.0,-1.0,,0.0-85.0,,0.0,360.0,0.0,0.295168515,1.0,0.739760854,1.0,0.719947008,0.0,0.35277284600000003,False,,5cd6c6fd987ddd00187b79fd,,1385022,83,,evan-feature22,full_pf_a,,0
58,37440,84,,,,1,1,0.0,1.0,0.0,-1.0,,0.0-86.0,,-1.0,310.0,0.0,0.25,1.0,0.70781482,1.0,0.75,0.0,0.286095925,False,,5cd6c6fd987ddd00187b79fd,,1395088,84,,evan-feature22,full_pf_a,,1
59,37441,85,,,,2,2,1.0,1.0,0.0,-1.0,,0.0-87.0,,-1.0,857.0,0.0,0.25638190899999996,0.0,0.704088163,1.0,0.75,1.0,0.26872601399999996,False,,5cd6c6fd987ddd00187b79fd,,1405703,85,,evan-feature22,full_pf_a,,1
60,37442,86,,,,2,2,1.0,0.0,1.0,0.0,,0.0-88.0,,1.0,275.0,0.0,0.271581126,1.0,0.669760107,1.0,0.733896663,0.0,0.273244572,False,,5cd6c6fd987ddd00187b79fd,,1415737,86,,evan-feature22,full_pf_a,,0
61,37443,87,,,,1,1,0.0,1.0,0.0,-1.0,,0.0-89.0,,-1.0,494.0,0.0,0.257144401,1.0,0.600575706,0.0,0.74488122,1.0,0.25,False,,5cd6c6fd987ddd00187b79fd,,1425990,87,,evan-feature22,full_pf_a,,1
62,37444,88,,,,2,2,1.0,1.0,0.0,-1.0,,0.0-90.0,,-1.0,728.0,0.0,0.25,0.0,0.616870026,1.0,0.723610234,1.0,0.25,False,,5cd6c6fd987ddd00187b79fd,,1436476,88,,evan-feature22,full_pf_a,,1
63,37445,89,,,,1,1,1.0,0.0,1.0,0.0,,0.0-91.0,,1.0,533.0,1.0,0.25,0.0,0.583540187,1.0,0.7041042559999999,0.0,0.285961995,False,,5cd6c6fd987ddd00187b79fd,,1446768,89,,evan-feature22,full_pf_a,,1
64,37446,90,,,,2,2,1.0,0.0,1.0,0.0,,0.0-92.0,,1.0,354.0,0.0,0.27254536,1.0,0.53875765,1.0,0.693783448,0.0,0.284961652,False,,5cd6c6fd987ddd00187b79fd,,1456886,90,,evan-feature22,full_pf_a,,1
65,37447,91,,,,2,2,1.0,0.0,1.0,0.0,,0.0-93.0,,1.0,347.0,0.0,0.25,1.0,0.548431252,1.0,0.734221895,0.0,0.279445214,False,,5cd6c6fd987ddd00187b79fd,,1466992,91,,evan-feature22,full_pf_a,,0
66,37448,92,,,,1,1,1.0,0.0,0.0,-1.0,,0.0-94.0,,0.0,1123.0,1.0,0.258640684,0.0,0.545878066,0.0,0.725245965,0.0,0.31487537,False,,5cd6c6fd987ddd00187b79fd,,1477874,92,,evan-feature22,full_pf_a,,1
67,37449,93,,,,2,2,0.0,1.0,0.0,-1.0,,0.0-95.0,,-1.0,322.0,0.0,0.251103711,0.0,0.5776290629999999,0.0,0.696320133,1.0,0.317831047,False,,5cd6c6fd987ddd00187b79fd,,1487954,93,,evan-feature22,full_pf_a,,1
68,37450,94,,,,2,2,1.0,0.0,0.0,-1.0,,0.0-96.0,,0.0,2329.0,0.0,0.276630292,0.0,0.617329858,1.0,0.73838088,0.0,0.261471582,False,,5cd6c6fd987ddd00187b79fd,,1500041,94,,evan-feature22,full_pf_a,,0
69,37451,95,,,,1,1,0.0,1.0,0.0,-1.0,,0.0-97.0,,-1.0,1687.0,0.0,0.297716424,1.0,0.618863717,1.0,0.7402358259999999,0.0,0.262600834,False,,5cd6c6fd987ddd00187b79fd,,1511484,95,,evan-feature22,full_pf_a,,1
70,37452,96,,,,2,2,0.0,0.0,1.0,0.0,,0.0-98.0,,0.0,351.0,1.0,0.290935512,1.0,0.695370945,0.0,0.706570507,0.0,0.280030553,False,,5cd6c6fd987ddd00187b79fd,,1521593,96,,evan-feature22,full_pf_a,,1
71,37453,97,,,,2,2,1.0,0.0,0.0,-1.0,,0.0-99.0,,0.0,381.0,0.0,0.25,1.0,0.6465277079999999,1.0,0.67766682,0.0,0.25,False,,5cd6c6fd987ddd00187b79fd,,1531735,97,,evan-feature22,full_pf_a,,0
72,37454,98,,,,2,2,0.0,0.0,1.0,0.0,,0.0-100.0,,0.0,312.0,1.0,0.26463816,0.0,0.636100213,0.0,0.646048507,0.0,0.265607101,False,,5cd6c6fd987ddd00187b79fd,,1541805,98,,evan-feature22,full_pf_a,,0
73,37455,99,,,,1,1,1.0,1.0,1.0,0.0,,0.0-101.0,,1.0,565.0,1.0,0.314340707,1.0,0.667795927,0.0,0.613630805,0.0,0.25,False,,5cd6c6fd987ddd00187b79fd,,1552133,99,,evan-feature22,full_pf_a,,1
74,37456,100,,,,2,2,1.0,0.0,0.0,-1.0,,0.0-102.0,,0.0,1064.0,0.0,0.28685784,1.0,0.6622549529999999,1.0,0.652154117,0.0,0.25,False,,5cd6c6fd987ddd00187b79fd,,1562960,100,,evan-feature22,full_pf_a,,1
75,37457,101,,,,1,1,0.0,1.0,0.0,-1.0,,0.0-103.0,,-1.0,552.0,0.0,0.304106554,1.0,0.631289538,0.0,0.707041942,0.0,0.29314237,False,,5cd6c6fd987ddd00187b79fd,,1573272,101,,evan-feature22,full_pf_a,,1
76,37458,102,,,,2,2,1.0,0.0,0.0,-1.0,,0.0-104.0,,0.0,885.0,0.0,0.304806932,1.0,0.571167718,1.0,0.680472346,0.0,0.25,False,,5cd6c6fd987ddd00187b79fd,,1583916,102,,evan-feature22,full_pf_a,,1
77,37459,103,,,,1,1,1.0,1.0,0.0,-1.0,,0.0-105.0,,-1.0,404.0,1.0,0.37919861,1.0,0.5724849710000001,1.0,0.705638003,1.0,0.30179300600000003,False,,5cd6c6fd987ddd00187b79fd,,1594081,103,,evan-feature22,full_pf_a,,1
78,37460,104,,,,2,2,1.0,1.0,0.0,-1.0,,0.0-106.0,,-1.0,1241.0,1.0,0.464277969,0.0,0.554034373,1.0,0.7372627340000001,1.0,0.264699741,False,,5cd6c6fd987ddd00187b79fd,,1605079,104,,evan-feature22,full_pf_a,,1
79,37461,105,,,,1,1,0.0,1.0,0.0,-1.0,,0.0-107.0,,-1.0,770.0,0.0,0.465104323,1.0,0.530793115,1.0,0.75,0.0,0.31683071,False,,5cd6c6fd987ddd00187b79fd,,1615608,105,,evan-feature22,full_pf_a,,1
80,37462,106,,,,2,2,1.0,0.0,1.0,0.0,,0.0-108.0,,1.0,579.0,0.0,0.465104323,0.0,0.530793115,1.0,0.75,0.0,0.31683071,False,,5cd6c6fd987ddd00187b79fd,,1625949,106,,evan-feature22,full_pf_a,,1
81,37463,107,,,,2,2,1.0,0.0,1.0,0.0,,0.0-109.0,,1.0,313.0,0.0,0.46833986,1.0,0.570249239,1.0,0.7244472590000001,0.0,0.364114163,False,,5cd6c6fd987ddd00187b79fd,,1636025,107,,evan-feature22,full_pf_a,,0
82,37464,108,,,,2,2,1.0,0.0,1.0,0.0,,0.0-110.0,,1.0,392.0,1.0,0.445444024,1.0,0.649673355,1.0,0.6845441290000001,0.0,0.300660449,False,,5cd6c6fd987ddd00187b79fd,,1646175,108,,evan-feature22,full_pf_a,,0
83,37465,109,,,,2,2,0.0,1.0,1.0,0.0,,0.0-111.0,,0.0,294.0,0.0,0.39909721299999995,1.0,0.6715179509999999,0.0,0.742310028,1.0,0.35496088299999995,False,,5cd6c6fd987ddd00187b79fd,,1656224,109,,evan-feature22,full_pf_a,,0
84,37466,110,,,,1,1,0.0,1.0,0.0,-1.0,,0.0-112.0,,-1.0,673.0,0.0,0.37956104799999996,1.0,0.694725302,1.0,0.7181651309999999,0.0,0.38726906299999997,False,,5cd6c6fd987ddd00187b79fd,,1666659,110,,evan-feature22,full_pf_a,,1
85,37467,111,,,,2,2,0.0,0.0,0.0,-1.0,,0.0-113.0,,0.0,491.0,0.0,0.404995034,1.0,0.724375412,0.0,0.6910946859999999,0.0,0.387187347,False,,5cd6c6fd987ddd00187b79fd,,1676906,111,,evan-feature22,full_pf_a,,1
86,37468,112,,,,2,2,1.0,0.0,1.0,0.0,,0.0-114.0,,1.0,442.0,0.0,0.461740803,1.0,0.75,1.0,0.75,0.0,0.34872038200000005,False,,5cd6c6fd987ddd00187b79fd,,1687108,112,,evan-feature22,full_pf_a,,0
87,37469,113,,,,1,1,0.0,1.0,1.0,0.0,,0.0-115.0,,0.0,285.0,0.0,0.43821380600000004,1.0,0.738833273,0.0,0.728286963,0.0,0.399538128,False,,5cd6c6fd987ddd00187b79fd,,1697153,113,,evan-feature22,full_pf_a,,1
88,37470,114,,,,1,1,0.0,1.0,0.0,-1.0,,0.0-116.0,,-1.0,287.0,0.0,0.41709882,1.0,0.736666736,1.0,0.75,0.0,0.389095584,False,,5cd6c6fd987ddd00187b79fd,,1707201,114,,evan-feature22,full_pf_a,,0
89,37471,115,,,,2,2,1.0,1.0,0.0,-1.0,,0.0-117.0,,-1.0,390.0,1.0,0.39749009799999996,1.0,0.744320029,1.0,0.75,1.0,0.363848678,False,,5cd6c6fd987ddd00187b79fd,,1717347,115,,evan-feature22,full_pf_a,,1
90,37472,116,,,,2,2,1.0,0.0,1.0,0.0,,0.0-118.0,,1.0,165.0,1.0,0.392653706,1.0,0.75,1.0,0.75,0.0,0.384386976,False,,5cd6c6fd987ddd00187b79fd,,1727268,116,,evan-feature22,full_pf_a,,0
91,37473,117,,,,2,2,1.0,1.0,0.0,-1.0,,0.0-119.0,,-1.0,363.0,1.0,0.31190902600000003,0.0,0.75,1.0,0.732413819,1.0,0.413082932,False,,5cd6c6fd987ddd00187b79fd,,1737390,117,,evan-feature22,full_pf_a,,0
92,37474,118,,,,2,2,1.0,1.0,1.0,0.0,,0.0-120.0,,1.0,101.0,1.0,0.366917648,1.0,0.740073855,1.0,0.75,1.0,0.352861979,False,,5cd6c6fd987ddd00187b79fd,,1747248,118,,evan-feature22,full_pf_a,,0
93,37475,119,,,,1,1,0.0,1.0,1.0,0.0,,0.0-121.0,,0.0,327.0,0.0,0.3645172,1.0,0.721770713,1.0,0.75,1.0,0.404074511,False,,5cd6c6fd987ddd00187b79fd,,1757335,119,,evan-feature22,full_pf_a,,1
94,37476,120,,,,2,2,1.0,0.0,1.0,0.0,,0.0-122.0,,1.0,627.0,0.0,0.35205600299999995,1.0,0.68983859,1.0,0.739735447,0.0,0.366895945,False,,5cd6c6fd987ddd00187b79fd,,1767721,120,,evan-feature22,full_pf_a,,1
95,37477,121,,,,1,1,0.0,1.0,1.0,0.0,,0.0-123.0,,0.0,1156.0,0.0,0.40998722600000004,1.0,0.720859127,1.0,0.673854955,1.0,0.368528541,False,,5cd6c6fd987ddd00187b79fd,,1778636,121,,evan-feature22,full_pf_a,,1
96,37478,122,,,,2,2,1.0,0.0,1.0,0.0,,0.0-124.0,,1.0,276.0,0.0,0.353625316,1.0,0.75,1.0,0.695605473,0.0,0.38303674200000004,False,,5cd6c6fd987ddd00187b79fd,,1788672,122,,evan-feature22,full_pf_a,,1
97,37479,123,,,,2,2,1.0,1.0,1.0,0.0,,0.0-125.0,,1.0,442.0,0.0,0.359216989,1.0,0.75,1.0,0.6987915090000001,1.0,0.35169046200000004,False,,5cd6c6fd987ddd00187b79fd,,1798875,123,,evan-feature22,full_pf_a,,0
98,37480,124,,,,2,2,1.0,0.0,1.0,0.0,,0.0-126.0,,1.0,313.0,0.0,0.35834496899999996,1.0,0.75,1.0,0.707067742,0.0,0.416763636,False,,5cd6c6fd987ddd00187b79fd,,1808942,124,,evan-feature22,full_pf_a,,0
99,37481,125,,,,1,1,1.0,1.0,0.0,-1.0,,0.0-127.0,,-1.0,681.0,1.0,0.38741613799999997,1.0,0.7177369570000001,1.0,0.734902455,1.0,0.49438664299999996,False,,5cd6c6fd987ddd00187b79fd,,1819381,125,,evan-feature22,full_pf_a,,1
100,37482,126,,,,1,1,1.0,1.0,1.0,0.0,,0.0-128.0,,1.0,1088.0,1.0,0.405255252,1.0,0.7300466640000001,1.0,0.7027748070000001,0.0,0.504359668,False,,5cd6c6fd987ddd00187b79fd,,1830226,126,,evan-feature22,full_pf_a,,0
101,37483,127,,,,1,1,1.0,1.0,1.0,0.0,,0.0-129.0,,1.0,459.0,1.0,0.40697073,1.0,0.7260142190000001,1.0,0.724461982,0.0,0.522779179,False,,5cd6c6fd987ddd00187b79fd,,1840444,127,,evan-feature22,full_pf_a,,0
102,37484,128,,,,2,2,1.0,1.0,1.0,0.0,,0.0-130.0,,1.0,784.0,1.0,0.43906215299999996,1.0,0.7252802340000001,1.0,0.719079934,1.0,0.5712990579999999,False,,5cd6c6fd987ddd00187b79fd,,1850986,128,,evan-feature22,full_pf_a,,1
103,37485,129,,,,2,2,1.0,0.0,0.0,-1.0,,0.0-131.0,,0.0,639.0,1.0,0.4076705,1.0,0.73280499,1.0,0.681313127,0.0,0.523891346,False,,5cd6c6fd987ddd00187b79fd,,1861380,129,,evan-feature22,full_pf_a,,0
104,37486,130,,,,1,1,0.0,0.0,0.0,-1.0,,0.0-132.0,,0.0,444.0,0.0,0.399102911,0.0,0.730498344,1.0,0.661080239,0.0,0.46742603,False,,5cd6c6fd987ddd00187b79fd,,1871583,130,,evan-feature22,full_pf_a,,1
105,37487,131,,,,2,2,1.0,0.0,0.0,-1.0,,0.0-133.0,,0.0,1157.0,0.0,0.356477282,1.0,0.712296395,1.0,0.641812684,0.0,0.44868414,False,,5cd6c6fd987ddd00187b79fd,,1882499,131,,evan-feature22,full_pf_a,,1
106,37488,132,,,,2,2,0.0,1.0,1.0,0.0,,0.0-134.0,,0.0,526.0,0.0,0.462760722,0.0,0.692349322,0.0,0.700947931,1.0,0.394680266,False,,5cd6c6fd987ddd00187b79fd,,1892781,132,,evan-feature22,full_pf_a,,0
107,37489,133,,,,1,1,0.0,1.0,1.0,0.0,,0.0-135.0,,0.0,690.0,0.0,0.422306413,1.0,0.718375916,1.0,0.706340917,0.0,0.367787185,False,,5cd6c6fd987ddd00187b79fd,,1903232,133,,evan-feature22,full_pf_a,,1
108,37491,135,,,,2,2,1.0,0.0,1.0,0.0,,0.0-137.0,,1.0,644.0,1.0,0.4582233,1.0,0.643834117,1.0,0.75,0.0,0.39615823299999997,False,,5cd6c6fd987ddd00187b79fd,,1934448,135,,evan-feature22,full_pf_a,,1
109,37492,136,,,,2,2,0.0,0.0,1.0,0.0,,0.0-138.0,,0.0,324.0,0.0,0.43813437899999996,1.0,0.651283804,0.0,0.729674191,0.0,0.37711048,False,,5cd6c6fd987ddd00187b79fd,,1944532,136,,evan-feature22,full_pf_a,,0
110,37493,137,,,,1,1,0.0,1.0,1.0,0.0,,0.0-139.0,,0.0,493.0,0.0,0.471199094,1.0,0.6470010979999999,1.0,0.715008097,0.0,0.410656191,False,,5cd6c6fd987ddd00187b79fd,,1954783,137,,evan-feature22,full_pf_a,,1
111,37494,138,,,,1,1,1.0,0.0,1.0,0.0,,0.0-140.0,,1.0,1088.0,1.0,0.42486406,0.0,0.629771829,0.0,0.6550939960000001,1.0,0.459093873,False,,5cd6c6fd987ddd00187b79fd,,1965629,138,,evan-feature22,full_pf_a,,0
112,37495,139,,,,2,2,1.0,0.0,1.0,0.0,,0.0-141.0,,1.0,353.0,1.0,0.4803197,1.0,0.645842715,1.0,0.6421749920000001,0.0,0.443092151,False,,5cd6c6fd987ddd00187b79fd,,1975741,139,,evan-feature22,full_pf_a,,1
113,37496,140,,,,2,2,1.0,0.0,0.0,-1.0,,0.0-142.0,,0.0,733.0,1.0,0.521848997,1.0,0.735801074,1.0,0.6691348460000001,0.0,0.45259351600000003,False,,5cd6c6fd987ddd00187b79fd,,1986228,140,,evan-feature22,full_pf_a,,0
114,37497,141,,,,2,2,0.0,1.0,1.0,0.0,,0.0-143.0,,0.0,353.0,1.0,0.49565621299999996,1.0,0.742400847,0.0,0.661512553,1.0,0.483110831,False,,5cd6c6fd987ddd00187b79fd,,1996343,141,,evan-feature22,full_pf_a,,0
115,37498,142,,,,1,1,0.0,1.0,1.0,0.0,,0.0-144.0,,0.0,357.0,0.0,0.521564361,1.0,0.731078632,1.0,0.6774886809999999,1.0,0.483263956,False,,5cd6c6fd987ddd00187b79fd,,2006457,142,,evan-feature22,full_pf_a,,1
116,37499,143,,,,1,1,0.0,1.0,1.0,0.0,,0.0-145.0,,0.0,249.0,0.0,0.558893102,1.0,0.719810023,1.0,0.67461031,0.0,0.499349834,False,,5cd6c6fd987ddd00187b79fd,,2016468,143,,evan-feature22,full_pf_a,,0
117,37500,144,,,,2,2,1.0,0.0,1.0,0.0,,0.0-146.0,,1.0,582.0,1.0,0.611031046,1.0,0.75,1.0,0.688072995,0.0,0.5321422729999999,False,,5cd6c6fd987ddd00187b79fd,,2026807,144,,evan-feature22,full_pf_a,,1
118,37501,145,,,,2,2,0.0,1.0,0.0,-1.0,,0.0-147.0,,-1.0,274.0,1.0,0.633223941,1.0,0.713567728,0.0,0.75,1.0,0.48185314700000004,False,,5cd6c6fd987ddd00187b79fd,,2036840,145,,evan-feature22,full_pf_a,,0
119,37502,146,,,,1,1,1.0,0.0,1.0,0.0,,0.0-148.0,,1.0,285.0,1.0,0.664001694,0.0,0.705509768,1.0,0.75,1.0,0.500211065,False,,5cd6c6fd987ddd00187b79fd,,2046883,146,,evan-feature22,full_pf_a,,1
120,37503,147,,,,1,1,0.0,1.0,1.0,0.0,,0.0-149.0,,0.0,282.0,0.0,0.664001694,1.0,0.705509768,0.0,0.75,0.0,0.500211065,False,,5cd6c6fd987ddd00187b79fd,,2056921,147,,evan-feature22,full_pf_a,,0
121,37504,148,,,,2,2,1.0,0.0,1.0,0.0,,0.0-150.0,,1.0,870.0,0.0,0.696508041,1.0,0.71066027,1.0,0.717028709,0.0,0.49792991,False,,5cd6c6fd987ddd00187b79fd,,2067556,148,,evan-feature22,full_pf_a,,1
122,37505,149,,,,1,1,0.0,1.0,0.0,-1.0,,0.0-151.0,,-1.0,482.0,0.0,0.699883272,1.0,0.75,0.0,0.713543895,1.0,0.496962643,False,,5cd6c6fd987ddd00187b79fd,,2077795,149,,evan-feature22,full_pf_a,,1
123,37506,150,,,,1,1,1.0,1.0,0.0,-1.0,,0.0-152.0,,-1.0,286.0,1.0,0.741163419,1.0,0.75,1.0,0.64691024,1.0,0.513858197,False,,5cd6c6fd987ddd00187b79fd,,2087838,150,,evan-feature22,full_pf_a,,0
124,37507,151,,,,2,2,1.0,1.0,0.0,-1.0,,0.0-153.0,,-1.0,370.0,0.0,0.75,1.0,0.70816558,1.0,0.594499079,1.0,0.48502124,False,,5cd6c6fd987ddd00187b79fd,,2097968,151,,evan-feature22,full_pf_a,,1
125,37508,152,,,,1,1,1.0,1.0,1.0,0.0,,0.0-154.0,,1.0,281.0,1.0,0.75,1.0,0.721848901,0.0,0.62197249,0.0,0.48263586399999997,False,,5cd6c6fd987ddd00187b79fd,,2108007,152,,evan-feature22,full_pf_a,,1
126,37509,153,,,,2,2,1.0,0.0,1.0,0.0,,0.0-155.0,,1.0,2532.0,1.0,0.75,0.0,0.74813071,1.0,0.584357161,0.0,0.411477782,False,,5cd6c6fd987ddd00187b79fd,,2120298,153,,evan-feature22,full_pf_a,,1
127,37510,154,,,,2,2,1.0,0.0,1.0,0.0,,0.0-156.0,,1.0,1030.0,0.0,0.75,1.0,0.75,1.0,0.52287236,0.0,0.488290656,False,,5cd6c6fd987ddd00187b79fd,,2131086,154,,evan-feature22,full_pf_a,,0
128,37511,155,,,,1,1,1.0,1.0,1.0,0.0,,0.0-157.0,,1.0,268.0,1.0,0.75,1.0,0.75,0.0,0.544321581,0.0,0.53143059,False,,5cd6c6fd987ddd00187b79fd,,2141114,155,,evan-feature22,full_pf_a,,1
129,37512,156,,,,2,2,0.0,1.0,1.0,0.0,,0.0-158.0,,0.0,1246.0,0.0,0.726754564,1.0,0.75,0.0,0.5129306370000001,1.0,0.530592445,False,,5cd6c6fd987ddd00187b79fd,,2152121,156,,evan-feature22,full_pf_a,,1
130,37513,157,,,,2,2,0.0,1.0,0.0,-1.0,,0.0-159.0,,-1.0,241.0,1.0,0.75,1.0,0.7392590729999999,0.0,0.479875835,1.0,0.547007051,False,,5cd6c6fd987ddd00187b79fd,,2162126,157,,evan-feature22,full_pf_a,,0
131,37514,158,,,,2,2,0.0,0.0,0.0,-1.0,,0.0-160.0,,0.0,533.0,0.0,0.75,1.0,0.7393376979999999,0.0,0.546045419,0.0,0.541267353,False,,5cd6c6fd987ddd00187b79fd,,2172419,158,,evan-feature22,full_pf_a,,0
132,37515,159,,,,2,2,0.0,1.0,1.0,0.0,,0.0-161.0,,0.0,426.0,0.0,0.75,0.0,0.75,0.0,0.485725895,1.0,0.527625395,False,,5cd6c6fd987ddd00187b79fd,,2182606,159,,evan-feature22,full_pf_a,,0
133,37516,160,,,,1,1,1.0,1.0,0.0,-1.0,,0.0-162.0,,-1.0,875.0,1.0,0.75,1.0,0.725087974,0.0,0.488603595,0.0,0.504019206,False,,5cd6c6fd987ddd00187b79fd,,2193240,160,,evan-feature22,full_pf_a,,1
134,37517,161,,,,1,1,1.0,1.0,1.0,0.0,,0.0-163.0,,1.0,284.0,1.0,0.745504295,1.0,0.75,1.0,0.452379914,0.0,0.50131194,False,,5cd6c6fd987ddd00187b79fd,,2203281,161,,evan-feature22,full_pf_a,,0
135,37518,162,,,,1,1,0.0,0.0,0.0,-1.0,,0.0-164.0,,0.0,281.0,0.0,0.728513874,0.0,0.75,0.0,0.44125567200000004,1.0,0.531454591,False,,5cd6c6fd987ddd00187b79fd,,2213324,162,,evan-feature22,full_pf_a,,0
136,37519,163,,,,2,2,0.0,0.0,1.0,0.0,,0.0-165.0,,0.0,630.0,1.0,0.73790804,0.0,0.75,0.0,0.413036656,0.0,0.524619035,False,,5cd6c6fd987ddd00187b79fd,,2223714,163,,evan-feature22,full_pf_a,,1
137,37520,164,,,,2,2,0.0,0.0,1.0,0.0,,0.0-166.0,,0.0,353.0,1.0,0.7080961309999999,0.0,0.708666865,0.0,0.431915581,0.0,0.481819489,False,,5cd6c6fd987ddd00187b79fd,,2233824,164,,evan-feature22,full_pf_a,,0
138,37521,165,,,,2,2,0.0,0.0,1.0,0.0,,0.0-167.0,,0.0,509.0,0.0,0.721378003,1.0,0.71605913,0.0,0.36642387,0.0,0.5036739929999999,False,,5cd6c6fd987ddd00187b79fd,,2244088,165,,evan-feature22,full_pf_a,,0
139,37522,166,,,,2,2,0.0,0.0,0.0,-1.0,,0.0-168.0,,0.0,336.0,1.0,0.7340618959999999,1.0,0.699323252,0.0,0.35298046299999997,0.0,0.511241692,False,,5cd6c6fd987ddd00187b79fd,,2254181,166,,evan-feature22,full_pf_a,,0
140,37523,167,,,,2,2,0.0,0.0,0.0,-1.0,,0.0-169.0,,0.0,561.0,1.0,0.75,0.0,0.70412698,0.0,0.380734814,0.0,0.529580116,False,,5cd6c6fd987ddd00187b79fd,,2264502,167,,evan-feature22,full_pf_a,,0
141,37524,168,,,,1,1,0.0,1.0,0.0,-1.0,,0.0-170.0,,-1.0,269.0,0.0,0.7436654909999999,1.0,0.711182751,1.0,0.41125331,1.0,0.49554405,False,,5cd6c6fd987ddd00187b79fd,,2274536,168,,evan-feature22,full_pf_a,,1
142,37525,169,,,,1,1,1.0,0.0,1.0,0.0,,0.0-171.0,,1.0,236.0,1.0,0.731607915,0.0,0.651774583,0.0,0.35688023,1.0,0.45194491600000003,False,,5cd6c6fd987ddd00187b79fd,,2284528,169,,evan-feature22,full_pf_a,,0
143,37526,170,,,,2,2,0.0,0.0,0.0,-1.0,,0.0-172.0,,0.0,537.0,1.0,0.75,0.0,0.75,0.0,0.283145374,0.0,0.528608005,False,,5cd6c6fd987ddd00187b79fd,,2294823,170,,evan-feature22,full_pf_a,,1
144,37527,171,,,,2,2,0.0,1.0,1.0,0.0,,0.0-173.0,,0.0,336.0,1.0,0.7491416890000001,1.0,0.7423785959999999,0.0,0.29135870399999997,1.0,0.498888318,False,,5cd6c6fd987ddd00187b79fd,,2304913,171,,evan-feature22,full_pf_a,,0
145,37528,172,,,,2,2,0.0,1.0,0.0,-1.0,,0.0-174.0,,-1.0,533.0,1.0,0.708569387,0.0,0.717682277,0.0,0.294421699,1.0,0.493838163,False,,5cd6c6fd987ddd00187b79fd,,2315205,172,,evan-feature22,full_pf_a,,0
146,37529,173,,,,2,2,0.0,1.0,1.0,0.0,,0.0-175.0,,0.0,826.0,1.0,0.75,1.0,0.7383382159999999,0.0,0.356098707,1.0,0.442533405,False,,5cd6c6fd987ddd00187b79fd,,2325792,173,,evan-feature22,full_pf_a,,0
147,37530,174,,,,2,2,0.0,0.0,1.0,0.0,,0.0-176.0,,0.0,335.0,1.0,0.744527075,1.0,0.75,0.0,0.334127506,0.0,0.393165805,False,,5cd6c6fd987ddd00187b79fd,,2335886,174,,evan-feature22,full_pf_a,,0
148,37531,175,,,,2,2,1.0,1.0,1.0,0.0,,0.0-177.0,,1.0,342.0,1.0,0.75,1.0,0.75,1.0,0.33571021799999995,1.0,0.350393962,False,,5cd6c6fd987ddd00187b79fd,,2345988,175,,evan-feature22,full_pf_a,,0
149,37532,176,,,,1,1,1.0,1.0,0.0,-1.0,,0.0-178.0,,-1.0,267.0,1.0,0.75,1.0,0.75,0.0,0.313628297,1.0,0.36349657399999996,False,,5cd6c6fd987ddd00187b79fd,,2356013,176,,evan-feature22,full_pf_a,,1
150,37533,177,,,,2,2,0.0,0.0,1.0,0.0,,0.0-179.0,,0.0,311.0,1.0,0.75,1.0,0.734284182,0.0,0.262667667,0.0,0.380199119,False,,5cd6c6fd987ddd00187b79fd,,2366085,177,,evan-feature22,full_pf_a,,1
151,37534,178,,,,1,1,1.0,1.0,1.0,0.0,,0.0-180.0,,1.0,317.0,1.0,0.75,1.0,0.75,0.0,0.25,0.0,0.394494013,False,,5cd6c6fd987ddd00187b79fd,,2376164,178,,evan-feature22,full_pf_a,,1
152,37535,179,,,,1,1,1.0,0.0,1.0,0.0,,0.0-181.0,,1.0,961.0,1.0,0.722298145,0.0,0.7357822340000001,1.0,0.25,1.0,0.319142121,False,,5cd6c6fd987ddd00187b79fd,,2386883,179,,evan-feature22,full_pf_a,,0
153,37536,180,,,,2,2,0.0,0.0,1.0,0.0,,0.0-182.0,,0.0,426.0,1.0,0.73149275,1.0,0.724276446,0.0,0.305856907,0.0,0.281315057,False,,5cd6c6fd987ddd00187b79fd,,2397064,180,,evan-feature22,full_pf_a,,1
154,37537,181,,,,1,1,1.0,1.0,1.0,0.0,,0.0-183.0,,1.0,297.0,1.0,0.7458732690000001,1.0,0.7336382459999999,0.0,0.272571964,0.0,0.266021999,False,,5cd6c6fd987ddd00187b79fd,,2407122,181,,evan-feature22,full_pf_a,,1
155,37538,182,,,,2,2,0.0,0.0,0.0,-1.0,,0.0-184.0,,0.0,744.0,1.0,0.705579037,0.0,0.720778292,0.0,0.320238144,0.0,0.30971744,False,,5cd6c6fd987ddd00187b79fd,,2417625,182,,evan-feature22,full_pf_a,,1
156,37539,183,,,,1,1,1.0,1.0,0.0,-1.0,,0.0-185.0,,-1.0,330.0,1.0,0.700425648,1.0,0.7198784009999999,0.0,0.272590393,1.0,0.304182931,False,,5cd6c6fd987ddd00187b79fd,,2427712,183,,evan-feature22,full_pf_a,,1
157,37540,184,,,,2,2,0.0,0.0,0.0,-1.0,,0.0-186.0,,0.0,522.0,0.0,0.735590785,0.0,0.722714973,0.0,0.25,0.0,0.323421091,False,,5cd6c6fd987ddd00187b79fd,,2437992,184,,evan-feature22,full_pf_a,,1
158,37541,185,,,,2,2,0.0,0.0,0.0,-1.0,,0.0-187.0,,0.0,467.0,1.0,0.724807662,1.0,0.63146213,0.0,0.36836492600000004,0.0,0.34592153299999995,False,,5cd6c6fd987ddd00187b79fd,,2448217,185,,evan-feature22,full_pf_a,,0
159,37542,186,,,,1,1,0.0,0.0,1.0,0.0,,0.0-188.0,,0.0,378.0,0.0,0.7352796909999999,0.0,0.555111392,1.0,0.36003922,0.0,0.31433779999999995,False,,5cd6c6fd987ddd00187b79fd,,2458353,186,,evan-feature22,full_pf_a,,1
160,37543,187,notice,,,,,,,,,,0.0-189.0,"{""Q0"":""No differences""}",,9663.0,,,,,,,,,False,,5cd6c6fd987ddd00187b79fd,,2468020,187,Q,survey-text,full_pf_a,,1
161,37544,188,track1,,[1],,,,,,,,0.0-190.0,"{""Q0"":""no""}",,4829.0,,,,,,,,,False,,5cd6c6fd987ddd00187b79fd,,2472850,188,Q,evan-quiz,full_pf_a,,1
162,37545,189,track2,,[0],,,,,,,,0.0-191.0,"{""Q0"":""yes""}",,5674.0,,,,,,,,,False,,5cd6c6fd987ddd00187b79fd,,2478526,189,Q,evan-quiz,full_pf_a,,1
163,37546,190,strat,,,,,,,,,,0.0-192.0,"{""Q0"":""If I got a minus two times I would stay on the same side, if I got a plus I would swap, if I then got a second plus I would stay on that door. ""}",,50823.0,,,,,,,,,False,,5cd6c6fd987ddd00187b79fd,,2529351,190,Q,survey-text,full_pf_a,,1
