,index,Unnamed: 0,Q_name,button_pressed,choice_idxs,chosen_pos,chosen_state,chosen_state_f_1_outcome,chosen_state_f_2_outcome,f_1_reward,f_2_reward,incor_questions,internal_node_id,responses,reward_received,rt,s_1_f_1_outcome,s_1_f_1_prob,s_1_f_2_outcome,s_1_f_2_prob,s_2_f_1_outcome,s_2_f_1_prob,s_2_f_2_outcome,s_2_f_2_prob,safe_first,stimulus,subjectID,success,time_elapsed,trial_index,trial_num,trial_type,version,view_history,switching
0,22109,25,,,,1,1,0.0,1.0,-1.0,0.0,,0.0-27.0,,0.0,1187.185001,0.0,0.6,1.0,0.6,0.0,0.4,1.0,0.4,False,,5abe2d5c1667e40001d8250f,,1148526,25,,evan-feature22,full_pf_b,,0
1,22110,26,,,,1,1,0.0,1.0,-1.0,0.0,,0.0-28.0,,0.0,561.2699995,0.0,0.608053294,1.0,0.63424552,1.0,0.397152172,1.0,0.347069101,False,,5abe2d5c1667e40001d8250f,,1158904,26,,evan-feature22,full_pf_b,,0
2,22111,27,,,,2,2,0.0,1.0,-1.0,0.0,,0.0-29.0,,0.0,1859.89,0.0,0.642237155,1.0,0.648566321,0.0,0.389407674,1.0,0.285525717,False,,5abe2d5c1667e40001d8250f,,1170576,27,,evan-feature22,full_pf_b,,1
3,22112,28,,,,2,2,0.0,1.0,-1.0,0.0,,0.0-30.0,,0.0,2150.865,1.0,0.661086576,0.0,0.630492543,0.0,0.399058924,1.0,0.25,False,,5abe2d5c1667e40001d8250f,,1182561,28,,evan-feature22,full_pf_b,,0
4,22113,29,,,,1,1,1.0,0.0,0.0,1.0,,0.0-31.0,,0.0,328.9949996,1.0,0.631324137,0.0,0.6269842929999999,0.0,0.38734784299999997,0.0,0.25,False,,5abe2d5c1667e40001d8250f,,1192713,29,,evan-feature22,full_pf_b,,1
5,22114,30,,,,1,1,1.0,1.0,0.0,1.0,,0.0-32.0,,1.0,1029.62,1.0,0.6381991370000001,1.0,0.68987999,1.0,0.384107265,1.0,0.271332943,False,,5abe2d5c1667e40001d8250f,,1203571,30,,evan-feature22,full_pf_b,,0
6,22115,31,,,,1,1,0.0,0.0,-1.0,0.0,,0.0-33.0,,0.0,404.5599997,0.0,0.66034901,0.0,0.742641349,1.0,0.360225629,0.0,0.25,False,,5abe2d5c1667e40001d8250f,,1213765,31,,evan-feature22,full_pf_b,,0
7,22116,32,,,,1,1,0.0,1.0,-1.0,0.0,,0.0-34.0,,0.0,345.28999960000004,0.0,0.638612418,1.0,0.75,0.0,0.367273939,0.0,0.25,False,,5abe2d5c1667e40001d8250f,,1223932,32,,evan-feature22,full_pf_b,,0
8,22117,33,,,,2,2,1.0,1.0,0.0,1.0,,0.0-35.0,,1.0,1025.75,1.0,0.624340629,1.0,0.75,1.0,0.425829545,1.0,0.25,False,,5abe2d5c1667e40001d8250f,,1234781,33,,evan-feature22,full_pf_b,,1
9,22118,34,,,,2,2,0.0,1.0,0.0,1.0,,0.0-36.0,,1.0,489.5850001,0.0,0.621999804,1.0,0.75,0.0,0.368609357,1.0,0.25,False,,5abe2d5c1667e40001d8250f,,1245077,34,,evan-feature22,full_pf_b,,0
10,22119,35,,,,2,2,0.0,0.0,-1.0,0.0,,0.0-37.0,,0.0,1558.495,1.0,0.62666403,1.0,0.75,0.0,0.311151498,0.0,0.25,False,,5abe2d5c1667e40001d8250f,,1256460,35,,evan-feature22,full_pf_b,,0
11,22120,36,,,,1,1,1.0,1.0,0.0,1.0,,0.0-38.0,,1.0,644.4800002999999,1.0,0.6819650009999999,1.0,0.75,1.0,0.310763048,0.0,0.25,False,,5abe2d5c1667e40001d8250f,,1266978,36,,evan-feature22,full_pf_b,,1
12,22121,37,,,,2,2,1.0,0.0,-1.0,0.0,,0.0-39.0,,-1.0,966.2949992,1.0,0.740626951,1.0,0.75,1.0,0.25,0.0,0.25,False,,5abe2d5c1667e40001d8250f,,1277780,37,,evan-feature22,full_pf_b,,1
13,22122,38,,,,1,1,0.0,1.0,-1.0,0.0,,0.0-40.0,,0.0,1010.21,0.0,0.739599242,1.0,0.742034978,0.0,0.25397114600000004,1.0,0.25,False,,5abe2d5c1667e40001d8250f,,1288621,38,,evan-feature22,full_pf_b,,1
14,22123,39,,,,2,2,0.0,0.0,-1.0,0.0,,0.0-41.0,,0.0,1754.885,1.0,0.732341315,1.0,0.72735643,0.0,0.25,0.0,0.25,False,,5abe2d5c1667e40001d8250f,,1300170,39,,evan-feature22,full_pf_b,,1
15,22124,40,,,,1,1,0.0,1.0,-1.0,0.0,,0.0-42.0,,0.0,254.01500049999999,0.0,0.7062287770000001,1.0,0.75,1.0,0.29002151,1.0,0.288256649,False,,5abe2d5c1667e40001d8250f,,1310242,40,,evan-feature22,full_pf_b,,1
16,22125,41,,,,2,2,0.0,1.0,-1.0,0.0,,0.0-43.0,,0.0,690.1150001,1.0,0.7086029209999999,0.0,0.75,0.0,0.274129113,1.0,0.262851608,False,,5abe2d5c1667e40001d8250f,,1320770,41,,evan-feature22,full_pf_b,,1
17,22126,42,,,,1,1,0.0,1.0,-1.0,0.0,,0.0-44.0,,0.0,375.8049998,0.0,0.669189651,1.0,0.727614338,0.0,0.298444036,1.0,0.296944518,False,,5abe2d5c1667e40001d8250f,,1330978,42,,evan-feature22,full_pf_b,,1
18,22127,43,,,,1,1,1.0,1.0,-1.0,0.0,,0.0-45.0,,-1.0,295.90500049999997,1.0,0.6819912929999999,1.0,0.7179434290000001,1.0,0.265003961,1.0,0.28157921199999997,False,,5abe2d5c1667e40001d8250f,,1341105,43,,evan-feature22,full_pf_b,,0
19,22128,44,,,,2,2,0.0,1.0,0.0,1.0,,0.0-46.0,,1.0,1062.755,1.0,0.665275002,1.0,0.723065271,0.0,0.260414971,1.0,0.30973870000000003,False,,5abe2d5c1667e40001d8250f,,1352006,44,,evan-feature22,full_pf_b,,1
20,22129,45,,,,2,2,1.0,0.0,-1.0,0.0,,0.0-47.0,,-1.0,644.1850001,0.0,0.6660593260000001,1.0,0.728032907,1.0,0.30922817,0.0,0.338778608,False,,5abe2d5c1667e40001d8250f,,1362490,45,,evan-feature22,full_pf_b,,0
21,22130,46,,,,2,2,1.0,1.0,-1.0,0.0,,0.0-48.0,,-1.0,562.0649997,1.0,0.702068785,1.0,0.6528750879999999,1.0,0.287329608,1.0,0.35789613200000003,False,,5abe2d5c1667e40001d8250f,,1372886,46,,evan-feature22,full_pf_b,,0
22,22131,47,,,,2,2,0.0,0.0,-1.0,0.0,,0.0-49.0,,0.0,329.3050006,1.0,0.651939787,0.0,0.636725589,0.0,0.284834488,0.0,0.358563756,False,,5abe2d5c1667e40001d8250f,,1383010,47,,evan-feature22,full_pf_b,,0
23,22132,48,,,,1,1,1.0,1.0,0.0,1.0,,0.0-50.0,,1.0,272.66499960000004,1.0,0.67573929,1.0,0.612550049,1.0,0.37130387600000003,0.0,0.383542402,False,,5abe2d5c1667e40001d8250f,,1393116,48,,evan-feature22,full_pf_b,,1
24,22133,49,,,,2,2,0.0,1.0,0.0,1.0,,0.0-51.0,,1.0,361.91000039999994,1.0,0.620753801,1.0,0.60513644,0.0,0.385529434,1.0,0.340361743,False,,5abe2d5c1667e40001d8250f,,1403317,49,,evan-feature22,full_pf_b,,1
25,22134,50,,,,1,1,0.0,1.0,0.0,1.0,,0.0-52.0,,1.0,543.3599995,0.0,0.673564893,1.0,0.672437924,0.0,0.292955382,0.0,0.337633795,False,,5abe2d5c1667e40001d8250f,,1413701,50,,evan-feature22,full_pf_b,,1
26,22135,51,,,,2,2,0.0,1.0,-1.0,0.0,,0.0-53.0,,0.0,464.3050004,1.0,0.6749427,1.0,0.724197502,0.0,0.32391132100000003,1.0,0.350995264,False,,5abe2d5c1667e40001d8250f,,1424016,51,,evan-feature22,full_pf_b,,1
27,22136,52,,,,1,1,0.0,0.0,-1.0,0.0,,0.0-54.0,,0.0,411.9750001,0.0,0.6940159379999999,0.0,0.75,1.0,0.31710554399999996,0.0,0.413450341,False,,5abe2d5c1667e40001d8250f,,1434241,52,,evan-feature22,full_pf_b,,1
28,22137,53,,,,2,2,1.0,0.0,-1.0,0.0,,0.0-55.0,,-1.0,272.775,1.0,0.6916018270000001,0.0,0.69001187,1.0,0.261817804,0.0,0.40038635,False,,5abe2d5c1667e40001d8250f,,1444327,53,,evan-feature22,full_pf_b,,1
29,22138,54,,,,2,2,1.0,0.0,-1.0,0.0,,0.0-56.0,,-1.0,795.3899996,0.0,0.641061544,1.0,0.71337992,1.0,0.277296461,0.0,0.47372791700000005,False,,5abe2d5c1667e40001d8250f,,1454940,54,,evan-feature22,full_pf_b,,0
30,22139,55,,,,1,1,1.0,1.0,-1.0,0.0,,0.0-57.0,,-1.0,326.0199996,1.0,0.6082438520000001,1.0,0.708471106,1.0,0.28745137,0.0,0.564174476,False,,5abe2d5c1667e40001d8250f,,1465106,55,,evan-feature22,full_pf_b,,1
31,22140,56,,,,2,2,0.0,1.0,-1.0,0.0,,0.0-58.0,,0.0,581.1149998999999,1.0,0.6051112120000001,0.0,0.7118147229999999,0.0,0.272390611,1.0,0.5595149939999999,False,,5abe2d5c1667e40001d8250f,,1475512,56,,evan-feature22,full_pf_b,,1
32,22141,57,,,,1,1,0.0,1.0,-1.0,0.0,,0.0-59.0,,0.0,309.2799997,0.0,0.582420852,1.0,0.635867583,0.0,0.31089574,1.0,0.5227206520000001,False,,5abe2d5c1667e40001d8250f,,1485646,57,,evan-feature22,full_pf_b,,1
33,22142,58,,,,1,1,0.0,1.0,0.0,1.0,,0.0-60.0,,1.0,307.9550005,0.0,0.623195575,1.0,0.655026044,1.0,0.25,0.0,0.560387538,False,,5abe2d5c1667e40001d8250f,,1495786,58,,evan-feature22,full_pf_b,,0
34,22143,59,,,,1,1,1.0,0.0,-1.0,0.0,,0.0-61.0,,-1.0,558.4800001,1.0,0.601889598,0.0,0.678198724,0.0,0.25,1.0,0.559922936,False,,5abe2d5c1667e40001d8250f,,1506152,59,,evan-feature22,full_pf_b,,0
35,22144,60,,,,2,2,0.0,1.0,-1.0,0.0,,0.0-62.0,,0.0,618.8900005,1.0,0.601259914,0.0,0.704681482,0.0,0.33908969299999997,1.0,0.505003715,False,,5abe2d5c1667e40001d8250f,,1516591,60,,evan-feature22,full_pf_b,,1
36,22145,61,,,,1,1,1.0,0.0,-1.0,0.0,,0.0-63.0,,-1.0,1312.265,1.0,0.59645454,0.0,0.710437172,1.0,0.327441879,0.0,0.391749613,False,,5abe2d5c1667e40001d8250f,,1527731,61,,evan-feature22,full_pf_b,,1
37,22146,62,,,,SLOW,SLOW,,,-1.0,0.0,,0.0-64.0,,-3.0,,0.0,0.529473,1.0,0.636758527,0.0,0.301338063,0.0,0.365661481,False,,5abe2d5c1667e40001d8250f,,1533567,62,,evan-feature22,full_pf_b,,1
38,22147,63,,,,SLOW,SLOW,,,0.0,1.0,,0.0-65.0,,-3.0,,1.0,0.541657162,1.0,0.634541962,1.0,0.343535366,1.0,0.371763742,False,,5abe2d5c1667e40001d8250f,,1539419,63,,evan-feature22,full_pf_b,,0
39,22148,64,,,,2,2,0.0,0.0,-1.0,0.0,,0.0-66.0,,0.0,1782.7349989999998,0.0,0.5707533260000001,0.0,0.589121171,0.0,0.326428396,0.0,0.43961622899999997,False,,5abe2d5c1667e40001d8250f,,1551053,64,,evan-feature22,full_pf_b,,1
40,22149,65,,,,SLOW,SLOW,,,-1.0,0.0,,0.0-67.0,,-3.0,,0.0,0.5707533260000001,0.0,0.589121171,0.0,0.326428396,1.0,0.43961622899999997,False,,5abe2d5c1667e40001d8250f,,1556884,65,,evan-feature22,full_pf_b,,1
41,22150,66,,,,SLOW,SLOW,,,-1.0,0.0,,0.0-68.0,,-3.0,,0.0,0.506271295,1.0,0.641775594,0.0,0.37149690700000004,0.0,0.404330166,False,,5abe2d5c1667e40001d8250f,,1562723,66,,evan-feature22,full_pf_b,,0
42,22151,67,,,,SLOW,SLOW,,,0.0,1.0,,0.0-69.0,,-3.0,,0.0,0.455642565,0.0,0.623605825,0.0,0.358753011,0.0,0.346174041,False,,5abe2d5c1667e40001d8250f,,1568567,67,,evan-feature22,full_pf_b,,0
43,22152,68,,,,SLOW,SLOW,,,0.0,1.0,,0.0-70.0,,-3.0,,0.0,0.483677308,0.0,0.5904681070000001,0.0,0.402218411,0.0,0.35344697,False,,5abe2d5c1667e40001d8250f,,1574413,68,,evan-feature22,full_pf_b,,0
44,22153,69,,,,2,2,0.0,0.0,0.0,1.0,,0.0-71.0,,0.0,494.55500020000005,1.0,0.394210977,0.0,0.558925494,0.0,0.540052017,0.0,0.35182128700000004,False,,5abe2d5c1667e40001d8250f,,1584715,69,,evan-feature22,full_pf_b,,1
45,22154,70,,,,1,1,1.0,0.0,-1.0,0.0,,0.0-72.0,,-1.0,637.8149996000001,1.0,0.382300414,0.0,0.577670603,0.0,0.607608448,0.0,0.378261578,False,,5abe2d5c1667e40001d8250f,,1595180,70,,evan-feature22,full_pf_b,,1
46,22155,71,,,,2,2,1.0,1.0,-1.0,0.0,,0.0-73.0,,-1.0,433.7550001,1.0,0.357596762,1.0,0.5929076529999999,1.0,0.6579790010000001,1.0,0.401326777,False,,5abe2d5c1667e40001d8250f,,1605436,71,,evan-feature22,full_pf_b,,1
47,22156,72,,,,1,1,0.0,1.0,-1.0,0.0,,0.0-74.0,,0.0,501.8299995,0.0,0.362033495,1.0,0.582308608,1.0,0.649195052,0.0,0.355158505,False,,5abe2d5c1667e40001d8250f,,1615775,72,,evan-feature22,full_pf_b,,1
48,22157,73,,,,1,1,0.0,0.0,-1.0,0.0,,0.0-75.0,,0.0,357.01000039999997,0.0,0.369620635,0.0,0.669100864,1.0,0.706059111,0.0,0.362516241,False,,5abe2d5c1667e40001d8250f,,1625953,73,,evan-feature22,full_pf_b,,0
49,22158,74,,,,1,1,1.0,1.0,-1.0,0.0,,0.0-76.0,,-1.0,425.1950001,1.0,0.41477751399999996,1.0,0.7284416779999999,0.0,0.7182656940000001,1.0,0.36228040899999997,False,,5abe2d5c1667e40001d8250f,,1636200,74,,evan-feature22,full_pf_b,,0
50,22159,75,,,,2,2,1.0,0.0,0.0,1.0,,0.0-77.0,,0.0,839.8599997000001,0.0,0.37675460299999997,1.0,0.703250285,1.0,0.75,0.0,0.461979164,False,,5abe2d5c1667e40001d8250f,,1646851,75,,evan-feature22,full_pf_b,,1
51,22160,76,,,,1,1,1.0,1.0,0.0,1.0,,0.0-78.0,,1.0,642.945,1.0,0.398716075,1.0,0.6723864890000001,0.0,0.674153818,0.0,0.519029516,False,,5abe2d5c1667e40001d8250f,,1657311,76,,evan-feature22,full_pf_b,,1
52,22161,77,,,,1,1,0.0,1.0,-1.0,0.0,,0.0-79.0,,0.0,435.6550006,0.0,0.34677856700000004,1.0,0.69057175,0.0,0.6822438540000001,0.0,0.477292237,False,,5abe2d5c1667e40001d8250f,,1667568,77,,evan-feature22,full_pf_b,,0
53,22162,78,,,,2,2,1.0,0.0,0.0,1.0,,0.0-80.0,,0.0,3582.925,0.0,0.28580469199999997,1.0,0.68408818,1.0,0.684207565,0.0,0.49780448299999996,False,,5abe2d5c1667e40001d8250f,,1680969,78,,evan-feature22,full_pf_b,,1
54,22164,80,,,,1,1,0.0,1.0,-1.0,0.0,,0.0-82.0,,0.0,1052.639999,0.0,0.25,1.0,0.7405808970000001,0.0,0.679614108,1.0,0.436436964,False,,5abe2d5c1667e40001d8250f,,1694136,80,,evan-feature22,full_pf_b,,1
55,22165,81,,,,2,2,0.0,1.0,0.0,1.0,,0.0-83.0,,1.0,283.6199999,0.0,0.29890393,1.0,0.730505706,0.0,0.7328203320000001,1.0,0.439256938,False,,5abe2d5c1667e40001d8250f,,1704256,81,,evan-feature22,full_pf_b,,1
56,22166,82,,,,1,1,1.0,1.0,-1.0,0.0,,0.0-84.0,,-1.0,767.0,1.0,0.326762398,1.0,0.7148059609999999,1.0,0.75,0.0,0.44389608799999997,False,,5abe2d5c1667e40001d8250f,,1714864,82,,evan-feature22,full_pf_b,,1
57,22167,83,,,,2,2,1.0,0.0,-1.0,0.0,,0.0-85.0,,-1.0,1176.425001,0.0,0.295168515,0.0,0.739760854,1.0,0.719947008,0.0,0.35277284600000003,False,,5abe2d5c1667e40001d8250f,,1725845,83,,evan-feature22,full_pf_b,,1
58,22168,84,,,,1,1,1.0,1.0,-1.0,0.0,,0.0-86.0,,-1.0,728.1250004,1.0,0.25,1.0,0.70781482,1.0,0.75,0.0,0.286095925,False,,5abe2d5c1667e40001d8250f,,1736416,84,,evan-feature22,full_pf_b,,1
59,22169,85,,,,2,2,1.0,0.0,0.0,1.0,,0.0-87.0,,0.0,1220.235,1.0,0.25638190899999996,1.0,0.704088163,1.0,0.75,0.0,0.26872601399999996,False,,5abe2d5c1667e40001d8250f,,1747479,85,,evan-feature22,full_pf_b,,1
60,22170,86,,,,1,1,0.0,0.0,0.0,1.0,,0.0-88.0,,0.0,917.1850001,0.0,0.271581126,0.0,0.669760107,1.0,0.733896663,0.0,0.273244572,False,,5abe2d5c1667e40001d8250f,,1758224,86,,evan-feature22,full_pf_b,,1
61,22171,87,,,,1,1,0.0,0.0,0.0,1.0,,0.0-89.0,,0.0,580.9700005,0.0,0.257144401,0.0,0.600575706,1.0,0.74488122,0.0,0.25,False,,5abe2d5c1667e40001d8250f,,1768606,87,,evan-feature22,full_pf_b,,0
62,22172,88,,,,1,1,0.0,1.0,-1.0,0.0,,0.0-90.0,,0.0,699.6149998,0.0,0.25,1.0,0.616870026,1.0,0.723610234,0.0,0.25,False,,5abe2d5c1667e40001d8250f,,1779133,88,,evan-feature22,full_pf_b,,0
63,22173,89,,,,2,2,1.0,0.0,0.0,1.0,,0.0-91.0,,0.0,582.0850004,0.0,0.25,1.0,0.583540187,1.0,0.7041042559999999,0.0,0.285961995,False,,5abe2d5c1667e40001d8250f,,1789543,89,,evan-feature22,full_pf_b,,1
64,22174,90,,,,1,1,1.0,1.0,-1.0,0.0,,0.0-92.0,,-1.0,213.54500019999998,1.0,0.27254536,1.0,0.53875765,0.0,0.693783448,0.0,0.284961652,False,,5abe2d5c1667e40001d8250f,,1799593,90,,evan-feature22,full_pf_b,,1
65,22175,91,,,,2,2,1.0,0.0,0.0,1.0,,0.0-93.0,,0.0,472.72,1.0,0.25,0.0,0.548431252,1.0,0.734221895,0.0,0.279445214,False,,5abe2d5c1667e40001d8250f,,1809890,91,,evan-feature22,full_pf_b,,1
66,22176,92,,,,1,1,0.0,0.0,-1.0,0.0,,0.0-94.0,,0.0,556.2650003,0.0,0.258640684,0.0,0.545878066,0.0,0.725245965,1.0,0.31487537,False,,5abe2d5c1667e40001d8250f,,1820262,92,,evan-feature22,full_pf_b,,1
67,22177,93,,,,1,1,0.0,1.0,-1.0,0.0,,0.0-95.0,,0.0,322.2550005,0.0,0.251103711,1.0,0.5776290629999999,0.0,0.696320133,0.0,0.317831047,False,,5abe2d5c1667e40001d8250f,,1830415,93,,evan-feature22,full_pf_b,,0
68,22178,94,,,,2,2,1.0,0.0,-1.0,0.0,,0.0-96.0,,-1.0,395.5899999,0.0,0.276630292,1.0,0.617329858,1.0,0.73838088,0.0,0.261471582,False,,5abe2d5c1667e40001d8250f,,1840623,94,,evan-feature22,full_pf_b,,1
69,22179,95,,,,1,1,1.0,1.0,0.0,1.0,,0.0-97.0,,1.0,1074.8,1.0,0.297716424,1.0,0.618863717,1.0,0.7402358259999999,0.0,0.262600834,False,,5abe2d5c1667e40001d8250f,,1851524,95,,evan-feature22,full_pf_b,,1
70,22180,96,,,,1,1,0.0,0.0,-1.0,0.0,,0.0-98.0,,0.0,482.4199993,0.0,0.290935512,0.0,0.695370945,1.0,0.706570507,1.0,0.280030553,False,,5abe2d5c1667e40001d8250f,,1861831,96,,evan-feature22,full_pf_b,,0
71,22181,97,,,,1,1,0.0,1.0,-1.0,0.0,,0.0-99.0,,0.0,998.0299994,0.0,0.25,1.0,0.6465277079999999,0.0,0.67766682,0.0,0.25,False,,5abe2d5c1667e40001d8250f,,1872677,97,,evan-feature22,full_pf_b,,0
72,22182,98,,,,1,1,0.0,0.0,-1.0,0.0,,0.0-100.0,,0.0,436.5900001,0.0,0.26463816,0.0,0.636100213,0.0,0.646048507,0.0,0.265607101,False,,5abe2d5c1667e40001d8250f,,1882911,98,,evan-feature22,full_pf_b,,0
73,22183,99,,,,2,2,0.0,0.0,-1.0,0.0,,0.0-101.0,,0.0,815.3549992000001,0.0,0.314340707,1.0,0.667795927,0.0,0.613630805,0.0,0.25,False,,5abe2d5c1667e40001d8250f,,1893544,99,,evan-feature22,full_pf_b,,1
74,22184,100,,,,2,2,1.0,0.0,-1.0,0.0,,0.0-102.0,,-1.0,307.84500019999996,0.0,0.28685784,0.0,0.6622549529999999,1.0,0.652154117,0.0,0.25,False,,5abe2d5c1667e40001d8250f,,1903669,100,,evan-feature22,full_pf_b,,0
75,22185,101,,,,SLOW,SLOW,,,0.0,1.0,,0.0-103.0,,-3.0,,0.0,0.304106554,1.0,0.631289538,1.0,0.707041942,1.0,0.29314237,False,,5abe2d5c1667e40001d8250f,,1909494,101,,evan-feature22,full_pf_b,,1
76,22186,102,,,,1,1,0.0,0.0,0.0,1.0,,0.0-104.0,,0.0,786.5800001,0.0,0.304806932,0.0,0.571167718,1.0,0.680472346,0.0,0.25,False,,5abe2d5c1667e40001d8250f,,1920107,102,,evan-feature22,full_pf_b,,1
77,22187,103,,,,2,2,1.0,0.0,0.0,1.0,,0.0-105.0,,0.0,611.85,1.0,0.37919861,0.0,0.5724849710000001,1.0,0.705638003,0.0,0.30179300600000003,False,,5abe2d5c1667e40001d8250f,,1930556,103,,evan-feature22,full_pf_b,,1
78,22188,104,,,,1,1,0.0,1.0,0.0,1.0,,0.0-106.0,,1.0,969.3200001,0.0,0.464277969,1.0,0.554034373,1.0,0.7372627340000001,0.0,0.264699741,False,,5abe2d5c1667e40001d8250f,,1941337,104,,evan-feature22,full_pf_b,,1
79,22189,105,,,,2,2,1.0,0.0,-1.0,0.0,,0.0-107.0,,-1.0,566.3249996000001,0.0,0.465104323,0.0,0.530793115,1.0,0.75,0.0,0.31683071,False,,5abe2d5c1667e40001d8250f,,1951714,105,,evan-feature22,full_pf_b,,1
80,22190,106,,,,1,1,1.0,1.0,0.0,1.0,,0.0-108.0,,1.0,506.7599993,1.0,0.465104323,1.0,0.530793115,1.0,0.75,0.0,0.31683071,False,,5abe2d5c1667e40001d8250f,,1962030,106,,evan-feature22,full_pf_b,,1
81,22191,107,,,,1,1,1.0,1.0,0.0,1.0,,0.0-109.0,,1.0,521.0250001,1.0,0.46833986,1.0,0.570249239,1.0,0.7244472590000001,0.0,0.364114163,False,,5abe2d5c1667e40001d8250f,,1972393,107,,evan-feature22,full_pf_b,,0
82,22192,108,,,,1,1,0.0,0.0,0.0,1.0,,0.0-110.0,,0.0,350.5250001,0.0,0.445444024,0.0,0.649673355,0.0,0.6845441290000001,0.0,0.300660449,False,,5abe2d5c1667e40001d8250f,,1982559,108,,evan-feature22,full_pf_b,,0
83,22193,109,,,,1,1,0.0,0.0,0.0,1.0,,0.0-111.0,,0.0,950.22,0.0,0.39909721299999995,0.0,0.6715179509999999,1.0,0.742310028,0.0,0.35496088299999995,False,,5abe2d5c1667e40001d8250f,,1993358,109,,evan-feature22,full_pf_b,,0
84,22194,110,,,,1,1,1.0,0.0,0.0,1.0,,0.0-112.0,,0.0,298.66500010000004,1.0,0.37956104799999996,0.0,0.694725302,1.0,0.7181651309999999,1.0,0.38726906299999997,False,,5abe2d5c1667e40001d8250f,,2003475,110,,evan-feature22,full_pf_b,,0
85,22195,111,,,,1,1,0.0,1.0,0.0,1.0,,0.0-113.0,,1.0,1697.97,0.0,0.404995034,1.0,0.724375412,1.0,0.6910946859999999,1.0,0.387187347,False,,5abe2d5c1667e40001d8250f,,2015005,111,,evan-feature22,full_pf_b,,0
86,22196,112,,,,1,1,0.0,1.0,0.0,1.0,,0.0-114.0,,1.0,346.33500039999996,0.0,0.461740803,1.0,0.75,1.0,0.75,0.0,0.34872038200000005,False,,5abe2d5c1667e40001d8250f,,2025179,112,,evan-feature22,full_pf_b,,0
87,22197,113,,,,1,1,0.0,1.0,-1.0,0.0,,0.0-115.0,,0.0,1027.165,0.0,0.43821380600000004,1.0,0.738833273,0.0,0.728286963,1.0,0.399538128,False,,5abe2d5c1667e40001d8250f,,2036030,113,,evan-feature22,full_pf_b,,0
88,22198,114,,,,1,1,1.0,1.0,0.0,1.0,,0.0-116.0,,1.0,747.49,1.0,0.41709882,1.0,0.736666736,1.0,0.75,0.0,0.389095584,False,,5abe2d5c1667e40001d8250f,,2046603,114,,evan-feature22,full_pf_b,,0
89,22199,115,,,,1,1,0.0,0.0,0.0,1.0,,0.0-117.0,,0.0,403.64500039999996,0.0,0.39749009799999996,0.0,0.744320029,1.0,0.75,1.0,0.363848678,False,,5abe2d5c1667e40001d8250f,,2056809,115,,evan-feature22,full_pf_b,,0
90,22200,116,,,,1,1,0.0,0.0,-1.0,0.0,,0.0-118.0,,0.0,333.90999960000005,0.0,0.392653706,0.0,0.75,1.0,0.75,0.0,0.384386976,False,,5abe2d5c1667e40001d8250f,,2067001,116,,evan-feature22,full_pf_b,,0
91,22201,117,,,,1,1,1.0,0.0,-1.0,0.0,,0.0-119.0,,-1.0,730.8149999,1.0,0.31190902600000003,0.0,0.75,1.0,0.732413819,0.0,0.413082932,False,,5abe2d5c1667e40001d8250f,,2077569,117,,evan-feature22,full_pf_b,,0
92,22202,118,,,,1,1,0.0,0.0,0.0,1.0,,0.0-120.0,,0.0,399.8799995,0.0,0.366917648,0.0,0.740073855,1.0,0.75,1.0,0.352861979,False,,5abe2d5c1667e40001d8250f,,2087783,118,,evan-feature22,full_pf_b,,0
93,22203,119,,,,2,2,1.0,0.0,0.0,1.0,,0.0-121.0,,0.0,563.2999996,1.0,0.3645172,0.0,0.721770713,1.0,0.75,0.0,0.404074511,False,,5abe2d5c1667e40001d8250f,,2098169,119,,evan-feature22,full_pf_b,,1
94,22204,120,,,,1,1,1.0,0.0,0.0,1.0,,0.0-122.0,,0.0,291.9349996,1.0,0.35205600299999995,0.0,0.68983859,1.0,0.739735447,0.0,0.366895945,False,,5abe2d5c1667e40001d8250f,,2108300,120,,evan-feature22,full_pf_b,,1
95,22205,121,,,,2,2,1.0,0.0,0.0,1.0,,0.0-123.0,,0.0,936.0650005000001,0.0,0.40998722600000004,1.0,0.720859127,1.0,0.673854955,0.0,0.368528541,False,,5abe2d5c1667e40001d8250f,,2119067,121,,evan-feature22,full_pf_b,,1
96,22206,122,,,,1,1,0.0,1.0,-1.0,0.0,,0.0-124.0,,0.0,201.7399995,0.0,0.353625316,1.0,0.75,1.0,0.695605473,0.0,0.38303674200000004,False,,5abe2d5c1667e40001d8250f,,2129097,122,,evan-feature22,full_pf_b,,1
97,22207,123,,,,2,2,1.0,0.0,0.0,1.0,,0.0-125.0,,0.0,345.01999989999996,1.0,0.359216989,0.0,0.75,1.0,0.6987915090000001,0.0,0.35169046200000004,False,,5abe2d5c1667e40001d8250f,,2139271,123,,evan-feature22,full_pf_b,,1
98,22208,124,,,,1,1,0.0,1.0,-1.0,0.0,,0.0-126.0,,0.0,576.0200005,0.0,0.35834496899999996,1.0,0.75,1.0,0.707067742,1.0,0.416763636,False,,5abe2d5c1667e40001d8250f,,2149662,124,,evan-feature22,full_pf_b,,1
99,22209,125,,,,2,2,1.0,0.0,-1.0,0.0,,0.0-127.0,,-1.0,400.65500049999997,0.0,0.38741613799999997,1.0,0.7177369570000001,1.0,0.734902455,0.0,0.49438664299999996,False,,5abe2d5c1667e40001d8250f,,2159852,125,,evan-feature22,full_pf_b,,1
100,22210,126,,,,1,1,1.0,1.0,0.0,1.0,,0.0-128.0,,1.0,822.6850005,1.0,0.405255252,1.0,0.7300466640000001,1.0,0.7027748070000001,1.0,0.504359668,False,,5abe2d5c1667e40001d8250f,,2170494,126,,evan-feature22,full_pf_b,,1
101,22211,127,,,,1,1,0.0,1.0,0.0,1.0,,0.0-129.0,,1.0,631.2600002,0.0,0.40697073,1.0,0.7260142190000001,0.0,0.724461982,1.0,0.522779179,False,,5abe2d5c1667e40001d8250f,,2180944,127,,evan-feature22,full_pf_b,,0
102,22212,128,,,,1,1,1.0,1.0,0.0,1.0,,0.0-130.0,,1.0,996.5200005,1.0,0.43906215299999996,1.0,0.7252802340000001,1.0,0.719079934,1.0,0.5712990579999999,False,,5abe2d5c1667e40001d8250f,,2191740,128,,evan-feature22,full_pf_b,,0
103,22213,129,,,,1,1,0.0,0.0,0.0,1.0,,0.0-131.0,,0.0,760.1450002,0.0,0.4076705,0.0,0.73280499,1.0,0.681313127,1.0,0.523891346,False,,5abe2d5c1667e40001d8250f,,2202325,129,,evan-feature22,full_pf_b,,0
104,22214,130,,,,1,1,0.0,1.0,0.0,1.0,,0.0-132.0,,1.0,534.5049994,0.0,0.399102911,1.0,0.730498344,1.0,0.661080239,0.0,0.46742603,False,,5abe2d5c1667e40001d8250f,,2212695,130,,evan-feature22,full_pf_b,,0
105,22215,131,,,,1,1,1.0,1.0,-1.0,0.0,,0.0-133.0,,-1.0,304.72000039999995,1.0,0.356477282,1.0,0.712296395,0.0,0.641812684,1.0,0.44868414,False,,5abe2d5c1667e40001d8250f,,2222808,131,,evan-feature22,full_pf_b,,0
106,22216,132,,,,1,1,0.0,1.0,0.0,1.0,,0.0-134.0,,1.0,390.865,0.0,0.462760722,1.0,0.692349322,1.0,0.700947931,0.0,0.394680266,False,,5abe2d5c1667e40001d8250f,,2233019,132,,evan-feature22,full_pf_b,,0
107,22217,133,,,,1,1,1.0,1.0,0.0,1.0,,0.0-135.0,,1.0,690.99,1.0,0.422306413,1.0,0.718375916,1.0,0.706340917,0.0,0.367787185,False,,5abe2d5c1667e40001d8250f,,2243544,133,,evan-feature22,full_pf_b,,0
108,22219,135,,,,1,1,1.0,0.0,0.0,1.0,,0.0-137.0,,0.0,2410.639999,1.0,0.4582233,0.0,0.643834117,1.0,0.75,1.0,0.39615823299999997,False,,5abe2d5c1667e40001d8250f,,2259701,135,,evan-feature22,full_pf_b,,0
109,22220,136,,,,2,2,1.0,1.0,0.0,1.0,,0.0-138.0,,1.0,2840.2,1.0,0.43813437899999996,1.0,0.651283804,1.0,0.729674191,1.0,0.37711048,False,,5abe2d5c1667e40001d8250f,,2272379,136,,evan-feature22,full_pf_b,,1
110,22221,137,,,,1,1,0.0,1.0,0.0,1.0,,0.0-139.0,,1.0,847.1350008999999,0.0,0.471199094,1.0,0.6470010979999999,1.0,0.715008097,0.0,0.410656191,False,,5abe2d5c1667e40001d8250f,,2283060,137,,evan-feature22,full_pf_b,,1
111,22222,138,,,,1,1,0.0,1.0,-1.0,0.0,,0.0-140.0,,0.0,471.3899996,0.0,0.42486406,1.0,0.629771829,0.0,0.6550939960000001,0.0,0.459093873,False,,5abe2d5c1667e40001d8250f,,2293343,138,,evan-feature22,full_pf_b,,0
112,22223,139,,,,1,1,1.0,1.0,-1.0,0.0,,0.0-141.0,,-1.0,1366.92,1.0,0.4803197,1.0,0.645842715,0.0,0.6421749920000001,1.0,0.443092151,False,,5abe2d5c1667e40001d8250f,,2304530,139,,evan-feature22,full_pf_b,,0
113,22224,140,,,,1,1,0.0,1.0,-1.0,0.0,,0.0-142.0,,0.0,3306.945,0.0,0.521848997,1.0,0.735801074,1.0,0.6691348460000001,0.0,0.45259351600000003,False,,5abe2d5c1667e40001d8250f,,2317641,140,,evan-feature22,full_pf_b,,0
114,22225,141,,,,1,1,0.0,0.0,0.0,1.0,,0.0-143.0,,0.0,2101.39,0.0,0.49565621299999996,0.0,0.742400847,1.0,0.661512553,0.0,0.483110831,False,,5abe2d5c1667e40001d8250f,,2329569,141,,evan-feature22,full_pf_b,,0
115,22226,142,,,,2,2,0.0,1.0,-1.0,0.0,,0.0-144.0,,0.0,661.8100003999999,0.0,0.521564361,1.0,0.731078632,0.0,0.6774886809999999,1.0,0.483263956,False,,5abe2d5c1667e40001d8250f,,2340037,142,,evan-feature22,full_pf_b,,1
116,22227,143,,,,1,1,1.0,1.0,-1.0,0.0,,0.0-145.0,,-1.0,3342.425,1.0,0.558893102,1.0,0.719810023,1.0,0.67461031,1.0,0.499349834,False,,5abe2d5c1667e40001d8250f,,2353226,143,,evan-feature22,full_pf_b,,1
117,22228,144,,,,2,2,0.0,1.0,0.0,1.0,,0.0-146.0,,1.0,1143.045,0.0,0.611031046,1.0,0.75,0.0,0.688072995,1.0,0.5321422729999999,False,,5abe2d5c1667e40001d8250f,,2364210,144,,evan-feature22,full_pf_b,,1
118,22229,145,,,,1,1,0.0,1.0,-1.0,0.0,,0.0-147.0,,0.0,4002.095,0.0,0.633223941,1.0,0.713567728,1.0,0.75,0.0,0.48185314700000004,False,,5abe2d5c1667e40001d8250f,,2378027,145,,evan-feature22,full_pf_b,,1
119,22230,146,,,,1,1,1.0,1.0,-1.0,0.0,,0.0-148.0,,-1.0,1297.470001,1.0,0.664001694,1.0,0.705509768,1.0,0.75,1.0,0.500211065,False,,5abe2d5c1667e40001d8250f,,2389137,146,,evan-feature22,full_pf_b,,0
120,22231,147,,,,SLOW,SLOW,,,0.0,1.0,,0.0-149.0,,-3.0,,1.0,0.664001694,0.0,0.705509768,1.0,0.75,0.0,0.500211065,False,,5abe2d5c1667e40001d8250f,,2394960,147,,evan-feature22,full_pf_b,,1
121,22232,148,,,,1,1,1.0,0.0,0.0,1.0,,0.0-150.0,,0.0,1394.66,1.0,0.696508041,0.0,0.71066027,0.0,0.717028709,0.0,0.49792991,False,,5abe2d5c1667e40001d8250f,,2406189,148,,evan-feature22,full_pf_b,,1
122,22233,149,,,,1,1,1.0,1.0,-1.0,0.0,,0.0-151.0,,-1.0,3727.27,1.0,0.699883272,1.0,0.75,1.0,0.713543895,0.0,0.496962643,False,,5abe2d5c1667e40001d8250f,,2419736,149,,evan-feature22,full_pf_b,,0
123,22234,150,,,,1,1,1.0,1.0,0.0,1.0,,0.0-152.0,,1.0,805.7249999,1.0,0.741163419,1.0,0.75,0.0,0.64691024,1.0,0.513858197,False,,5abe2d5c1667e40001d8250f,,2430358,150,,evan-feature22,full_pf_b,,0
124,22235,151,,,,1,1,0.0,1.0,-1.0,0.0,,0.0-153.0,,0.0,2357.395,0.0,0.75,1.0,0.70816558,1.0,0.594499079,1.0,0.48502124,False,,5abe2d5c1667e40001d8250f,,2442524,151,,evan-feature22,full_pf_b,,0
125,22236,152,,,,1,1,0.0,0.0,0.0,1.0,,0.0-154.0,,0.0,3733.165,0.0,0.75,0.0,0.721848901,1.0,0.62197249,1.0,0.48263586399999997,False,,5abe2d5c1667e40001d8250f,,2456083,152,,evan-feature22,full_pf_b,,0
126,22237,153,,,,1,1,0.0,1.0,-1.0,0.0,,0.0-155.0,,0.0,2319.225,0.0,0.75,1.0,0.74813071,1.0,0.584357161,1.0,0.411477782,False,,5abe2d5c1667e40001d8250f,,2468238,153,,evan-feature22,full_pf_b,,0
127,22238,154,,,,1,1,1.0,0.0,0.0,1.0,,0.0-156.0,,0.0,2540.12,1.0,0.75,0.0,0.75,1.0,0.52287236,0.0,0.488290656,False,,5abe2d5c1667e40001d8250f,,2480615,154,,evan-feature22,full_pf_b,,0
128,22239,155,,,,2,2,0.0,1.0,0.0,1.0,,0.0-157.0,,1.0,968.2,1.0,0.75,1.0,0.75,0.0,0.544321581,1.0,0.53143059,False,,5abe2d5c1667e40001d8250f,,2491432,155,,evan-feature22,full_pf_b,,1
129,22240,156,,,,1,1,0.0,1.0,0.0,1.0,,0.0-158.0,,1.0,3059.7,0.0,0.726754564,1.0,0.75,0.0,0.5129306370000001,0.0,0.530592445,False,,5abe2d5c1667e40001d8250f,,2504322,156,,evan-feature22,full_pf_b,,1
130,22241,157,,,,1,1,1.0,1.0,-1.0,0.0,,0.0-159.0,,-1.0,2758.5400010000003,1.0,0.75,1.0,0.7392590729999999,1.0,0.479875835,1.0,0.547007051,False,,5abe2d5c1667e40001d8250f,,2516928,157,,evan-feature22,full_pf_b,,0
131,22242,158,,,,SLOW,SLOW,,,-1.0,0.0,,0.0-160.0,,-3.0,,0.0,0.75,1.0,0.7393376979999999,1.0,0.546045419,0.0,0.541267353,False,,5abe2d5c1667e40001d8250f,,2522752,158,,evan-feature22,full_pf_b,,1
132,22243,159,,,,1,1,1.0,1.0,-1.0,0.0,,0.0-161.0,,-1.0,1475.295,1.0,0.75,1.0,0.75,1.0,0.485725895,0.0,0.527625395,False,,5abe2d5c1667e40001d8250f,,2534050,159,,evan-feature22,full_pf_b,,1
133,22244,160,,,,SLOW,SLOW,,,0.0,1.0,,0.0-162.0,,-3.0,,1.0,0.75,0.0,0.725087974,1.0,0.488603595,1.0,0.504019206,False,,5abe2d5c1667e40001d8250f,,2539900,160,,evan-feature22,full_pf_b,,1
134,22245,161,,,,1,1,1.0,1.0,0.0,1.0,,0.0-163.0,,1.0,3542.605,1.0,0.745504295,1.0,0.75,1.0,0.452379914,0.0,0.50131194,False,,5abe2d5c1667e40001d8250f,,2553261,161,,evan-feature22,full_pf_b,,1
135,22246,162,,,,1,1,1.0,1.0,0.0,1.0,,0.0-164.0,,1.0,692.2399998,1.0,0.728513874,1.0,0.75,0.0,0.44125567200000004,1.0,0.531454591,False,,5abe2d5c1667e40001d8250f,,2563782,162,,evan-feature22,full_pf_b,,0
136,22247,163,,,,SLOW,SLOW,,,-1.0,0.0,,0.0-165.0,,-3.0,,0.0,0.73790804,1.0,0.75,0.0,0.413036656,0.0,0.524619035,False,,5abe2d5c1667e40001d8250f,,2569606,163,,evan-feature22,full_pf_b,,1
137,22248,164,,,,2,2,0.0,1.0,0.0,1.0,,0.0-166.0,,1.0,1859.91,0.0,0.7080961309999999,0.0,0.708666865,0.0,0.431915581,1.0,0.481819489,False,,5abe2d5c1667e40001d8250f,,2581300,164,,evan-feature22,full_pf_b,,1
138,22249,165,,,,1,1,1.0,0.0,0.0,1.0,,0.0-167.0,,0.0,3124.07,1.0,0.721378003,0.0,0.71605913,0.0,0.36642387,1.0,0.5036739929999999,False,,5abe2d5c1667e40001d8250f,,2594252,165,,evan-feature22,full_pf_b,,1
139,22250,166,,,,2,2,1.0,0.0,0.0,1.0,,0.0-168.0,,0.0,1616.959999,1.0,0.7340618959999999,1.0,0.699323252,1.0,0.35298046299999997,0.0,0.511241692,False,,5abe2d5c1667e40001d8250f,,2605679,166,,evan-feature22,full_pf_b,,1
140,22251,167,,,,SLOW,SLOW,,,-1.0,0.0,,0.0-169.0,,-3.0,,1.0,0.75,0.0,0.70412698,1.0,0.380734814,1.0,0.529580116,False,,5abe2d5c1667e40001d8250f,,2611509,167,,evan-feature22,full_pf_b,,1
141,22252,168,,,,2,2,0.0,0.0,0.0,1.0,,0.0-170.0,,0.0,558.2050001,1.0,0.7436654909999999,0.0,0.711182751,0.0,0.41125331,0.0,0.49554405,False,,5abe2d5c1667e40001d8250f,,2621905,168,,evan-feature22,full_pf_b,,1
142,22253,169,,,,SLOW,SLOW,,,0.0,1.0,,0.0-171.0,,-3.0,,1.0,0.731607915,1.0,0.651774583,1.0,0.35688023,0.0,0.45194491600000003,False,,5abe2d5c1667e40001d8250f,,2627731,169,,evan-feature22,full_pf_b,,1
143,22254,170,,,,2,2,0.0,0.0,-1.0,0.0,,0.0-172.0,,0.0,3415.2000009999997,1.0,0.75,1.0,0.75,0.0,0.283145374,0.0,0.528608005,False,,5abe2d5c1667e40001d8250f,,2640972,170,,evan-feature22,full_pf_b,,1
144,22255,171,,,,2,2,0.0,1.0,-1.0,0.0,,0.0-173.0,,0.0,3552.335001,1.0,0.7491416890000001,0.0,0.7423785959999999,0.0,0.29135870399999997,1.0,0.498888318,False,,5abe2d5c1667e40001d8250f,,2654330,171,,evan-feature22,full_pf_b,,0
145,22256,172,,,,2,2,0.0,1.0,-1.0,0.0,,0.0-174.0,,0.0,822.1100001,1.0,0.708569387,1.0,0.717682277,0.0,0.294421699,1.0,0.493838163,False,,5abe2d5c1667e40001d8250f,,2664979,172,,evan-feature22,full_pf_b,,0
146,22257,173,,,,1,1,0.0,0.0,0.0,1.0,,0.0-175.0,,0.0,1263.615,0.0,0.75,0.0,0.7383382159999999,1.0,0.356098707,0.0,0.442533405,False,,5abe2d5c1667e40001d8250f,,2676091,173,,evan-feature22,full_pf_b,,1
147,22258,174,,,,1,1,1.0,1.0,0.0,1.0,,0.0-176.0,,1.0,416.2250003,1.0,0.744527075,1.0,0.75,0.0,0.334127506,0.0,0.393165805,False,,5abe2d5c1667e40001d8250f,,2686319,174,,evan-feature22,full_pf_b,,0
148,22259,175,,,,2,2,0.0,0.0,0.0,1.0,,0.0-177.0,,0.0,998.4050002,1.0,0.75,1.0,0.75,0.0,0.33571021799999995,0.0,0.350393962,False,,5abe2d5c1667e40001d8250f,,2697147,175,,evan-feature22,full_pf_b,,1
149,22260,176,,,,1,1,1.0,1.0,0.0,1.0,,0.0-178.0,,1.0,514.7200003,1.0,0.75,1.0,0.75,0.0,0.313628297,0.0,0.36349657399999996,False,,5abe2d5c1667e40001d8250f,,2707496,176,,evan-feature22,full_pf_b,,1
150,22261,177,,,,1,1,0.0,1.0,-1.0,0.0,,0.0-179.0,,0.0,345.1800002,0.0,0.75,1.0,0.734284182,1.0,0.262667667,1.0,0.380199119,False,,5abe2d5c1667e40001d8250f,,2717661,177,,evan-feature22,full_pf_b,,0
151,22262,178,,,,1,1,0.0,0.0,0.0,1.0,,0.0-180.0,,0.0,273.755,0.0,0.75,0.0,0.75,1.0,0.25,0.0,0.394494013,False,,5abe2d5c1667e40001d8250f,,2727747,178,,evan-feature22,full_pf_b,,0
152,22263,179,,,,2,2,1.0,0.0,-1.0,0.0,,0.0-181.0,,-1.0,1956.025,1.0,0.722298145,1.0,0.7357822340000001,1.0,0.25,0.0,0.319142121,False,,5abe2d5c1667e40001d8250f,,2739541,179,,evan-feature22,full_pf_b,,1
153,22264,180,,,,1,1,0.0,1.0,-1.0,0.0,,0.0-182.0,,0.0,399.0049995,0.0,0.73149275,1.0,0.724276446,0.0,0.305856907,0.0,0.281315057,False,,5abe2d5c1667e40001d8250f,,2749761,180,,evan-feature22,full_pf_b,,1
154,22265,181,,,,1,1,1.0,0.0,0.0,1.0,,0.0-183.0,,0.0,1613.3750009999999,1.0,0.7458732690000001,0.0,0.7336382459999999,0.0,0.272571964,0.0,0.266021999,False,,5abe2d5c1667e40001d8250f,,2761201,181,,evan-feature22,full_pf_b,,0
155,22266,182,,,,1,1,1.0,1.0,0.0,1.0,,0.0-184.0,,1.0,1091.34,1.0,0.705579037,1.0,0.720778292,1.0,0.320238144,0.0,0.30971744,False,,5abe2d5c1667e40001d8250f,,2772151,182,,evan-feature22,full_pf_b,,0
156,22267,183,,,,1,1,1.0,1.0,0.0,1.0,,0.0-185.0,,1.0,398.36,1.0,0.700425648,1.0,0.7198784009999999,0.0,0.272590393,0.0,0.304182931,False,,5abe2d5c1667e40001d8250f,,2782387,183,,evan-feature22,full_pf_b,,0
157,22268,184,,,,1,1,1.0,1.0,0.0,1.0,,0.0-186.0,,1.0,456.5049996999999,1.0,0.735590785,1.0,0.722714973,0.0,0.25,0.0,0.323421091,False,,5abe2d5c1667e40001d8250f,,2792690,184,,evan-feature22,full_pf_b,,0
158,22269,185,,,,1,1,1.0,1.0,0.0,1.0,,0.0-187.0,,1.0,541.4000005,1.0,0.724807662,1.0,0.63146213,0.0,0.36836492600000004,0.0,0.34592153299999995,False,,5abe2d5c1667e40001d8250f,,2803050,185,,evan-feature22,full_pf_b,,0
159,22270,186,,,,1,1,1.0,1.0,0.0,1.0,,0.0-188.0,,1.0,633.4650004,1.0,0.7352796909999999,1.0,0.555111392,1.0,0.36003922,1.0,0.31433779999999995,False,,5abe2d5c1667e40001d8250f,,2813530,186,,evan-feature22,full_pf_b,,0
160,22271,187,notice,,,,,,,,,,0.0-189.0,"{""Q0"":""no""}",,7664.0,,,,,,,,,False,,5abe2d5c1667e40001d8250f,,2821198,187,Q,survey-text,full_pf_b,,1
161,22272,188,track1,,[1],,,,,,,,0.0-190.0,"{""Q0"":""no""}",,4849.0,,,,,,,,,False,,5abe2d5c1667e40001d8250f,,2826056,188,Q,evan-quiz,full_pf_b,,1
162,22273,189,track2,,[0],,,,,,,,0.0-191.0,"{""Q0"":""yes""}",,8358.0,,,,,,,,,False,,5abe2d5c1667e40001d8250f,,2834421,189,Q,evan-quiz,full_pf_b,,1
163,22274,190,strat,,,,,,,,,,0.0-192.0,"{""Q0"":""i pressed the first one that i gave me the most wins""}",,38370.0,,,,,,,,,False,,5abe2d5c1667e40001d8250f,,2872800,190,Q,survey-text,full_pf_b,,1
