,index,Unnamed: 0,Q_name,button_pressed,choice_idxs,chosen_pos,chosen_state,chosen_state_f_1_outcome,chosen_state_f_2_outcome,f_1_reward,f_2_reward,incor_questions,internal_node_id,responses,reward_received,rt,s_1_f_1_outcome,s_1_f_1_prob,s_1_f_2_outcome,s_1_f_2_prob,s_2_f_1_outcome,s_2_f_1_prob,s_2_f_2_outcome,s_2_f_2_prob,safe_first,stimulus,subjectID,success,time_elapsed,trial_index,trial_num,trial_type,version,view_history,switching
0,38944,30,,,,1,1,1.0,1.0,0.0,1.0,,0.0-27.0,,1.0,1878.615,1.0,0.6,1.0,0.6,1.0,0.4,0.0,0.4,True,,5ea601fe68d1210be8aac48d,,583522,30,,evan-feature22,full_rf_b,,0
1,38945,31,,,,2,2,0.0,0.0,0.0,1.0,,0.0-28.0,,0.0,801.98,0.0,0.608053294,0.0,0.63424552,0.0,0.397152172,0.0,0.347069101,True,,5ea601fe68d1210be8aac48d,,594120,31,,evan-feature22,full_rf_b,,1
2,38946,32,,,,2,2,0.0,0.0,0.0,1.0,,0.0-29.0,,0.0,426.1400001,1.0,0.642237155,0.0,0.648566321,0.0,0.389407674,0.0,0.285525717,True,,5ea601fe68d1210be8aac48d,,604342,32,,evan-feature22,full_rf_b,,0
3,38947,33,,,,1,1,0.0,0.0,0.0,1.0,,0.0-30.0,,0.0,369.28000019999996,0.0,0.661086576,0.0,0.630492543,0.0,0.399058924,1.0,0.25,True,,5ea601fe68d1210be8aac48d,,614503,33,,evan-feature22,full_rf_b,,1
4,38948,34,,,,1,1,0.0,0.0,0.0,1.0,,0.0-31.0,,0.0,317.5000004,0.0,0.631324137,0.0,0.6269842929999999,1.0,0.38734784299999997,0.0,0.25,True,,5ea601fe68d1210be8aac48d,,624624,34,,evan-feature22,full_rf_b,,0
5,38949,35,,,,2,2,1.0,0.0,0.0,1.0,,0.0-32.0,,0.0,1396.725,1.0,0.6381991370000001,0.0,0.68987999,1.0,0.384107265,0.0,0.271332943,True,,5ea601fe68d1210be8aac48d,,635815,35,,evan-feature22,full_rf_b,,1
6,38950,36,,,,1,1,1.0,0.0,0.0,1.0,,0.0-33.0,,0.0,251.2500002,1.0,0.66034901,0.0,0.742641349,1.0,0.360225629,0.0,0.25,True,,5ea601fe68d1210be8aac48d,,645908,36,,evan-feature22,full_rf_b,,1
7,38951,37,,,,2,2,0.0,0.0,-1.0,0.0,,0.0-34.0,,0.0,1497.23,0.0,0.638612418,1.0,0.75,0.0,0.367273939,0.0,0.25,True,,5ea601fe68d1210be8aac48d,,657226,37,,evan-feature22,full_rf_b,,1
8,38952,38,,,,1,1,1.0,1.0,0.0,1.0,,0.0-35.0,,1.0,420.31,1.0,0.624340629,1.0,0.75,0.0,0.425829545,0.0,0.25,True,,5ea601fe68d1210be8aac48d,,667460,38,,evan-feature22,full_rf_b,,1
9,38953,39,,,,2,2,1.0,1.0,0.0,1.0,,0.0-36.0,,1.0,830.1499997999999,1.0,0.621999804,1.0,0.75,1.0,0.368609357,1.0,0.25,True,,5ea601fe68d1210be8aac48d,,678110,39,,evan-feature22,full_rf_b,,1
10,38954,40,,,,1,1,0.0,1.0,-1.0,0.0,,0.0-37.0,,0.0,334.1100002,0.0,0.62666403,1.0,0.75,1.0,0.311151498,0.0,0.25,True,,5ea601fe68d1210be8aac48d,,688294,40,,evan-feature22,full_rf_b,,1
11,38955,41,,,,2,2,1.0,0.0,-1.0,0.0,,0.0-38.0,,-1.0,394.36500010000003,1.0,0.6819650009999999,1.0,0.75,1.0,0.310763048,0.0,0.25,True,,5ea601fe68d1210be8aac48d,,698480,41,,evan-feature22,full_rf_b,,1
12,38956,42,,,,1,1,1.0,0.0,0.0,1.0,,0.0-39.0,,0.0,284.7350002,1.0,0.740626951,0.0,0.75,0.0,0.25,0.0,0.25,True,,5ea601fe68d1210be8aac48d,,708604,42,,evan-feature22,full_rf_b,,1
13,38957,43,,,,2,2,0.0,0.0,0.0,1.0,,0.0-40.0,,0.0,365.1899998,1.0,0.739599242,1.0,0.742034978,0.0,0.25397114600000004,0.0,0.25,True,,5ea601fe68d1210be8aac48d,,718773,43,,evan-feature22,full_rf_b,,1
14,38958,44,,,,1,1,1.0,1.0,0.0,1.0,,0.0-41.0,,1.0,401.85499980000003,1.0,0.732341315,1.0,0.72735643,0.0,0.25,1.0,0.25,True,,5ea601fe68d1210be8aac48d,,728971,44,,evan-feature22,full_rf_b,,1
15,38959,45,,,,1,1,0.0,1.0,0.0,1.0,,0.0-42.0,,1.0,315.5799997,0.0,0.7062287770000001,1.0,0.75,1.0,0.29002151,1.0,0.288256649,True,,5ea601fe68d1210be8aac48d,,739090,45,,evan-feature22,full_rf_b,,0
16,38960,46,,,,2,2,0.0,0.0,-1.0,0.0,,0.0-43.0,,0.0,633.32,0.0,0.7086029209999999,0.0,0.75,0.0,0.274129113,0.0,0.262851608,True,,5ea601fe68d1210be8aac48d,,749509,46,,evan-feature22,full_rf_b,,1
17,38961,47,,,,2,2,0.0,0.0,0.0,1.0,,0.0-44.0,,0.0,384.85499980000003,1.0,0.669189651,1.0,0.727614338,0.0,0.298444036,0.0,0.296944518,True,,5ea601fe68d1210be8aac48d,,759699,47,,evan-feature22,full_rf_b,,0
18,38962,48,,,,1,1,0.0,0.0,-1.0,0.0,,0.0-45.0,,0.0,324.3050002,0.0,0.6819912929999999,0.0,0.7179434290000001,0.0,0.265003961,0.0,0.28157921199999997,True,,5ea601fe68d1210be8aac48d,,769824,48,,evan-feature22,full_rf_b,,1
19,38963,49,,,,1,1,1.0,1.0,-1.0,0.0,,0.0-46.0,,-1.0,366.7850001,1.0,0.665275002,1.0,0.723065271,1.0,0.260414971,0.0,0.30973870000000003,True,,5ea601fe68d1210be8aac48d,,779999,49,,evan-feature22,full_rf_b,,0
20,38964,50,,,,2,2,1.0,0.0,0.0,1.0,,0.0-47.0,,0.0,541.22,1.0,0.6660593260000001,1.0,0.728032907,1.0,0.30922817,0.0,0.338778608,True,,5ea601fe68d1210be8aac48d,,790353,50,,evan-feature22,full_rf_b,,1
21,38965,51,,,,1,1,1.0,0.0,0.0,1.0,,0.0-48.0,,0.0,475.35,1.0,0.702068785,0.0,0.6528750879999999,0.0,0.287329608,0.0,0.35789613200000003,True,,5ea601fe68d1210be8aac48d,,800634,51,,evan-feature22,full_rf_b,,1
22,38966,52,,,,1,1,1.0,1.0,0.0,1.0,,0.0-49.0,,1.0,356.72,1.0,0.651939787,1.0,0.636725589,0.0,0.284834488,0.0,0.358563756,True,,5ea601fe68d1210be8aac48d,,810803,52,,evan-feature22,full_rf_b,,0
23,38967,53,,,,1,1,1.0,1.0,0.0,1.0,,0.0-50.0,,1.0,553.9500001,1.0,0.67573929,1.0,0.612550049,0.0,0.37130387600000003,0.0,0.383542402,True,,5ea601fe68d1210be8aac48d,,821174,53,,evan-feature22,full_rf_b,,0
24,38968,54,,,,1,1,1.0,1.0,0.0,1.0,,0.0-51.0,,1.0,415.0950001,1.0,0.620753801,1.0,0.60513644,1.0,0.385529434,0.0,0.340361743,True,,5ea601fe68d1210be8aac48d,,831392,54,,evan-feature22,full_rf_b,,0
25,38969,55,,,,2,2,1.0,0.0,-1.0,0.0,,0.0-52.0,,-1.0,258.4449998,1.0,0.673564893,1.0,0.672437924,1.0,0.292955382,0.0,0.337633795,True,,5ea601fe68d1210be8aac48d,,841464,55,,evan-feature22,full_rf_b,,1
26,38970,56,,,,2,2,1.0,0.0,0.0,1.0,,0.0-53.0,,0.0,340.4550003,1.0,0.6749427,1.0,0.724197502,1.0,0.32391132100000003,0.0,0.350995264,True,,5ea601fe68d1210be8aac48d,,851607,56,,evan-feature22,full_rf_b,,0
27,38971,57,,,,1,1,0.0,1.0,0.0,1.0,,0.0-54.0,,1.0,371.92500010000003,0.0,0.6940159379999999,1.0,0.75,0.0,0.31710554399999996,1.0,0.413450341,True,,5ea601fe68d1210be8aac48d,,861802,57,,evan-feature22,full_rf_b,,1
28,38972,58,,,,1,1,1.0,1.0,0.0,1.0,,0.0-55.0,,1.0,243.615,1.0,0.6916018270000001,1.0,0.69001187,0.0,0.261817804,0.0,0.40038635,True,,5ea601fe68d1210be8aac48d,,871850,58,,evan-feature22,full_rf_b,,0
29,38973,59,,,,1,1,0.0,1.0,0.0,1.0,,0.0-56.0,,1.0,529.0299999,0.0,0.641061544,1.0,0.71337992,0.0,0.277296461,0.0,0.47372791700000005,True,,5ea601fe68d1210be8aac48d,,882193,59,,evan-feature22,full_rf_b,,0
30,38974,60,,,,1,1,0.0,1.0,0.0,1.0,,0.0-57.0,,1.0,262.5300004,0.0,0.6082438520000001,1.0,0.708471106,1.0,0.28745137,0.0,0.564174476,True,,5ea601fe68d1210be8aac48d,,892252,60,,evan-feature22,full_rf_b,,0
31,38975,61,,,,2,2,1.0,0.0,-1.0,0.0,,0.0-58.0,,-1.0,569.5449999,0.0,0.6051112120000001,1.0,0.7118147229999999,1.0,0.272390611,0.0,0.5595149939999999,True,,5ea601fe68d1210be8aac48d,,902635,61,,evan-feature22,full_rf_b,,1
32,38976,62,,,,2,2,0.0,1.0,-1.0,0.0,,0.0-59.0,,0.0,609.6900003,0.0,0.582420852,0.0,0.635867583,0.0,0.31089574,1.0,0.5227206520000001,True,,5ea601fe68d1210be8aac48d,,913041,62,,evan-feature22,full_rf_b,,0
33,38977,63,,,,2,2,0.0,0.0,-1.0,0.0,,0.0-60.0,,0.0,304.1250003,0.0,0.623195575,0.0,0.655026044,0.0,0.25,0.0,0.560387538,True,,5ea601fe68d1210be8aac48d,,923152,63,,evan-feature22,full_rf_b,,0
34,38978,64,,,,2,2,0.0,1.0,0.0,1.0,,0.0-61.0,,1.0,347.0100001,1.0,0.601889598,1.0,0.678198724,0.0,0.25,1.0,0.559922936,True,,5ea601fe68d1210be8aac48d,,933296,64,,evan-feature22,full_rf_b,,0
35,38979,65,,,,2,2,0.0,0.0,-1.0,0.0,,0.0-62.0,,0.0,341.4700003,1.0,0.601259914,1.0,0.704681482,0.0,0.33908969299999997,0.0,0.505003715,True,,5ea601fe68d1210be8aac48d,,943451,65,,evan-feature22,full_rf_b,,0
36,38980,66,,,,2,2,0.0,1.0,-1.0,0.0,,0.0-63.0,,0.0,514.1899996000001,0.0,0.59645454,1.0,0.710437172,0.0,0.327441879,1.0,0.391749613,True,,5ea601fe68d1210be8aac48d,,953771,66,,evan-feature22,full_rf_b,,0
37,38981,67,,,,1,1,1.0,1.0,0.0,1.0,,0.0-64.0,,1.0,277.4450001,1.0,0.529473,1.0,0.636758527,0.0,0.301338063,1.0,0.365661481,True,,5ea601fe68d1210be8aac48d,,963856,67,,evan-feature22,full_rf_b,,1
38,38982,68,,,,2,2,1.0,0.0,-1.0,0.0,,0.0-65.0,,-1.0,278.34999980000003,0.0,0.541657162,1.0,0.634541962,1.0,0.343535366,0.0,0.371763742,True,,5ea601fe68d1210be8aac48d,,973938,68,,evan-feature22,full_rf_b,,1
39,38983,69,,,,1,1,0.0,0.0,-1.0,0.0,,0.0-66.0,,0.0,237.81500010000002,0.0,0.5707533260000001,0.0,0.589121171,0.0,0.326428396,0.0,0.43961622899999997,True,,5ea601fe68d1210be8aac48d,,983997,69,,evan-feature22,full_rf_b,,1
40,38984,70,,,,1,1,1.0,0.0,0.0,1.0,,0.0-67.0,,0.0,677.72,1.0,0.5707533260000001,0.0,0.589121171,0.0,0.326428396,1.0,0.43961622899999997,True,,5ea601fe68d1210be8aac48d,,994493,70,,evan-feature22,full_rf_b,,0
41,38985,71,,,,2,2,0.0,0.0,0.0,1.0,,0.0-68.0,,0.0,286.9500001,1.0,0.506271295,1.0,0.641775594,0.0,0.37149690700000004,0.0,0.404330166,True,,5ea601fe68d1210be8aac48d,,1004611,71,,evan-feature22,full_rf_b,,1
42,38986,72,,,,2,2,1.0,0.0,-1.0,0.0,,0.0-69.0,,-1.0,632.1399999,1.0,0.455642565,0.0,0.623605825,1.0,0.358753011,0.0,0.346174041,True,,5ea601fe68d1210be8aac48d,,1015054,72,,evan-feature22,full_rf_b,,0
43,38987,73,,,,1,1,0.0,1.0,0.0,1.0,,0.0-70.0,,1.0,754.2300001,0.0,0.483677308,1.0,0.5904681070000001,0.0,0.402218411,0.0,0.35344697,True,,5ea601fe68d1210be8aac48d,,1025612,73,,evan-feature22,full_rf_b,,1
44,38988,74,,,,1,1,0.0,1.0,-1.0,0.0,,0.0-71.0,,0.0,334.21,0.0,0.394210977,1.0,0.558925494,1.0,0.540052017,0.0,0.35182128700000004,True,,5ea601fe68d1210be8aac48d,,1035731,74,,evan-feature22,full_rf_b,,0
45,38989,75,,,,1,1,1.0,1.0,0.0,1.0,,0.0-72.0,,1.0,386.0649997,1.0,0.382300414,1.0,0.577670603,1.0,0.607608448,0.0,0.378261578,True,,5ea601fe68d1210be8aac48d,,1045913,75,,evan-feature22,full_rf_b,,0
46,38990,76,,,,2,2,1.0,1.0,-1.0,0.0,,0.0-73.0,,-1.0,1120.975,1.0,0.357596762,0.0,0.5929076529999999,1.0,0.6579790010000001,1.0,0.401326777,True,,5ea601fe68d1210be8aac48d,,1056835,76,,evan-feature22,full_rf_b,,1
47,38991,77,,,,2,2,1.0,0.0,0.0,1.0,,0.0-74.0,,0.0,2760.98,0.0,0.362033495,1.0,0.582308608,1.0,0.649195052,0.0,0.355158505,True,,5ea601fe68d1210be8aac48d,,1069398,77,,evan-feature22,full_rf_b,,0
48,38992,78,,,,2,2,0.0,1.0,0.0,1.0,,0.0-75.0,,1.0,604.2649997000001,1.0,0.369620635,0.0,0.669100864,0.0,0.706059111,1.0,0.362516241,True,,5ea601fe68d1210be8aac48d,,1079804,78,,evan-feature22,full_rf_b,,0
49,38993,79,,,,2,2,1.0,1.0,0.0,1.0,,0.0-76.0,,1.0,868.7650002999999,1.0,0.41477751399999996,1.0,0.7284416779999999,1.0,0.7182656940000001,1.0,0.36228040899999997,True,,5ea601fe68d1210be8aac48d,,1090469,79,,evan-feature22,full_rf_b,,0
50,38994,80,,,,1,1,0.0,1.0,-1.0,0.0,,0.0-77.0,,0.0,498.6049999,0.0,0.37675460299999997,1.0,0.703250285,1.0,0.75,0.0,0.461979164,True,,5ea601fe68d1210be8aac48d,,1100777,80,,evan-feature22,full_rf_b,,1
51,38995,81,,,,1,1,1.0,1.0,-1.0,0.0,,0.0-78.0,,-1.0,485.14,1.0,0.398716075,1.0,0.6723864890000001,1.0,0.674153818,1.0,0.519029516,True,,5ea601fe68d1210be8aac48d,,1111061,81,,evan-feature22,full_rf_b,,0
52,38996,82,,,,2,2,0.0,1.0,-1.0,0.0,,0.0-79.0,,0.0,284.9850003,0.0,0.34677856700000004,0.0,0.69057175,0.0,0.6822438540000001,1.0,0.477292237,True,,5ea601fe68d1210be8aac48d,,1121142,82,,evan-feature22,full_rf_b,,1
53,38997,83,,,,1,1,1.0,1.0,0.0,1.0,,0.0-80.0,,1.0,488.8499998,1.0,0.28580469199999997,1.0,0.68408818,0.0,0.684207565,0.0,0.49780448299999996,True,,5ea601fe68d1210be8aac48d,,1131430,83,,evan-feature22,full_rf_b,,1
54,38999,85,,,,2,2,0.0,0.0,0.0,1.0,,0.0-82.0,,0.0,1953.365,0.0,0.25,1.0,0.7405808970000001,0.0,0.679614108,0.0,0.436436964,True,,5ea601fe68d1210be8aac48d,,1145189,85,,evan-feature22,full_rf_b,,1
55,39000,86,,,,2,2,1.0,1.0,0.0,1.0,,0.0-83.0,,1.0,3275.305,0.0,0.29890393,1.0,0.730505706,1.0,0.7328203320000001,1.0,0.439256938,True,,5ea601fe68d1210be8aac48d,,1158264,86,,evan-feature22,full_rf_b,,0
56,39001,87,,,,1,1,1.0,1.0,-1.0,0.0,,0.0-84.0,,-1.0,284.5050003,1.0,0.326762398,1.0,0.7148059609999999,1.0,0.75,0.0,0.44389608799999997,True,,5ea601fe68d1210be8aac48d,,1168358,87,,evan-feature22,full_rf_b,,1
57,39002,88,,,,SLOW,SLOW,,,0.0,1.0,,0.0-85.0,,-3.0,,1.0,0.295168515,1.0,0.739760854,1.0,0.719947008,0.0,0.35277284600000003,True,,5ea601fe68d1210be8aac48d,,1174187,88,,evan-feature22,full_rf_b,,1
58,39003,89,,,,1,1,0.0,1.0,0.0,1.0,,0.0-86.0,,1.0,388.52999960000005,0.0,0.25,1.0,0.70781482,1.0,0.75,0.0,0.286095925,True,,5ea601fe68d1210be8aac48d,,1184377,89,,evan-feature22,full_rf_b,,1
59,39004,90,,,,2,2,0.0,0.0,0.0,1.0,,0.0-87.0,,0.0,295.65499960000005,0.0,0.25638190899999996,1.0,0.704088163,0.0,0.75,0.0,0.26872601399999996,True,,5ea601fe68d1210be8aac48d,,1194475,90,,evan-feature22,full_rf_b,,1
60,39005,91,,,,1,1,0.0,0.0,-1.0,0.0,,0.0-88.0,,0.0,296.3800002,0.0,0.271581126,0.0,0.669760107,1.0,0.733896663,1.0,0.273244572,True,,5ea601fe68d1210be8aac48d,,1204575,91,,evan-feature22,full_rf_b,,1
61,39006,92,,,,2,2,1.0,0.0,0.0,1.0,,0.0-89.0,,0.0,1460.63,1.0,0.257144401,1.0,0.600575706,1.0,0.74488122,0.0,0.25,True,,5ea601fe68d1210be8aac48d,,1215839,92,,evan-feature22,full_rf_b,,1
62,39007,93,,,,1,1,1.0,1.0,0.0,1.0,,0.0-90.0,,1.0,1424.99,1.0,0.25,1.0,0.616870026,1.0,0.723610234,0.0,0.25,True,,5ea601fe68d1210be8aac48d,,1227050,93,,evan-feature22,full_rf_b,,1
63,39008,94,,,,1,1,0.0,0.0,-1.0,0.0,,0.0-91.0,,0.0,338.465,0.0,0.25,0.0,0.583540187,1.0,0.7041042559999999,0.0,0.285961995,True,,5ea601fe68d1210be8aac48d,,1237196,94,,evan-feature22,full_rf_b,,0
64,39009,95,,,,1,1,0.0,1.0,-1.0,0.0,,0.0-92.0,,0.0,757.6099997,0.0,0.27254536,1.0,0.53875765,1.0,0.693783448,1.0,0.284961652,True,,5ea601fe68d1210be8aac48d,,1247777,95,,evan-feature22,full_rf_b,,0
65,39010,96,,,,2,2,1.0,0.0,-1.0,0.0,,0.0-93.0,,-1.0,797.95,0.0,0.25,1.0,0.548431252,1.0,0.734221895,0.0,0.279445214,True,,5ea601fe68d1210be8aac48d,,1258367,96,,evan-feature22,full_rf_b,,1
66,39011,97,,,,2,2,1.0,0.0,0.0,1.0,,0.0-94.0,,0.0,614.6399997999999,0.0,0.258640684,1.0,0.545878066,1.0,0.725245965,0.0,0.31487537,True,,5ea601fe68d1210be8aac48d,,1268789,97,,evan-feature22,full_rf_b,,0
67,39012,98,,,,1,1,0.0,0.0,0.0,1.0,,0.0-95.0,,0.0,553.9449998,0.0,0.251103711,0.0,0.5776290629999999,1.0,0.696320133,0.0,0.317831047,True,,5ea601fe68d1210be8aac48d,,1279140,98,,evan-feature22,full_rf_b,,1
68,39013,99,,,,1,1,0.0,0.0,0.0,1.0,,0.0-96.0,,0.0,257.7600004,0.0,0.276630292,0.0,0.617329858,1.0,0.73838088,0.0,0.261471582,True,,5ea601fe68d1210be8aac48d,,1289209,99,,evan-feature22,full_rf_b,,0
69,39014,100,,,,2,2,1.0,1.0,0.0,1.0,,0.0-97.0,,1.0,268.5500002,0.0,0.297716424,0.0,0.618863717,1.0,0.7402358259999999,1.0,0.262600834,True,,5ea601fe68d1210be8aac48d,,1299278,100,,evan-feature22,full_rf_b,,1
70,39015,101,,,,2,2,1.0,1.0,-1.0,0.0,,0.0-98.0,,-1.0,285.5699998,1.0,0.290935512,0.0,0.695370945,1.0,0.706570507,1.0,0.280030553,True,,5ea601fe68d1210be8aac48d,,1309374,101,,evan-feature22,full_rf_b,,0
71,39016,102,,,,1,1,0.0,1.0,0.0,1.0,,0.0-99.0,,1.0,1056.79,0.0,0.25,1.0,0.6465277079999999,1.0,0.67766682,0.0,0.25,True,,5ea601fe68d1210be8aac48d,,1320227,102,,evan-feature22,full_rf_b,,1
72,39017,103,,,,1,1,0.0,1.0,-1.0,0.0,,0.0-100.0,,0.0,412.7900004,0.0,0.26463816,1.0,0.636100213,1.0,0.646048507,0.0,0.265607101,True,,5ea601fe68d1210be8aac48d,,1330440,103,,evan-feature22,full_rf_b,,0
73,39018,104,,,,2,2,1.0,0.0,-1.0,0.0,,0.0-101.0,,-1.0,256.455,0.0,0.314340707,0.0,0.667795927,1.0,0.613630805,0.0,0.25,True,,5ea601fe68d1210be8aac48d,,1340508,104,,evan-feature22,full_rf_b,,1
74,39019,105,,,,1,1,1.0,0.0,0.0,1.0,,0.0-102.0,,0.0,365.34499980000004,1.0,0.28685784,0.0,0.6622549529999999,1.0,0.652154117,1.0,0.25,True,,5ea601fe68d1210be8aac48d,,1350668,105,,evan-feature22,full_rf_b,,1
75,39020,106,,,,1,1,0.0,1.0,0.0,1.0,,0.0-103.0,,1.0,298.035,0.0,0.304106554,1.0,0.631289538,1.0,0.707041942,0.0,0.29314237,True,,5ea601fe68d1210be8aac48d,,1360773,106,,evan-feature22,full_rf_b,,0
76,39021,107,,,,2,2,1.0,0.0,0.0,1.0,,0.0-104.0,,0.0,254.4499999,1.0,0.304806932,1.0,0.571167718,1.0,0.680472346,0.0,0.25,True,,5ea601fe68d1210be8aac48d,,1370857,107,,evan-feature22,full_rf_b,,1
77,39022,108,,,,2,2,1.0,0.0,0.0,1.0,,0.0-105.0,,0.0,569.7050001,0.0,0.37919861,0.0,0.5724849710000001,1.0,0.705638003,0.0,0.30179300600000003,True,,5ea601fe68d1210be8aac48d,,1381241,108,,evan-feature22,full_rf_b,,0
78,39023,109,,,,1,1,0.0,1.0,0.0,1.0,,0.0-106.0,,1.0,427.87000020000005,0.0,0.464277969,1.0,0.554034373,1.0,0.7372627340000001,0.0,0.264699741,True,,5ea601fe68d1210be8aac48d,,1391485,109,,evan-feature22,full_rf_b,,1
79,39024,110,,,,1,1,0.0,0.0,0.0,1.0,,0.0-107.0,,0.0,426.2000001,0.0,0.465104323,0.0,0.530793115,1.0,0.75,0.0,0.31683071,True,,5ea601fe68d1210be8aac48d,,1401717,110,,evan-feature22,full_rf_b,,0
80,39025,111,,,,2,2,1.0,0.0,-1.0,0.0,,0.0-108.0,,-1.0,450.97999969999995,1.0,0.465104323,0.0,0.530793115,1.0,0.75,0.0,0.31683071,True,,5ea601fe68d1210be8aac48d,,1411977,111,,evan-feature22,full_rf_b,,1
81,39026,112,,,,2,2,1.0,0.0,-1.0,0.0,,0.0-109.0,,-1.0,352.44,0.0,0.46833986,0.0,0.570249239,1.0,0.7244472590000001,0.0,0.364114163,True,,5ea601fe68d1210be8aac48d,,1422166,112,,evan-feature22,full_rf_b,,0
82,39027,113,,,,1,1,0.0,1.0,-1.0,0.0,,0.0-110.0,,0.0,291.52500019999997,0.0,0.445444024,1.0,0.649673355,1.0,0.6845441290000001,0.0,0.300660449,True,,5ea601fe68d1210be8aac48d,,1432256,113,,evan-feature22,full_rf_b,,1
83,39028,114,,,,1,1,0.0,1.0,-1.0,0.0,,0.0-111.0,,0.0,252.91500010000001,0.0,0.39909721299999995,1.0,0.6715179509999999,1.0,0.742310028,0.0,0.35496088299999995,True,,5ea601fe68d1210be8aac48d,,1442291,114,,evan-feature22,full_rf_b,,0
84,39029,115,,,,2,2,1.0,0.0,0.0,1.0,,0.0-112.0,,0.0,290.68000010000003,1.0,0.37956104799999996,1.0,0.694725302,1.0,0.7181651309999999,0.0,0.38726906299999997,True,,5ea601fe68d1210be8aac48d,,1452428,115,,evan-feature22,full_rf_b,,1
85,39030,116,,,,1,1,0.0,0.0,0.0,1.0,,0.0-113.0,,0.0,356.8600002,0.0,0.404995034,0.0,0.724375412,0.0,0.6910946859999999,1.0,0.387187347,True,,5ea601fe68d1210be8aac48d,,1462611,116,,evan-feature22,full_rf_b,,1
86,39031,117,,,,2,2,1.0,0.0,-1.0,0.0,,0.0-114.0,,-1.0,316.075,1.0,0.461740803,1.0,0.75,1.0,0.75,0.0,0.34872038200000005,True,,5ea601fe68d1210be8aac48d,,1472727,117,,evan-feature22,full_rf_b,,1
87,39032,118,,,,1,1,0.0,1.0,-1.0,0.0,,0.0-115.0,,0.0,320.4900003,0.0,0.43821380600000004,1.0,0.738833273,0.0,0.728286963,1.0,0.399538128,True,,5ea601fe68d1210be8aac48d,,1482850,118,,evan-feature22,full_rf_b,,1
88,39033,119,,,,1,1,0.0,1.0,0.0,1.0,,0.0-116.0,,1.0,274.855,0.0,0.41709882,1.0,0.736666736,1.0,0.75,0.0,0.389095584,True,,5ea601fe68d1210be8aac48d,,1492941,119,,evan-feature22,full_rf_b,,0
89,39034,120,,,,2,2,1.0,1.0,0.0,1.0,,0.0-117.0,,1.0,422.54999979999997,0.0,0.39749009799999996,1.0,0.744320029,1.0,0.75,1.0,0.363848678,True,,5ea601fe68d1210be8aac48d,,1503159,120,,evan-feature22,full_rf_b,,1
90,39035,121,,,,1,1,0.0,1.0,-1.0,0.0,,0.0-118.0,,0.0,2510.07,0.0,0.392653706,1.0,0.75,0.0,0.75,0.0,0.384386976,True,,5ea601fe68d1210be8aac48d,,1515464,121,,evan-feature22,full_rf_b,,1
91,39036,122,,,,2,2,1.0,1.0,0.0,1.0,,0.0-119.0,,1.0,340.61500010000003,1.0,0.31190902600000003,0.0,0.75,1.0,0.732413819,1.0,0.413082932,True,,5ea601fe68d1210be8aac48d,,1525597,122,,evan-feature22,full_rf_b,,1
92,39037,123,,,,2,2,1.0,0.0,-1.0,0.0,,0.0-120.0,,-1.0,250.1050001,0.0,0.366917648,0.0,0.740073855,1.0,0.75,0.0,0.352861979,True,,5ea601fe68d1210be8aac48d,,1535661,123,,evan-feature22,full_rf_b,,0
93,39038,124,,,,1,1,0.0,1.0,-1.0,0.0,,0.0-121.0,,0.0,333.23,0.0,0.3645172,1.0,0.721770713,1.0,0.75,1.0,0.404074511,True,,5ea601fe68d1210be8aac48d,,1545811,124,,evan-feature22,full_rf_b,,1
94,39039,125,,,,1,1,0.0,1.0,-1.0,0.0,,0.0-122.0,,0.0,290.6899997,0.0,0.35205600299999995,1.0,0.68983859,1.0,0.739735447,1.0,0.366895945,True,,5ea601fe68d1210be8aac48d,,1555901,125,,evan-feature22,full_rf_b,,0
95,39040,126,,,,1,1,0.0,0.0,-1.0,0.0,,0.0-123.0,,0.0,331.3699998,0.0,0.40998722600000004,0.0,0.720859127,1.0,0.673854955,0.0,0.368528541,True,,5ea601fe68d1210be8aac48d,,1566030,126,,evan-feature22,full_rf_b,,0
96,39041,127,,,,1,1,0.0,1.0,-1.0,0.0,,0.0-124.0,,0.0,845.8949997999999,0.0,0.353625316,1.0,0.75,1.0,0.695605473,0.0,0.38303674200000004,True,,5ea601fe68d1210be8aac48d,,1576692,127,,evan-feature22,full_rf_b,,0
97,39042,128,,,,1,1,0.0,1.0,-1.0,0.0,,0.0-125.0,,0.0,363.2999999,0.0,0.359216989,1.0,0.75,0.0,0.6987915090000001,1.0,0.35169046200000004,True,,5ea601fe68d1210be8aac48d,,1586854,128,,evan-feature22,full_rf_b,,0
98,39043,129,,,,2,2,1.0,1.0,-1.0,0.0,,0.0-126.0,,-1.0,424.3950001,1.0,0.35834496899999996,0.0,0.75,1.0,0.707067742,1.0,0.416763636,True,,5ea601fe68d1210be8aac48d,,1597097,129,,evan-feature22,full_rf_b,,1
99,39044,130,,,,1,1,0.0,1.0,0.0,1.0,,0.0-127.0,,1.0,630.3149997,0.0,0.38741613799999997,1.0,0.7177369570000001,0.0,0.734902455,1.0,0.49438664299999996,True,,5ea601fe68d1210be8aac48d,,1607527,130,,evan-feature22,full_rf_b,,1
100,39045,131,,,,1,1,1.0,1.0,-1.0,0.0,,0.0-128.0,,-1.0,288.82000039999997,1.0,0.405255252,1.0,0.7300466640000001,1.0,0.7027748070000001,1.0,0.504359668,True,,5ea601fe68d1210be8aac48d,,1617645,131,,evan-feature22,full_rf_b,,0
101,39046,132,,,,2,2,1.0,1.0,-1.0,0.0,,0.0-129.0,,-1.0,853.6950001,0.0,0.40697073,0.0,0.7260142190000001,1.0,0.724461982,1.0,0.522779179,True,,5ea601fe68d1210be8aac48d,,1628316,132,,evan-feature22,full_rf_b,,1
102,39047,133,,,,1,1,1.0,1.0,-1.0,0.0,,0.0-130.0,,-1.0,457.32499989999997,1.0,0.43906215299999996,1.0,0.7252802340000001,1.0,0.719079934,1.0,0.5712990579999999,True,,5ea601fe68d1210be8aac48d,,1638583,133,,evan-feature22,full_rf_b,,1
103,39048,134,,,,1,1,0.0,1.0,0.0,1.0,,0.0-131.0,,1.0,235.6599998,0.0,0.4076705,1.0,0.73280499,1.0,0.681313127,0.0,0.523891346,True,,5ea601fe68d1210be8aac48d,,1648615,134,,evan-feature22,full_rf_b,,0
104,39049,135,,,,2,2,0.0,0.0,0.0,1.0,,0.0-132.0,,0.0,559.9699998,0.0,0.399102911,1.0,0.730498344,0.0,0.661080239,0.0,0.46742603,True,,5ea601fe68d1210be8aac48d,,1658989,135,,evan-feature22,full_rf_b,,1
105,39050,136,,,,2,2,1.0,1.0,0.0,1.0,,0.0-133.0,,1.0,456.1950001,0.0,0.356477282,1.0,0.712296395,1.0,0.641812684,1.0,0.44868414,True,,5ea601fe68d1210be8aac48d,,1669253,136,,evan-feature22,full_rf_b,,0
106,39051,137,,,,1,1,1.0,1.0,-1.0,0.0,,0.0-134.0,,-1.0,566.2850002,1.0,0.462760722,1.0,0.692349322,1.0,0.700947931,0.0,0.394680266,True,,5ea601fe68d1210be8aac48d,,1679630,137,,evan-feature22,full_rf_b,,1
107,39052,138,,,,1,1,1.0,1.0,-1.0,0.0,,0.0-135.0,,-1.0,520.6050002000001,1.0,0.422306413,1.0,0.718375916,1.0,0.706340917,0.0,0.367787185,True,,5ea601fe68d1210be8aac48d,,1689958,138,,evan-feature22,full_rf_b,,0
108,39054,140,,,,1,1,1.0,1.0,-1.0,0.0,,0.0-137.0,,-1.0,827.4150002,1.0,0.4582233,1.0,0.643834117,1.0,0.75,0.0,0.39615823299999997,True,,5ea601fe68d1210be8aac48d,,1704349,140,,evan-feature22,full_rf_b,,0
109,39055,141,,,,1,1,0.0,0.0,-1.0,0.0,,0.0-138.0,,0.0,439.84999969999996,0.0,0.43813437899999996,0.0,0.651283804,0.0,0.729674191,0.0,0.37711048,True,,5ea601fe68d1210be8aac48d,,1714608,141,,evan-feature22,full_rf_b,,0
110,39056,142,,,,1,1,0.0,1.0,-1.0,0.0,,0.0-139.0,,0.0,317.4899998,0.0,0.471199094,1.0,0.6470010979999999,1.0,0.715008097,0.0,0.410656191,True,,5ea601fe68d1210be8aac48d,,1724741,142,,evan-feature22,full_rf_b,,0
111,39057,143,,,,1,1,1.0,0.0,-1.0,0.0,,0.0-140.0,,-1.0,311.425,1.0,0.42486406,0.0,0.629771829,1.0,0.6550939960000001,0.0,0.459093873,True,,5ea601fe68d1210be8aac48d,,1734867,143,,evan-feature22,full_rf_b,,0
112,39058,144,,,,2,2,0.0,0.0,-1.0,0.0,,0.0-141.0,,0.0,258.19,1.0,0.4803197,1.0,0.645842715,0.0,0.6421749920000001,0.0,0.443092151,True,,5ea601fe68d1210be8aac48d,,1744939,144,,evan-feature22,full_rf_b,,1
113,39059,145,,,,2,2,0.0,1.0,0.0,1.0,,0.0-142.0,,1.0,732.8249998,1.0,0.521848997,1.0,0.735801074,0.0,0.6691348460000001,1.0,0.45259351600000003,True,,5ea601fe68d1210be8aac48d,,1755474,145,,evan-feature22,full_rf_b,,0
114,39060,146,,,,2,2,0.0,1.0,-1.0,0.0,,0.0-143.0,,0.0,297.45,0.0,0.49565621299999996,1.0,0.742400847,0.0,0.661512553,1.0,0.483110831,True,,5ea601fe68d1210be8aac48d,,1765564,146,,evan-feature22,full_rf_b,,0
115,39061,147,,,,1,1,0.0,1.0,-1.0,0.0,,0.0-144.0,,0.0,516.69,0.0,0.521564361,1.0,0.731078632,1.0,0.6774886809999999,0.0,0.483263956,True,,5ea601fe68d1210be8aac48d,,1775867,147,,evan-feature22,full_rf_b,,1
116,39062,148,,,,1,1,1.0,1.0,-1.0,0.0,,0.0-145.0,,-1.0,779.0450002,1.0,0.558893102,1.0,0.719810023,1.0,0.67461031,0.0,0.499349834,True,,5ea601fe68d1210be8aac48d,,1786470,148,,evan-feature22,full_rf_b,,0
117,39063,149,,,,1,1,1.0,1.0,-1.0,0.0,,0.0-146.0,,-1.0,287.6050002,1.0,0.611031046,1.0,0.75,0.0,0.688072995,1.0,0.5321422729999999,True,,5ea601fe68d1210be8aac48d,,1796556,149,,evan-feature22,full_rf_b,,0
118,39064,150,,,,2,2,1.0,1.0,0.0,1.0,,0.0-147.0,,1.0,284.0150003,0.0,0.633223941,1.0,0.713567728,1.0,0.75,1.0,0.48185314700000004,True,,5ea601fe68d1210be8aac48d,,1806642,150,,evan-feature22,full_rf_b,,1
119,39065,151,,,,2,2,1.0,1.0,-1.0,0.0,,0.0-148.0,,-1.0,379.4300002,1.0,0.664001694,1.0,0.705509768,1.0,0.75,1.0,0.500211065,True,,5ea601fe68d1210be8aac48d,,1816816,151,,evan-feature22,full_rf_b,,0
120,39066,152,,,,2,2,1.0,0.0,-1.0,0.0,,0.0-149.0,,-1.0,624.2049998,1.0,0.664001694,0.0,0.705509768,1.0,0.75,0.0,0.500211065,True,,5ea601fe68d1210be8aac48d,,1827242,152,,evan-feature22,full_rf_b,,0
121,39067,153,,,,1,1,0.0,1.0,-1.0,0.0,,0.0-150.0,,0.0,741.6750002,0.0,0.696508041,1.0,0.71066027,1.0,0.717028709,1.0,0.49792991,True,,5ea601fe68d1210be8aac48d,,1837784,153,,evan-feature22,full_rf_b,,1
122,39068,154,,,,1,1,1.0,1.0,0.0,1.0,,0.0-151.0,,1.0,299.6750004,1.0,0.699883272,1.0,0.75,1.0,0.713543895,0.0,0.496962643,True,,5ea601fe68d1210be8aac48d,,1847892,154,,evan-feature22,full_rf_b,,0
123,39069,155,,,,1,1,1.0,1.0,0.0,1.0,,0.0-152.0,,1.0,1334.635,1.0,0.741163419,1.0,0.75,1.0,0.64691024,0.0,0.513858197,True,,5ea601fe68d1210be8aac48d,,1859029,155,,evan-feature22,full_rf_b,,0
124,39070,156,,,,1,1,0.0,1.0,0.0,1.0,,0.0-153.0,,1.0,485.44,0.0,0.75,1.0,0.70816558,0.0,0.594499079,1.0,0.48502124,True,,5ea601fe68d1210be8aac48d,,1869320,156,,evan-feature22,full_rf_b,,0
125,39071,157,,,,1,1,1.0,1.0,-1.0,0.0,,0.0-154.0,,-1.0,309.8900001,1.0,0.75,1.0,0.721848901,0.0,0.62197249,1.0,0.48263586399999997,True,,5ea601fe68d1210be8aac48d,,1879435,157,,evan-feature22,full_rf_b,,0
126,39072,158,,,,2,2,1.0,0.0,-1.0,0.0,,0.0-155.0,,-1.0,517.4600002000001,1.0,0.75,1.0,0.74813071,1.0,0.584357161,0.0,0.411477782,True,,5ea601fe68d1210be8aac48d,,1889748,158,,evan-feature22,full_rf_b,,1
127,39073,159,,,,2,2,0.0,0.0,-1.0,0.0,,0.0-156.0,,0.0,550.9799998,1.0,0.75,1.0,0.75,0.0,0.52287236,0.0,0.488290656,True,,5ea601fe68d1210be8aac48d,,1900101,159,,evan-feature22,full_rf_b,,0
128,39074,160,,,,2,2,1.0,0.0,-1.0,0.0,,0.0-157.0,,-1.0,829.6249998,1.0,0.75,1.0,0.75,1.0,0.544321581,0.0,0.53143059,True,,5ea601fe68d1210be8aac48d,,1910726,160,,evan-feature22,full_rf_b,,0
129,39075,161,,,,1,1,1.0,0.0,-1.0,0.0,,0.0-158.0,,-1.0,485.715,1.0,0.726754564,0.0,0.75,0.0,0.5129306370000001,0.0,0.530592445,True,,5ea601fe68d1210be8aac48d,,1921010,161,,evan-feature22,full_rf_b,,1
130,39076,162,,,,1,1,0.0,1.0,0.0,1.0,,0.0-159.0,,1.0,468.4049999,0.0,0.75,1.0,0.7392590729999999,0.0,0.479875835,1.0,0.547007051,True,,5ea601fe68d1210be8aac48d,,1931275,162,,evan-feature22,full_rf_b,,0
131,39077,163,,,,1,1,1.0,1.0,0.0,1.0,,0.0-160.0,,1.0,1504.795,1.0,0.75,1.0,0.7393376979999999,1.0,0.546045419,1.0,0.541267353,True,,5ea601fe68d1210be8aac48d,,1942599,163,,evan-feature22,full_rf_b,,0
132,39078,164,,,,2,2,0.0,1.0,-1.0,0.0,,0.0-161.0,,0.0,540.6650002,1.0,0.75,1.0,0.75,0.0,0.485725895,1.0,0.527625395,True,,5ea601fe68d1210be8aac48d,,1952931,164,,evan-feature22,full_rf_b,,1
133,39079,165,,,,2,2,1.0,1.0,0.0,1.0,,0.0-162.0,,1.0,787.8100001,1.0,0.75,1.0,0.725087974,1.0,0.488603595,1.0,0.504019206,True,,5ea601fe68d1210be8aac48d,,1963502,165,,evan-feature22,full_rf_b,,0
134,39080,166,,,,1,1,1.0,1.0,-1.0,0.0,,0.0-163.0,,-1.0,346.32,1.0,0.745504295,1.0,0.75,0.0,0.452379914,0.0,0.50131194,True,,5ea601fe68d1210be8aac48d,,1973655,166,,evan-feature22,full_rf_b,,1
135,39081,167,,,,2,2,0.0,0.0,0.0,1.0,,0.0-164.0,,0.0,769.8550001,1.0,0.728513874,1.0,0.75,0.0,0.44125567200000004,0.0,0.531454591,True,,5ea601fe68d1210be8aac48d,,1984224,167,,evan-feature22,full_rf_b,,1
136,39082,168,,,,2,2,0.0,0.0,-1.0,0.0,,0.0-165.0,,0.0,283.84000019999996,0.0,0.73790804,1.0,0.75,0.0,0.413036656,0.0,0.524619035,True,,5ea601fe68d1210be8aac48d,,1994314,168,,evan-feature22,full_rf_b,,0
137,39083,169,,,,1,1,0.0,0.0,-1.0,0.0,,0.0-166.0,,0.0,396.7749998,0.0,0.7080961309999999,0.0,0.708666865,0.0,0.431915581,0.0,0.481819489,True,,5ea601fe68d1210be8aac48d,,2004505,169,,evan-feature22,full_rf_b,,1
138,39084,170,,,,1,1,0.0,1.0,-1.0,0.0,,0.0-167.0,,0.0,640.8449998,0.0,0.721378003,1.0,0.71605913,1.0,0.36642387,1.0,0.5036739929999999,True,,5ea601fe68d1210be8aac48d,,2014929,170,,evan-feature22,full_rf_b,,0
139,39085,171,,,,2,2,1.0,1.0,0.0,1.0,,0.0-168.0,,1.0,293.2500001,1.0,0.7340618959999999,0.0,0.699323252,1.0,0.35298046299999997,1.0,0.511241692,True,,5ea601fe68d1210be8aac48d,,2025006,171,,evan-feature22,full_rf_b,,1
140,39086,172,,,,2,2,0.0,0.0,0.0,1.0,,0.0-169.0,,0.0,715.7550002,1.0,0.75,0.0,0.70412698,0.0,0.380734814,0.0,0.529580116,True,,5ea601fe68d1210be8aac48d,,2035509,172,,evan-feature22,full_rf_b,,0
141,39087,173,,,,2,2,1.0,1.0,0.0,1.0,,0.0-170.0,,1.0,630.81,1.0,0.7436654909999999,1.0,0.711182751,1.0,0.41125331,1.0,0.49554405,True,,5ea601fe68d1210be8aac48d,,2045957,173,,evan-feature22,full_rf_b,,0
142,39088,174,,,,2,2,0.0,0.0,-1.0,0.0,,0.0-171.0,,0.0,429.035,1.0,0.731607915,1.0,0.651774583,0.0,0.35688023,0.0,0.45194491600000003,True,,5ea601fe68d1210be8aac48d,,2056171,174,,evan-feature22,full_rf_b,,0
143,39089,175,,,,1,1,1.0,1.0,0.0,1.0,,0.0-172.0,,1.0,511.5699996,1.0,0.75,1.0,0.75,0.0,0.283145374,0.0,0.528608005,True,,5ea601fe68d1210be8aac48d,,2066494,175,,evan-feature22,full_rf_b,,1
144,39090,176,,,,1,1,0.0,0.0,-1.0,0.0,,0.0-173.0,,0.0,342.0600002,0.0,0.7491416890000001,0.0,0.7423785959999999,0.0,0.29135870399999997,0.0,0.498888318,True,,5ea601fe68d1210be8aac48d,,2076630,176,,evan-feature22,full_rf_b,,0
145,39091,177,,,,2,2,0.0,1.0,0.0,1.0,,0.0-174.0,,1.0,457.91000030000004,1.0,0.708569387,1.0,0.717682277,0.0,0.294421699,1.0,0.493838163,True,,5ea601fe68d1210be8aac48d,,2086887,177,,evan-feature22,full_rf_b,,1
146,39092,178,,,,2,2,0.0,1.0,-1.0,0.0,,0.0-175.0,,0.0,271.75999989999997,1.0,0.75,1.0,0.7383382159999999,0.0,0.356098707,1.0,0.442533405,True,,5ea601fe68d1210be8aac48d,,2096964,178,,evan-feature22,full_rf_b,,0
147,39093,179,,,,2,2,1.0,0.0,-1.0,0.0,,0.0-176.0,,-1.0,482.2849999,1.0,0.744527075,1.0,0.75,1.0,0.334127506,0.0,0.393165805,True,,5ea601fe68d1210be8aac48d,,2107259,179,,evan-feature22,full_rf_b,,0
148,39094,180,,,,2,2,0.0,0.0,-1.0,0.0,,0.0-177.0,,0.0,269.8300001,1.0,0.75,0.0,0.75,0.0,0.33571021799999995,0.0,0.350393962,True,,5ea601fe68d1210be8aac48d,,2117329,180,,evan-feature22,full_rf_b,,0
149,39095,181,,,,1,1,1.0,0.0,0.0,1.0,,0.0-178.0,,0.0,348.9600001,1.0,0.75,0.0,0.75,1.0,0.313628297,1.0,0.36349657399999996,True,,5ea601fe68d1210be8aac48d,,2127472,181,,evan-feature22,full_rf_b,,1
150,39096,182,,,,1,1,0.0,0.0,-1.0,0.0,,0.0-179.0,,0.0,697.3100002,0.0,0.75,0.0,0.734284182,0.0,0.262667667,0.0,0.380199119,True,,5ea601fe68d1210be8aac48d,,2137979,182,,evan-feature22,full_rf_b,,0
151,39097,183,,,,2,2,0.0,1.0,-1.0,0.0,,0.0-180.0,,0.0,738.5199997000001,1.0,0.75,1.0,0.75,0.0,0.25,1.0,0.394494013,True,,5ea601fe68d1210be8aac48d,,2148529,183,,evan-feature22,full_rf_b,,1
152,39098,184,,,,2,2,0.0,0.0,-1.0,0.0,,0.0-181.0,,0.0,388.295,1.0,0.722298145,1.0,0.7357822340000001,0.0,0.25,0.0,0.319142121,True,,5ea601fe68d1210be8aac48d,,2158716,184,,evan-feature22,full_rf_b,,0
153,39099,185,,,,2,2,0.0,0.0,-1.0,0.0,,0.0-182.0,,0.0,327.84500019999996,1.0,0.73149275,0.0,0.724276446,0.0,0.305856907,0.0,0.281315057,True,,5ea601fe68d1210be8aac48d,,2168849,185,,evan-feature22,full_rf_b,,0
154,39100,186,,,,1,1,1.0,1.0,-1.0,0.0,,0.0-183.0,,-1.0,761.01,1.0,0.7458732690000001,1.0,0.7336382459999999,1.0,0.272571964,1.0,0.266021999,True,,5ea601fe68d1210be8aac48d,,2179407,186,,evan-feature22,full_rf_b,,1
155,39101,187,,,,2,2,1.0,0.0,0.0,1.0,,0.0-184.0,,0.0,244.74500030000002,1.0,0.705579037,1.0,0.720778292,1.0,0.320238144,0.0,0.30971744,True,,5ea601fe68d1210be8aac48d,,2189449,187,,evan-feature22,full_rf_b,,1
156,39102,188,,,,1,1,0.0,1.0,0.0,1.0,,0.0-185.0,,1.0,237.1300003,0.0,0.700425648,1.0,0.7198784009999999,0.0,0.272590393,1.0,0.304182931,True,,5ea601fe68d1210be8aac48d,,2199498,188,,evan-feature22,full_rf_b,,1
157,39103,189,,,,1,1,1.0,1.0,0.0,1.0,,0.0-186.0,,1.0,280.5949999,1.0,0.735590785,1.0,0.722714973,0.0,0.25,1.0,0.323421091,True,,5ea601fe68d1210be8aac48d,,2209574,189,,evan-feature22,full_rf_b,,0
158,39104,190,,,,2,2,0.0,0.0,0.0,1.0,,0.0-187.0,,0.0,1006.205,1.0,0.724807662,0.0,0.63146213,0.0,0.36836492600000004,0.0,0.34592153299999995,True,,5ea601fe68d1210be8aac48d,,2220366,190,,evan-feature22,full_rf_b,,1
159,39105,191,,,,2,2,1.0,0.0,-1.0,0.0,,0.0-188.0,,-1.0,244.96499959999997,1.0,0.7352796909999999,1.0,0.555111392,1.0,0.36003922,0.0,0.31433779999999995,True,,5ea601fe68d1210be8aac48d,,2230427,191,,evan-feature22,full_rf_b,,0
160,39106,192,notice,,,,,,,,,,0.0-189.0,"{""Q0"":""NO""}",,6990.0,,,,,,,,,True,,5ea601fe68d1210be8aac48d,,2237431,192,Q,survey-text,full_rf_b,,1
161,39107,193,track1,,[1],,,,,,,,0.0-190.0,"{""Q0"":""no""}",,4218.0,,,,,,,,,True,,5ea601fe68d1210be8aac48d,,2241660,193,Q,evan-quiz,full_rf_b,,1
162,39108,194,track2,,[0],,,,,,,,0.0-191.0,"{""Q0"":""yes""}",,4878.0,,,,,,,,,True,,5ea601fe68d1210be8aac48d,,2246546,194,Q,evan-quiz,full_rf_b,,1
163,39109,195,strat,,,,,,,,,,0.0-192.0,"{""Q0"":""try to track which door corresponds to which colour most then second guess if there would be a change""}",,36230.0,,,,,,,,,True,,5ea601fe68d1210be8aac48d,,2282780,195,Q,survey-text,full_rf_b,,1
