,index,Unnamed: 0,Q_name,button_pressed,choice_idxs,chosen_pos,chosen_state,chosen_state_f_1_outcome,chosen_state_f_2_outcome,f_1_reward,f_2_reward,incor_questions,internal_node_id,responses,reward_received,rt,s_1_f_1_outcome,s_1_f_1_prob,s_1_f_2_outcome,s_1_f_2_prob,s_2_f_1_outcome,s_2_f_1_prob,s_2_f_2_outcome,s_2_f_2_prob,safe_first,stimulus,subjectID,success,time_elapsed,trial_index,trial_num,trial_type,version,view_history,switching
0,25587,25,,,,1,1,1.0,1.0,-1.0,0.0,,0.0-27.0,,-1.0,723.7,1.0,0.6,1.0,0.6,1.0,0.4,0.0,0.4,False,,5e50ecfc5bac4311db8b381b,,374487,25,,evan-feature22,full_pf_b,,0
1,25588,26,,,,2,2,0.0,1.0,-1.0,0.0,,0.0-28.0,,0.0,1472.5,1.0,0.608053294,1.0,0.63424552,0.0,0.397152172,1.0,0.347069101,False,,5e50ecfc5bac4311db8b381b,,385839,26,,evan-feature22,full_pf_b,,1
2,25589,27,,,,2,2,0.0,0.0,-1.0,0.0,,0.0-29.0,,0.0,842.3,0.0,0.642237155,1.0,0.648566321,0.0,0.389407674,0.0,0.285525717,False,,5e50ecfc5bac4311db8b381b,,396508,27,,evan-feature22,full_pf_b,,0
3,25590,28,,,,1,1,1.0,0.0,-1.0,0.0,,0.0-30.0,,-1.0,859.5,1.0,0.661086576,0.0,0.630492543,0.0,0.399058924,0.0,0.25,False,,5e50ecfc5bac4311db8b381b,,407237,28,,evan-feature22,full_pf_b,,1
4,25591,29,,,,1,1,0.0,1.0,0.0,1.0,,0.0-31.0,,1.0,1929.0,0.0,0.631324137,1.0,0.6269842929999999,0.0,0.38734784299999997,1.0,0.25,False,,5e50ecfc5bac4311db8b381b,,419019,29,,evan-feature22,full_pf_b,,0
5,25592,30,,,,1,1,1.0,0.0,0.0,1.0,,0.0-32.0,,0.0,1237.7,1.0,0.6381991370000001,0.0,0.68987999,1.0,0.384107265,0.0,0.271332943,False,,5e50ecfc5bac4311db8b381b,,430129,30,,evan-feature22,full_pf_b,,0
6,25593,31,,,,2,2,1.0,0.0,-1.0,0.0,,0.0-33.0,,-1.0,1697.9,0.0,0.66034901,1.0,0.742641349,1.0,0.360225629,0.0,0.25,False,,5e50ecfc5bac4311db8b381b,,441680,31,,evan-feature22,full_pf_b,,1
7,25594,32,,,,1,1,1.0,0.0,-1.0,0.0,,0.0-34.0,,-1.0,1292.4,1.0,0.638612418,0.0,0.75,1.0,0.367273939,0.0,0.25,False,,5e50ecfc5bac4311db8b381b,,452833,32,,evan-feature22,full_pf_b,,1
8,25595,33,,,,1,1,0.0,1.0,0.0,1.0,,0.0-35.0,,1.0,418.9,0.0,0.624340629,1.0,0.75,0.0,0.425829545,0.0,0.25,False,,5e50ecfc5bac4311db8b381b,,463134,33,,evan-feature22,full_pf_b,,0
9,25596,34,,,,1,1,0.0,1.0,0.0,1.0,,0.0-36.0,,1.0,876.7,0.0,0.621999804,1.0,0.75,1.0,0.368609357,1.0,0.25,False,,5e50ecfc5bac4311db8b381b,,473872,34,,evan-feature22,full_pf_b,,0
10,25597,35,,,,1,1,1.0,1.0,-1.0,0.0,,0.0-37.0,,-1.0,803.7,1.0,0.62666403,1.0,0.75,0.0,0.311151498,0.0,0.25,False,,5e50ecfc5bac4311db8b381b,,484576,35,,evan-feature22,full_pf_b,,0
11,25598,36,,,,1,1,1.0,0.0,0.0,1.0,,0.0-38.0,,0.0,426.6,1.0,0.6819650009999999,0.0,0.75,0.0,0.310763048,0.0,0.25,False,,5e50ecfc5bac4311db8b381b,,494880,36,,evan-feature22,full_pf_b,,0
12,25599,37,,,,1,1,1.0,1.0,-1.0,0.0,,0.0-39.0,,-1.0,1037.4,1.0,0.740626951,1.0,0.75,0.0,0.25,0.0,0.25,False,,5e50ecfc5bac4311db8b381b,,505724,37,,evan-feature22,full_pf_b,,0
13,25600,38,,,,2,2,0.0,0.0,-1.0,0.0,,0.0-40.0,,0.0,594.4,1.0,0.739599242,1.0,0.742034978,0.0,0.25397114600000004,0.0,0.25,False,,5e50ecfc5bac4311db8b381b,,516177,38,,evan-feature22,full_pf_b,,1
14,25601,39,,,,2,2,0.0,0.0,-1.0,0.0,,0.0-41.0,,0.0,1069.9,1.0,0.732341315,1.0,0.72735643,0.0,0.25,0.0,0.25,False,,5e50ecfc5bac4311db8b381b,,527120,39,,evan-feature22,full_pf_b,,0
15,25602,40,,,,2,2,0.0,0.0,-1.0,0.0,,0.0-42.0,,0.0,1669.0,1.0,0.7062287770000001,1.0,0.75,0.0,0.29002151,0.0,0.288256649,False,,5e50ecfc5bac4311db8b381b,,538636,40,,evan-feature22,full_pf_b,,0
16,25603,41,,,,2,2,0.0,0.0,-1.0,0.0,,0.0-43.0,,0.0,2272.4,1.0,0.7086029209999999,1.0,0.75,0.0,0.274129113,0.0,0.262851608,False,,5e50ecfc5bac4311db8b381b,,550807,41,,evan-feature22,full_pf_b,,0
17,25604,42,,,,1,1,1.0,0.0,-1.0,0.0,,0.0-44.0,,-1.0,2302.4,1.0,0.669189651,0.0,0.727614338,1.0,0.298444036,0.0,0.296944518,False,,5e50ecfc5bac4311db8b381b,,562979,42,,evan-feature22,full_pf_b,,1
18,25605,43,,,,2,2,1.0,1.0,-1.0,0.0,,0.0-45.0,,-1.0,924.0,1.0,0.6819912929999999,1.0,0.7179434290000001,1.0,0.265003961,1.0,0.28157921199999997,False,,5e50ecfc5bac4311db8b381b,,573757,43,,evan-feature22,full_pf_b,,1
19,25606,44,,,,2,2,0.0,1.0,0.0,1.0,,0.0-46.0,,1.0,422.8,1.0,0.665275002,0.0,0.723065271,0.0,0.260414971,1.0,0.30973870000000003,False,,5e50ecfc5bac4311db8b381b,,584083,44,,evan-feature22,full_pf_b,,0
20,25607,45,,,,1,1,1.0,1.0,-1.0,0.0,,0.0-47.0,,-1.0,1240.1,1.0,0.6660593260000001,1.0,0.728032907,1.0,0.30922817,0.0,0.338778608,False,,5e50ecfc5bac4311db8b381b,,595178,45,,evan-feature22,full_pf_b,,1
21,25608,46,,,,2,2,1.0,0.0,-1.0,0.0,,0.0-48.0,,-1.0,1040.3,1.0,0.702068785,1.0,0.6528750879999999,1.0,0.287329608,0.0,0.35789613200000003,False,,5e50ecfc5bac4311db8b381b,,606090,46,,evan-feature22,full_pf_b,,1
22,25609,47,,,,2,2,0.0,1.0,-1.0,0.0,,0.0-49.0,,0.0,1961.8,1.0,0.651939787,1.0,0.636725589,0.0,0.284834488,1.0,0.358563756,False,,5e50ecfc5bac4311db8b381b,,617940,47,,evan-feature22,full_pf_b,,0
23,25610,48,,,,2,2,0.0,1.0,0.0,1.0,,0.0-50.0,,1.0,1025.5,0.0,0.67573929,0.0,0.612550049,0.0,0.37130387600000003,1.0,0.383542402,False,,5e50ecfc5bac4311db8b381b,,628833,48,,evan-feature22,full_pf_b,,0
24,25611,49,,,,2,2,0.0,1.0,0.0,1.0,,0.0-51.0,,1.0,1307.0,1.0,0.620753801,1.0,0.60513644,0.0,0.385529434,1.0,0.340361743,False,,5e50ecfc5bac4311db8b381b,,640022,49,,evan-feature22,full_pf_b,,0
25,25612,50,,,,1,1,0.0,0.0,0.0,1.0,,0.0-52.0,,0.0,2039.0,0.0,0.673564893,0.0,0.672437924,0.0,0.292955382,0.0,0.337633795,False,,5e50ecfc5bac4311db8b381b,,651934,50,,evan-feature22,full_pf_b,,1
26,25613,51,,,,2,2,0.0,1.0,-1.0,0.0,,0.0-53.0,,0.0,1251.0,1.0,0.6749427,1.0,0.724197502,0.0,0.32391132100000003,1.0,0.350995264,False,,5e50ecfc5bac4311db8b381b,,663041,51,,evan-feature22,full_pf_b,,1
27,25614,52,,,,2,2,0.0,0.0,-1.0,0.0,,0.0-54.0,,0.0,1464.4,0.0,0.6940159379999999,1.0,0.75,0.0,0.31710554399999996,0.0,0.413450341,False,,5e50ecfc5bac4311db8b381b,,674365,52,,evan-feature22,full_pf_b,,0
28,25615,53,,,,2,2,0.0,0.0,-1.0,0.0,,0.0-55.0,,0.0,1290.3,1.0,0.6916018270000001,0.0,0.69001187,0.0,0.261817804,0.0,0.40038635,False,,5e50ecfc5bac4311db8b381b,,685537,53,,evan-feature22,full_pf_b,,0
29,25616,54,,,,2,2,0.0,0.0,-1.0,0.0,,0.0-56.0,,0.0,1412.4,1.0,0.641061544,1.0,0.71337992,0.0,0.277296461,0.0,0.47372791700000005,False,,5e50ecfc5bac4311db8b381b,,696811,54,,evan-feature22,full_pf_b,,0
30,25617,55,,,,1,1,0.0,1.0,-1.0,0.0,,0.0-57.0,,0.0,962.1,0.0,0.6082438520000001,1.0,0.708471106,0.0,0.28745137,0.0,0.564174476,False,,5e50ecfc5bac4311db8b381b,,707646,55,,evan-feature22,full_pf_b,,1
31,25618,56,,,,2,2,1.0,1.0,-1.0,0.0,,0.0-58.0,,-1.0,1087.0,0.0,0.6051112120000001,1.0,0.7118147229999999,1.0,0.272390611,1.0,0.5595149939999999,False,,5e50ecfc5bac4311db8b381b,,718545,56,,evan-feature22,full_pf_b,,1
32,25619,57,,,,1,1,1.0,0.0,-1.0,0.0,,0.0-59.0,,-1.0,490.9,1.0,0.582420852,0.0,0.635867583,0.0,0.31089574,1.0,0.5227206520000001,False,,5e50ecfc5bac4311db8b381b,,728849,57,,evan-feature22,full_pf_b,,1
33,25620,58,,,,1,1,1.0,1.0,0.0,1.0,,0.0-60.0,,1.0,1474.6,1.0,0.623195575,1.0,0.655026044,0.0,0.25,0.0,0.560387538,False,,5e50ecfc5bac4311db8b381b,,740158,58,,evan-feature22,full_pf_b,,0
34,25621,59,,,,2,2,1.0,1.0,-1.0,0.0,,0.0-61.0,,-1.0,2597.1,1.0,0.601889598,1.0,0.678198724,1.0,0.25,1.0,0.559922936,False,,5e50ecfc5bac4311db8b381b,,752579,59,,evan-feature22,full_pf_b,,1
35,25622,60,,,,1,1,0.0,0.0,-1.0,0.0,,0.0-62.0,,0.0,712.2,0.0,0.601259914,0.0,0.704681482,1.0,0.33908969299999997,0.0,0.505003715,False,,5e50ecfc5bac4311db8b381b,,763141,60,,evan-feature22,full_pf_b,,1
36,25623,61,,,,2,2,0.0,0.0,-1.0,0.0,,0.0-63.0,,0.0,1143.6,1.0,0.59645454,1.0,0.710437172,0.0,0.327441879,0.0,0.391749613,False,,5e50ecfc5bac4311db8b381b,,774154,61,,evan-feature22,full_pf_b,,1
37,25624,62,,,,2,2,0.0,0.0,-1.0,0.0,,0.0-64.0,,0.0,1160.5,1.0,0.529473,1.0,0.636758527,0.0,0.301338063,0.0,0.365661481,False,,5e50ecfc5bac4311db8b381b,,785199,62,,evan-feature22,full_pf_b,,0
38,25625,63,,,,1,1,1.0,1.0,0.0,1.0,,0.0-65.0,,1.0,1385.2,1.0,0.541657162,1.0,0.634541962,1.0,0.343535366,1.0,0.371763742,False,,5e50ecfc5bac4311db8b381b,,796454,63,,evan-feature22,full_pf_b,,1
39,25626,64,,,,2,2,0.0,0.0,-1.0,0.0,,0.0-66.0,,0.0,690.7,1.0,0.5707533260000001,0.0,0.589121171,0.0,0.326428396,0.0,0.43961622899999997,False,,5e50ecfc5bac4311db8b381b,,807033,64,,evan-feature22,full_pf_b,,1
40,25627,65,,,,2,2,1.0,1.0,-1.0,0.0,,0.0-67.0,,-1.0,962.3,0.0,0.5707533260000001,1.0,0.589121171,1.0,0.326428396,1.0,0.43961622899999997,False,,5e50ecfc5bac4311db8b381b,,817853,65,,evan-feature22,full_pf_b,,0
41,25628,66,,,,2,2,0.0,0.0,-1.0,0.0,,0.0-68.0,,0.0,902.3,1.0,0.506271295,0.0,0.641775594,0.0,0.37149690700000004,0.0,0.404330166,False,,5e50ecfc5bac4311db8b381b,,828625,66,,evan-feature22,full_pf_b,,0
42,25629,67,,,,1,1,0.0,1.0,0.0,1.0,,0.0-69.0,,1.0,969.8,0.0,0.455642565,1.0,0.623605825,1.0,0.358753011,1.0,0.346174041,False,,5e50ecfc5bac4311db8b381b,,839441,67,,evan-feature22,full_pf_b,,1
43,25630,68,,,,1,1,1.0,0.0,0.0,1.0,,0.0-70.0,,0.0,1178.1,1.0,0.483677308,0.0,0.5904681070000001,0.0,0.402218411,1.0,0.35344697,False,,5e50ecfc5bac4311db8b381b,,850449,68,,evan-feature22,full_pf_b,,0
44,25631,69,,,,1,1,0.0,0.0,0.0,1.0,,0.0-71.0,,0.0,941.6,0.0,0.394210977,0.0,0.558925494,1.0,0.540052017,0.0,0.35182128700000004,False,,5e50ecfc5bac4311db8b381b,,861231,69,,evan-feature22,full_pf_b,,0
45,25632,70,,,,2,2,0.0,0.0,-1.0,0.0,,0.0-72.0,,0.0,1659.2,0.0,0.382300414,0.0,0.577670603,0.0,0.607608448,0.0,0.378261578,False,,5e50ecfc5bac4311db8b381b,,872718,70,,evan-feature22,full_pf_b,,1
46,25633,71,,,,2,2,1.0,0.0,-1.0,0.0,,0.0-73.0,,-1.0,1882.7,0.0,0.357596762,1.0,0.5929076529999999,1.0,0.6579790010000001,0.0,0.401326777,False,,5e50ecfc5bac4311db8b381b,,884470,71,,evan-feature22,full_pf_b,,0
47,25634,72,,,,1,1,0.0,1.0,-1.0,0.0,,0.0-74.0,,0.0,1614.5,0.0,0.362033495,1.0,0.582308608,1.0,0.649195052,1.0,0.355158505,False,,5e50ecfc5bac4311db8b381b,,895956,72,,evan-feature22,full_pf_b,,1
48,25635,73,,,,1,1,0.0,0.0,-1.0,0.0,,0.0-75.0,,0.0,1597.4,0.0,0.369620635,0.0,0.669100864,1.0,0.706059111,0.0,0.362516241,False,,5e50ecfc5bac4311db8b381b,,907446,73,,evan-feature22,full_pf_b,,0
49,25636,74,,,,SLOW,SLOW,,,-1.0,0.0,,0.0-76.0,,-3.0,,1.0,0.41477751399999996,1.0,0.7284416779999999,1.0,0.7182656940000001,1.0,0.36228040899999997,False,,5e50ecfc5bac4311db8b381b,,913288,74,,evan-feature22,full_pf_b,,1
50,25637,75,,,,2,2,1.0,1.0,0.0,1.0,,0.0-77.0,,1.0,1987.0,0.0,0.37675460299999997,1.0,0.703250285,1.0,0.75,1.0,0.461979164,False,,5e50ecfc5bac4311db8b381b,,925162,75,,evan-feature22,full_pf_b,,1
51,25638,76,,,,2,2,1.0,0.0,0.0,1.0,,0.0-78.0,,0.0,1461.1,0.0,0.398716075,1.0,0.6723864890000001,1.0,0.674153818,0.0,0.519029516,False,,5e50ecfc5bac4311db8b381b,,936490,76,,evan-feature22,full_pf_b,,0
52,25639,77,,,,1,1,0.0,1.0,-1.0,0.0,,0.0-79.0,,0.0,1379.3,0.0,0.34677856700000004,1.0,0.69057175,1.0,0.6822438540000001,1.0,0.477292237,False,,5e50ecfc5bac4311db8b381b,,947716,77,,evan-feature22,full_pf_b,,1
53,25640,78,,,,1,1,0.0,1.0,0.0,1.0,,0.0-80.0,,1.0,2402.3,0.0,0.28580469199999997,1.0,0.68408818,1.0,0.684207565,0.0,0.49780448299999996,False,,5e50ecfc5bac4311db8b381b,,960002,78,,evan-feature22,full_pf_b,,0
54,25642,80,,,,2,2,0.0,0.0,-1.0,0.0,,0.0-82.0,,0.0,1523.1,0.0,0.25,1.0,0.7405808970000001,0.0,0.679614108,0.0,0.436436964,False,,5e50ecfc5bac4311db8b381b,,981785,80,,evan-feature22,full_pf_b,,1
55,25643,81,,,,2,2,0.0,0.0,0.0,1.0,,0.0-83.0,,0.0,1361.4,0.0,0.29890393,1.0,0.730505706,0.0,0.7328203320000001,0.0,0.439256938,False,,5e50ecfc5bac4311db8b381b,,993000,81,,evan-feature22,full_pf_b,,0
56,25644,82,,,,2,2,0.0,0.0,-1.0,0.0,,0.0-84.0,,0.0,1020.7,0.0,0.326762398,1.0,0.7148059609999999,0.0,0.75,0.0,0.44389608799999997,False,,5e50ecfc5bac4311db8b381b,,1003919,82,,evan-feature22,full_pf_b,,0
57,25645,83,,,,2,2,0.0,0.0,-1.0,0.0,,0.0-85.0,,0.0,1710.0,0.0,0.295168515,1.0,0.739760854,0.0,0.719947008,0.0,0.35277284600000003,False,,5e50ecfc5bac4311db8b381b,,1015539,83,,evan-feature22,full_pf_b,,0
58,25646,84,,,,2,2,1.0,0.0,-1.0,0.0,,0.0-86.0,,-1.0,1008.8,0.0,0.25,1.0,0.70781482,1.0,0.75,0.0,0.286095925,False,,5e50ecfc5bac4311db8b381b,,1026400,84,,evan-feature22,full_pf_b,,0
59,25647,85,,,,1,1,0.0,1.0,0.0,1.0,,0.0-87.0,,1.0,1198.1,0.0,0.25638190899999996,1.0,0.704088163,1.0,0.75,0.0,0.26872601399999996,False,,5e50ecfc5bac4311db8b381b,,1037455,85,,evan-feature22,full_pf_b,,1
60,25648,86,,,,1,1,0.0,0.0,0.0,1.0,,0.0-88.0,,0.0,1221.2,0.0,0.271581126,0.0,0.669760107,1.0,0.733896663,1.0,0.273244572,False,,5e50ecfc5bac4311db8b381b,,1048550,86,,evan-feature22,full_pf_b,,0
61,25649,87,,,,1,1,0.0,1.0,0.0,1.0,,0.0-89.0,,1.0,1036.5,0.0,0.257144401,1.0,0.600575706,0.0,0.74488122,0.0,0.25,False,,5e50ecfc5bac4311db8b381b,,1059425,87,,evan-feature22,full_pf_b,,0
62,25650,88,,,,2,2,0.0,0.0,-1.0,0.0,,0.0-90.0,,0.0,1308.7,1.0,0.25,0.0,0.616870026,0.0,0.723610234,0.0,0.25,False,,5e50ecfc5bac4311db8b381b,,1070598,88,,evan-feature22,full_pf_b,,1
63,25651,89,,,,1,1,0.0,0.0,0.0,1.0,,0.0-91.0,,0.0,891.9,0.0,0.25,0.0,0.583540187,0.0,0.7041042559999999,0.0,0.285961995,False,,5e50ecfc5bac4311db8b381b,,1081290,89,,evan-feature22,full_pf_b,,1
64,25652,90,,,,2,2,1.0,0.0,-1.0,0.0,,0.0-92.0,,-1.0,903.8,1.0,0.27254536,0.0,0.53875765,1.0,0.693783448,0.0,0.284961652,False,,5e50ecfc5bac4311db8b381b,,1092066,90,,evan-feature22,full_pf_b,,1
65,25653,91,,,,1,1,0.0,1.0,0.0,1.0,,0.0-93.0,,1.0,1409.8,0.0,0.25,1.0,0.548431252,1.0,0.734221895,0.0,0.279445214,False,,5e50ecfc5bac4311db8b381b,,1103323,91,,evan-feature22,full_pf_b,,1
66,25654,92,,,,1,1,0.0,0.0,-1.0,0.0,,0.0-94.0,,0.0,1418.9,0.0,0.258640684,0.0,0.545878066,0.0,0.725245965,1.0,0.31487537,False,,5e50ecfc5bac4311db8b381b,,1114598,92,,evan-feature22,full_pf_b,,0
67,25655,93,,,,1,1,0.0,1.0,-1.0,0.0,,0.0-95.0,,0.0,373.6,0.0,0.251103711,1.0,0.5776290629999999,1.0,0.696320133,0.0,0.317831047,False,,5e50ecfc5bac4311db8b381b,,1124828,93,,evan-feature22,full_pf_b,,0
68,25656,94,,,,1,1,1.0,1.0,-1.0,0.0,,0.0-96.0,,-1.0,781.1,1.0,0.276630292,1.0,0.617329858,1.0,0.73838088,1.0,0.261471582,False,,5e50ecfc5bac4311db8b381b,,1135499,94,,evan-feature22,full_pf_b,,0
69,25657,95,,,,1,1,0.0,1.0,0.0,1.0,,0.0-97.0,,1.0,709.5,0.0,0.297716424,1.0,0.618863717,1.0,0.7402358259999999,0.0,0.262600834,False,,5e50ecfc5bac4311db8b381b,,1146077,95,,evan-feature22,full_pf_b,,0
70,25658,96,,,,1,1,0.0,1.0,-1.0,0.0,,0.0-98.0,,0.0,630.7,0.0,0.290935512,1.0,0.695370945,1.0,0.706570507,0.0,0.280030553,False,,5e50ecfc5bac4311db8b381b,,1156589,96,,evan-feature22,full_pf_b,,0
71,25659,97,,,,1,1,0.0,0.0,-1.0,0.0,,0.0-99.0,,0.0,866.2,0.0,0.25,0.0,0.6465277079999999,1.0,0.67766682,0.0,0.25,False,,5e50ecfc5bac4311db8b381b,,1167298,97,,evan-feature22,full_pf_b,,0
72,25660,98,,,,1,1,0.0,0.0,-1.0,0.0,,0.0-100.0,,0.0,498.4,0.0,0.26463816,0.0,0.636100213,1.0,0.646048507,0.0,0.265607101,False,,5e50ecfc5bac4311db8b381b,,1177653,98,,evan-feature22,full_pf_b,,0
73,25661,99,,,,1,1,1.0,1.0,-1.0,0.0,,0.0-101.0,,-1.0,711.1,1.0,0.314340707,1.0,0.667795927,0.0,0.613630805,0.0,0.25,False,,5e50ecfc5bac4311db8b381b,,1188181,99,,evan-feature22,full_pf_b,,0
74,25662,100,,,,2,2,1.0,1.0,-1.0,0.0,,0.0-102.0,,-1.0,506.3,0.0,0.28685784,1.0,0.6622549529999999,1.0,0.652154117,1.0,0.25,False,,5e50ecfc5bac4311db8b381b,,1198554,100,,evan-feature22,full_pf_b,,1
75,25663,101,,,,1,1,1.0,1.0,0.0,1.0,,0.0-103.0,,1.0,738.6,1.0,0.304106554,1.0,0.631289538,1.0,0.707041942,0.0,0.29314237,False,,5e50ecfc5bac4311db8b381b,,1209141,101,,evan-feature22,full_pf_b,,1
76,25664,102,,,,1,1,0.0,1.0,0.0,1.0,,0.0-104.0,,1.0,1430.8,0.0,0.304806932,1.0,0.571167718,1.0,0.680472346,0.0,0.25,False,,5e50ecfc5bac4311db8b381b,,1220432,102,,evan-feature22,full_pf_b,,0
77,25665,103,,,,2,2,1.0,1.0,0.0,1.0,,0.0-105.0,,1.0,1120.4,1.0,0.37919861,1.0,0.5724849710000001,1.0,0.705638003,1.0,0.30179300600000003,False,,5e50ecfc5bac4311db8b381b,,1231415,103,,evan-feature22,full_pf_b,,1
78,25666,104,,,,1,1,1.0,1.0,0.0,1.0,,0.0-106.0,,1.0,644.6,1.0,0.464277969,1.0,0.554034373,0.0,0.7372627340000001,1.0,0.264699741,False,,5e50ecfc5bac4311db8b381b,,1241916,104,,evan-feature22,full_pf_b,,1
79,25667,105,,,,1,1,0.0,0.0,-1.0,0.0,,0.0-107.0,,0.0,1224.9,0.0,0.465104323,0.0,0.530793115,0.0,0.75,1.0,0.31683071,False,,5e50ecfc5bac4311db8b381b,,1253036,105,,evan-feature22,full_pf_b,,0
80,25668,106,,,,2,2,1.0,1.0,0.0,1.0,,0.0-108.0,,1.0,1134.8,0.0,0.465104323,0.0,0.530793115,1.0,0.75,1.0,0.31683071,False,,5e50ecfc5bac4311db8b381b,,1264050,106,,evan-feature22,full_pf_b,,1
81,25669,107,,,,2,2,1.0,0.0,0.0,1.0,,0.0-109.0,,0.0,1216.2,1.0,0.46833986,1.0,0.570249239,1.0,0.7244472590000001,0.0,0.364114163,False,,5e50ecfc5bac4311db8b381b,,1275145,107,,evan-feature22,full_pf_b,,0
82,25670,108,,,,1,1,1.0,0.0,0.0,1.0,,0.0-110.0,,0.0,509.9,1.0,0.445444024,0.0,0.649673355,1.0,0.6845441290000001,0.0,0.300660449,False,,5e50ecfc5bac4311db8b381b,,1285487,108,,evan-feature22,full_pf_b,,1
83,25671,109,,,,1,1,0.0,1.0,0.0,1.0,,0.0-111.0,,1.0,460.8,0.0,0.39909721299999995,1.0,0.6715179509999999,1.0,0.742310028,0.0,0.35496088299999995,False,,5e50ecfc5bac4311db8b381b,,1295794,109,,evan-feature22,full_pf_b,,0
84,25672,110,,,,1,1,0.0,1.0,0.0,1.0,,0.0-112.0,,1.0,471.0,0.0,0.37956104799999996,1.0,0.694725302,1.0,0.7181651309999999,0.0,0.38726906299999997,False,,5e50ecfc5bac4311db8b381b,,1306090,110,,evan-feature22,full_pf_b,,0
85,25673,111,,,,1,1,1.0,1.0,0.0,1.0,,0.0-113.0,,1.0,441.2,1.0,0.404995034,1.0,0.724375412,1.0,0.6910946859999999,0.0,0.387187347,False,,5e50ecfc5bac4311db8b381b,,1316387,111,,evan-feature22,full_pf_b,,0
86,25674,112,,,,1,1,1.0,0.0,0.0,1.0,,0.0-114.0,,0.0,1108.5,1.0,0.461740803,0.0,0.75,1.0,0.75,0.0,0.34872038200000005,False,,5e50ecfc5bac4311db8b381b,,1327330,112,,evan-feature22,full_pf_b,,0
87,25675,113,,,,2,2,1.0,1.0,-1.0,0.0,,0.0-115.0,,-1.0,2217.0,0.0,0.43821380600000004,1.0,0.738833273,1.0,0.728286963,1.0,0.399538128,False,,5e50ecfc5bac4311db8b381b,,1339419,113,,evan-feature22,full_pf_b,,1
88,25676,114,,,,1,1,0.0,1.0,0.0,1.0,,0.0-116.0,,1.0,582.3,0.0,0.41709882,1.0,0.736666736,1.0,0.75,0.0,0.389095584,False,,5e50ecfc5bac4311db8b381b,,1349868,114,,evan-feature22,full_pf_b,,1
89,25677,115,,,,1,1,0.0,1.0,0.0,1.0,,0.0-117.0,,1.0,907.0,0.0,0.39749009799999996,1.0,0.744320029,1.0,0.75,0.0,0.363848678,False,,5e50ecfc5bac4311db8b381b,,1360652,115,,evan-feature22,full_pf_b,,0
90,25678,116,,,,2,2,0.0,1.0,-1.0,0.0,,0.0-118.0,,0.0,741.3,0.0,0.392653706,1.0,0.75,0.0,0.75,1.0,0.384386976,False,,5e50ecfc5bac4311db8b381b,,1371259,116,,evan-feature22,full_pf_b,,1
91,25679,117,,,,2,2,1.0,0.0,-1.0,0.0,,0.0-119.0,,-1.0,514.0,0.0,0.31190902600000003,0.0,0.75,1.0,0.732413819,0.0,0.413082932,False,,5e50ecfc5bac4311db8b381b,,1381657,117,,evan-feature22,full_pf_b,,0
92,25680,118,,,,1,1,0.0,1.0,0.0,1.0,,0.0-120.0,,1.0,434.5,0.0,0.366917648,1.0,0.740073855,1.0,0.75,0.0,0.352861979,False,,5e50ecfc5bac4311db8b381b,,1391934,118,,evan-feature22,full_pf_b,,1
93,25681,119,,,,1,1,1.0,1.0,0.0,1.0,,0.0-121.0,,1.0,648.4,1.0,0.3645172,1.0,0.721770713,1.0,0.75,0.0,0.404074511,False,,5e50ecfc5bac4311db8b381b,,1402401,119,,evan-feature22,full_pf_b,,0
94,25682,120,,,,1,1,1.0,1.0,0.0,1.0,,0.0-122.0,,1.0,749.7,1.0,0.35205600299999995,1.0,0.68983859,0.0,0.739735447,0.0,0.366895945,False,,5e50ecfc5bac4311db8b381b,,1412967,120,,evan-feature22,full_pf_b,,0
95,25683,121,,,,1,1,0.0,0.0,0.0,1.0,,0.0-123.0,,0.0,980.6,0.0,0.40998722600000004,0.0,0.720859127,0.0,0.673854955,0.0,0.368528541,False,,5e50ecfc5bac4311db8b381b,,1423819,121,,evan-feature22,full_pf_b,,0
96,25684,122,,,,2,2,1.0,1.0,-1.0,0.0,,0.0-124.0,,-1.0,623.2,1.0,0.353625316,0.0,0.75,1.0,0.695605473,1.0,0.38303674200000004,False,,5e50ecfc5bac4311db8b381b,,1434288,122,,evan-feature22,full_pf_b,,1
97,25685,123,,,,1,1,0.0,0.0,0.0,1.0,,0.0-125.0,,0.0,632.3,0.0,0.359216989,0.0,0.75,0.0,0.6987915090000001,0.0,0.35169046200000004,False,,5e50ecfc5bac4311db8b381b,,1444788,123,,evan-feature22,full_pf_b,,1
98,25686,124,,,,1,1,1.0,1.0,-1.0,0.0,,0.0-126.0,,-1.0,788.9,1.0,0.35834496899999996,1.0,0.75,1.0,0.707067742,0.0,0.416763636,False,,5e50ecfc5bac4311db8b381b,,1455439,124,,evan-feature22,full_pf_b,,0
99,25687,125,,,,2,2,0.0,0.0,-1.0,0.0,,0.0-127.0,,0.0,639.1,0.0,0.38741613799999997,1.0,0.7177369570000001,0.0,0.734902455,0.0,0.49438664299999996,False,,5e50ecfc5bac4311db8b381b,,1465961,125,,evan-feature22,full_pf_b,,1
100,25688,126,,,,1,1,0.0,1.0,0.0,1.0,,0.0-128.0,,1.0,498.0,0.0,0.405255252,1.0,0.7300466640000001,0.0,0.7027748070000001,1.0,0.504359668,False,,5e50ecfc5bac4311db8b381b,,1476326,126,,evan-feature22,full_pf_b,,1
101,25689,127,,,,1,1,1.0,1.0,0.0,1.0,,0.0-129.0,,1.0,485.0,1.0,0.40697073,1.0,0.7260142190000001,1.0,0.724461982,1.0,0.522779179,False,,5e50ecfc5bac4311db8b381b,,1486670,127,,evan-feature22,full_pf_b,,0
102,25690,128,,,,2,2,0.0,1.0,0.0,1.0,,0.0-130.0,,1.0,1162.6,0.0,0.43906215299999996,1.0,0.7252802340000001,0.0,0.719079934,1.0,0.5712990579999999,False,,5e50ecfc5bac4311db8b381b,,1497678,128,,evan-feature22,full_pf_b,,1
103,25691,129,,,,1,1,0.0,1.0,0.0,1.0,,0.0-131.0,,1.0,978.1,0.0,0.4076705,1.0,0.73280499,0.0,0.681313127,0.0,0.523891346,False,,5e50ecfc5bac4311db8b381b,,1508497,129,,evan-feature22,full_pf_b,,1
104,25692,130,,,,1,1,1.0,1.0,0.0,1.0,,0.0-132.0,,1.0,715.9,1.0,0.399102911,1.0,0.730498344,1.0,0.661080239,0.0,0.46742603,False,,5e50ecfc5bac4311db8b381b,,1519087,130,,evan-feature22,full_pf_b,,0
105,25693,131,,,,2,2,1.0,1.0,-1.0,0.0,,0.0-133.0,,-1.0,387.8,0.0,0.356477282,1.0,0.712296395,1.0,0.641812684,1.0,0.44868414,False,,5e50ecfc5bac4311db8b381b,,1529313,131,,evan-feature22,full_pf_b,,1
106,25694,132,,,,1,1,0.0,0.0,0.0,1.0,,0.0-134.0,,0.0,322.4,0.0,0.462760722,0.0,0.692349322,1.0,0.700947931,1.0,0.394680266,False,,5e50ecfc5bac4311db8b381b,,1539502,132,,evan-feature22,full_pf_b,,1
107,25695,133,,,,1,1,1.0,1.0,0.0,1.0,,0.0-135.0,,1.0,418.3,1.0,0.422306413,1.0,0.718375916,1.0,0.706340917,0.0,0.367787185,False,,5e50ecfc5bac4311db8b381b,,1549782,133,,evan-feature22,full_pf_b,,0
108,25697,135,,,,1,1,1.0,0.0,0.0,1.0,,0.0-137.0,,0.0,775.6,1.0,0.4582233,0.0,0.643834117,0.0,0.75,0.0,0.39615823299999997,False,,5e50ecfc5bac4311db8b381b,,1562991,135,,evan-feature22,full_pf_b,,0
109,25698,136,,,,1,1,1.0,0.0,0.0,1.0,,0.0-138.0,,0.0,762.7,1.0,0.43813437899999996,0.0,0.651283804,0.0,0.729674191,0.0,0.37711048,False,,5e50ecfc5bac4311db8b381b,,1573617,136,,evan-feature22,full_pf_b,,0
110,25699,137,,,,2,2,1.0,1.0,0.0,1.0,,0.0-139.0,,1.0,573.2,0.0,0.471199094,0.0,0.6470010979999999,1.0,0.715008097,1.0,0.410656191,False,,5e50ecfc5bac4311db8b381b,,1584061,137,,evan-feature22,full_pf_b,,1
111,25700,138,,,,1,1,0.0,0.0,-1.0,0.0,,0.0-140.0,,0.0,1101.2,0.0,0.42486406,0.0,0.629771829,0.0,0.6550939960000001,1.0,0.459093873,False,,5e50ecfc5bac4311db8b381b,,1595008,138,,evan-feature22,full_pf_b,,1
112,25701,139,,,,1,1,0.0,1.0,-1.0,0.0,,0.0-141.0,,0.0,675.4,0.0,0.4803197,1.0,0.645842715,0.0,0.6421749920000001,0.0,0.443092151,False,,5e50ecfc5bac4311db8b381b,,1605525,139,,evan-feature22,full_pf_b,,0
113,25702,140,,,,1,1,0.0,0.0,-1.0,0.0,,0.0-142.0,,0.0,935.5,0.0,0.521848997,0.0,0.735801074,1.0,0.6691348460000001,0.0,0.45259351600000003,False,,5e50ecfc5bac4311db8b381b,,1616281,140,,evan-feature22,full_pf_b,,0
114,25703,141,,,,2,2,1.0,1.0,0.0,1.0,,0.0-143.0,,1.0,919.7,1.0,0.49565621299999996,1.0,0.742400847,1.0,0.661512553,1.0,0.483110831,False,,5e50ecfc5bac4311db8b381b,,1627076,141,,evan-feature22,full_pf_b,,1
115,25704,142,,,,1,1,1.0,0.0,-1.0,0.0,,0.0-144.0,,-1.0,688.2,1.0,0.521564361,0.0,0.731078632,1.0,0.6774886809999999,1.0,0.483263956,False,,5e50ecfc5bac4311db8b381b,,1637603,142,,evan-feature22,full_pf_b,,1
116,25705,143,,,,1,1,1.0,1.0,-1.0,0.0,,0.0-145.0,,-1.0,600.9,1.0,0.558893102,1.0,0.719810023,0.0,0.67461031,1.0,0.499349834,False,,5e50ecfc5bac4311db8b381b,,1648071,143,,evan-feature22,full_pf_b,,0
117,25706,144,,,,2,2,1.0,0.0,0.0,1.0,,0.0-146.0,,0.0,933.1,1.0,0.611031046,0.0,0.75,1.0,0.688072995,0.0,0.5321422729999999,False,,5e50ecfc5bac4311db8b381b,,1658868,144,,evan-feature22,full_pf_b,,1
118,25707,145,,,,2,2,1.0,1.0,-1.0,0.0,,0.0-147.0,,-1.0,1343.1,0.0,0.633223941,1.0,0.713567728,1.0,0.75,1.0,0.48185314700000004,False,,5e50ecfc5bac4311db8b381b,,1670072,145,,evan-feature22,full_pf_b,,0
119,25708,146,,,,1,1,1.0,1.0,-1.0,0.0,,0.0-148.0,,-1.0,492.4,1.0,0.664001694,1.0,0.705509768,0.0,0.75,1.0,0.500211065,False,,5e50ecfc5bac4311db8b381b,,1680437,146,,evan-feature22,full_pf_b,,1
120,25709,147,,,,1,1,0.0,0.0,0.0,1.0,,0.0-149.0,,0.0,1342.5,0.0,0.664001694,0.0,0.705509768,1.0,0.75,1.0,0.500211065,False,,5e50ecfc5bac4311db8b381b,,1691661,147,,evan-feature22,full_pf_b,,0
121,25710,148,,,,2,2,1.0,1.0,0.0,1.0,,0.0-150.0,,1.0,315.2,1.0,0.696508041,1.0,0.71066027,1.0,0.717028709,1.0,0.49792991,False,,5e50ecfc5bac4311db8b381b,,1701851,148,,evan-feature22,full_pf_b,,1
122,25711,149,,,,2,2,0.0,0.0,-1.0,0.0,,0.0-151.0,,0.0,1205.5,1.0,0.699883272,1.0,0.75,0.0,0.713543895,0.0,0.496962643,False,,5e50ecfc5bac4311db8b381b,,1712916,149,,evan-feature22,full_pf_b,,0
123,25712,150,,,,1,1,0.0,1.0,0.0,1.0,,0.0-152.0,,1.0,877.3,0.0,0.741163419,1.0,0.75,0.0,0.64691024,1.0,0.513858197,False,,5e50ecfc5bac4311db8b381b,,1723617,150,,evan-feature22,full_pf_b,,1
124,25713,151,,,,1,1,1.0,1.0,-1.0,0.0,,0.0-153.0,,-1.0,376.8,1.0,0.75,1.0,0.70816558,1.0,0.594499079,1.0,0.48502124,False,,5e50ecfc5bac4311db8b381b,,1733836,151,,evan-feature22,full_pf_b,,0
125,25714,152,,,,2,2,1.0,0.0,0.0,1.0,,0.0-154.0,,0.0,470.1,0.0,0.75,1.0,0.721848901,1.0,0.62197249,0.0,0.48263586399999997,False,,5e50ecfc5bac4311db8b381b,,1744141,152,,evan-feature22,full_pf_b,,1
126,25715,153,,,,2,2,1.0,1.0,-1.0,0.0,,0.0-155.0,,-1.0,1912.0,1.0,0.75,1.0,0.74813071,1.0,0.584357161,1.0,0.411477782,False,,5e50ecfc5bac4311db8b381b,,1755906,153,,evan-feature22,full_pf_b,,0
127,25716,154,,,,1,1,1.0,1.0,0.0,1.0,,0.0-156.0,,1.0,1985.5,1.0,0.75,1.0,0.75,0.0,0.52287236,0.0,0.488290656,False,,5e50ecfc5bac4311db8b381b,,1767747,154,,evan-feature22,full_pf_b,,1
128,25717,155,,,,1,1,1.0,0.0,0.0,1.0,,0.0-157.0,,0.0,3337.7,1.0,0.75,0.0,0.75,0.0,0.544321581,1.0,0.53143059,False,,5e50ecfc5bac4311db8b381b,,1780953,155,,evan-feature22,full_pf_b,,0
129,25718,156,,,,2,2,0.0,0.0,0.0,1.0,,0.0-158.0,,0.0,527.7,1.0,0.726754564,1.0,0.75,0.0,0.5129306370000001,0.0,0.530592445,False,,5e50ecfc5bac4311db8b381b,,1791306,156,,evan-feature22,full_pf_b,,1
130,25719,157,,,,1,1,1.0,0.0,-1.0,0.0,,0.0-159.0,,-1.0,1365.6,1.0,0.75,0.0,0.7392590729999999,0.0,0.479875835,1.0,0.547007051,False,,5e50ecfc5bac4311db8b381b,,1802529,157,,evan-feature22,full_pf_b,,1
131,25720,158,,,,2,2,0.0,0.0,-1.0,0.0,,0.0-160.0,,0.0,590.5,0.0,0.75,1.0,0.7393376979999999,0.0,0.546045419,0.0,0.541267353,False,,5e50ecfc5bac4311db8b381b,,1812964,158,,evan-feature22,full_pf_b,,1
132,25721,159,,,,2,2,0.0,1.0,-1.0,0.0,,0.0-161.0,,0.0,1394.5,1.0,0.75,1.0,0.75,0.0,0.485725895,1.0,0.527625395,False,,5e50ecfc5bac4311db8b381b,,1824182,159,,evan-feature22,full_pf_b,,0
133,25722,160,,,,1,1,0.0,1.0,0.0,1.0,,0.0-162.0,,1.0,969.0,0.0,0.75,1.0,0.725087974,0.0,0.488603595,1.0,0.504019206,False,,5e50ecfc5bac4311db8b381b,,1834989,160,,evan-feature22,full_pf_b,,1
134,25723,161,,,,2,2,0.0,1.0,0.0,1.0,,0.0-163.0,,1.0,1015.8,1.0,0.745504295,1.0,0.75,0.0,0.452379914,1.0,0.50131194,False,,5e50ecfc5bac4311db8b381b,,1845834,161,,evan-feature22,full_pf_b,,1
135,25724,162,,,,2,2,0.0,0.0,0.0,1.0,,0.0-164.0,,0.0,757.8,1.0,0.728513874,1.0,0.75,0.0,0.44125567200000004,0.0,0.531454591,False,,5e50ecfc5bac4311db8b381b,,1856465,162,,evan-feature22,full_pf_b,,0
136,25725,163,,,,1,1,1.0,1.0,-1.0,0.0,,0.0-165.0,,-1.0,843.3,1.0,0.73790804,1.0,0.75,0.0,0.413036656,0.0,0.524619035,False,,5e50ecfc5bac4311db8b381b,,1867169,163,,evan-feature22,full_pf_b,,1
137,25726,164,,,,1,1,1.0,0.0,0.0,1.0,,0.0-166.0,,0.0,1091.2,1.0,0.7080961309999999,0.0,0.708666865,0.0,0.431915581,1.0,0.481819489,False,,5e50ecfc5bac4311db8b381b,,1878149,164,,evan-feature22,full_pf_b,,0
138,25727,165,,,,2,2,0.0,0.0,0.0,1.0,,0.0-167.0,,0.0,402.3,1.0,0.721378003,1.0,0.71605913,0.0,0.36642387,0.0,0.5036739929999999,False,,5e50ecfc5bac4311db8b381b,,1888402,165,,evan-feature22,full_pf_b,,1
139,25728,166,,,,2,2,0.0,0.0,0.0,1.0,,0.0-168.0,,0.0,396.3,1.0,0.7340618959999999,1.0,0.699323252,0.0,0.35298046299999997,0.0,0.511241692,False,,5e50ecfc5bac4311db8b381b,,1898672,166,,evan-feature22,full_pf_b,,0
140,25729,167,,,,2,2,0.0,0.0,-1.0,0.0,,0.0-169.0,,0.0,1325.7,1.0,0.75,1.0,0.70412698,0.0,0.380734814,0.0,0.529580116,False,,5e50ecfc5bac4311db8b381b,,1909872,167,,evan-feature22,full_pf_b,,0
141,25730,168,,,,2,2,1.0,1.0,0.0,1.0,,0.0-170.0,,1.0,992.5,0.0,0.7436654909999999,1.0,0.711182751,1.0,0.41125331,1.0,0.49554405,False,,5e50ecfc5bac4311db8b381b,,1920719,168,,evan-feature22,full_pf_b,,0
142,25731,169,,,,2,2,0.0,0.0,0.0,1.0,,0.0-171.0,,0.0,589.0,0.0,0.731607915,1.0,0.651774583,0.0,0.35688023,0.0,0.45194491600000003,False,,5e50ecfc5bac4311db8b381b,,1931183,169,,evan-feature22,full_pf_b,,0
143,25732,170,,,,1,1,1.0,1.0,-1.0,0.0,,0.0-172.0,,-1.0,891.1,1.0,0.75,1.0,0.75,0.0,0.283145374,1.0,0.528608005,False,,5e50ecfc5bac4311db8b381b,,1941898,170,,evan-feature22,full_pf_b,,1
144,25733,171,,,,2,2,0.0,1.0,-1.0,0.0,,0.0-173.0,,0.0,502.8,0.0,0.7491416890000001,1.0,0.7423785959999999,0.0,0.29135870399999997,1.0,0.498888318,False,,5e50ecfc5bac4311db8b381b,,1952240,171,,evan-feature22,full_pf_b,,1
145,25734,172,,,,2,2,1.0,0.0,-1.0,0.0,,0.0-174.0,,-1.0,1212.9,0.0,0.708569387,1.0,0.717682277,1.0,0.294421699,0.0,0.493838163,False,,5e50ecfc5bac4311db8b381b,,1963305,172,,evan-feature22,full_pf_b,,0
146,25735,173,,,,1,1,1.0,0.0,0.0,1.0,,0.0-175.0,,0.0,1491.6,1.0,0.75,0.0,0.7383382159999999,0.0,0.356098707,1.0,0.442533405,False,,5e50ecfc5bac4311db8b381b,,1974664,173,,evan-feature22,full_pf_b,,1
147,25736,174,,,,2,2,0.0,0.0,0.0,1.0,,0.0-176.0,,0.0,429.2,1.0,0.744527075,0.0,0.75,0.0,0.334127506,0.0,0.393165805,False,,5e50ecfc5bac4311db8b381b,,1984942,174,,evan-feature22,full_pf_b,,1
148,25737,175,,,,2,2,1.0,0.0,0.0,1.0,,0.0-177.0,,0.0,747.2,1.0,0.75,0.0,0.75,1.0,0.33571021799999995,0.0,0.350393962,False,,5e50ecfc5bac4311db8b381b,,1995561,175,,evan-feature22,full_pf_b,,0
149,25738,176,,,,2,2,0.0,1.0,0.0,1.0,,0.0-178.0,,1.0,798.4,1.0,0.75,0.0,0.75,0.0,0.313628297,1.0,0.36349657399999996,False,,5e50ecfc5bac4311db8b381b,,2006214,176,,evan-feature22,full_pf_b,,0
150,25739,177,,,,2,2,0.0,1.0,-1.0,0.0,,0.0-179.0,,0.0,1154.2,1.0,0.75,1.0,0.734284182,0.0,0.262667667,1.0,0.380199119,False,,5e50ecfc5bac4311db8b381b,,2017231,177,,evan-feature22,full_pf_b,,0
151,25740,178,,,,2,2,0.0,1.0,0.0,1.0,,0.0-180.0,,1.0,758.4,1.0,0.75,1.0,0.75,0.0,0.25,1.0,0.394494013,False,,5e50ecfc5bac4311db8b381b,,2027839,178,,evan-feature22,full_pf_b,,0
152,25741,179,,,,1,1,0.0,1.0,-1.0,0.0,,0.0-181.0,,0.0,785.4,0.0,0.722298145,1.0,0.7357822340000001,1.0,0.25,0.0,0.319142121,False,,5e50ecfc5bac4311db8b381b,,2038515,179,,evan-feature22,full_pf_b,,1
153,25742,180,,,,2,2,0.0,0.0,-1.0,0.0,,0.0-182.0,,0.0,1149.5,0.0,0.73149275,1.0,0.724276446,0.0,0.305856907,0.0,0.281315057,False,,5e50ecfc5bac4311db8b381b,,2049522,180,,evan-feature22,full_pf_b,,1
154,25743,181,,,,1,1,1.0,1.0,0.0,1.0,,0.0-183.0,,1.0,595.9,1.0,0.7458732690000001,1.0,0.7336382459999999,0.0,0.272571964,0.0,0.266021999,False,,5e50ecfc5bac4311db8b381b,,2059970,181,,evan-feature22,full_pf_b,,1
155,25744,182,,,,2,2,1.0,0.0,0.0,1.0,,0.0-184.0,,0.0,1244.8,0.0,0.705579037,0.0,0.720778292,1.0,0.320238144,0.0,0.30971744,False,,5e50ecfc5bac4311db8b381b,,2071031,182,,evan-feature22,full_pf_b,,1
156,25745,183,,,,1,1,0.0,0.0,0.0,1.0,,0.0-185.0,,0.0,1523.8,0.0,0.700425648,0.0,0.7198784009999999,0.0,0.272590393,0.0,0.304182931,False,,5e50ecfc5bac4311db8b381b,,2082350,183,,evan-feature22,full_pf_b,,1
157,25746,184,,,,2,2,1.0,0.0,0.0,1.0,,0.0-186.0,,0.0,761.4,0.0,0.735590785,1.0,0.722714973,1.0,0.25,0.0,0.323421091,False,,5e50ecfc5bac4311db8b381b,,2092906,184,,evan-feature22,full_pf_b,,1
158,25747,185,,,,2,2,1.0,1.0,0.0,1.0,,0.0-187.0,,1.0,650.3,1.0,0.724807662,1.0,0.63146213,1.0,0.36836492600000004,1.0,0.34592153299999995,False,,5e50ecfc5bac4311db8b381b,,2103333,185,,evan-feature22,full_pf_b,,0
159,25748,186,,,,2,2,0.0,0.0,0.0,1.0,,0.0-188.0,,0.0,623.1,1.0,0.7352796909999999,0.0,0.555111392,0.0,0.36003922,0.0,0.31433779999999995,False,,5e50ecfc5bac4311db8b381b,,2113756,186,,evan-feature22,full_pf_b,,0
160,25749,187,notice,,,,,,,,,,0.0-189.0,"{""Q0"":""not a huge difference, i thought the orange one was better but then at the end i didnt feel that way ""}",,19555.0,,,,,,,,,False,,5e50ecfc5bac4311db8b381b,,2133313,187,Q,survey-text,full_pf_b,,1
161,25750,188,track1,,[1],,,,,,,,0.0-190.0,"{""Q0"":""no""}",,3239.0,,,,,,,,,False,,5e50ecfc5bac4311db8b381b,,2136558,188,Q,evan-quiz,full_pf_b,,1
162,25751,189,track2,,[0],,,,,,,,0.0-191.0,"{""Q0"":""yes""}",,6466.0,,,,,,,,,False,,5e50ecfc5bac4311db8b381b,,2143027,189,Q,evan-quiz,full_pf_b,,1
163,25752,190,strat,,,,,,,,,,0.0-192.0,"{""Q0"":""tried to make patterns with which aliens appeared dependent on their value""}",,11716.0,,,,,,,,,False,,5e50ecfc5bac4311db8b381b,,2154748,190,Q,survey-text,full_pf_b,,1
