,index,Unnamed: 0,Q_name,button_pressed,choice_idxs,chosen_pos,chosen_state,chosen_state_f_1_outcome,chosen_state_f_2_outcome,f_1_reward,f_2_reward,incor_questions,internal_node_id,responses,reward_received,rt,s_1_f_1_outcome,s_1_f_1_prob,s_1_f_2_outcome,s_1_f_2_prob,s_2_f_1_outcome,s_2_f_1_prob,s_2_f_2_outcome,s_2_f_2_prob,safe_first,stimulus,subjectID,success,time_elapsed,trial_index,trial_num,trial_type,version,view_history,switching
0,38165,25,,,,2,2,0.0,0.0,-1.0,0.0,,0.0-27.0,,0.0,1285.0,1.0,0.6,1.0,0.6,0.0,0.4,0.0,0.4,False,,5e999e7c295393016b7c2577,,674079,25,,evan-feature22,full_pf_b,,0
1,38166,26,,,,2,2,1.0,1.0,-1.0,0.0,,0.0-28.0,,-1.0,1750.0,1.0,0.608053294,0.0,0.63424552,1.0,0.397152172,1.0,0.347069101,False,,5e999e7c295393016b7c2577,,685623,26,,evan-feature22,full_pf_b,,0
2,38167,27,,,,2,2,1.0,0.0,-1.0,0.0,,0.0-29.0,,-1.0,2491.0,1.0,0.642237155,0.0,0.648566321,1.0,0.389407674,0.0,0.285525717,False,,5e999e7c295393016b7c2577,,697921,27,,evan-feature22,full_pf_b,,0
3,38168,28,,,,2,2,0.0,0.0,-1.0,0.0,,0.0-30.0,,0.0,882.0,1.0,0.661086576,1.0,0.630492543,0.0,0.399058924,0.0,0.25,False,,5e999e7c295393016b7c2577,,708609,28,,evan-feature22,full_pf_b,,0
4,38169,29,,,,1,1,1.0,1.0,0.0,1.0,,0.0-31.0,,1.0,1857.0,1.0,0.631324137,1.0,0.6269842929999999,0.0,0.38734784299999997,1.0,0.25,False,,5e999e7c295393016b7c2577,,720250,29,,evan-feature22,full_pf_b,,1
5,38170,30,,,,1,1,0.0,1.0,0.0,1.0,,0.0-32.0,,1.0,1584.0,0.0,0.6381991370000001,1.0,0.68987999,0.0,0.384107265,0.0,0.271332943,False,,5e999e7c295393016b7c2577,,731641,30,,evan-feature22,full_pf_b,,0
6,38171,31,,,,2,2,1.0,1.0,-1.0,0.0,,0.0-33.0,,-1.0,1177.0,0.0,0.66034901,0.0,0.742641349,1.0,0.360225629,1.0,0.25,False,,5e999e7c295393016b7c2577,,742627,31,,evan-feature22,full_pf_b,,1
7,38172,32,,,,2,2,0.0,1.0,-1.0,0.0,,0.0-34.0,,0.0,1135.0,1.0,0.638612418,1.0,0.75,0.0,0.367273939,1.0,0.25,False,,5e999e7c295393016b7c2577,,753596,32,,evan-feature22,full_pf_b,,0
8,38173,33,,,,1,1,0.0,1.0,0.0,1.0,,0.0-35.0,,1.0,1468.0,0.0,0.624340629,1.0,0.75,1.0,0.425829545,0.0,0.25,False,,5e999e7c295393016b7c2577,,764887,33,,evan-feature22,full_pf_b,,1
9,38174,34,,,,1,1,0.0,1.0,0.0,1.0,,0.0-36.0,,1.0,1082.0,0.0,0.621999804,1.0,0.75,0.0,0.368609357,0.0,0.25,False,,5e999e7c295393016b7c2577,,775779,34,,evan-feature22,full_pf_b,,0
10,38175,35,,,,2,2,1.0,0.0,-1.0,0.0,,0.0-37.0,,-1.0,1303.0,0.0,0.62666403,1.0,0.75,1.0,0.311151498,0.0,0.25,False,,5e999e7c295393016b7c2577,,786889,35,,evan-feature22,full_pf_b,,1
11,38176,36,,,,1,1,1.0,1.0,0.0,1.0,,0.0-38.0,,1.0,1249.0,1.0,0.6819650009999999,1.0,0.75,0.0,0.310763048,0.0,0.25,False,,5e999e7c295393016b7c2577,,797953,36,,evan-feature22,full_pf_b,,1
12,38177,37,,,,2,2,0.0,0.0,-1.0,0.0,,0.0-39.0,,0.0,1168.0,0.0,0.740626951,1.0,0.75,0.0,0.25,0.0,0.25,False,,5e999e7c295393016b7c2577,,808890,37,,evan-feature22,full_pf_b,,1
13,38178,38,,,,2,2,0.0,0.0,-1.0,0.0,,0.0-40.0,,0.0,912.0,1.0,0.739599242,1.0,0.742034978,0.0,0.25397114600000004,0.0,0.25,False,,5e999e7c295393016b7c2577,,819625,38,,evan-feature22,full_pf_b,,0
14,38179,39,,,,2,2,0.0,0.0,-1.0,0.0,,0.0-41.0,,0.0,1255.0,1.0,0.732341315,1.0,0.72735643,0.0,0.25,0.0,0.25,False,,5e999e7c295393016b7c2577,,830672,39,,evan-feature22,full_pf_b,,0
15,38180,40,,,,2,2,0.0,0.0,-1.0,0.0,,0.0-42.0,,0.0,911.0,0.0,0.7062287770000001,1.0,0.75,0.0,0.29002151,0.0,0.288256649,False,,5e999e7c295393016b7c2577,,841377,40,,evan-feature22,full_pf_b,,0
16,38181,41,,,,2,2,1.0,1.0,-1.0,0.0,,0.0-43.0,,-1.0,800.0,1.0,0.7086029209999999,0.0,0.75,1.0,0.274129113,1.0,0.262851608,False,,5e999e7c295393016b7c2577,,851971,41,,evan-feature22,full_pf_b,,0
17,38182,42,,,,2,2,0.0,0.0,-1.0,0.0,,0.0-44.0,,0.0,925.0,0.0,0.669189651,1.0,0.727614338,0.0,0.298444036,0.0,0.296944518,False,,5e999e7c295393016b7c2577,,862691,42,,evan-feature22,full_pf_b,,0
18,38183,43,,,,2,2,0.0,0.0,-1.0,0.0,,0.0-45.0,,0.0,734.0,1.0,0.6819912929999999,1.0,0.7179434290000001,0.0,0.265003961,0.0,0.28157921199999997,False,,5e999e7c295393016b7c2577,,873207,43,,evan-feature22,full_pf_b,,0
19,38184,44,,,,1,1,1.0,0.0,0.0,1.0,,0.0-46.0,,0.0,984.0,1.0,0.665275002,0.0,0.723065271,0.0,0.260414971,0.0,0.30973870000000003,False,,5e999e7c295393016b7c2577,,883974,44,,evan-feature22,full_pf_b,,1
20,38185,45,,,,2,2,0.0,0.0,-1.0,0.0,,0.0-47.0,,0.0,843.0,1.0,0.6660593260000001,1.0,0.728032907,0.0,0.30922817,0.0,0.338778608,False,,5e999e7c295393016b7c2577,,894614,45,,evan-feature22,full_pf_b,,1
21,38186,46,,,,2,2,1.0,1.0,-1.0,0.0,,0.0-48.0,,-1.0,1794.0,1.0,0.702068785,0.0,0.6528750879999999,1.0,0.287329608,1.0,0.35789613200000003,False,,5e999e7c295393016b7c2577,,906215,46,,evan-feature22,full_pf_b,,0
22,38187,47,,,,2,2,0.0,1.0,-1.0,0.0,,0.0-49.0,,0.0,864.0,1.0,0.651939787,0.0,0.636725589,0.0,0.284834488,1.0,0.358563756,False,,5e999e7c295393016b7c2577,,916857,47,,evan-feature22,full_pf_b,,0
23,38188,48,,,,1,1,0.0,1.0,0.0,1.0,,0.0-50.0,,1.0,1351.0,0.0,0.67573929,1.0,0.612550049,0.0,0.37130387600000003,0.0,0.383542402,False,,5e999e7c295393016b7c2577,,927998,48,,evan-feature22,full_pf_b,,1
24,38189,49,,,,1,1,1.0,0.0,0.0,1.0,,0.0-51.0,,0.0,1034.0,1.0,0.620753801,0.0,0.60513644,1.0,0.385529434,0.0,0.340361743,False,,5e999e7c295393016b7c2577,,938827,49,,evan-feature22,full_pf_b,,0
25,38190,50,,,,1,1,0.0,0.0,0.0,1.0,,0.0-52.0,,0.0,965.0,0.0,0.673564893,0.0,0.672437924,1.0,0.292955382,0.0,0.337633795,False,,5e999e7c295393016b7c2577,,949577,50,,evan-feature22,full_pf_b,,0
26,38191,51,,,,2,2,0.0,0.0,-1.0,0.0,,0.0-53.0,,0.0,646.0,1.0,0.6749427,1.0,0.724197502,0.0,0.32391132100000003,0.0,0.350995264,False,,5e999e7c295393016b7c2577,,960000,51,,evan-feature22,full_pf_b,,1
27,38192,52,,,,2,2,0.0,1.0,-1.0,0.0,,0.0-54.0,,0.0,734.0,1.0,0.6940159379999999,1.0,0.75,0.0,0.31710554399999996,1.0,0.413450341,False,,5e999e7c295393016b7c2577,,970533,52,,evan-feature22,full_pf_b,,0
28,38193,53,,,,2,2,0.0,0.0,-1.0,0.0,,0.0-55.0,,0.0,947.0,1.0,0.6916018270000001,0.0,0.69001187,0.0,0.261817804,0.0,0.40038635,False,,5e999e7c295393016b7c2577,,981267,53,,evan-feature22,full_pf_b,,0
29,38194,54,,,,2,2,0.0,1.0,-1.0,0.0,,0.0-56.0,,0.0,996.0,1.0,0.641061544,1.0,0.71337992,0.0,0.277296461,1.0,0.47372791700000005,False,,5e999e7c295393016b7c2577,,992065,54,,evan-feature22,full_pf_b,,0
30,38195,55,,,,2,2,0.0,1.0,-1.0,0.0,,0.0-57.0,,0.0,630.0,1.0,0.6082438520000001,0.0,0.708471106,0.0,0.28745137,1.0,0.564174476,False,,5e999e7c295393016b7c2577,,1002503,55,,evan-feature22,full_pf_b,,0
31,38196,56,,,,2,2,0.0,0.0,-1.0,0.0,,0.0-58.0,,0.0,1552.0,1.0,0.6051112120000001,1.0,0.7118147229999999,0.0,0.272390611,0.0,0.5595149939999999,False,,5e999e7c295393016b7c2577,,1013848,56,,evan-feature22,full_pf_b,,0
32,38197,57,,,,2,2,0.0,0.0,-1.0,0.0,,0.0-59.0,,0.0,1073.0,0.0,0.582420852,1.0,0.635867583,0.0,0.31089574,0.0,0.5227206520000001,False,,5e999e7c295393016b7c2577,,1024738,57,,evan-feature22,full_pf_b,,0
33,38198,58,,,,1,1,1.0,0.0,0.0,1.0,,0.0-60.0,,0.0,1244.0,1.0,0.623195575,0.0,0.655026044,1.0,0.25,0.0,0.560387538,False,,5e999e7c295393016b7c2577,,1035801,58,,evan-feature22,full_pf_b,,1
34,38199,59,,,,2,2,0.0,1.0,-1.0,0.0,,0.0-61.0,,0.0,861.0,1.0,0.601889598,0.0,0.678198724,0.0,0.25,1.0,0.559922936,False,,5e999e7c295393016b7c2577,,1046474,59,,evan-feature22,full_pf_b,,1
35,38200,60,,,,2,2,0.0,1.0,-1.0,0.0,,0.0-62.0,,0.0,828.0,0.0,0.601259914,1.0,0.704681482,0.0,0.33908969299999997,1.0,0.505003715,False,,5e999e7c295393016b7c2577,,1057115,60,,evan-feature22,full_pf_b,,0
36,38201,61,,,,2,2,0.0,0.0,-1.0,0.0,,0.0-63.0,,0.0,860.0,1.0,0.59645454,1.0,0.710437172,0.0,0.327441879,0.0,0.391749613,False,,5e999e7c295393016b7c2577,,1067787,61,,evan-feature22,full_pf_b,,0
37,38202,62,,,,2,2,0.0,0.0,-1.0,0.0,,0.0-64.0,,0.0,1083.0,0.0,0.529473,1.0,0.636758527,0.0,0.301338063,0.0,0.365661481,False,,5e999e7c295393016b7c2577,,1078694,62,,evan-feature22,full_pf_b,,0
38,38203,63,,,,1,1,1.0,1.0,0.0,1.0,,0.0-65.0,,1.0,1152.0,1.0,0.541657162,1.0,0.634541962,1.0,0.343535366,0.0,0.371763742,False,,5e999e7c295393016b7c2577,,1089633,63,,evan-feature22,full_pf_b,,1
39,38204,64,,,,2,2,1.0,0.0,-1.0,0.0,,0.0-66.0,,-1.0,1021.0,1.0,0.5707533260000001,1.0,0.589121171,1.0,0.326428396,0.0,0.43961622899999997,False,,5e999e7c295393016b7c2577,,1100463,64,,evan-feature22,full_pf_b,,1
40,38205,65,,,,2,2,0.0,0.0,-1.0,0.0,,0.0-67.0,,0.0,969.0,0.0,0.5707533260000001,1.0,0.589121171,0.0,0.326428396,0.0,0.43961622899999997,False,,5e999e7c295393016b7c2577,,1111259,65,,evan-feature22,full_pf_b,,0
41,38206,66,,,,2,2,1.0,0.0,-1.0,0.0,,0.0-68.0,,-1.0,715.0,1.0,0.506271295,1.0,0.641775594,1.0,0.37149690700000004,0.0,0.404330166,False,,5e999e7c295393016b7c2577,,1121760,66,,evan-feature22,full_pf_b,,0
42,38207,67,,,,1,1,1.0,1.0,0.0,1.0,,0.0-69.0,,1.0,894.0,1.0,0.455642565,1.0,0.623605825,1.0,0.358753011,0.0,0.346174041,False,,5e999e7c295393016b7c2577,,1132463,67,,evan-feature22,full_pf_b,,1
43,38208,68,,,,1,1,1.0,1.0,0.0,1.0,,0.0-70.0,,1.0,1317.0,1.0,0.483677308,1.0,0.5904681070000001,0.0,0.402218411,0.0,0.35344697,False,,5e999e7c295393016b7c2577,,1143605,68,,evan-feature22,full_pf_b,,0
44,38209,69,,,,1,1,0.0,0.0,0.0,1.0,,0.0-71.0,,0.0,865.0,0.0,0.394210977,0.0,0.558925494,1.0,0.540052017,1.0,0.35182128700000004,False,,5e999e7c295393016b7c2577,,1154278,69,,evan-feature22,full_pf_b,,0
45,38210,70,,,,2,2,1.0,0.0,-1.0,0.0,,0.0-72.0,,-1.0,1080.0,0.0,0.382300414,0.0,0.577670603,1.0,0.607608448,0.0,0.378261578,False,,5e999e7c295393016b7c2577,,1165169,70,,evan-feature22,full_pf_b,,1
46,38211,71,,,,2,2,1.0,0.0,-1.0,0.0,,0.0-73.0,,-1.0,1068.0,1.0,0.357596762,1.0,0.5929076529999999,1.0,0.6579790010000001,0.0,0.401326777,False,,5e999e7c295393016b7c2577,,1176044,71,,evan-feature22,full_pf_b,,0
47,38212,72,,,,2,2,1.0,1.0,-1.0,0.0,,0.0-74.0,,-1.0,761.0,0.0,0.362033495,1.0,0.582308608,1.0,0.649195052,1.0,0.355158505,False,,5e999e7c295393016b7c2577,,1186608,72,,evan-feature22,full_pf_b,,0
48,38213,73,,,,1,1,0.0,1.0,-1.0,0.0,,0.0-75.0,,0.0,710.0,0.0,0.369620635,1.0,0.669100864,1.0,0.706059111,1.0,0.362516241,False,,5e999e7c295393016b7c2577,,1197139,73,,evan-feature22,full_pf_b,,1
49,38214,74,,,,1,1,0.0,1.0,-1.0,0.0,,0.0-76.0,,0.0,801.0,0.0,0.41477751399999996,1.0,0.7284416779999999,1.0,0.7182656940000001,1.0,0.36228040899999997,False,,5e999e7c295393016b7c2577,,1207733,74,,evan-feature22,full_pf_b,,0
50,38215,75,,,,2,2,1.0,1.0,0.0,1.0,,0.0-77.0,,1.0,1919.0,1.0,0.37675460299999997,1.0,0.703250285,1.0,0.75,1.0,0.461979164,False,,5e999e7c295393016b7c2577,,1219453,75,,evan-feature22,full_pf_b,,1
51,38216,76,,,,2,2,0.0,1.0,0.0,1.0,,0.0-78.0,,1.0,1224.0,0.0,0.398716075,1.0,0.6723864890000001,0.0,0.674153818,1.0,0.519029516,False,,5e999e7c295393016b7c2577,,1230484,76,,evan-feature22,full_pf_b,,0
52,38217,77,,,,1,1,0.0,0.0,-1.0,0.0,,0.0-79.0,,0.0,1288.0,0.0,0.34677856700000004,0.0,0.69057175,1.0,0.6822438540000001,1.0,0.477292237,False,,5e999e7c295393016b7c2577,,1241579,77,,evan-feature22,full_pf_b,,1
53,38218,78,,,,2,2,1.0,1.0,0.0,1.0,,0.0-80.0,,1.0,1458.0,0.0,0.28580469199999997,0.0,0.68408818,1.0,0.684207565,1.0,0.49780448299999996,False,,5e999e7c295393016b7c2577,,1252830,78,,evan-feature22,full_pf_b,,1
54,38220,80,,,,1,1,0.0,0.0,-1.0,0.0,,0.0-82.0,,0.0,2146.0,0.0,0.25,0.0,0.7405808970000001,1.0,0.679614108,0.0,0.436436964,False,,5e999e7c295393016b7c2577,,1268252,80,,evan-feature22,full_pf_b,,1
55,38221,81,,,,2,2,0.0,0.0,0.0,1.0,,0.0-83.0,,0.0,1103.0,1.0,0.29890393,1.0,0.730505706,0.0,0.7328203320000001,0.0,0.439256938,False,,5e999e7c295393016b7c2577,,1279175,81,,evan-feature22,full_pf_b,,1
56,38222,82,,,,1,1,0.0,1.0,-1.0,0.0,,0.0-84.0,,0.0,1916.0,0.0,0.326762398,1.0,0.7148059609999999,1.0,0.75,0.0,0.44389608799999997,False,,5e999e7c295393016b7c2577,,1290879,82,,evan-feature22,full_pf_b,,1
57,38223,83,,,,1,1,0.0,1.0,-1.0,0.0,,0.0-85.0,,0.0,1165.0,0.0,0.295168515,1.0,0.739760854,1.0,0.719947008,0.0,0.35277284600000003,False,,5e999e7c295393016b7c2577,,1301816,83,,evan-feature22,full_pf_b,,0
58,38224,84,,,,1,1,0.0,0.0,-1.0,0.0,,0.0-86.0,,0.0,1058.0,0.0,0.25,0.0,0.70781482,1.0,0.75,1.0,0.286095925,False,,5e999e7c295393016b7c2577,,1312661,84,,evan-feature22,full_pf_b,,0
59,38225,85,,,,2,2,1.0,0.0,0.0,1.0,,0.0-87.0,,0.0,653.0,0.0,0.25638190899999996,1.0,0.704088163,1.0,0.75,0.0,0.26872601399999996,False,,5e999e7c295393016b7c2577,,1323114,85,,evan-feature22,full_pf_b,,1
60,38226,86,,,,1,1,1.0,1.0,0.0,1.0,,0.0-88.0,,1.0,729.0,1.0,0.271581126,1.0,0.669760107,1.0,0.733896663,0.0,0.273244572,False,,5e999e7c295393016b7c2577,,1333662,86,,evan-feature22,full_pf_b,,1
61,38227,87,,,,1,1,0.0,1.0,0.0,1.0,,0.0-89.0,,1.0,677.0,0.0,0.257144401,1.0,0.600575706,1.0,0.74488122,0.0,0.25,False,,5e999e7c295393016b7c2577,,1344131,87,,evan-feature22,full_pf_b,,0
62,38228,88,,,,1,1,0.0,1.0,-1.0,0.0,,0.0-90.0,,0.0,1318.0,0.0,0.25,1.0,0.616870026,0.0,0.723610234,0.0,0.25,False,,5e999e7c295393016b7c2577,,1355273,88,,evan-feature22,full_pf_b,,0
63,38229,89,,,,1,1,0.0,0.0,0.0,1.0,,0.0-91.0,,0.0,985.0,0.0,0.25,0.0,0.583540187,1.0,0.7041042559999999,0.0,0.285961995,False,,5e999e7c295393016b7c2577,,1366070,89,,evan-feature22,full_pf_b,,0
64,38230,90,,,,1,1,0.0,1.0,-1.0,0.0,,0.0-92.0,,0.0,565.0,0.0,0.27254536,1.0,0.53875765,1.0,0.693783448,0.0,0.284961652,False,,5e999e7c295393016b7c2577,,1376431,90,,evan-feature22,full_pf_b,,0
65,38231,91,,,,1,1,0.0,0.0,0.0,1.0,,0.0-93.0,,0.0,1141.0,0.0,0.25,0.0,0.548431252,0.0,0.734221895,0.0,0.279445214,False,,5e999e7c295393016b7c2577,,1387369,91,,evan-feature22,full_pf_b,,0
66,38232,92,,,,1,1,0.0,0.0,-1.0,0.0,,0.0-94.0,,0.0,1226.0,0.0,0.258640684,0.0,0.545878066,1.0,0.725245965,1.0,0.31487537,False,,5e999e7c295393016b7c2577,,1398386,92,,evan-feature22,full_pf_b,,0
67,38233,93,,,,1,1,1.0,1.0,-1.0,0.0,,0.0-95.0,,-1.0,713.0,1.0,0.251103711,1.0,0.5776290629999999,1.0,0.696320133,1.0,0.317831047,False,,5e999e7c295393016b7c2577,,1408932,93,,evan-feature22,full_pf_b,,0
68,38234,94,,,,1,1,0.0,1.0,-1.0,0.0,,0.0-96.0,,0.0,838.0,0.0,0.276630292,1.0,0.617329858,0.0,0.73838088,0.0,0.261471582,False,,5e999e7c295393016b7c2577,,1419559,94,,evan-feature22,full_pf_b,,0
69,38235,95,,,,1,1,1.0,0.0,0.0,1.0,,0.0-97.0,,0.0,636.0,1.0,0.297716424,0.0,0.618863717,1.0,0.7402358259999999,0.0,0.262600834,False,,5e999e7c295393016b7c2577,,1429996,95,,evan-feature22,full_pf_b,,0
70,38236,96,,,,1,1,1.0,1.0,-1.0,0.0,,0.0-98.0,,-1.0,1021.0,1.0,0.290935512,1.0,0.695370945,1.0,0.706570507,0.0,0.280030553,False,,5e999e7c295393016b7c2577,,1440809,96,,evan-feature22,full_pf_b,,0
71,38237,97,,,,1,1,0.0,0.0,-1.0,0.0,,0.0-99.0,,0.0,953.0,0.0,0.25,0.0,0.6465277079999999,1.0,0.67766682,0.0,0.25,False,,5e999e7c295393016b7c2577,,1451575,97,,evan-feature22,full_pf_b,,0
72,38238,98,,,,1,1,0.0,1.0,-1.0,0.0,,0.0-100.0,,0.0,720.0,0.0,0.26463816,1.0,0.636100213,1.0,0.646048507,1.0,0.265607101,False,,5e999e7c295393016b7c2577,,1462077,98,,evan-feature22,full_pf_b,,0
73,38239,99,,,,1,1,1.0,0.0,-1.0,0.0,,0.0-101.0,,-1.0,1022.0,1.0,0.314340707,0.0,0.667795927,1.0,0.613630805,0.0,0.25,False,,5e999e7c295393016b7c2577,,1472889,99,,evan-feature22,full_pf_b,,0
74,38240,100,,,,1,1,1.0,1.0,-1.0,0.0,,0.0-102.0,,-1.0,1137.0,1.0,0.28685784,1.0,0.6622549529999999,1.0,0.652154117,0.0,0.25,False,,5e999e7c295393016b7c2577,,1483859,100,,evan-feature22,full_pf_b,,0
75,38241,101,,,,1,1,0.0,0.0,0.0,1.0,,0.0-103.0,,0.0,655.0,0.0,0.304106554,0.0,0.631289538,0.0,0.707041942,0.0,0.29314237,False,,5e999e7c295393016b7c2577,,1494313,101,,evan-feature22,full_pf_b,,0
76,38242,102,,,,1,1,0.0,1.0,0.0,1.0,,0.0-104.0,,1.0,690.0,0.0,0.304806932,1.0,0.571167718,0.0,0.680472346,0.0,0.25,False,,5e999e7c295393016b7c2577,,1504798,102,,evan-feature22,full_pf_b,,0
77,38243,103,,,,1,1,0.0,1.0,0.0,1.0,,0.0-105.0,,1.0,747.0,0.0,0.37919861,1.0,0.5724849710000001,0.0,0.705638003,0.0,0.30179300600000003,False,,5e999e7c295393016b7c2577,,1515329,103,,evan-feature22,full_pf_b,,0
78,38244,104,,,,1,1,0.0,1.0,0.0,1.0,,0.0-106.0,,1.0,1160.0,0.0,0.464277969,1.0,0.554034373,1.0,0.7372627340000001,0.0,0.264699741,False,,5e999e7c295393016b7c2577,,1526282,104,,evan-feature22,full_pf_b,,0
79,38245,105,,,,1,1,1.0,1.0,-1.0,0.0,,0.0-107.0,,-1.0,926.0,1.0,0.465104323,1.0,0.530793115,0.0,0.75,0.0,0.31683071,False,,5e999e7c295393016b7c2577,,1537002,105,,evan-feature22,full_pf_b,,0
80,38246,106,,,,1,1,1.0,1.0,0.0,1.0,,0.0-108.0,,1.0,510.0,1.0,0.465104323,1.0,0.530793115,0.0,0.75,0.0,0.31683071,False,,5e999e7c295393016b7c2577,,1547300,106,,evan-feature22,full_pf_b,,0
81,38247,107,,,,1,1,1.0,1.0,0.0,1.0,,0.0-109.0,,1.0,726.0,1.0,0.46833986,1.0,0.570249239,1.0,0.7244472590000001,0.0,0.364114163,False,,5e999e7c295393016b7c2577,,1557847,107,,evan-feature22,full_pf_b,,0
82,38248,108,,,,1,1,1.0,0.0,0.0,1.0,,0.0-110.0,,0.0,810.0,1.0,0.445444024,0.0,0.649673355,1.0,0.6845441290000001,0.0,0.300660449,False,,5e999e7c295393016b7c2577,,1568441,108,,evan-feature22,full_pf_b,,0
83,38249,109,,,,1,1,0.0,0.0,0.0,1.0,,0.0-111.0,,0.0,1440.0,0.0,0.39909721299999995,0.0,0.6715179509999999,1.0,0.742310028,1.0,0.35496088299999995,False,,5e999e7c295393016b7c2577,,1579676,109,,evan-feature22,full_pf_b,,0
84,38250,110,,,,1,1,0.0,1.0,0.0,1.0,,0.0-112.0,,1.0,797.0,0.0,0.37956104799999996,1.0,0.694725302,1.0,0.7181651309999999,0.0,0.38726906299999997,False,,5e999e7c295393016b7c2577,,1590286,110,,evan-feature22,full_pf_b,,0
85,38251,111,,,,1,1,0.0,1.0,0.0,1.0,,0.0-113.0,,1.0,1137.0,0.0,0.404995034,1.0,0.724375412,1.0,0.6910946859999999,1.0,0.387187347,False,,5e999e7c295393016b7c2577,,1601224,111,,evan-feature22,full_pf_b,,0
86,38252,112,,,,1,1,0.0,1.0,0.0,1.0,,0.0-114.0,,1.0,1223.0,0.0,0.461740803,1.0,0.75,1.0,0.75,0.0,0.34872038200000005,False,,5e999e7c295393016b7c2577,,1612241,112,,evan-feature22,full_pf_b,,0
87,38253,113,,,,1,1,0.0,1.0,-1.0,0.0,,0.0-115.0,,0.0,1311.0,0.0,0.43821380600000004,1.0,0.738833273,1.0,0.728286963,0.0,0.399538128,False,,5e999e7c295393016b7c2577,,1623350,113,,evan-feature22,full_pf_b,,0
88,38254,114,,,,1,1,1.0,1.0,0.0,1.0,,0.0-116.0,,1.0,754.0,1.0,0.41709882,1.0,0.736666736,1.0,0.75,0.0,0.389095584,False,,5e999e7c295393016b7c2577,,1633914,114,,evan-feature22,full_pf_b,,0
89,38255,115,,,,1,1,1.0,1.0,0.0,1.0,,0.0-117.0,,1.0,814.0,1.0,0.39749009799999996,1.0,0.744320029,0.0,0.75,0.0,0.363848678,False,,5e999e7c295393016b7c2577,,1644556,115,,evan-feature22,full_pf_b,,0
90,38256,116,,,,1,1,0.0,1.0,-1.0,0.0,,0.0-118.0,,0.0,836.0,0.0,0.392653706,1.0,0.75,1.0,0.75,0.0,0.384386976,False,,5e999e7c295393016b7c2577,,1655165,116,,evan-feature22,full_pf_b,,0
91,38257,117,,,,1,1,0.0,1.0,-1.0,0.0,,0.0-119.0,,0.0,866.0,0.0,0.31190902600000003,1.0,0.75,1.0,0.732413819,0.0,0.413082932,False,,5e999e7c295393016b7c2577,,1665829,117,,evan-feature22,full_pf_b,,0
92,38258,118,,,,1,1,1.0,0.0,0.0,1.0,,0.0-120.0,,0.0,1032.0,1.0,0.366917648,0.0,0.740073855,1.0,0.75,0.0,0.352861979,False,,5e999e7c295393016b7c2577,,1676651,118,,evan-feature22,full_pf_b,,0
93,38259,119,,,,1,1,0.0,1.0,0.0,1.0,,0.0-121.0,,1.0,644.0,0.0,0.3645172,1.0,0.721770713,1.0,0.75,1.0,0.404074511,False,,5e999e7c295393016b7c2577,,1687073,119,,evan-feature22,full_pf_b,,0
94,38260,120,,,,1,1,1.0,1.0,0.0,1.0,,0.0-122.0,,1.0,949.0,1.0,0.35205600299999995,1.0,0.68983859,1.0,0.739735447,0.0,0.366895945,False,,5e999e7c295393016b7c2577,,1697856,120,,evan-feature22,full_pf_b,,0
95,38261,121,,,,1,1,1.0,1.0,0.0,1.0,,0.0-123.0,,1.0,815.0,1.0,0.40998722600000004,1.0,0.720859127,0.0,0.673854955,1.0,0.368528541,False,,5e999e7c295393016b7c2577,,1708497,121,,evan-feature22,full_pf_b,,0
96,38262,122,,,,1,1,0.0,0.0,-1.0,0.0,,0.0-124.0,,0.0,1006.0,0.0,0.353625316,0.0,0.75,1.0,0.695605473,0.0,0.38303674200000004,False,,5e999e7c295393016b7c2577,,1719309,122,,evan-feature22,full_pf_b,,0
97,38263,123,,,,1,1,1.0,1.0,0.0,1.0,,0.0-125.0,,1.0,1369.0,1.0,0.359216989,1.0,0.75,1.0,0.6987915090000001,0.0,0.35169046200000004,False,,5e999e7c295393016b7c2577,,1730466,123,,evan-feature22,full_pf_b,,0
98,38264,124,,,,1,1,1.0,1.0,-1.0,0.0,,0.0-126.0,,-1.0,1595.0,1.0,0.35834496899999996,1.0,0.75,1.0,0.707067742,0.0,0.416763636,False,,5e999e7c295393016b7c2577,,1741873,124,,evan-feature22,full_pf_b,,0
99,38265,125,,,,2,2,1.0,0.0,-1.0,0.0,,0.0-127.0,,-1.0,1430.0,0.0,0.38741613799999997,1.0,0.7177369570000001,1.0,0.734902455,0.0,0.49438664299999996,False,,5e999e7c295393016b7c2577,,1753093,125,,evan-feature22,full_pf_b,,1
100,38266,126,,,,1,1,0.0,1.0,0.0,1.0,,0.0-128.0,,1.0,953.0,0.0,0.405255252,1.0,0.7300466640000001,1.0,0.7027748070000001,0.0,0.504359668,False,,5e999e7c295393016b7c2577,,1763843,126,,evan-feature22,full_pf_b,,1
101,38267,127,,,,1,1,1.0,1.0,0.0,1.0,,0.0-129.0,,1.0,2027.0,1.0,0.40697073,1.0,0.7260142190000001,1.0,0.724461982,1.0,0.522779179,False,,5e999e7c295393016b7c2577,,1775672,127,,evan-feature22,full_pf_b,,0
102,38268,128,,,,1,1,0.0,0.0,0.0,1.0,,0.0-130.0,,0.0,926.0,0.0,0.43906215299999996,0.0,0.7252802340000001,0.0,0.719079934,1.0,0.5712990579999999,False,,5e999e7c295393016b7c2577,,1786391,128,,evan-feature22,full_pf_b,,0
103,38269,129,,,,1,1,0.0,0.0,0.0,1.0,,0.0-131.0,,0.0,663.0,0.0,0.4076705,0.0,0.73280499,1.0,0.681313127,1.0,0.523891346,False,,5e999e7c295393016b7c2577,,1796876,129,,evan-feature22,full_pf_b,,0
104,38270,130,,,,2,2,1.0,1.0,0.0,1.0,,0.0-132.0,,1.0,618.0,0.0,0.399102911,0.0,0.730498344,1.0,0.661080239,1.0,0.46742603,False,,5e999e7c295393016b7c2577,,1807299,130,,evan-feature22,full_pf_b,,1
105,38271,131,,,,1,1,1.0,1.0,-1.0,0.0,,0.0-133.0,,-1.0,753.0,1.0,0.356477282,1.0,0.712296395,1.0,0.641812684,0.0,0.44868414,False,,5e999e7c295393016b7c2577,,1817863,131,,evan-feature22,full_pf_b,,1
106,38272,132,,,,2,2,0.0,1.0,0.0,1.0,,0.0-134.0,,1.0,776.0,0.0,0.462760722,1.0,0.692349322,0.0,0.700947931,1.0,0.394680266,False,,5e999e7c295393016b7c2577,,1828456,132,,evan-feature22,full_pf_b,,1
107,38273,133,,,,2,2,1.0,0.0,0.0,1.0,,0.0-135.0,,0.0,1453.0,1.0,0.422306413,0.0,0.718375916,1.0,0.706340917,0.0,0.367787185,False,,5e999e7c295393016b7c2577,,1839722,133,,evan-feature22,full_pf_b,,0
108,38275,135,,,,2,2,1.0,0.0,0.0,1.0,,0.0-137.0,,0.0,3002.0,0.0,0.4582233,0.0,0.643834117,1.0,0.75,0.0,0.39615823299999997,False,,5e999e7c295393016b7c2577,,1856849,135,,evan-feature22,full_pf_b,,0
109,38276,136,,,,2,2,1.0,0.0,0.0,1.0,,0.0-138.0,,0.0,764.0,0.0,0.43813437899999996,1.0,0.651283804,1.0,0.729674191,0.0,0.37711048,False,,5e999e7c295393016b7c2577,,1867396,136,,evan-feature22,full_pf_b,,0
110,38277,137,,,,1,1,0.0,1.0,0.0,1.0,,0.0-139.0,,1.0,1001.0,0.0,0.471199094,1.0,0.6470010979999999,0.0,0.715008097,1.0,0.410656191,False,,5e999e7c295393016b7c2577,,1878178,137,,evan-feature22,full_pf_b,,1
111,38278,138,,,,2,2,1.0,1.0,-1.0,0.0,,0.0-140.0,,-1.0,1475.0,1.0,0.42486406,1.0,0.629771829,1.0,0.6550939960000001,1.0,0.459093873,False,,5e999e7c295393016b7c2577,,1889460,138,,evan-feature22,full_pf_b,,1
112,38279,139,,,,2,2,1.0,0.0,-1.0,0.0,,0.0-141.0,,-1.0,601.0,0.0,0.4803197,1.0,0.645842715,1.0,0.6421749920000001,0.0,0.443092151,False,,5e999e7c295393016b7c2577,,1899851,139,,evan-feature22,full_pf_b,,0
113,38280,140,,,,1,1,0.0,0.0,-1.0,0.0,,0.0-142.0,,0.0,1082.0,0.0,0.521848997,0.0,0.735801074,0.0,0.6691348460000001,1.0,0.45259351600000003,False,,5e999e7c295393016b7c2577,,1910727,140,,evan-feature22,full_pf_b,,1
114,38281,141,,,,2,2,1.0,1.0,0.0,1.0,,0.0-143.0,,1.0,622.0,0.0,0.49565621299999996,0.0,0.742400847,1.0,0.661512553,1.0,0.483110831,False,,5e999e7c295393016b7c2577,,1921149,141,,evan-feature22,full_pf_b,,1
115,38282,142,,,,2,2,1.0,1.0,-1.0,0.0,,0.0-144.0,,-1.0,3006.0,0.0,0.521564361,0.0,0.731078632,1.0,0.6774886809999999,1.0,0.483263956,False,,5e999e7c295393016b7c2577,,1933962,142,,evan-feature22,full_pf_b,,0
116,38283,143,,,,1,1,1.0,0.0,-1.0,0.0,,0.0-145.0,,-1.0,802.0,1.0,0.558893102,0.0,0.719810023,1.0,0.67461031,0.0,0.499349834,False,,5e999e7c295393016b7c2577,,1944557,143,,evan-feature22,full_pf_b,,1
117,38284,144,,,,2,2,0.0,0.0,0.0,1.0,,0.0-146.0,,0.0,1142.0,0.0,0.611031046,0.0,0.75,0.0,0.688072995,0.0,0.5321422729999999,False,,5e999e7c295393016b7c2577,,1955511,144,,evan-feature22,full_pf_b,,1
118,38285,145,,,,1,1,1.0,1.0,-1.0,0.0,,0.0-147.0,,-1.0,1597.0,1.0,0.633223941,1.0,0.713567728,1.0,0.75,0.0,0.48185314700000004,False,,5e999e7c295393016b7c2577,,1966902,145,,evan-feature22,full_pf_b,,1
119,38286,146,,,,2,2,1.0,1.0,-1.0,0.0,,0.0-148.0,,-1.0,1006.0,0.0,0.664001694,1.0,0.705509768,1.0,0.75,1.0,0.500211065,False,,5e999e7c295393016b7c2577,,1977715,146,,evan-feature22,full_pf_b,,1
120,38287,147,,,,2,2,0.0,0.0,0.0,1.0,,0.0-149.0,,0.0,672.0,1.0,0.664001694,1.0,0.705509768,0.0,0.75,0.0,0.500211065,False,,5e999e7c295393016b7c2577,,1988185,147,,evan-feature22,full_pf_b,,0
121,38288,148,,,,1,1,0.0,1.0,0.0,1.0,,0.0-150.0,,1.0,1011.0,0.0,0.696508041,1.0,0.71066027,1.0,0.717028709,0.0,0.49792991,False,,5e999e7c295393016b7c2577,,1998982,148,,evan-feature22,full_pf_b,,1
122,38289,149,,,,1,1,1.0,1.0,-1.0,0.0,,0.0-151.0,,-1.0,1070.0,1.0,0.699883272,1.0,0.75,1.0,0.713543895,0.0,0.496962643,False,,5e999e7c295393016b7c2577,,2009858,149,,evan-feature22,full_pf_b,,0
123,38290,150,,,,1,1,1.0,0.0,0.0,1.0,,0.0-152.0,,0.0,779.0,1.0,0.741163419,0.0,0.75,1.0,0.64691024,1.0,0.513858197,False,,5e999e7c295393016b7c2577,,2020453,150,,evan-feature22,full_pf_b,,0
124,38291,151,,,,1,1,1.0,1.0,-1.0,0.0,,0.0-153.0,,-1.0,735.0,1.0,0.75,1.0,0.70816558,0.0,0.594499079,0.0,0.48502124,False,,5e999e7c295393016b7c2577,,2030999,151,,evan-feature22,full_pf_b,,0
125,38292,152,,,,1,1,1.0,0.0,0.0,1.0,,0.0-154.0,,0.0,668.0,1.0,0.75,0.0,0.721848901,1.0,0.62197249,1.0,0.48263586399999997,False,,5e999e7c295393016b7c2577,,2041468,152,,evan-feature22,full_pf_b,,0
126,38293,153,,,,1,1,0.0,1.0,-1.0,0.0,,0.0-155.0,,0.0,1526.0,0.0,0.75,1.0,0.74813071,1.0,0.584357161,1.0,0.411477782,False,,5e999e7c295393016b7c2577,,2052797,153,,evan-feature22,full_pf_b,,0
127,38294,154,,,,2,2,0.0,0.0,0.0,1.0,,0.0-156.0,,0.0,1069.0,1.0,0.75,1.0,0.75,0.0,0.52287236,0.0,0.488290656,False,,5e999e7c295393016b7c2577,,2063642,154,,evan-feature22,full_pf_b,,1
128,38295,155,,,,1,1,0.0,1.0,0.0,1.0,,0.0-157.0,,1.0,610.0,0.0,0.75,1.0,0.75,0.0,0.544321581,1.0,0.53143059,False,,5e999e7c295393016b7c2577,,2074049,155,,evan-feature22,full_pf_b,,1
129,38296,156,,,,1,1,0.0,0.0,0.0,1.0,,0.0-158.0,,0.0,658.0,0.0,0.726754564,0.0,0.75,0.0,0.5129306370000001,1.0,0.530592445,False,,5e999e7c295393016b7c2577,,2084502,156,,evan-feature22,full_pf_b,,0
130,38297,157,,,,1,1,1.0,1.0,-1.0,0.0,,0.0-159.0,,-1.0,652.0,1.0,0.75,1.0,0.7392590729999999,1.0,0.479875835,1.0,0.547007051,False,,5e999e7c295393016b7c2577,,2094940,157,,evan-feature22,full_pf_b,,0
131,38298,158,,,,1,1,1.0,1.0,-1.0,0.0,,0.0-160.0,,-1.0,998.0,1.0,0.75,1.0,0.7393376979999999,1.0,0.546045419,1.0,0.541267353,False,,5e999e7c295393016b7c2577,,2105722,158,,evan-feature22,full_pf_b,,0
132,38299,159,,,,1,1,1.0,1.0,-1.0,0.0,,0.0-161.0,,-1.0,501.0,1.0,0.75,1.0,0.75,1.0,0.485725895,0.0,0.527625395,False,,5e999e7c295393016b7c2577,,2116019,159,,evan-feature22,full_pf_b,,0
133,38300,160,,,,1,1,1.0,1.0,0.0,1.0,,0.0-162.0,,1.0,870.0,1.0,0.75,1.0,0.725087974,1.0,0.488603595,1.0,0.504019206,False,,5e999e7c295393016b7c2577,,2126692,160,,evan-feature22,full_pf_b,,0
134,38301,161,,,,1,1,1.0,1.0,0.0,1.0,,0.0-163.0,,1.0,1655.0,1.0,0.745504295,1.0,0.75,1.0,0.452379914,0.0,0.50131194,False,,5e999e7c295393016b7c2577,,2138131,161,,evan-feature22,full_pf_b,,0
135,38302,162,,,,1,1,1.0,0.0,0.0,1.0,,0.0-164.0,,0.0,825.0,1.0,0.728513874,0.0,0.75,0.0,0.44125567200000004,1.0,0.531454591,False,,5e999e7c295393016b7c2577,,2148740,162,,evan-feature22,full_pf_b,,0
136,38303,163,,,,1,1,1.0,1.0,-1.0,0.0,,0.0-165.0,,-1.0,692.0,1.0,0.73790804,1.0,0.75,0.0,0.413036656,0.0,0.524619035,False,,5e999e7c295393016b7c2577,,2159225,163,,evan-feature22,full_pf_b,,0
137,38304,164,,,,1,1,1.0,1.0,0.0,1.0,,0.0-166.0,,1.0,703.0,1.0,0.7080961309999999,1.0,0.708666865,0.0,0.431915581,1.0,0.481819489,False,,5e999e7c295393016b7c2577,,2169741,164,,evan-feature22,full_pf_b,,0
138,38305,165,,,,1,1,1.0,1.0,0.0,1.0,,0.0-167.0,,1.0,1219.0,1.0,0.721378003,1.0,0.71605913,0.0,0.36642387,1.0,0.5036739929999999,False,,5e999e7c295393016b7c2577,,2180774,165,,evan-feature22,full_pf_b,,0
139,38306,166,,,,1,1,0.0,1.0,0.0,1.0,,0.0-168.0,,1.0,980.0,0.0,0.7340618959999999,1.0,0.699323252,0.0,0.35298046299999997,1.0,0.511241692,False,,5e999e7c295393016b7c2577,,2191541,166,,evan-feature22,full_pf_b,,0
140,38307,167,,,,2,2,1.0,1.0,-1.0,0.0,,0.0-169.0,,-1.0,909.0,1.0,0.75,0.0,0.70412698,1.0,0.380734814,1.0,0.529580116,False,,5e999e7c295393016b7c2577,,2202244,167,,evan-feature22,full_pf_b,,1
141,38308,168,,,,1,1,1.0,0.0,0.0,1.0,,0.0-170.0,,0.0,717.0,1.0,0.7436654909999999,0.0,0.711182751,0.0,0.41125331,0.0,0.49554405,False,,5e999e7c295393016b7c2577,,2212759,168,,evan-feature22,full_pf_b,,1
142,38309,169,,,,1,1,1.0,1.0,0.0,1.0,,0.0-171.0,,1.0,753.0,1.0,0.731607915,1.0,0.651774583,0.0,0.35688023,1.0,0.45194491600000003,False,,5e999e7c295393016b7c2577,,2223322,169,,evan-feature22,full_pf_b,,0
143,38310,170,,,,2,2,1.0,0.0,-1.0,0.0,,0.0-172.0,,-1.0,1118.0,0.0,0.75,1.0,0.75,1.0,0.283145374,0.0,0.528608005,False,,5e999e7c295393016b7c2577,,2234246,170,,evan-feature22,full_pf_b,,1
144,38311,171,,,,2,2,0.0,1.0,-1.0,0.0,,0.0-173.0,,0.0,1036.0,1.0,0.7491416890000001,1.0,0.7423785959999999,0.0,0.29135870399999997,1.0,0.498888318,False,,5e999e7c295393016b7c2577,,2245074,171,,evan-feature22,full_pf_b,,0
145,38312,172,,,,2,2,0.0,1.0,-1.0,0.0,,0.0-174.0,,0.0,1342.0,0.0,0.708569387,1.0,0.717682277,0.0,0.294421699,1.0,0.493838163,False,,5e999e7c295393016b7c2577,,2256199,172,,evan-feature22,full_pf_b,,0
146,38313,173,,,,1,1,1.0,0.0,0.0,1.0,,0.0-175.0,,0.0,624.0,1.0,0.75,0.0,0.7383382159999999,1.0,0.356098707,1.0,0.442533405,False,,5e999e7c295393016b7c2577,,2266623,173,,evan-feature22,full_pf_b,,1
147,38314,174,,,,2,2,0.0,0.0,0.0,1.0,,0.0-176.0,,0.0,994.0,1.0,0.744527075,1.0,0.75,0.0,0.334127506,0.0,0.393165805,False,,5e999e7c295393016b7c2577,,2277404,174,,evan-feature22,full_pf_b,,1
148,38315,175,,,,1,1,1.0,1.0,0.0,1.0,,0.0-177.0,,1.0,1020.0,1.0,0.75,1.0,0.75,0.0,0.33571021799999995,0.0,0.350393962,False,,5e999e7c295393016b7c2577,,2288233,175,,evan-feature22,full_pf_b,,1
149,38316,176,,,,1,1,1.0,1.0,0.0,1.0,,0.0-178.0,,1.0,886.0,1.0,0.75,1.0,0.75,1.0,0.313628297,0.0,0.36349657399999996,False,,5e999e7c295393016b7c2577,,2298921,176,,evan-feature22,full_pf_b,,0
150,38317,177,,,,2,2,1.0,0.0,-1.0,0.0,,0.0-179.0,,-1.0,1679.0,0.0,0.75,1.0,0.734284182,1.0,0.262667667,0.0,0.380199119,False,,5e999e7c295393016b7c2577,,2310390,177,,evan-feature22,full_pf_b,,1
151,38318,178,,,,1,1,1.0,1.0,0.0,1.0,,0.0-180.0,,1.0,1073.0,1.0,0.75,1.0,0.75,0.0,0.25,0.0,0.394494013,False,,5e999e7c295393016b7c2577,,2321250,178,,evan-feature22,full_pf_b,,1
152,38319,179,,,,1,1,0.0,1.0,-1.0,0.0,,0.0-181.0,,0.0,783.0,0.0,0.722298145,1.0,0.7357822340000001,0.0,0.25,1.0,0.319142121,False,,5e999e7c295393016b7c2577,,2331829,179,,evan-feature22,full_pf_b,,0
153,38320,180,,,,2,2,0.0,0.0,-1.0,0.0,,0.0-182.0,,0.0,1027.0,1.0,0.73149275,0.0,0.724276446,0.0,0.305856907,0.0,0.281315057,False,,5e999e7c295393016b7c2577,,2342642,180,,evan-feature22,full_pf_b,,1
154,38321,181,,,,1,1,1.0,1.0,0.0,1.0,,0.0-183.0,,1.0,2190.0,1.0,0.7458732690000001,1.0,0.7336382459999999,0.0,0.272571964,0.0,0.266021999,False,,5e999e7c295393016b7c2577,,2354627,181,,evan-feature22,full_pf_b,,1
155,38322,182,,,,1,1,0.0,1.0,0.0,1.0,,0.0-184.0,,1.0,907.0,0.0,0.705579037,1.0,0.720778292,1.0,0.320238144,1.0,0.30971744,False,,5e999e7c295393016b7c2577,,2365332,182,,evan-feature22,full_pf_b,,0
156,38323,183,,,,1,1,1.0,0.0,0.0,1.0,,0.0-185.0,,0.0,1037.0,1.0,0.700425648,0.0,0.7198784009999999,1.0,0.272590393,0.0,0.304182931,False,,5e999e7c295393016b7c2577,,2376159,183,,evan-feature22,full_pf_b,,0
157,38324,184,,,,1,1,1.0,1.0,0.0,1.0,,0.0-186.0,,1.0,1304.0,1.0,0.735590785,1.0,0.722714973,0.0,0.25,1.0,0.323421091,False,,5e999e7c295393016b7c2577,,2387255,184,,evan-feature22,full_pf_b,,0
158,38325,185,,,,1,1,1.0,1.0,0.0,1.0,,0.0-187.0,,1.0,993.0,1.0,0.724807662,1.0,0.63146213,0.0,0.36836492600000004,0.0,0.34592153299999995,False,,5e999e7c295393016b7c2577,,2398051,185,,evan-feature22,full_pf_b,,0
159,38326,186,,,,1,1,1.0,0.0,0.0,1.0,,0.0-188.0,,0.0,1171.0,1.0,0.7352796909999999,0.0,0.555111392,1.0,0.36003922,0.0,0.31433779999999995,False,,5e999e7c295393016b7c2577,,2409052,186,,evan-feature22,full_pf_b,,0
160,38327,187,notice,,,,,,,,,,0.0-189.0,"{""Q0"":""Sometimes the probabilities seemed to have changed""}",,40423.0,,,,,,,,,False,,5e999e7c295393016b7c2577,,2449478,187,Q,survey-text,full_pf_b,,1
161,38328,188,track1,,[1],,,,,,,,0.0-190.0,"{""Q0"":""no""}",,14965.0,,,,,,,,,False,,5e999e7c295393016b7c2577,,2464447,188,Q,evan-quiz,full_pf_b,,1
162,38329,189,track2,,[1],,,,,,,,0.0-191.0,"{""Q0"":""no""}",,17893.0,,,,,,,,,False,,5e999e7c295393016b7c2577,,2482343,189,Q,evan-quiz,full_pf_b,,1
163,38330,190,strat,,,,,,,,,,0.0-192.0,"{""Q0"":""Focus which side had mostly blacks and which side had mostly yellows ""}",,54924.0,,,,,,,,,False,,5e999e7c295393016b7c2577,,2537270,190,Q,survey-text,full_pf_b,,1
