,index,Unnamed: 0,Q_name,button_pressed,choice_idxs,chosen_pos,chosen_state,chosen_state_f_1_outcome,chosen_state_f_2_outcome,f_1_reward,f_2_reward,incor_questions,internal_node_id,responses,reward_received,rt,s_1_f_1_outcome,s_1_f_1_prob,s_1_f_2_outcome,s_1_f_2_prob,s_2_f_1_outcome,s_2_f_1_prob,s_2_f_2_outcome,s_2_f_2_prob,safe_first,stimulus,subjectID,success,time_elapsed,trial_index,trial_num,trial_type,version,view_history,switching
0,3578,30,,,,1,1,1.0,1.0,-1.0,0.0,,0.0-27.0,,-1.0,1253.5,1.0,0.6,1.0,0.6,0.0,0.4,1.0,0.4,False,,5ead973f1e0b1306ab65cf4e,,625783,30,,evan-feature22,full_pf_b,,0
1,3579,31,,,,2,2,0.0,1.0,-1.0,0.0,,0.0-28.0,,0.0,1229.5,1.0,0.608053294,1.0,0.63424552,0.0,0.397152172,1.0,0.347069101,False,,5ead973f1e0b1306ab65cf4e,,636847,31,,evan-feature22,full_pf_b,,1
2,3580,32,,,,2,2,0.0,1.0,-1.0,0.0,,0.0-29.0,,0.0,1350.4,1.0,0.642237155,0.0,0.648566321,0.0,0.389407674,1.0,0.285525717,False,,5ead973f1e0b1306ab65cf4e,,647996,32,,evan-feature22,full_pf_b,,0
3,3581,33,,,,1,1,1.0,0.0,-1.0,0.0,,0.0-30.0,,-1.0,767.1,1.0,0.661086576,0.0,0.630492543,1.0,0.399058924,0.0,0.25,False,,5ead973f1e0b1306ab65cf4e,,658574,33,,evan-feature22,full_pf_b,,1
4,3582,34,,,,1,1,1.0,1.0,0.0,1.0,,0.0-31.0,,1.0,1084.3,1.0,0.631324137,1.0,0.6269842929999999,1.0,0.38734784299999997,0.0,0.25,False,,5ead973f1e0b1306ab65cf4e,,669474,34,,evan-feature22,full_pf_b,,0
5,3583,35,,,,1,1,1.0,1.0,0.0,1.0,,0.0-32.0,,1.0,600.7,1.0,0.6381991370000001,1.0,0.68987999,0.0,0.384107265,0.0,0.271332943,False,,5ead973f1e0b1306ab65cf4e,,679874,35,,evan-feature22,full_pf_b,,0
6,3584,36,,,,1,1,0.0,1.0,-1.0,0.0,,0.0-33.0,,0.0,391.5,0.0,0.66034901,1.0,0.742641349,0.0,0.360225629,0.0,0.25,False,,5ead973f1e0b1306ab65cf4e,,690061,36,,evan-feature22,full_pf_b,,0
7,3585,37,,,,1,1,0.0,1.0,-1.0,0.0,,0.0-34.0,,0.0,432.7,0.0,0.638612418,1.0,0.75,0.0,0.367273939,1.0,0.25,False,,5ead973f1e0b1306ab65cf4e,,700294,37,,evan-feature22,full_pf_b,,0
8,3586,38,,,,1,1,1.0,0.0,0.0,1.0,,0.0-35.0,,0.0,367.2,1.0,0.624340629,0.0,0.75,0.0,0.425829545,0.0,0.25,False,,5ead973f1e0b1306ab65cf4e,,710475,38,,evan-feature22,full_pf_b,,0
9,3587,39,,,,1,1,1.0,1.0,0.0,1.0,,0.0-36.0,,1.0,373.1,1.0,0.621999804,1.0,0.75,0.0,0.368609357,0.0,0.25,False,,5ead973f1e0b1306ab65cf4e,,720643,39,,evan-feature22,full_pf_b,,0
10,3588,40,,,,1,1,1.0,1.0,-1.0,0.0,,0.0-37.0,,-1.0,755.3,1.0,0.62666403,1.0,0.75,1.0,0.311151498,1.0,0.25,False,,5ead973f1e0b1306ab65cf4e,,731201,40,,evan-feature22,full_pf_b,,0
11,3589,41,,,,1,1,1.0,1.0,0.0,1.0,,0.0-38.0,,1.0,781.3,1.0,0.6819650009999999,1.0,0.75,1.0,0.310763048,0.0,0.25,False,,5ead973f1e0b1306ab65cf4e,,741779,41,,evan-feature22,full_pf_b,,0
12,3590,42,,,,1,1,1.0,1.0,-1.0,0.0,,0.0-39.0,,-1.0,121.9,1.0,0.740626951,1.0,0.75,0.0,0.25,0.0,0.25,False,,5ead973f1e0b1306ab65cf4e,,751727,42,,evan-feature22,full_pf_b,,0
13,3591,43,,,,1,1,1.0,1.0,-1.0,0.0,,0.0-40.0,,-1.0,906.0,1.0,0.739599242,1.0,0.742034978,0.0,0.25397114600000004,0.0,0.25,False,,5ead973f1e0b1306ab65cf4e,,762453,43,,evan-feature22,full_pf_b,,0
14,3592,44,,,,1,1,1.0,1.0,-1.0,0.0,,0.0-41.0,,-1.0,1432.4,1.0,0.732341315,1.0,0.72735643,0.0,0.25,0.0,0.25,False,,5ead973f1e0b1306ab65cf4e,,773701,44,,evan-feature22,full_pf_b,,0
15,3593,45,,,,2,2,0.0,1.0,-1.0,0.0,,0.0-42.0,,0.0,466.7,1.0,0.7062287770000001,1.0,0.75,0.0,0.29002151,1.0,0.288256649,False,,5ead973f1e0b1306ab65cf4e,,783972,45,,evan-feature22,full_pf_b,,1
16,3594,46,,,,2,2,0.0,1.0,-1.0,0.0,,0.0-43.0,,0.0,671.4,0.0,0.7086029209999999,1.0,0.75,0.0,0.274129113,1.0,0.262851608,False,,5ead973f1e0b1306ab65cf4e,,794463,46,,evan-feature22,full_pf_b,,0
17,3595,47,,,,2,2,1.0,0.0,-1.0,0.0,,0.0-44.0,,-1.0,1144.9,0.0,0.669189651,1.0,0.727614338,1.0,0.298444036,0.0,0.296944518,False,,5ead973f1e0b1306ab65cf4e,,805404,47,,evan-feature22,full_pf_b,,0
18,3596,48,,,,1,1,1.0,1.0,-1.0,0.0,,0.0-45.0,,-1.0,682.9,1.0,0.6819912929999999,1.0,0.7179434290000001,0.0,0.265003961,0.0,0.28157921199999997,False,,5ead973f1e0b1306ab65cf4e,,815896,48,,evan-feature22,full_pf_b,,1
19,3597,49,,,,2,2,0.0,1.0,0.0,1.0,,0.0-46.0,,1.0,1481.7,0.0,0.665275002,1.0,0.723065271,0.0,0.260414971,1.0,0.30973870000000003,False,,5ead973f1e0b1306ab65cf4e,,827178,49,,evan-feature22,full_pf_b,,1
20,3598,50,,,,2,2,0.0,0.0,-1.0,0.0,,0.0-47.0,,0.0,679.5,1.0,0.6660593260000001,1.0,0.728032907,0.0,0.30922817,0.0,0.338778608,False,,5ead973f1e0b1306ab65cf4e,,837659,50,,evan-feature22,full_pf_b,,0
21,3599,51,,,,2,2,0.0,0.0,-1.0,0.0,,0.0-48.0,,0.0,726.8,0.0,0.702068785,1.0,0.6528750879999999,0.0,0.287329608,0.0,0.35789613200000003,False,,5ead973f1e0b1306ab65cf4e,,848216,51,,evan-feature22,full_pf_b,,0
22,3600,52,,,,2,2,1.0,0.0,-1.0,0.0,,0.0-49.0,,-1.0,727.3,1.0,0.651939787,1.0,0.636725589,1.0,0.284834488,0.0,0.358563756,False,,5ead973f1e0b1306ab65cf4e,,858767,52,,evan-feature22,full_pf_b,,0
23,3601,53,,,,1,1,0.0,0.0,0.0,1.0,,0.0-50.0,,0.0,764.7,0.0,0.67573929,0.0,0.612550049,1.0,0.37130387600000003,0.0,0.383542402,False,,5ead973f1e0b1306ab65cf4e,,869346,53,,evan-feature22,full_pf_b,,1
24,3602,54,,,,1,1,0.0,0.0,0.0,1.0,,0.0-51.0,,0.0,1328.8,0.0,0.620753801,0.0,0.60513644,1.0,0.385529434,0.0,0.340361743,False,,5ead973f1e0b1306ab65cf4e,,880481,54,,evan-feature22,full_pf_b,,0
25,3603,55,,,,2,2,0.0,0.0,0.0,1.0,,0.0-52.0,,0.0,944.8,1.0,0.673564893,1.0,0.672437924,0.0,0.292955382,0.0,0.337633795,False,,5ead973f1e0b1306ab65cf4e,,891223,55,,evan-feature22,full_pf_b,,1
26,3604,56,,,,2,2,1.0,0.0,-1.0,0.0,,0.0-53.0,,-1.0,651.1,1.0,0.6749427,1.0,0.724197502,1.0,0.32391132100000003,0.0,0.350995264,False,,5ead973f1e0b1306ab65cf4e,,901673,56,,evan-feature22,full_pf_b,,0
27,3605,57,,,,1,1,0.0,1.0,-1.0,0.0,,0.0-54.0,,0.0,387.0,0.0,0.6940159379999999,1.0,0.75,0.0,0.31710554399999996,0.0,0.413450341,False,,5ead973f1e0b1306ab65cf4e,,911863,57,,evan-feature22,full_pf_b,,1
28,3606,58,,,,1,1,1.0,1.0,-1.0,0.0,,0.0-55.0,,-1.0,588.7,1.0,0.6916018270000001,1.0,0.69001187,0.0,0.261817804,1.0,0.40038635,False,,5ead973f1e0b1306ab65cf4e,,922253,58,,evan-feature22,full_pf_b,,0
29,3607,59,,,,2,2,1.0,1.0,-1.0,0.0,,0.0-56.0,,-1.0,466.7,0.0,0.641061544,1.0,0.71337992,1.0,0.277296461,1.0,0.47372791700000005,False,,5ead973f1e0b1306ab65cf4e,,932513,59,,evan-feature22,full_pf_b,,1
30,3608,60,,,,1,1,0.0,1.0,-1.0,0.0,,0.0-57.0,,0.0,399.9,0.0,0.6082438520000001,1.0,0.708471106,1.0,0.28745137,1.0,0.564174476,False,,5ead973f1e0b1306ab65cf4e,,942754,60,,evan-feature22,full_pf_b,,1
31,3609,61,,,,1,1,0.0,1.0,-1.0,0.0,,0.0-58.0,,0.0,500.9,0.0,0.6051112120000001,1.0,0.7118147229999999,0.0,0.272390611,0.0,0.5595149939999999,False,,5ead973f1e0b1306ab65cf4e,,953081,61,,evan-feature22,full_pf_b,,0
32,3610,62,,,,1,1,1.0,0.0,-1.0,0.0,,0.0-59.0,,-1.0,396.8,1.0,0.582420852,0.0,0.635867583,1.0,0.31089574,1.0,0.5227206520000001,False,,5ead973f1e0b1306ab65cf4e,,963289,62,,evan-feature22,full_pf_b,,0
33,3611,63,,,,1,1,1.0,1.0,0.0,1.0,,0.0-60.0,,1.0,343.8,1.0,0.623195575,1.0,0.655026044,0.0,0.25,1.0,0.560387538,False,,5ead973f1e0b1306ab65cf4e,,973456,63,,evan-feature22,full_pf_b,,0
34,3612,64,,,,1,1,1.0,1.0,-1.0,0.0,,0.0-61.0,,-1.0,545.2,1.0,0.601889598,1.0,0.678198724,0.0,0.25,1.0,0.559922936,False,,5ead973f1e0b1306ab65cf4e,,983824,64,,evan-feature22,full_pf_b,,0
35,3613,65,,,,2,2,0.0,0.0,-1.0,0.0,,0.0-62.0,,0.0,499.9,1.0,0.601259914,1.0,0.704681482,0.0,0.33908969299999997,0.0,0.505003715,False,,5ead973f1e0b1306ab65cf4e,,994107,65,,evan-feature22,full_pf_b,,1
36,3614,66,,,,2,2,0.0,1.0,-1.0,0.0,,0.0-63.0,,0.0,617.8,1.0,0.59645454,1.0,0.710437172,0.0,0.327441879,1.0,0.391749613,False,,5ead973f1e0b1306ab65cf4e,,1004539,66,,evan-feature22,full_pf_b,,0
37,3615,67,,,,1,1,1.0,0.0,-1.0,0.0,,0.0-64.0,,-1.0,731.3,1.0,0.529473,0.0,0.636758527,1.0,0.301338063,0.0,0.365661481,False,,5ead973f1e0b1306ab65cf4e,,1015065,67,,evan-feature22,full_pf_b,,1
38,3616,68,,,,1,1,0.0,0.0,0.0,1.0,,0.0-65.0,,0.0,692.2,0.0,0.541657162,0.0,0.634541962,0.0,0.343535366,1.0,0.371763742,False,,5ead973f1e0b1306ab65cf4e,,1025561,68,,evan-feature22,full_pf_b,,0
39,3617,69,,,,1,1,0.0,1.0,-1.0,0.0,,0.0-66.0,,0.0,170.3,0.0,0.5707533260000001,1.0,0.589121171,0.0,0.326428396,1.0,0.43961622899999997,False,,5ead973f1e0b1306ab65cf4e,,1035528,69,,evan-feature22,full_pf_b,,0
40,3618,70,,,,1,1,0.0,0.0,-1.0,0.0,,0.0-67.0,,0.0,1183.5,0.0,0.5707533260000001,0.0,0.589121171,0.0,0.326428396,1.0,0.43961622899999997,False,,5ead973f1e0b1306ab65cf4e,,1046508,70,,evan-feature22,full_pf_b,,0
41,3619,71,,,,1,1,0.0,0.0,-1.0,0.0,,0.0-68.0,,0.0,487.7,0.0,0.506271295,0.0,0.641775594,1.0,0.37149690700000004,0.0,0.404330166,False,,5ead973f1e0b1306ab65cf4e,,1056818,71,,evan-feature22,full_pf_b,,0
42,3620,72,,,,1,1,0.0,1.0,0.0,1.0,,0.0-69.0,,1.0,609.8,0.0,0.455642565,1.0,0.623605825,0.0,0.358753011,0.0,0.346174041,False,,5ead973f1e0b1306ab65cf4e,,1067242,72,,evan-feature22,full_pf_b,,0
43,3621,73,,,,1,1,1.0,0.0,0.0,1.0,,0.0-70.0,,0.0,978.4,1.0,0.483677308,0.0,0.5904681070000001,1.0,0.402218411,0.0,0.35344697,False,,5ead973f1e0b1306ab65cf4e,,1078042,73,,evan-feature22,full_pf_b,,0
44,3622,74,,,,1,1,0.0,1.0,0.0,1.0,,0.0-71.0,,1.0,442.9,0.0,0.394210977,1.0,0.558925494,1.0,0.540052017,0.0,0.35182128700000004,False,,5ead973f1e0b1306ab65cf4e,,1088307,74,,evan-feature22,full_pf_b,,0
45,3623,75,,,,1,1,1.0,0.0,-1.0,0.0,,0.0-72.0,,-1.0,632.8,1.0,0.382300414,0.0,0.577670603,0.0,0.607608448,0.0,0.378261578,False,,5ead973f1e0b1306ab65cf4e,,1098709,75,,evan-feature22,full_pf_b,,0
46,3624,76,,,,2,2,1.0,1.0,-1.0,0.0,,0.0-73.0,,-1.0,2800.2,1.0,0.357596762,0.0,0.5929076529999999,1.0,0.6579790010000001,1.0,0.401326777,False,,5ead973f1e0b1306ab65cf4e,,1111304,76,,evan-feature22,full_pf_b,,1
47,3625,77,,,,2,2,1.0,0.0,-1.0,0.0,,0.0-74.0,,-1.0,510.3,1.0,0.362033495,1.0,0.582308608,1.0,0.649195052,0.0,0.355158505,False,,5ead973f1e0b1306ab65cf4e,,1121613,77,,evan-feature22,full_pf_b,,0
48,3626,78,,,,1,1,1.0,1.0,-1.0,0.0,,0.0-75.0,,-1.0,457.0,1.0,0.369620635,1.0,0.669100864,1.0,0.706059111,1.0,0.362516241,False,,5ead973f1e0b1306ab65cf4e,,1132386,78,,evan-feature22,full_pf_b,,1
49,3627,79,,,,2,2,0.0,0.0,-1.0,0.0,,0.0-76.0,,0.0,528.6,1.0,0.41477751399999996,1.0,0.7284416779999999,0.0,0.7182656940000001,0.0,0.36228040899999997,False,,5ead973f1e0b1306ab65cf4e,,1142713,79,,evan-feature22,full_pf_b,,1
50,3628,80,,,,1,1,0.0,1.0,0.0,1.0,,0.0-77.0,,1.0,641.0,0.0,0.37675460299999997,1.0,0.703250285,1.0,0.75,1.0,0.461979164,False,,5ead973f1e0b1306ab65cf4e,,1153161,80,,evan-feature22,full_pf_b,,1
51,3629,81,,,,1,1,0.0,1.0,0.0,1.0,,0.0-78.0,,1.0,996.7,0.0,0.398716075,1.0,0.6723864890000001,1.0,0.674153818,0.0,0.519029516,False,,5ead973f1e0b1306ab65cf4e,,1163955,81,,evan-feature22,full_pf_b,,0
52,3630,82,,,,1,1,0.0,0.0,-1.0,0.0,,0.0-79.0,,0.0,663.0,0.0,0.34677856700000004,0.0,0.69057175,1.0,0.6822438540000001,0.0,0.477292237,False,,5ead973f1e0b1306ab65cf4e,,1174416,82,,evan-feature22,full_pf_b,,0
53,3631,83,,,,2,2,1.0,0.0,0.0,1.0,,0.0-80.0,,0.0,1143.1,0.0,0.28580469199999997,0.0,0.68408818,1.0,0.684207565,0.0,0.49780448299999996,False,,5ead973f1e0b1306ab65cf4e,,1185362,83,,evan-feature22,full_pf_b,,1
54,3633,85,,,,2,2,1.0,0.0,-1.0,0.0,,0.0-82.0,,-1.0,2524.4,1.0,0.25,1.0,0.7405808970000001,1.0,0.679614108,0.0,0.436436964,False,,5ead973f1e0b1306ab65cf4e,,1201223,85,,evan-feature22,full_pf_b,,0
55,3634,86,,,,1,1,0.0,1.0,0.0,1.0,,0.0-83.0,,1.0,794.5,0.0,0.29890393,1.0,0.730505706,1.0,0.7328203320000001,0.0,0.439256938,False,,5ead973f1e0b1306ab65cf4e,,1211822,86,,evan-feature22,full_pf_b,,1
56,3635,87,,,,1,1,0.0,1.0,-1.0,0.0,,0.0-84.0,,0.0,2273.5,0.0,0.326762398,1.0,0.7148059609999999,1.0,0.75,1.0,0.44389608799999997,False,,5ead973f1e0b1306ab65cf4e,,1223896,87,,evan-feature22,full_pf_b,,0
57,3636,88,,,,2,2,1.0,0.0,-1.0,0.0,,0.0-85.0,,-1.0,858.1,0.0,0.295168515,0.0,0.739760854,1.0,0.719947008,0.0,0.35277284600000003,False,,5ead973f1e0b1306ab65cf4e,,1234552,88,,evan-feature22,full_pf_b,,1
58,3637,89,,,,1,1,0.0,1.0,-1.0,0.0,,0.0-86.0,,0.0,605.2,0.0,0.25,1.0,0.70781482,1.0,0.75,0.0,0.286095925,False,,5ead973f1e0b1306ab65cf4e,,1244958,89,,evan-feature22,full_pf_b,,1
59,3638,90,,,,1,1,1.0,1.0,0.0,1.0,,0.0-87.0,,1.0,2049.7,1.0,0.25638190899999996,1.0,0.704088163,1.0,0.75,0.0,0.26872601399999996,False,,5ead973f1e0b1306ab65cf4e,,1256801,90,,evan-feature22,full_pf_b,,0
60,3639,91,,,,1,1,0.0,0.0,0.0,1.0,,0.0-88.0,,0.0,1153.1,0.0,0.271581126,0.0,0.669760107,1.0,0.733896663,0.0,0.273244572,False,,5ead973f1e0b1306ab65cf4e,,1267756,91,,evan-feature22,full_pf_b,,0
61,3640,92,,,,1,1,0.0,1.0,0.0,1.0,,0.0-89.0,,1.0,664.0,0.0,0.257144401,1.0,0.600575706,1.0,0.74488122,1.0,0.25,False,,5ead973f1e0b1306ab65cf4e,,1278221,92,,evan-feature22,full_pf_b,,0
62,3641,93,,,,1,1,0.0,0.0,-1.0,0.0,,0.0-90.0,,0.0,933.4,0.0,0.25,0.0,0.616870026,1.0,0.723610234,0.0,0.25,False,,5ead973f1e0b1306ab65cf4e,,1288955,93,,evan-feature22,full_pf_b,,0
63,3642,94,,,,1,1,0.0,0.0,0.0,1.0,,0.0-91.0,,0.0,522.7,0.0,0.25,0.0,0.583540187,1.0,0.7041042559999999,0.0,0.285961995,False,,5ead973f1e0b1306ab65cf4e,,1299299,94,,evan-feature22,full_pf_b,,0
64,3643,95,,,,1,1,0.0,0.0,-1.0,0.0,,0.0-92.0,,0.0,933.4,0.0,0.27254536,0.0,0.53875765,1.0,0.693783448,0.0,0.284961652,False,,5ead973f1e0b1306ab65cf4e,,1310022,95,,evan-feature22,full_pf_b,,0
65,3644,96,,,,1,1,1.0,0.0,0.0,1.0,,0.0-93.0,,0.0,918.8,1.0,0.25,0.0,0.548431252,1.0,0.734221895,1.0,0.279445214,False,,5ead973f1e0b1306ab65cf4e,,1320746,96,,evan-feature22,full_pf_b,,0
66,3645,97,,,,SLOW,SLOW,,,-1.0,0.0,,0.0-94.0,,-3.0,,0.0,0.258640684,1.0,0.545878066,1.0,0.725245965,0.0,0.31487537,False,,5ead973f1e0b1306ab65cf4e,,1326570,97,,evan-feature22,full_pf_b,,1
67,3646,98,,,,2,2,1.0,0.0,-1.0,0.0,,0.0-95.0,,-1.0,1752.3,0.0,0.251103711,0.0,0.5776290629999999,1.0,0.696320133,0.0,0.317831047,False,,5ead973f1e0b1306ab65cf4e,,1338138,98,,evan-feature22,full_pf_b,,1
68,3647,99,,,,1,1,0.0,1.0,-1.0,0.0,,0.0-96.0,,0.0,782.8,0.0,0.276630292,1.0,0.617329858,1.0,0.73838088,0.0,0.261471582,False,,5ead973f1e0b1306ab65cf4e,,1348727,99,,evan-feature22,full_pf_b,,1
69,3648,100,,,,1,1,0.0,0.0,0.0,1.0,,0.0-97.0,,0.0,1673.7,0.0,0.297716424,0.0,0.618863717,1.0,0.7402358259999999,1.0,0.262600834,False,,5ead973f1e0b1306ab65cf4e,,1360204,100,,evan-feature22,full_pf_b,,0
70,3649,101,,,,1,1,0.0,1.0,-1.0,0.0,,0.0-98.0,,0.0,838.1,0.0,0.290935512,1.0,0.695370945,1.0,0.706570507,0.0,0.280030553,False,,5ead973f1e0b1306ab65cf4e,,1370848,101,,evan-feature22,full_pf_b,,0
71,3650,102,,,,1,1,0.0,0.0,-1.0,0.0,,0.0-99.0,,0.0,916.0,0.0,0.25,0.0,0.6465277079999999,1.0,0.67766682,0.0,0.25,False,,5ead973f1e0b1306ab65cf4e,,1381569,102,,evan-feature22,full_pf_b,,0
72,3651,103,,,,1,1,1.0,1.0,-1.0,0.0,,0.0-100.0,,-1.0,752.2,1.0,0.26463816,1.0,0.636100213,0.0,0.646048507,0.0,0.265607101,False,,5ead973f1e0b1306ab65cf4e,,1392119,103,,evan-feature22,full_pf_b,,0
73,3652,104,,,,2,2,1.0,0.0,-1.0,0.0,,0.0-101.0,,-1.0,561.5,0.0,0.314340707,1.0,0.667795927,1.0,0.613630805,0.0,0.25,False,,5ead973f1e0b1306ab65cf4e,,1402487,104,,evan-feature22,full_pf_b,,1
74,3653,105,,,,1,1,0.0,0.0,-1.0,0.0,,0.0-102.0,,0.0,543.6,0.0,0.28685784,0.0,0.6622549529999999,1.0,0.652154117,0.0,0.25,False,,5ead973f1e0b1306ab65cf4e,,1412838,105,,evan-feature22,full_pf_b,,1
75,3654,106,,,,1,1,0.0,1.0,0.0,1.0,,0.0-103.0,,1.0,1130.0,0.0,0.304106554,1.0,0.631289538,1.0,0.707041942,1.0,0.29314237,False,,5ead973f1e0b1306ab65cf4e,,1423775,106,,evan-feature22,full_pf_b,,0
76,3655,107,,,,1,1,0.0,1.0,0.0,1.0,,0.0-104.0,,1.0,625.0,0.0,0.304806932,1.0,0.571167718,1.0,0.680472346,1.0,0.25,False,,5ead973f1e0b1306ab65cf4e,,1434222,107,,evan-feature22,full_pf_b,,0
77,3656,108,,,,1,1,1.0,1.0,0.0,1.0,,0.0-105.0,,1.0,522.4,1.0,0.37919861,1.0,0.5724849710000001,0.0,0.705638003,1.0,0.30179300600000003,False,,5ead973f1e0b1306ab65cf4e,,1444532,108,,evan-feature22,full_pf_b,,0
78,3657,109,,,,1,1,1.0,0.0,0.0,1.0,,0.0-106.0,,0.0,680.5,1.0,0.464277969,0.0,0.554034373,1.0,0.7372627340000001,0.0,0.264699741,False,,5ead973f1e0b1306ab65cf4e,,1455012,109,,evan-feature22,full_pf_b,,0
79,3658,110,,,,1,1,0.0,1.0,-1.0,0.0,,0.0-107.0,,0.0,911.0,0.0,0.465104323,1.0,0.530793115,1.0,0.75,0.0,0.31683071,False,,5ead973f1e0b1306ab65cf4e,,1465731,110,,evan-feature22,full_pf_b,,0
80,3659,111,,,,1,1,0.0,0.0,0.0,1.0,,0.0-108.0,,0.0,330.7,0.0,0.465104323,0.0,0.530793115,1.0,0.75,1.0,0.31683071,False,,5ead973f1e0b1306ab65cf4e,,1475891,111,,evan-feature22,full_pf_b,,0
81,3660,112,,,,1,1,1.0,0.0,0.0,1.0,,0.0-109.0,,0.0,3102.5,1.0,0.46833986,0.0,0.570249239,1.0,0.7244472590000001,0.0,0.364114163,False,,5ead973f1e0b1306ab65cf4e,,1488816,112,,evan-feature22,full_pf_b,,0
82,3661,113,,,,1,1,0.0,1.0,0.0,1.0,,0.0-110.0,,1.0,1057.3,0.0,0.445444024,1.0,0.649673355,0.0,0.6845441290000001,0.0,0.300660449,False,,5ead973f1e0b1306ab65cf4e,,1499680,113,,evan-feature22,full_pf_b,,0
83,3662,114,,,,1,1,0.0,0.0,0.0,1.0,,0.0-111.0,,0.0,509.6,0.0,0.39909721299999995,0.0,0.6715179509999999,0.0,0.742310028,0.0,0.35496088299999995,False,,5ead973f1e0b1306ab65cf4e,,1510020,114,,evan-feature22,full_pf_b,,0
84,3663,115,,,,1,1,0.0,1.0,0.0,1.0,,0.0-112.0,,1.0,653.5,0.0,0.37956104799999996,1.0,0.694725302,0.0,0.7181651309999999,1.0,0.38726906299999997,False,,5ead973f1e0b1306ab65cf4e,,1520479,115,,evan-feature22,full_pf_b,,0
85,3664,116,,,,1,1,1.0,1.0,0.0,1.0,,0.0-113.0,,1.0,2716.2,1.0,0.404995034,1.0,0.724375412,0.0,0.6910946859999999,0.0,0.387187347,False,,5ead973f1e0b1306ab65cf4e,,1533015,116,,evan-feature22,full_pf_b,,0
86,3665,117,,,,1,1,1.0,1.0,0.0,1.0,,0.0-114.0,,1.0,821.3,1.0,0.461740803,1.0,0.75,1.0,0.75,0.0,0.34872038200000005,False,,5ead973f1e0b1306ab65cf4e,,1543646,117,,evan-feature22,full_pf_b,,0
87,3666,118,,,,1,1,1.0,1.0,-1.0,0.0,,0.0-115.0,,-1.0,764.7,1.0,0.43821380600000004,1.0,0.738833273,1.0,0.728286963,0.0,0.399538128,False,,5ead973f1e0b1306ab65cf4e,,1554230,118,,evan-feature22,full_pf_b,,0
88,3667,119,,,,1,1,1.0,0.0,0.0,1.0,,0.0-116.0,,0.0,818.8,1.0,0.41709882,0.0,0.736666736,0.0,0.75,1.0,0.389095584,False,,5ead973f1e0b1306ab65cf4e,,1564861,119,,evan-feature22,full_pf_b,,0
89,3668,120,,,,1,1,0.0,1.0,0.0,1.0,,0.0-117.0,,1.0,971.2,0.0,0.39749009799999996,1.0,0.744320029,1.0,0.75,0.0,0.363848678,False,,5ead973f1e0b1306ab65cf4e,,1575637,120,,evan-feature22,full_pf_b,,0
90,3669,121,,,,1,1,1.0,0.0,-1.0,0.0,,0.0-118.0,,-1.0,799.4,1.0,0.392653706,0.0,0.75,1.0,0.75,1.0,0.384386976,False,,5ead973f1e0b1306ab65cf4e,,1586228,121,,evan-feature22,full_pf_b,,0
91,3670,122,,,,2,2,1.0,0.0,-1.0,0.0,,0.0-119.0,,-1.0,687.4,0.0,0.31190902600000003,0.0,0.75,1.0,0.732413819,0.0,0.413082932,False,,5ead973f1e0b1306ab65cf4e,,1596724,122,,evan-feature22,full_pf_b,,1
92,3671,123,,,,1,1,0.0,0.0,0.0,1.0,,0.0-120.0,,0.0,629.8,0.0,0.366917648,0.0,0.740073855,1.0,0.75,1.0,0.352861979,False,,5ead973f1e0b1306ab65cf4e,,1607161,123,,evan-feature22,full_pf_b,,1
93,3672,124,,,,1,1,0.0,1.0,0.0,1.0,,0.0-121.0,,1.0,482.0,0.0,0.3645172,1.0,0.721770713,0.0,0.75,1.0,0.404074511,False,,5ead973f1e0b1306ab65cf4e,,1617456,124,,evan-feature22,full_pf_b,,0
94,3673,125,,,,1,1,0.0,1.0,0.0,1.0,,0.0-122.0,,1.0,2241.3,0.0,0.35205600299999995,1.0,0.68983859,1.0,0.739735447,0.0,0.366895945,False,,5ead973f1e0b1306ab65cf4e,,1629498,125,,evan-feature22,full_pf_b,,0
95,3674,126,,,,1,1,1.0,1.0,0.0,1.0,,0.0-123.0,,1.0,727.6,1.0,0.40998722600000004,1.0,0.720859127,1.0,0.673854955,0.0,0.368528541,False,,5ead973f1e0b1306ab65cf4e,,1640028,126,,evan-feature22,full_pf_b,,0
96,3675,127,,,,1,1,0.0,1.0,-1.0,0.0,,0.0-124.0,,0.0,522.8,0.0,0.353625316,1.0,0.75,0.0,0.695605473,1.0,0.38303674200000004,False,,5ead973f1e0b1306ab65cf4e,,1650352,127,,evan-feature22,full_pf_b,,0
97,3676,128,,,,1,1,0.0,1.0,0.0,1.0,,0.0-125.0,,1.0,745.5,0.0,0.359216989,1.0,0.75,1.0,0.6987915090000001,1.0,0.35169046200000004,False,,5ead973f1e0b1306ab65cf4e,,1660894,128,,evan-feature22,full_pf_b,,0
98,3677,129,,,,1,1,0.0,1.0,-1.0,0.0,,0.0-126.0,,0.0,745.2,0.0,0.35834496899999996,1.0,0.75,1.0,0.707067742,1.0,0.416763636,False,,5ead973f1e0b1306ab65cf4e,,1671437,129,,evan-feature22,full_pf_b,,0
99,3678,130,,,,1,1,0.0,1.0,-1.0,0.0,,0.0-127.0,,0.0,671.0,0.0,0.38741613799999997,1.0,0.7177369570000001,1.0,0.734902455,1.0,0.49438664299999996,False,,5ead973f1e0b1306ab65cf4e,,1681913,130,,evan-feature22,full_pf_b,,0
100,3679,131,,,,1,1,0.0,0.0,0.0,1.0,,0.0-128.0,,0.0,716.2,0.0,0.405255252,0.0,0.7300466640000001,1.0,0.7027748070000001,1.0,0.504359668,False,,5ead973f1e0b1306ab65cf4e,,1692418,131,,evan-feature22,full_pf_b,,0
101,3680,132,,,,1,1,0.0,1.0,0.0,1.0,,0.0-129.0,,1.0,658.1,0.0,0.40697073,1.0,0.7260142190000001,1.0,0.724461982,0.0,0.522779179,False,,5ead973f1e0b1306ab65cf4e,,1702893,132,,evan-feature22,full_pf_b,,0
102,3681,133,,,,1,1,1.0,1.0,0.0,1.0,,0.0-130.0,,1.0,592.6,1.0,0.43906215299999996,1.0,0.7252802340000001,1.0,0.719079934,1.0,0.5712990579999999,False,,5ead973f1e0b1306ab65cf4e,,1713304,133,,evan-feature22,full_pf_b,,0
103,3682,134,,,,1,1,0.0,1.0,0.0,1.0,,0.0-131.0,,1.0,773.0,0.0,0.4076705,1.0,0.73280499,0.0,0.681313127,0.0,0.523891346,False,,5ead973f1e0b1306ab65cf4e,,1723871,134,,evan-feature22,full_pf_b,,0
104,3683,135,,,,1,1,0.0,1.0,0.0,1.0,,0.0-132.0,,1.0,791.3,0.0,0.399102911,1.0,0.730498344,1.0,0.661080239,1.0,0.46742603,False,,5ead973f1e0b1306ab65cf4e,,1734468,135,,evan-feature22,full_pf_b,,0
105,3684,136,,,,1,1,0.0,0.0,-1.0,0.0,,0.0-133.0,,0.0,988.0,0.0,0.356477282,0.0,0.712296395,0.0,0.641812684,1.0,0.44868414,False,,5ead973f1e0b1306ab65cf4e,,1745276,136,,evan-feature22,full_pf_b,,0
106,3685,137,,,,1,1,0.0,1.0,0.0,1.0,,0.0-134.0,,1.0,514.7,0.0,0.462760722,1.0,0.692349322,0.0,0.700947931,0.0,0.394680266,False,,5ead973f1e0b1306ab65cf4e,,1755599,137,,evan-feature22,full_pf_b,,0
107,3686,138,,,,1,1,0.0,1.0,0.0,1.0,,0.0-135.0,,1.0,540.0,0.0,0.422306413,1.0,0.718375916,0.0,0.706340917,1.0,0.367787185,False,,5ead973f1e0b1306ab65cf4e,,1765938,138,,evan-feature22,full_pf_b,,0
108,3688,140,,,,1,1,1.0,1.0,0.0,1.0,,0.0-137.0,,1.0,1094.8,1.0,0.4582233,1.0,0.643834117,1.0,0.75,1.0,0.39615823299999997,False,,5ead973f1e0b1306ab65cf4e,,1779793,140,,evan-feature22,full_pf_b,,0
109,3689,141,,,,1,1,1.0,1.0,0.0,1.0,,0.0-138.0,,1.0,1436.4,1.0,0.43813437899999996,1.0,0.651283804,1.0,0.729674191,1.0,0.37711048,False,,5ead973f1e0b1306ab65cf4e,,1791037,141,,evan-feature22,full_pf_b,,0
110,3690,142,,,,1,1,0.0,1.0,0.0,1.0,,0.0-139.0,,1.0,499.9,0.0,0.471199094,1.0,0.6470010979999999,1.0,0.715008097,1.0,0.410656191,False,,5ead973f1e0b1306ab65cf4e,,1801345,142,,evan-feature22,full_pf_b,,0
111,3691,143,,,,1,1,0.0,1.0,-1.0,0.0,,0.0-140.0,,0.0,1189.7,0.0,0.42486406,1.0,0.629771829,1.0,0.6550939960000001,0.0,0.459093873,False,,5ead973f1e0b1306ab65cf4e,,1812340,143,,evan-feature22,full_pf_b,,0
112,3692,144,,,,1,1,1.0,1.0,-1.0,0.0,,0.0-141.0,,-1.0,416.7,1.0,0.4803197,1.0,0.645842715,1.0,0.6421749920000001,0.0,0.443092151,False,,5ead973f1e0b1306ab65cf4e,,1822579,144,,evan-feature22,full_pf_b,,0
113,3693,145,,,,1,1,1.0,1.0,-1.0,0.0,,0.0-142.0,,-1.0,1504.6,1.0,0.521848997,1.0,0.735801074,1.0,0.6691348460000001,1.0,0.45259351600000003,False,,5ead973f1e0b1306ab65cf4e,,1833889,145,,evan-feature22,full_pf_b,,0
114,3694,146,,,,2,2,1.0,1.0,0.0,1.0,,0.0-143.0,,1.0,635.8,0.0,0.49565621299999996,0.0,0.742400847,1.0,0.661512553,1.0,0.483110831,False,,5ead973f1e0b1306ab65cf4e,,1844329,146,,evan-feature22,full_pf_b,,1
115,3695,147,,,,2,2,0.0,1.0,-1.0,0.0,,0.0-144.0,,0.0,833.0,1.0,0.521564361,1.0,0.731078632,0.0,0.6774886809999999,1.0,0.483263956,False,,5ead973f1e0b1306ab65cf4e,,1854979,147,,evan-feature22,full_pf_b,,0
116,3696,148,,,,2,2,1.0,0.0,-1.0,0.0,,0.0-145.0,,-1.0,442.8,0.0,0.558893102,0.0,0.719810023,1.0,0.67461031,0.0,0.499349834,False,,5ead973f1e0b1306ab65cf4e,,1865243,148,,evan-feature22,full_pf_b,,0
117,3697,149,,,,1,1,1.0,1.0,0.0,1.0,,0.0-146.0,,1.0,627.7,1.0,0.611031046,1.0,0.75,0.0,0.688072995,0.0,0.5321422729999999,False,,5ead973f1e0b1306ab65cf4e,,1875683,149,,evan-feature22,full_pf_b,,1
118,3698,150,,,,1,1,1.0,1.0,-1.0,0.0,,0.0-147.0,,-1.0,873.9,1.0,0.633223941,1.0,0.713567728,1.0,0.75,0.0,0.48185314700000004,False,,5ead973f1e0b1306ab65cf4e,,1886372,150,,evan-feature22,full_pf_b,,0
119,3699,151,,,,2,2,0.0,1.0,-1.0,0.0,,0.0-148.0,,0.0,747.5,1.0,0.664001694,0.0,0.705509768,0.0,0.75,1.0,0.500211065,False,,5ead973f1e0b1306ab65cf4e,,1896927,151,,evan-feature22,full_pf_b,,1
120,3700,152,,,,2,2,1.0,1.0,0.0,1.0,,0.0-149.0,,1.0,1578.5,0.0,0.664001694,1.0,0.705509768,1.0,0.75,1.0,0.500211065,False,,5ead973f1e0b1306ab65cf4e,,1908317,152,,evan-feature22,full_pf_b,,0
121,3701,153,,,,2,2,1.0,1.0,0.0,1.0,,0.0-150.0,,1.0,514.1,0.0,0.696508041,0.0,0.71066027,1.0,0.717028709,1.0,0.49792991,False,,5ead973f1e0b1306ab65cf4e,,1918628,153,,evan-feature22,full_pf_b,,0
122,3702,154,,,,2,2,1.0,1.0,-1.0,0.0,,0.0-151.0,,-1.0,570.8,0.0,0.699883272,1.0,0.75,1.0,0.713543895,1.0,0.496962643,False,,5ead973f1e0b1306ab65cf4e,,1929002,154,,evan-feature22,full_pf_b,,0
123,3703,155,,,,2,2,1.0,1.0,0.0,1.0,,0.0-152.0,,1.0,915.6,1.0,0.741163419,1.0,0.75,1.0,0.64691024,1.0,0.513858197,False,,5ead973f1e0b1306ab65cf4e,,1939732,155,,evan-feature22,full_pf_b,,0
124,3704,156,,,,2,2,0.0,0.0,-1.0,0.0,,0.0-153.0,,0.0,1033.2,1.0,0.75,1.0,0.70816558,0.0,0.594499079,0.0,0.48502124,False,,5ead973f1e0b1306ab65cf4e,,1950575,156,,evan-feature22,full_pf_b,,0
125,3705,157,,,,2,2,1.0,0.0,0.0,1.0,,0.0-154.0,,0.0,582.9,1.0,0.75,0.0,0.721848901,1.0,0.62197249,0.0,0.48263586399999997,False,,5ead973f1e0b1306ab65cf4e,,1960957,157,,evan-feature22,full_pf_b,,0
126,3706,158,,,,2,2,0.0,1.0,-1.0,0.0,,0.0-155.0,,0.0,558.3,1.0,0.75,1.0,0.74813071,0.0,0.584357161,1.0,0.411477782,False,,5ead973f1e0b1306ab65cf4e,,1971334,158,,evan-feature22,full_pf_b,,0
127,3707,159,,,,2,2,1.0,1.0,0.0,1.0,,0.0-156.0,,1.0,859.6,1.0,0.75,1.0,0.75,1.0,0.52287236,1.0,0.488290656,False,,5ead973f1e0b1306ab65cf4e,,1981988,159,,evan-feature22,full_pf_b,,0
128,3708,160,,,,2,2,0.0,1.0,0.0,1.0,,0.0-157.0,,1.0,3044.0,1.0,0.75,1.0,0.75,0.0,0.544321581,1.0,0.53143059,False,,5ead973f1e0b1306ab65cf4e,,1994828,160,,evan-feature22,full_pf_b,,0
129,3709,161,,,,2,2,1.0,1.0,0.0,1.0,,0.0-158.0,,1.0,723.2,1.0,0.726754564,1.0,0.75,1.0,0.5129306370000001,1.0,0.530592445,False,,5ead973f1e0b1306ab65cf4e,,2005334,161,,evan-feature22,full_pf_b,,0
130,3710,162,,,,2,2,1.0,0.0,-1.0,0.0,,0.0-159.0,,-1.0,695.2,1.0,0.75,0.0,0.7392590729999999,1.0,0.479875835,0.0,0.547007051,False,,5ead973f1e0b1306ab65cf4e,,2015826,162,,evan-feature22,full_pf_b,,0
131,3711,163,,,,2,2,1.0,0.0,-1.0,0.0,,0.0-160.0,,-1.0,786.4,1.0,0.75,1.0,0.7393376979999999,1.0,0.546045419,0.0,0.541267353,False,,5ead973f1e0b1306ab65cf4e,,2026431,163,,evan-feature22,full_pf_b,,0
132,3712,164,,,,1,1,1.0,1.0,-1.0,0.0,,0.0-161.0,,-1.0,666.1,1.0,0.75,1.0,0.75,0.0,0.485725895,0.0,0.527625395,False,,5ead973f1e0b1306ab65cf4e,,2036907,164,,evan-feature22,full_pf_b,,1
133,3713,165,,,,1,1,1.0,1.0,0.0,1.0,,0.0-162.0,,1.0,618.0,1.0,0.75,1.0,0.725087974,1.0,0.488603595,0.0,0.504019206,False,,5ead973f1e0b1306ab65cf4e,,2047331,165,,evan-feature22,full_pf_b,,0
134,3714,166,,,,1,1,1.0,0.0,0.0,1.0,,0.0-163.0,,0.0,3788.2,1.0,0.745504295,0.0,0.75,1.0,0.452379914,0.0,0.50131194,False,,5ead973f1e0b1306ab65cf4e,,2060933,166,,evan-feature22,full_pf_b,,0
135,3715,167,,,,1,1,1.0,1.0,0.0,1.0,,0.0-164.0,,1.0,979.9,1.0,0.728513874,1.0,0.75,0.0,0.44125567200000004,1.0,0.531454591,False,,5ead973f1e0b1306ab65cf4e,,2071713,167,,evan-feature22,full_pf_b,,0
136,3716,168,,,,1,1,1.0,1.0,-1.0,0.0,,0.0-165.0,,-1.0,641.1,1.0,0.73790804,1.0,0.75,1.0,0.413036656,1.0,0.524619035,False,,5ead973f1e0b1306ab65cf4e,,2082166,168,,evan-feature22,full_pf_b,,0
137,3717,169,,,,1,1,1.0,0.0,0.0,1.0,,0.0-166.0,,0.0,1293.8,1.0,0.7080961309999999,0.0,0.708666865,0.0,0.431915581,0.0,0.481819489,False,,5ead973f1e0b1306ab65cf4e,,2093263,169,,evan-feature22,full_pf_b,,0
138,3718,170,,,,1,1,1.0,1.0,0.0,1.0,,0.0-167.0,,1.0,830.2,1.0,0.721378003,1.0,0.71605913,1.0,0.36642387,0.0,0.5036739929999999,False,,5ead973f1e0b1306ab65cf4e,,2103887,170,,evan-feature22,full_pf_b,,0
139,3719,171,,,,1,1,0.0,1.0,0.0,1.0,,0.0-168.0,,1.0,1443.9,0.0,0.7340618959999999,1.0,0.699323252,1.0,0.35298046299999997,0.0,0.511241692,False,,5ead973f1e0b1306ab65cf4e,,2115129,171,,evan-feature22,full_pf_b,,0
140,3720,172,,,,1,1,0.0,1.0,-1.0,0.0,,0.0-169.0,,0.0,790.9,0.0,0.75,1.0,0.70412698,0.0,0.380734814,1.0,0.529580116,False,,5ead973f1e0b1306ab65cf4e,,2125718,172,,evan-feature22,full_pf_b,,0
141,3721,173,,,,1,1,1.0,1.0,0.0,1.0,,0.0-170.0,,1.0,3137.2,1.0,0.7436654909999999,1.0,0.711182751,0.0,0.41125331,0.0,0.49554405,False,,5ead973f1e0b1306ab65cf4e,,2138693,173,,evan-feature22,full_pf_b,,0
142,3722,174,,,,1,1,1.0,1.0,0.0,1.0,,0.0-171.0,,1.0,927.4,1.0,0.731607915,1.0,0.651774583,0.0,0.35688023,1.0,0.45194491600000003,False,,5ead973f1e0b1306ab65cf4e,,2149434,174,,evan-feature22,full_pf_b,,0
143,3723,175,,,,SLOW,SLOW,,,-1.0,0.0,,0.0-172.0,,-3.0,,1.0,0.75,1.0,0.75,1.0,0.283145374,0.0,0.528608005,False,,5ead973f1e0b1306ab65cf4e,,2155245,175,,evan-feature22,full_pf_b,,1
144,3724,176,,,,1,1,0.0,1.0,-1.0,0.0,,0.0-173.0,,0.0,641.4,0.0,0.7491416890000001,1.0,0.7423785959999999,0.0,0.29135870399999997,0.0,0.498888318,False,,5ead973f1e0b1306ab65cf4e,,2165782,176,,evan-feature22,full_pf_b,,1
145,3725,177,,,,1,1,1.0,1.0,-1.0,0.0,,0.0-174.0,,-1.0,603.7,1.0,0.708569387,1.0,0.717682277,0.0,0.294421699,1.0,0.493838163,False,,5ead973f1e0b1306ab65cf4e,,2176194,177,,evan-feature22,full_pf_b,,0
146,3726,178,,,,2,2,0.0,1.0,0.0,1.0,,0.0-175.0,,1.0,1822.2,1.0,0.75,1.0,0.7383382159999999,0.0,0.356098707,1.0,0.442533405,False,,5ead973f1e0b1306ab65cf4e,,2187835,178,,evan-feature22,full_pf_b,,1
147,3727,179,,,,2,2,0.0,0.0,0.0,1.0,,0.0-176.0,,0.0,685.1,0.0,0.744527075,0.0,0.75,0.0,0.334127506,0.0,0.393165805,False,,5ead973f1e0b1306ab65cf4e,,2198320,179,,evan-feature22,full_pf_b,,0
148,3728,180,,,,2,2,0.0,1.0,0.0,1.0,,0.0-177.0,,1.0,642.2,1.0,0.75,1.0,0.75,0.0,0.33571021799999995,1.0,0.350393962,False,,5ead973f1e0b1306ab65cf4e,,2208763,180,,evan-feature22,full_pf_b,,0
149,3729,181,,,,2,2,0.0,1.0,0.0,1.0,,0.0-178.0,,1.0,1863.8,1.0,0.75,1.0,0.75,0.0,0.313628297,1.0,0.36349657399999996,False,,5ead973f1e0b1306ab65cf4e,,2220416,181,,evan-feature22,full_pf_b,,0
150,3730,182,,,,2,2,0.0,1.0,-1.0,0.0,,0.0-179.0,,0.0,590.3,1.0,0.75,1.0,0.734284182,0.0,0.262667667,1.0,0.380199119,False,,5ead973f1e0b1306ab65cf4e,,2230810,182,,evan-feature22,full_pf_b,,0
151,3731,183,,,,2,2,0.0,0.0,0.0,1.0,,0.0-180.0,,0.0,566.4,1.0,0.75,0.0,0.75,0.0,0.25,0.0,0.394494013,False,,5ead973f1e0b1306ab65cf4e,,2241184,183,,evan-feature22,full_pf_b,,0
152,3732,184,,,,2,2,0.0,0.0,-1.0,0.0,,0.0-181.0,,0.0,1548.1,1.0,0.722298145,0.0,0.7357822340000001,0.0,0.25,0.0,0.319142121,False,,5ead973f1e0b1306ab65cf4e,,2252539,184,,evan-feature22,full_pf_b,,0
153,3733,185,,,,SLOW,SLOW,,,-1.0,0.0,,0.0-182.0,,-3.0,,1.0,0.73149275,1.0,0.724276446,0.0,0.305856907,0.0,0.281315057,False,,5ead973f1e0b1306ab65cf4e,,2258355,185,,evan-feature22,full_pf_b,,1
154,3734,186,,,,2,2,0.0,1.0,0.0,1.0,,0.0-183.0,,1.0,440.5,0.0,0.7458732690000001,0.0,0.7336382459999999,0.0,0.272571964,1.0,0.266021999,False,,5ead973f1e0b1306ab65cf4e,,2268627,186,,evan-feature22,full_pf_b,,1
155,3735,187,,,,2,2,0.0,0.0,0.0,1.0,,0.0-184.0,,0.0,521.7,0.0,0.705579037,1.0,0.720778292,0.0,0.320238144,0.0,0.30971744,False,,5ead973f1e0b1306ab65cf4e,,2278970,187,,evan-feature22,full_pf_b,,0
156,3736,188,,,,2,2,0.0,0.0,0.0,1.0,,0.0-185.0,,0.0,470.3,1.0,0.700425648,1.0,0.7198784009999999,0.0,0.272590393,0.0,0.304182931,False,,5ead973f1e0b1306ab65cf4e,,2289229,188,,evan-feature22,full_pf_b,,0
157,3737,189,,,,2,2,0.0,0.0,0.0,1.0,,0.0-186.0,,0.0,667.6,1.0,0.735590785,1.0,0.722714973,0.0,0.25,0.0,0.323421091,False,,5ead973f1e0b1306ab65cf4e,,2299689,189,,evan-feature22,full_pf_b,,0
158,3738,190,,,,2,2,0.0,0.0,0.0,1.0,,0.0-187.0,,0.0,682.4,1.0,0.724807662,1.0,0.63146213,0.0,0.36836492600000004,0.0,0.34592153299999995,False,,5ead973f1e0b1306ab65cf4e,,2310179,190,,evan-feature22,full_pf_b,,0
159,3739,191,,,,2,2,0.0,1.0,0.0,1.0,,0.0-188.0,,1.0,623.6,1.0,0.7352796909999999,0.0,0.555111392,0.0,0.36003922,1.0,0.31433779999999995,False,,5ead973f1e0b1306ab65cf4e,,2320610,191,,evan-feature22,full_pf_b,,0
160,3740,192,notice,,,,,,,,,,0.0-189.0,"{""Q0"":""g had more wins""}",,20533.0,,,,,,,,,False,,5ead973f1e0b1306ab65cf4e,,2341146,192,Q,survey-text,full_pf_b,,1
161,3741,193,track1,,[0],,,,,,,,0.0-190.0,"{""Q0"":""yes""}",,5734.0,,,,,,,,,False,,5ead973f1e0b1306ab65cf4e,,2346888,193,Q,evan-quiz,full_pf_b,,1
162,3742,194,track2,,[2],,,,,,,,0.0-191.0,"{""Q0"":""N/A""}",,6615.0,,,,,,,,,False,,5ead973f1e0b1306ab65cf4e,,2353507,194,Q,evan-quiz,full_pf_b,,1
163,3743,195,strat,,,,,,,,,,0.0-192.0,"{""Q0"":""i tried to remember where the aliens were last time""}",,27027.0,,,,,,,,,False,,5ead973f1e0b1306ab65cf4e,,2380540,195,Q,survey-text,full_pf_b,,1
