,index,Unnamed: 0,Q_name,button_pressed,choice_idxs,chosen_pos,chosen_state,chosen_state_f_1_outcome,chosen_state_f_2_outcome,f_1_reward,f_2_reward,incor_questions,internal_node_id,responses,reward_received,rt,s_1_f_1_outcome,s_1_f_1_prob,s_1_f_2_outcome,s_1_f_2_prob,s_2_f_1_outcome,s_2_f_1_prob,s_2_f_2_outcome,s_2_f_2_prob,safe_first,stimulus,subjectID,success,time_elapsed,trial_index,trial_num,trial_type,version,view_history,switching
0,46995,25,,,,1,1,0.0,1.0,0.0,-1.0,,0.0-27.0,,-1.0,1559.485,0.0,0.6,1.0,0.6,0.0,0.4,0.0,0.4,False,,5f73ad2ae06cde12229564f1,,611860,25,,evan-feature22,full_pf_a,,0
1,46996,26,,,,2,2,1.0,0.0,0.0,-1.0,,0.0-28.0,,0.0,479.98,1.0,0.608053294,1.0,0.63424552,1.0,0.397152172,0.0,0.347069101,False,,5f73ad2ae06cde12229564f1,,622130,26,,evan-feature22,full_pf_a,,1
2,46997,27,,,,1,1,1.0,0.0,0.0,-1.0,,0.0-29.0,,0.0,2116.185,1.0,0.642237155,0.0,0.648566321,1.0,0.389407674,0.0,0.285525717,False,,5f73ad2ae06cde12229564f1,,634029,27,,evan-feature22,full_pf_a,,1
3,46998,28,,,,2,2,0.0,1.0,0.0,-1.0,,0.0-30.0,,-1.0,849.685,1.0,0.661086576,1.0,0.630492543,0.0,0.399058924,1.0,0.25,False,,5f73ad2ae06cde12229564f1,,644667,28,,evan-feature22,full_pf_a,,1
4,46999,29,,,,2,2,1.0,0.0,0.0,-1.0,,0.0-31.0,,0.0,428.965,0.0,0.631324137,1.0,0.6269842929999999,1.0,0.38734784299999997,0.0,0.25,False,,5f73ad2ae06cde12229564f1,,654881,29,,evan-feature22,full_pf_a,,0
5,47000,30,,,,2,2,0.0,1.0,0.0,-1.0,,0.0-32.0,,-1.0,545.705,1.0,0.6381991370000001,1.0,0.68987999,0.0,0.384107265,1.0,0.271332943,False,,5f73ad2ae06cde12229564f1,,665209,30,,evan-feature22,full_pf_a,,0
6,47001,31,,,,1,1,1.0,1.0,0.0,-1.0,,0.0-33.0,,-1.0,1031.66,1.0,0.66034901,1.0,0.742641349,0.0,0.360225629,0.0,0.25,False,,5f73ad2ae06cde12229564f1,,676027,31,,evan-feature22,full_pf_a,,1
7,47002,32,,,,1,1,1.0,1.0,1.0,0.0,,0.0-34.0,,1.0,1625.25,1.0,0.638612418,1.0,0.75,1.0,0.367273939,1.0,0.25,False,,5f73ad2ae06cde12229564f1,,687425,32,,evan-feature22,full_pf_a,,0
8,47003,33,,,,1,1,1.0,1.0,0.0,-1.0,,0.0-35.0,,-1.0,411.32,1.0,0.624340629,1.0,0.75,1.0,0.425829545,0.0,0.25,False,,5f73ad2ae06cde12229564f1,,697621,33,,evan-feature22,full_pf_a,,0
9,47004,34,,,,2,2,1.0,0.0,0.0,-1.0,,0.0-36.0,,0.0,1400.955,0.0,0.621999804,1.0,0.75,1.0,0.368609357,0.0,0.25,False,,5f73ad2ae06cde12229564f1,,708807,34,,evan-feature22,full_pf_a,,1
10,47005,35,,,,2,2,0.0,0.0,1.0,0.0,,0.0-37.0,,0.0,980.61,1.0,0.62666403,1.0,0.75,0.0,0.311151498,0.0,0.25,False,,5f73ad2ae06cde12229564f1,,719572,35,,evan-feature22,full_pf_a,,0
11,47006,36,,,,2,2,1.0,0.0,1.0,0.0,,0.0-38.0,,1.0,730.22,1.0,0.6819650009999999,1.0,0.75,1.0,0.310763048,0.0,0.25,False,,5f73ad2ae06cde12229564f1,,730089,36,,evan-feature22,full_pf_a,,0
12,47007,37,,,,1,1,0.0,1.0,0.0,-1.0,,0.0-39.0,,-1.0,1012.82,0.0,0.740626951,1.0,0.75,0.0,0.25,1.0,0.25,False,,5f73ad2ae06cde12229564f1,,740885,37,,evan-feature22,full_pf_a,,1
13,47008,38,,,,1,1,1.0,0.0,0.0,-1.0,,0.0-40.0,,0.0,1442.64,1.0,0.739599242,0.0,0.742034978,0.0,0.25397114600000004,0.0,0.25,False,,5f73ad2ae06cde12229564f1,,752108,38,,evan-feature22,full_pf_a,,0
14,47009,39,,,,1,1,0.0,0.0,0.0,-1.0,,0.0-41.0,,0.0,1368.895,0.0,0.732341315,0.0,0.72735643,0.0,0.25,0.0,0.25,False,,5f73ad2ae06cde12229564f1,,763260,39,,evan-feature22,full_pf_a,,0
15,47010,40,,,,2,2,0.0,0.0,0.0,-1.0,,0.0-42.0,,0.0,1560.05,1.0,0.7062287770000001,1.0,0.75,0.0,0.29002151,0.0,0.288256649,False,,5f73ad2ae06cde12229564f1,,774607,40,,evan-feature22,full_pf_a,,1
16,47011,41,,,,2,2,0.0,1.0,1.0,0.0,,0.0-43.0,,0.0,1213.22,1.0,0.7086029209999999,1.0,0.75,0.0,0.274129113,1.0,0.262851608,False,,5f73ad2ae06cde12229564f1,,785598,41,,evan-feature22,full_pf_a,,0
17,47012,42,,,,1,1,1.0,1.0,0.0,-1.0,,0.0-44.0,,-1.0,1794.785,1.0,0.669189651,1.0,0.727614338,0.0,0.298444036,0.0,0.296944518,False,,5f73ad2ae06cde12229564f1,,797169,42,,evan-feature22,full_pf_a,,1
18,47013,43,,,,2,2,0.0,0.0,1.0,0.0,,0.0-45.0,,0.0,1043.905,1.0,0.6819912929999999,1.0,0.7179434290000001,0.0,0.265003961,0.0,0.28157921199999997,False,,5f73ad2ae06cde12229564f1,,808003,43,,evan-feature22,full_pf_a,,1
19,47014,44,,,,1,1,1.0,1.0,1.0,0.0,,0.0-46.0,,1.0,932.775,1.0,0.665275002,1.0,0.723065271,1.0,0.260414971,1.0,0.30973870000000003,False,,5f73ad2ae06cde12229564f1,,818717,44,,evan-feature22,full_pf_a,,1
20,47015,45,,,,2,2,0.0,0.0,0.0,-1.0,,0.0-47.0,,0.0,1154.45,0.0,0.6660593260000001,1.0,0.728032907,0.0,0.30922817,0.0,0.338778608,False,,5f73ad2ae06cde12229564f1,,829647,45,,evan-feature22,full_pf_a,,1
21,47016,46,,,,2,2,1.0,1.0,0.0,-1.0,,0.0-48.0,,-1.0,1051.98,1.0,0.702068785,1.0,0.6528750879999999,1.0,0.287329608,1.0,0.35789613200000003,False,,5f73ad2ae06cde12229564f1,,840479,46,,evan-feature22,full_pf_a,,0
22,47017,47,,,,2,2,0.0,1.0,0.0,-1.0,,0.0-49.0,,-1.0,987.115,0.0,0.651939787,1.0,0.636725589,0.0,0.284834488,1.0,0.358563756,False,,5f73ad2ae06cde12229564f1,,851252,47,,evan-feature22,full_pf_a,,0
23,47018,48,,,,2,2,0.0,1.0,0.0,-1.0,,0.0-50.0,,-1.0,941.495,0.0,0.67573929,1.0,0.612550049,0.0,0.37130387600000003,1.0,0.383542402,False,,5f73ad2ae06cde12229564f1,,861975,48,,evan-feature22,full_pf_a,,0
24,47019,49,,,,2,2,1.0,0.0,0.0,-1.0,,0.0-51.0,,0.0,985.275,1.0,0.620753801,0.0,0.60513644,1.0,0.385529434,0.0,0.340361743,False,,5f73ad2ae06cde12229564f1,,872744,49,,evan-feature22,full_pf_a,,0
25,47020,50,,,,1,1,0.0,0.0,1.0,0.0,,0.0-52.0,,0.0,1187.22,0.0,0.673564893,0.0,0.672437924,0.0,0.292955382,0.0,0.337633795,False,,5f73ad2ae06cde12229564f1,,883716,50,,evan-feature22,full_pf_a,,1
26,47021,51,,,,2,2,0.0,0.0,0.0,-1.0,,0.0-53.0,,0.0,1068.725,1.0,0.6749427,0.0,0.724197502,0.0,0.32391132100000003,0.0,0.350995264,False,,5f73ad2ae06cde12229564f1,,894566,51,,evan-feature22,full_pf_a,,1
27,47022,52,,,,2,2,0.0,1.0,0.0,-1.0,,0.0-54.0,,-1.0,836.83,0.0,0.6940159379999999,1.0,0.75,0.0,0.31710554399999996,1.0,0.413450341,False,,5f73ad2ae06cde12229564f1,,905178,52,,evan-feature22,full_pf_a,,0
28,47023,53,,,,2,2,0.0,0.0,0.0,-1.0,,0.0-55.0,,0.0,779.38,1.0,0.6916018270000001,0.0,0.69001187,0.0,0.261817804,0.0,0.40038635,False,,5f73ad2ae06cde12229564f1,,915740,53,,evan-feature22,full_pf_a,,0
29,47024,54,,,,2,2,0.0,0.0,0.0,-1.0,,0.0-56.0,,0.0,975.185,0.0,0.641061544,0.0,0.71337992,0.0,0.277296461,0.0,0.47372791700000005,False,,5f73ad2ae06cde12229564f1,,926491,54,,evan-feature22,full_pf_a,,0
30,47025,55,,,,2,2,1.0,1.0,0.0,-1.0,,0.0-57.0,,-1.0,633.845,0.0,0.6082438520000001,1.0,0.708471106,1.0,0.28745137,1.0,0.564174476,False,,5f73ad2ae06cde12229564f1,,936904,55,,evan-feature22,full_pf_a,,0
31,47026,56,,,,1,1,0.0,1.0,1.0,0.0,,0.0-58.0,,0.0,1216.17,0.0,0.6051112120000001,1.0,0.7118147229999999,0.0,0.272390611,0.0,0.5595149939999999,False,,5f73ad2ae06cde12229564f1,,947904,56,,evan-feature22,full_pf_a,,1
32,47027,57,,,,1,1,1.0,1.0,1.0,0.0,,0.0-59.0,,1.0,702.98,1.0,0.582420852,1.0,0.635867583,0.0,0.31089574,1.0,0.5227206520000001,False,,5f73ad2ae06cde12229564f1,,958393,57,,evan-feature22,full_pf_a,,0
33,47028,58,,,,1,1,0.0,1.0,1.0,0.0,,0.0-60.0,,0.0,602.565,0.0,0.623195575,1.0,0.655026044,0.0,0.25,0.0,0.560387538,False,,5f73ad2ae06cde12229564f1,,968774,58,,evan-feature22,full_pf_a,,0
34,47029,59,,,,2,2,0.0,1.0,0.0,-1.0,,0.0-61.0,,-1.0,957.895,1.0,0.601889598,1.0,0.678198724,0.0,0.25,1.0,0.559922936,False,,5f73ad2ae06cde12229564f1,,979510,59,,evan-feature22,full_pf_a,,1
35,47030,60,,,,1,1,0.0,0.0,1.0,0.0,,0.0-62.0,,0.0,922.57,0.0,0.601259914,0.0,0.704681482,0.0,0.33908969299999997,0.0,0.505003715,False,,5f73ad2ae06cde12229564f1,,990218,60,,evan-feature22,full_pf_a,,1
36,47031,61,,,,1,1,0.0,1.0,1.0,0.0,,0.0-63.0,,0.0,708.215,0.0,0.59645454,1.0,0.710437172,1.0,0.327441879,0.0,0.391749613,False,,5f73ad2ae06cde12229564f1,,1000709,61,,evan-feature22,full_pf_a,,0
37,47032,62,,,,2,2,0.0,0.0,0.0,-1.0,,0.0-64.0,,0.0,1025.57,0.0,0.529473,1.0,0.636758527,0.0,0.301338063,0.0,0.365661481,False,,5f73ad2ae06cde12229564f1,,1011516,62,,evan-feature22,full_pf_a,,1
38,47033,63,,,,2,2,0.0,1.0,1.0,0.0,,0.0-65.0,,0.0,702.205,0.0,0.541657162,0.0,0.634541962,0.0,0.343535366,1.0,0.371763742,False,,5f73ad2ae06cde12229564f1,,1021997,63,,evan-feature22,full_pf_a,,0
39,47034,64,,,,1,1,0.0,1.0,1.0,0.0,,0.0-66.0,,0.0,917.5,0.0,0.5707533260000001,1.0,0.589121171,1.0,0.326428396,0.0,0.43961622899999997,False,,5f73ad2ae06cde12229564f1,,1032696,64,,evan-feature22,full_pf_a,,1
40,47035,65,,,,1,1,0.0,1.0,0.0,-1.0,,0.0-67.0,,-1.0,1385.955,0.0,0.5707533260000001,1.0,0.589121171,1.0,0.326428396,0.0,0.43961622899999997,False,,5f73ad2ae06cde12229564f1,,1043865,65,,evan-feature22,full_pf_a,,0
41,47036,66,,,,2,2,1.0,0.0,0.0,-1.0,,0.0-68.0,,0.0,1502.605,0.0,0.506271295,1.0,0.641775594,1.0,0.37149690700000004,0.0,0.404330166,False,,5f73ad2ae06cde12229564f1,,1055157,66,,evan-feature22,full_pf_a,,1
42,47037,67,,,,2,2,0.0,1.0,1.0,0.0,,0.0-69.0,,0.0,826.47,1.0,0.455642565,0.0,0.623605825,0.0,0.358753011,1.0,0.346174041,False,,5f73ad2ae06cde12229564f1,,1065759,67,,evan-feature22,full_pf_a,,0
43,47038,68,,,,2,2,0.0,1.0,0.0,-1.0,,0.0-70.0,,-1.0,1327.565,1.0,0.483677308,0.0,0.5904681070000001,0.0,0.402218411,1.0,0.35344697,False,,5f73ad2ae06cde12229564f1,,1076876,68,,evan-feature22,full_pf_a,,0
44,47039,69,,,,1,1,0.0,1.0,1.0,0.0,,0.0-71.0,,0.0,1841.205,0.0,0.394210977,1.0,0.558925494,0.0,0.540052017,0.0,0.35182128700000004,False,,5f73ad2ae06cde12229564f1,,1088496,69,,evan-feature22,full_pf_a,,1
45,47040,70,,,,2,2,0.0,1.0,0.0,-1.0,,0.0-72.0,,-1.0,1450.505,1.0,0.382300414,1.0,0.577670603,0.0,0.607608448,1.0,0.378261578,False,,5f73ad2ae06cde12229564f1,,1099741,70,,evan-feature22,full_pf_a,,1
46,47041,71,,,,2,2,1.0,0.0,1.0,0.0,,0.0-73.0,,1.0,1228.495,0.0,0.357596762,0.0,0.5929076529999999,1.0,0.6579790010000001,0.0,0.401326777,False,,5f73ad2ae06cde12229564f1,,1110747,71,,evan-feature22,full_pf_a,,0
47,47042,72,,,,1,1,1.0,1.0,0.0,-1.0,,0.0-74.0,,-1.0,823.66,1.0,0.362033495,1.0,0.582308608,1.0,0.649195052,0.0,0.355158505,False,,5f73ad2ae06cde12229564f1,,1121353,72,,evan-feature22,full_pf_a,,1
48,47043,73,,,,2,2,0.0,1.0,0.0,-1.0,,0.0-75.0,,-1.0,846.245,0.0,0.369620635,1.0,0.669100864,0.0,0.706059111,1.0,0.362516241,False,,5f73ad2ae06cde12229564f1,,1131984,73,,evan-feature22,full_pf_a,,1
49,47044,74,,,,1,1,0.0,1.0,0.0,-1.0,,0.0-76.0,,-1.0,1164.13,0.0,0.41477751399999996,1.0,0.7284416779999999,1.0,0.7182656940000001,0.0,0.36228040899999997,False,,5f73ad2ae06cde12229564f1,,1142933,74,,evan-feature22,full_pf_a,,1
50,47045,75,,,,2,2,1.0,0.0,1.0,0.0,,0.0-77.0,,1.0,690.52,1.0,0.37675460299999997,1.0,0.703250285,1.0,0.75,0.0,0.461979164,False,,5f73ad2ae06cde12229564f1,,1153398,75,,evan-feature22,full_pf_a,,1
51,47046,76,,,,2,2,1.0,1.0,1.0,0.0,,0.0-78.0,,1.0,867.78,0.0,0.398716075,1.0,0.6723864890000001,1.0,0.674153818,1.0,0.519029516,False,,5f73ad2ae06cde12229564f1,,1164056,76,,evan-feature22,full_pf_a,,0
52,47047,77,,,,2,2,0.0,1.0,1.0,0.0,,0.0-79.0,,0.0,537.685,0.0,0.34677856700000004,1.0,0.69057175,0.0,0.6822438540000001,1.0,0.477292237,False,,5f73ad2ae06cde12229564f1,,1174384,77,,evan-feature22,full_pf_a,,0
53,47048,78,,,,1,1,1.0,1.0,0.0,-1.0,,0.0-80.0,,-1.0,1050.005,1.0,0.28580469199999997,1.0,0.68408818,0.0,0.684207565,1.0,0.49780448299999996,False,,5f73ad2ae06cde12229564f1,,1185212,78,,evan-feature22,full_pf_a,,1
54,47050,80,,,,1,1,1.0,0.0,0.0,-1.0,,0.0-82.0,,0.0,2423.45,1.0,0.25,0.0,0.7405808970000001,0.0,0.679614108,0.0,0.436436964,False,,5f73ad2ae06cde12229564f1,,1201170,80,,evan-feature22,full_pf_a,,0
55,47051,81,,,,1,1,1.0,0.0,0.0,-1.0,,0.0-83.0,,0.0,1149.415,1.0,0.29890393,0.0,0.730505706,1.0,0.7328203320000001,1.0,0.439256938,False,,5f73ad2ae06cde12229564f1,,1212103,81,,evan-feature22,full_pf_a,,0
56,47052,82,,,,1,1,1.0,0.0,1.0,0.0,,0.0-84.0,,1.0,1529.375,1.0,0.326762398,0.0,0.7148059609999999,1.0,0.75,0.0,0.44389608799999997,False,,5f73ad2ae06cde12229564f1,,1223411,82,,evan-feature22,full_pf_a,,0
57,47053,83,,,,2,2,0.0,0.0,0.0,-1.0,,0.0-85.0,,0.0,2744.875,1.0,0.295168515,1.0,0.739760854,0.0,0.719947008,0.0,0.35277284600000003,False,,5f73ad2ae06cde12229564f1,,1235935,83,,evan-feature22,full_pf_a,,1
58,47054,84,,,,2,2,1.0,0.0,0.0,-1.0,,0.0-86.0,,0.0,2103.995,0.0,0.25,1.0,0.70781482,1.0,0.75,0.0,0.286095925,False,,5f73ad2ae06cde12229564f1,,1247817,84,,evan-feature22,full_pf_a,,0
59,47055,85,,,,2,2,1.0,1.0,0.0,-1.0,,0.0-87.0,,-1.0,1151.98,1.0,0.25638190899999996,1.0,0.704088163,1.0,0.75,1.0,0.26872601399999996,False,,5f73ad2ae06cde12229564f1,,1258754,85,,evan-feature22,full_pf_a,,0
60,47056,86,,,,1,1,0.0,1.0,1.0,0.0,,0.0-88.0,,0.0,1040.225,0.0,0.271581126,1.0,0.669760107,0.0,0.733896663,1.0,0.273244572,False,,5f73ad2ae06cde12229564f1,,1269577,86,,evan-feature22,full_pf_a,,1
61,47057,87,,,,2,2,1.0,1.0,0.0,-1.0,,0.0-89.0,,-1.0,1735.64,0.0,0.257144401,0.0,0.600575706,1.0,0.74488122,1.0,0.25,False,,5f73ad2ae06cde12229564f1,,1281094,87,,evan-feature22,full_pf_a,,1
62,47058,88,,,,1,1,0.0,1.0,0.0,-1.0,,0.0-90.0,,-1.0,887.73,0.0,0.25,1.0,0.616870026,1.0,0.723610234,1.0,0.25,False,,5f73ad2ae06cde12229564f1,,1291763,88,,evan-feature22,full_pf_a,,1
63,47059,89,,,,1,1,0.0,1.0,1.0,0.0,,0.0-91.0,,0.0,1951.99,0.0,0.25,1.0,0.583540187,1.0,0.7041042559999999,0.0,0.285961995,False,,5f73ad2ae06cde12229564f1,,1303489,89,,evan-feature22,full_pf_a,,0
64,47060,90,,,,2,2,1.0,0.0,1.0,0.0,,0.0-92.0,,1.0,525.77,0.0,0.27254536,1.0,0.53875765,1.0,0.693783448,0.0,0.284961652,False,,5f73ad2ae06cde12229564f1,,1313801,90,,evan-feature22,full_pf_a,,1
65,47061,91,,,,2,2,0.0,0.0,1.0,0.0,,0.0-93.0,,0.0,868.085,0.0,0.25,0.0,0.548431252,0.0,0.734221895,0.0,0.279445214,False,,5f73ad2ae06cde12229564f1,,1324460,91,,evan-feature22,full_pf_a,,0
66,47062,92,,,,1,1,0.0,1.0,0.0,-1.0,,0.0-94.0,,-1.0,981.14,0.0,0.258640684,1.0,0.545878066,0.0,0.725245965,1.0,0.31487537,False,,5f73ad2ae06cde12229564f1,,1335225,92,,evan-feature22,full_pf_a,,1
67,47063,93,,,,1,1,0.0,1.0,0.0,-1.0,,0.0-95.0,,-1.0,972.75,0.0,0.251103711,1.0,0.5776290629999999,1.0,0.696320133,0.0,0.317831047,False,,5f73ad2ae06cde12229564f1,,1345980,93,,evan-feature22,full_pf_a,,0
68,47064,94,,,,2,2,1.0,0.0,0.0,-1.0,,0.0-96.0,,0.0,1027.085,0.0,0.276630292,0.0,0.617329858,1.0,0.73838088,0.0,0.261471582,False,,5f73ad2ae06cde12229564f1,,1356782,94,,evan-feature22,full_pf_a,,1
69,47065,95,,,,2,2,0.0,0.0,0.0,-1.0,,0.0-97.0,,0.0,787.5,0.0,0.297716424,0.0,0.618863717,0.0,0.7402358259999999,0.0,0.262600834,False,,5f73ad2ae06cde12229564f1,,1367343,95,,evan-feature22,full_pf_a,,0
70,47066,96,,,,2,2,1.0,0.0,1.0,0.0,,0.0-98.0,,1.0,466.585,0.0,0.290935512,0.0,0.695370945,1.0,0.706570507,0.0,0.280030553,False,,5f73ad2ae06cde12229564f1,,1377586,96,,evan-feature22,full_pf_a,,0
71,47067,97,,,,2,2,1.0,0.0,0.0,-1.0,,0.0-99.0,,0.0,684.515,0.0,0.25,1.0,0.6465277079999999,1.0,0.67766682,0.0,0.25,False,,5f73ad2ae06cde12229564f1,,1388056,97,,evan-feature22,full_pf_a,,0
72,47068,98,,,,2,2,1.0,0.0,1.0,0.0,,0.0-100.0,,1.0,642.165,1.0,0.26463816,1.0,0.636100213,1.0,0.646048507,0.0,0.265607101,False,,5f73ad2ae06cde12229564f1,,1398483,98,,evan-feature22,full_pf_a,,0
73,47069,99,,,,2,2,1.0,1.0,1.0,0.0,,0.0-101.0,,1.0,703.785,1.0,0.314340707,1.0,0.667795927,1.0,0.613630805,1.0,0.25,False,,5f73ad2ae06cde12229564f1,,1408969,99,,evan-feature22,full_pf_a,,0
74,47070,100,,,,2,2,1.0,0.0,0.0,-1.0,,0.0-102.0,,0.0,744.405,0.0,0.28685784,0.0,0.6622549529999999,1.0,0.652154117,0.0,0.25,False,,5f73ad2ae06cde12229564f1,,1419488,100,,evan-feature22,full_pf_a,,0
75,47071,101,,,,2,2,1.0,0.0,0.0,-1.0,,0.0-103.0,,0.0,1439.865,1.0,0.304106554,0.0,0.631289538,1.0,0.707041942,0.0,0.29314237,False,,5f73ad2ae06cde12229564f1,,1430709,101,,evan-feature22,full_pf_a,,0
76,47072,102,,,,2,2,1.0,1.0,0.0,-1.0,,0.0-104.0,,-1.0,692.285,0.0,0.304806932,0.0,0.571167718,1.0,0.680472346,1.0,0.25,False,,5f73ad2ae06cde12229564f1,,1441182,102,,evan-feature22,full_pf_a,,0
77,47073,103,,,,2,2,0.0,1.0,0.0,-1.0,,0.0-105.0,,-1.0,893.33,1.0,0.37919861,1.0,0.5724849710000001,0.0,0.705638003,1.0,0.30179300600000003,False,,5f73ad2ae06cde12229564f1,,1451859,103,,evan-feature22,full_pf_a,,0
78,47074,104,,,,2,2,0.0,0.0,0.0,-1.0,,0.0-106.0,,0.0,818.035,0.0,0.464277969,0.0,0.554034373,0.0,0.7372627340000001,0.0,0.264699741,False,,5f73ad2ae06cde12229564f1,,1462463,104,,evan-feature22,full_pf_a,,0
79,47075,105,,,,2,2,1.0,0.0,0.0,-1.0,,0.0-107.0,,0.0,1001.24,0.0,0.465104323,0.0,0.530793115,1.0,0.75,0.0,0.31683071,False,,5f73ad2ae06cde12229564f1,,1473240,105,,evan-feature22,full_pf_a,,0
80,47076,106,,,,2,2,1.0,1.0,1.0,0.0,,0.0-108.0,,1.0,770.635,0.0,0.465104323,0.0,0.530793115,1.0,0.75,1.0,0.31683071,False,,5f73ad2ae06cde12229564f1,,1483797,106,,evan-feature22,full_pf_a,,0
81,47077,107,,,,2,2,1.0,1.0,1.0,0.0,,0.0-109.0,,1.0,721.32,0.0,0.46833986,0.0,0.570249239,1.0,0.7244472590000001,1.0,0.364114163,False,,5f73ad2ae06cde12229564f1,,1494298,107,,evan-feature22,full_pf_a,,0
82,47078,108,,,,2,2,1.0,0.0,1.0,0.0,,0.0-110.0,,1.0,642.875,0.0,0.445444024,0.0,0.649673355,1.0,0.6845441290000001,0.0,0.300660449,False,,5f73ad2ae06cde12229564f1,,1504717,108,,evan-feature22,full_pf_a,,0
83,47079,109,,,,2,2,1.0,1.0,1.0,0.0,,0.0-111.0,,1.0,679.595,0.0,0.39909721299999995,0.0,0.6715179509999999,1.0,0.742310028,1.0,0.35496088299999995,False,,5f73ad2ae06cde12229564f1,,1515179,109,,evan-feature22,full_pf_a,,0
84,47080,110,,,,1,1,0.0,1.0,0.0,-1.0,,0.0-112.0,,-1.0,1034.89,0.0,0.37956104799999996,1.0,0.694725302,0.0,0.7181651309999999,0.0,0.38726906299999997,False,,5f73ad2ae06cde12229564f1,,1525985,110,,evan-feature22,full_pf_a,,1
85,47081,111,,,,2,2,1.0,0.0,0.0,-1.0,,0.0-113.0,,0.0,885.94,1.0,0.404995034,1.0,0.724375412,1.0,0.6910946859999999,0.0,0.387187347,False,,5f73ad2ae06cde12229564f1,,1536649,111,,evan-feature22,full_pf_a,,1
86,47082,112,,,,2,2,1.0,0.0,1.0,0.0,,0.0-114.0,,1.0,625.155,0.0,0.461740803,1.0,0.75,1.0,0.75,0.0,0.34872038200000005,False,,5f73ad2ae06cde12229564f1,,1547059,112,,evan-feature22,full_pf_a,,0
87,47083,113,,,,2,2,1.0,1.0,1.0,0.0,,0.0-115.0,,1.0,825.23,0.0,0.43821380600000004,1.0,0.738833273,1.0,0.728286963,1.0,0.399538128,False,,5f73ad2ae06cde12229564f1,,1557672,113,,evan-feature22,full_pf_a,,0
88,47084,114,,,,1,1,0.0,1.0,0.0,-1.0,,0.0-116.0,,-1.0,700.77,0.0,0.41709882,1.0,0.736666736,1.0,0.75,1.0,0.389095584,False,,5f73ad2ae06cde12229564f1,,1568153,114,,evan-feature22,full_pf_a,,1
89,47085,115,,,,2,2,1.0,1.0,0.0,-1.0,,0.0-117.0,,-1.0,1030.49,0.0,0.39749009799999996,0.0,0.744320029,1.0,0.75,1.0,0.363848678,False,,5f73ad2ae06cde12229564f1,,1578963,115,,evan-feature22,full_pf_a,,1
90,47086,116,,,,2,2,0.0,0.0,1.0,0.0,,0.0-118.0,,0.0,673.535,1.0,0.392653706,0.0,0.75,0.0,0.75,0.0,0.384386976,False,,5f73ad2ae06cde12229564f1,,1589407,116,,evan-feature22,full_pf_a,,0
91,47087,117,,,,2,2,1.0,1.0,0.0,-1.0,,0.0-119.0,,-1.0,2076.385,0.0,0.31190902600000003,1.0,0.75,1.0,0.732413819,1.0,0.413082932,False,,5f73ad2ae06cde12229564f1,,1601258,117,,evan-feature22,full_pf_a,,0
92,47088,118,,,,2,2,0.0,1.0,1.0,0.0,,0.0-120.0,,0.0,758.17,0.0,0.366917648,0.0,0.740073855,0.0,0.75,1.0,0.352861979,False,,5f73ad2ae06cde12229564f1,,1611790,118,,evan-feature22,full_pf_a,,0
93,47089,119,,,,2,2,1.0,0.0,1.0,0.0,,0.0-121.0,,1.0,670.325,0.0,0.3645172,0.0,0.721770713,1.0,0.75,0.0,0.404074511,False,,5f73ad2ae06cde12229564f1,,1622241,119,,evan-feature22,full_pf_a,,0
94,47090,120,,,,2,2,1.0,1.0,1.0,0.0,,0.0-122.0,,1.0,762.755,0.0,0.35205600299999995,1.0,0.68983859,1.0,0.739735447,1.0,0.366895945,False,,5f73ad2ae06cde12229564f1,,1632793,120,,evan-feature22,full_pf_a,,0
95,47091,121,,,,2,2,1.0,0.0,1.0,0.0,,0.0-123.0,,1.0,447.285,1.0,0.40998722600000004,1.0,0.720859127,1.0,0.673854955,0.0,0.368528541,False,,5f73ad2ae06cde12229564f1,,1643027,121,,evan-feature22,full_pf_a,,0
96,47092,122,,,,2,2,1.0,0.0,1.0,0.0,,0.0-124.0,,1.0,586.975,0.0,0.353625316,1.0,0.75,1.0,0.695605473,0.0,0.38303674200000004,False,,5f73ad2ae06cde12229564f1,,1653393,122,,evan-feature22,full_pf_a,,0
97,47093,123,,,,2,2,0.0,0.0,1.0,0.0,,0.0-125.0,,0.0,535.59,1.0,0.359216989,1.0,0.75,0.0,0.6987915090000001,0.0,0.35169046200000004,False,,5f73ad2ae06cde12229564f1,,1663714,123,,evan-feature22,full_pf_a,,0
98,47094,124,,,,2,2,0.0,0.0,1.0,0.0,,0.0-126.0,,0.0,391.75,0.0,0.35834496899999996,0.0,0.75,0.0,0.707067742,0.0,0.416763636,False,,5f73ad2ae06cde12229564f1,,1673879,124,,evan-feature22,full_pf_a,,0
99,47095,125,,,,2,2,0.0,1.0,0.0,-1.0,,0.0-127.0,,-1.0,500.73,1.0,0.38741613799999997,1.0,0.7177369570000001,0.0,0.734902455,1.0,0.49438664299999996,False,,5f73ad2ae06cde12229564f1,,1684162,125,,evan-feature22,full_pf_a,,0
100,47096,126,,,,2,2,1.0,0.0,1.0,0.0,,0.0-128.0,,1.0,516.43,1.0,0.405255252,1.0,0.7300466640000001,1.0,0.7027748070000001,0.0,0.504359668,False,,5f73ad2ae06cde12229564f1,,1694454,126,,evan-feature22,full_pf_a,,0
101,47097,127,,,,2,2,1.0,0.0,1.0,0.0,,0.0-129.0,,1.0,710.69,0.0,0.40697073,0.0,0.7260142190000001,1.0,0.724461982,0.0,0.522779179,False,,5f73ad2ae06cde12229564f1,,1704954,127,,evan-feature22,full_pf_a,,0
102,47098,128,,,,2,2,1.0,1.0,1.0,0.0,,0.0-130.0,,1.0,513.13,1.0,0.43906215299999996,1.0,0.7252802340000001,1.0,0.719079934,1.0,0.5712990579999999,False,,5f73ad2ae06cde12229564f1,,1715251,128,,evan-feature22,full_pf_a,,0
103,47099,129,,,,2,2,0.0,1.0,0.0,-1.0,,0.0-131.0,,-1.0,1545.09,1.0,0.4076705,1.0,0.73280499,0.0,0.681313127,1.0,0.523891346,False,,5f73ad2ae06cde12229564f1,,1726569,129,,evan-feature22,full_pf_a,,0
104,47100,130,,,,2,2,0.0,0.0,0.0,-1.0,,0.0-132.0,,0.0,600.955,0.0,0.399102911,1.0,0.730498344,0.0,0.661080239,0.0,0.46742603,False,,5f73ad2ae06cde12229564f1,,1736960,130,,evan-feature22,full_pf_a,,0
105,47101,131,,,,2,2,0.0,1.0,0.0,-1.0,,0.0-133.0,,-1.0,711.785,1.0,0.356477282,1.0,0.712296395,0.0,0.641812684,1.0,0.44868414,False,,5f73ad2ae06cde12229564f1,,1747456,131,,evan-feature22,full_pf_a,,0
106,47102,132,,,,2,2,1.0,0.0,1.0,0.0,,0.0-134.0,,1.0,383.985,0.0,0.462760722,1.0,0.692349322,1.0,0.700947931,0.0,0.394680266,False,,5f73ad2ae06cde12229564f1,,1757621,132,,evan-feature22,full_pf_a,,0
107,47103,133,,,,2,2,0.0,0.0,1.0,0.0,,0.0-135.0,,0.0,580.28,1.0,0.422306413,1.0,0.718375916,0.0,0.706340917,0.0,0.367787185,False,,5f73ad2ae06cde12229564f1,,1767990,133,,evan-feature22,full_pf_a,,0
108,47105,135,,,,1,1,0.0,1.0,1.0,0.0,,0.0-137.0,,0.0,1213.97,0.0,0.4582233,1.0,0.643834117,1.0,0.75,0.0,0.39615823299999997,False,,5f73ad2ae06cde12229564f1,,1782148,135,,evan-feature22,full_pf_a,,1
109,47106,136,,,,2,2,0.0,0.0,1.0,0.0,,0.0-138.0,,0.0,752.525,0.0,0.43813437899999996,0.0,0.651283804,0.0,0.729674191,0.0,0.37711048,False,,5f73ad2ae06cde12229564f1,,1792670,136,,evan-feature22,full_pf_a,,1
110,47107,137,,,,2,2,1.0,1.0,1.0,0.0,,0.0-139.0,,1.0,729.88,0.0,0.471199094,1.0,0.6470010979999999,1.0,0.715008097,1.0,0.410656191,False,,5f73ad2ae06cde12229564f1,,1803171,137,,evan-feature22,full_pf_a,,0
111,47108,138,,,,2,2,0.0,0.0,1.0,0.0,,0.0-140.0,,0.0,699.795,0.0,0.42486406,1.0,0.629771829,0.0,0.6550939960000001,0.0,0.459093873,False,,5f73ad2ae06cde12229564f1,,1813657,138,,evan-feature22,full_pf_a,,0
112,47109,139,,,,2,2,0.0,1.0,1.0,0.0,,0.0-141.0,,0.0,588.77,0.0,0.4803197,0.0,0.645842715,0.0,0.6421749920000001,1.0,0.443092151,False,,5f73ad2ae06cde12229564f1,,1824023,139,,evan-feature22,full_pf_a,,0
113,47110,140,,,,2,2,1.0,1.0,0.0,-1.0,,0.0-142.0,,-1.0,1121.895,0.0,0.521848997,1.0,0.735801074,1.0,0.6691348460000001,1.0,0.45259351600000003,False,,5f73ad2ae06cde12229564f1,,1834933,140,,evan-feature22,full_pf_a,,0
114,47111,141,,,,2,2,1.0,0.0,1.0,0.0,,0.0-143.0,,1.0,630.935,0.0,0.49565621299999996,1.0,0.742400847,1.0,0.661512553,0.0,0.483110831,False,,5f73ad2ae06cde12229564f1,,1845351,141,,evan-feature22,full_pf_a,,0
115,47112,142,,,,2,2,1.0,1.0,1.0,0.0,,0.0-144.0,,1.0,679.94,0.0,0.521564361,1.0,0.731078632,1.0,0.6774886809999999,1.0,0.483263956,False,,5f73ad2ae06cde12229564f1,,1855801,142,,evan-feature22,full_pf_a,,0
116,47113,143,,,,2,2,0.0,1.0,1.0,0.0,,0.0-145.0,,0.0,652.39,0.0,0.558893102,1.0,0.719810023,0.0,0.67461031,1.0,0.499349834,False,,5f73ad2ae06cde12229564f1,,1866227,143,,evan-feature22,full_pf_a,,0
117,47114,144,,,,2,2,1.0,1.0,1.0,0.0,,0.0-146.0,,1.0,420.04,1.0,0.611031046,0.0,0.75,1.0,0.688072995,1.0,0.5321422729999999,False,,5f73ad2ae06cde12229564f1,,1876428,144,,evan-feature22,full_pf_a,,0
118,47115,145,,,,2,2,1.0,1.0,0.0,-1.0,,0.0-147.0,,-1.0,1295.155,0.0,0.633223941,0.0,0.713567728,1.0,0.75,1.0,0.48185314700000004,False,,5f73ad2ae06cde12229564f1,,1887494,145,,evan-feature22,full_pf_a,,0
119,47116,146,,,,2,2,0.0,1.0,1.0,0.0,,0.0-148.0,,0.0,659.855,0.0,0.664001694,1.0,0.705509768,0.0,0.75,1.0,0.500211065,False,,5f73ad2ae06cde12229564f1,,1897940,146,,evan-feature22,full_pf_a,,0
120,47117,147,,,,2,2,1.0,1.0,1.0,0.0,,0.0-149.0,,1.0,471.74,1.0,0.664001694,0.0,0.705509768,1.0,0.75,1.0,0.500211065,False,,5f73ad2ae06cde12229564f1,,1908198,147,,evan-feature22,full_pf_a,,0
121,47118,148,,,,2,2,1.0,1.0,1.0,0.0,,0.0-150.0,,1.0,586.28,1.0,0.696508041,0.0,0.71066027,1.0,0.717028709,1.0,0.49792991,False,,5f73ad2ae06cde12229564f1,,1918575,148,,evan-feature22,full_pf_a,,0
122,47119,149,,,,2,2,0.0,1.0,0.0,-1.0,,0.0-151.0,,-1.0,528.42,1.0,0.699883272,1.0,0.75,0.0,0.713543895,1.0,0.496962643,False,,5f73ad2ae06cde12229564f1,,1928892,149,,evan-feature22,full_pf_a,,0
123,47120,150,,,,2,2,1.0,0.0,0.0,-1.0,,0.0-152.0,,0.0,773.29,0.0,0.741163419,0.0,0.75,1.0,0.64691024,0.0,0.513858197,False,,5f73ad2ae06cde12229564f1,,1939443,150,,evan-feature22,full_pf_a,,0
124,47121,151,,,,2,2,1.0,0.0,0.0,-1.0,,0.0-153.0,,0.0,560.745,1.0,0.75,0.0,0.70816558,1.0,0.594499079,0.0,0.48502124,False,,5f73ad2ae06cde12229564f1,,1949776,151,,evan-feature22,full_pf_a,,0
125,47122,152,,,,2,2,1.0,0.0,1.0,0.0,,0.0-154.0,,1.0,751.755,1.0,0.75,1.0,0.721848901,1.0,0.62197249,0.0,0.48263586399999997,False,,5f73ad2ae06cde12229564f1,,1960308,152,,evan-feature22,full_pf_a,,0
126,47123,153,,,,2,2,1.0,0.0,1.0,0.0,,0.0-155.0,,1.0,449.68,1.0,0.75,1.0,0.74813071,1.0,0.584357161,0.0,0.411477782,False,,5f73ad2ae06cde12229564f1,,1970536,153,,evan-feature22,full_pf_a,,0
127,47124,154,,,,2,2,1.0,1.0,1.0,0.0,,0.0-156.0,,1.0,502.645,1.0,0.75,1.0,0.75,1.0,0.52287236,1.0,0.488290656,False,,5f73ad2ae06cde12229564f1,,1980821,154,,evan-feature22,full_pf_a,,0
128,47125,155,,,,2,2,1.0,0.0,1.0,0.0,,0.0-157.0,,1.0,684.25,0.0,0.75,1.0,0.75,1.0,0.544321581,0.0,0.53143059,False,,5f73ad2ae06cde12229564f1,,1991292,155,,evan-feature22,full_pf_a,,0
129,47126,156,,,,2,2,1.0,1.0,1.0,0.0,,0.0-158.0,,1.0,760.715,0.0,0.726754564,1.0,0.75,1.0,0.5129306370000001,1.0,0.530592445,False,,5f73ad2ae06cde12229564f1,,2001833,156,,evan-feature22,full_pf_a,,0
130,47127,157,,,,2,2,1.0,1.0,0.0,-1.0,,0.0-159.0,,-1.0,1083.045,0.0,0.75,1.0,0.7392590729999999,1.0,0.479875835,1.0,0.547007051,False,,5f73ad2ae06cde12229564f1,,2012704,157,,evan-feature22,full_pf_a,,0
131,47128,158,,,,2,2,1.0,0.0,0.0,-1.0,,0.0-160.0,,0.0,804.175,1.0,0.75,1.0,0.7393376979999999,1.0,0.546045419,0.0,0.541267353,False,,5f73ad2ae06cde12229564f1,,2023279,158,,evan-feature22,full_pf_a,,0
132,47129,159,,,,2,2,1.0,1.0,1.0,0.0,,0.0-161.0,,1.0,860.23,1.0,0.75,1.0,0.75,1.0,0.485725895,1.0,0.527625395,False,,5f73ad2ae06cde12229564f1,,2033926,159,,evan-feature22,full_pf_a,,0
133,47130,160,,,,2,2,0.0,1.0,0.0,-1.0,,0.0-162.0,,-1.0,837.9,0.0,0.75,1.0,0.725087974,0.0,0.488603595,1.0,0.504019206,False,,5f73ad2ae06cde12229564f1,,2044540,160,,evan-feature22,full_pf_a,,0
134,47131,161,,,,2,2,1.0,1.0,1.0,0.0,,0.0-163.0,,1.0,430.05,1.0,0.745504295,1.0,0.75,1.0,0.452379914,1.0,0.50131194,False,,5f73ad2ae06cde12229564f1,,2054748,161,,evan-feature22,full_pf_a,,0
135,47132,162,,,,2,2,1.0,0.0,0.0,-1.0,,0.0-164.0,,0.0,1063.29,1.0,0.728513874,1.0,0.75,1.0,0.44125567200000004,0.0,0.531454591,False,,5f73ad2ae06cde12229564f1,,2065596,162,,evan-feature22,full_pf_a,,0
136,47133,163,,,,2,2,0.0,0.0,1.0,0.0,,0.0-165.0,,0.0,841.925,1.0,0.73790804,1.0,0.75,0.0,0.413036656,0.0,0.524619035,False,,5f73ad2ae06cde12229564f1,,2076220,163,,evan-feature22,full_pf_a,,0
137,47134,164,,,,2,2,0.0,0.0,1.0,0.0,,0.0-166.0,,0.0,843.56,0.0,0.7080961309999999,1.0,0.708666865,0.0,0.431915581,0.0,0.481819489,False,,5f73ad2ae06cde12229564f1,,2086848,164,,evan-feature22,full_pf_a,,0
138,47135,165,,,,2,2,1.0,1.0,1.0,0.0,,0.0-167.0,,1.0,573.22,0.0,0.721378003,1.0,0.71605913,1.0,0.36642387,1.0,0.5036739929999999,False,,5f73ad2ae06cde12229564f1,,2097201,165,,evan-feature22,full_pf_a,,0
139,47136,166,,,,2,2,1.0,0.0,0.0,-1.0,,0.0-168.0,,0.0,1050.605,1.0,0.7340618959999999,0.0,0.699323252,1.0,0.35298046299999997,0.0,0.511241692,False,,5f73ad2ae06cde12229564f1,,2108034,166,,evan-feature22,full_pf_a,,0
140,47137,167,,,,2,2,0.0,0.0,0.0,-1.0,,0.0-169.0,,0.0,1317.925,0.0,0.75,1.0,0.70412698,0.0,0.380734814,0.0,0.529580116,False,,5f73ad2ae06cde12229564f1,,2119138,167,,evan-feature22,full_pf_a,,0
141,47138,168,,,,2,2,1.0,0.0,0.0,-1.0,,0.0-170.0,,0.0,557.78,1.0,0.7436654909999999,1.0,0.711182751,1.0,0.41125331,0.0,0.49554405,False,,5f73ad2ae06cde12229564f1,,2129475,168,,evan-feature22,full_pf_a,,0
142,47139,169,,,,2,2,0.0,0.0,1.0,0.0,,0.0-171.0,,0.0,1084.49,1.0,0.731607915,1.0,0.651774583,0.0,0.35688023,0.0,0.45194491600000003,False,,5f73ad2ae06cde12229564f1,,2140343,169,,evan-feature22,full_pf_a,,0
143,47140,170,,,,2,2,0.0,0.0,0.0,-1.0,,0.0-172.0,,0.0,786.475,0.0,0.75,0.0,0.75,0.0,0.283145374,0.0,0.528608005,False,,5f73ad2ae06cde12229564f1,,2150913,170,,evan-feature22,full_pf_a,,0
144,47141,171,,,,2,2,0.0,0.0,1.0,0.0,,0.0-173.0,,0.0,509.125,1.0,0.7491416890000001,0.0,0.7423785959999999,0.0,0.29135870399999997,0.0,0.498888318,False,,5f73ad2ae06cde12229564f1,,2161210,171,,evan-feature22,full_pf_a,,0
145,47142,172,,,,2,2,1.0,0.0,0.0,-1.0,,0.0-174.0,,0.0,700.815,0.0,0.708569387,1.0,0.717682277,1.0,0.294421699,0.0,0.493838163,False,,5f73ad2ae06cde12229564f1,,2171697,172,,evan-feature22,full_pf_a,,0
146,47143,173,,,,2,2,1.0,0.0,1.0,0.0,,0.0-175.0,,1.0,659.38,1.0,0.75,1.0,0.7383382159999999,1.0,0.356098707,0.0,0.442533405,False,,5f73ad2ae06cde12229564f1,,2182140,173,,evan-feature22,full_pf_a,,0
147,47144,174,,,,2,2,1.0,1.0,1.0,0.0,,0.0-176.0,,1.0,465.31,1.0,0.744527075,1.0,0.75,1.0,0.334127506,1.0,0.393165805,False,,5f73ad2ae06cde12229564f1,,2192387,174,,evan-feature22,full_pf_a,,0
148,47145,175,,,,2,2,0.0,0.0,1.0,0.0,,0.0-177.0,,0.0,987.105,1.0,0.75,1.0,0.75,0.0,0.33571021799999995,0.0,0.350393962,False,,5f73ad2ae06cde12229564f1,,2203154,175,,evan-feature22,full_pf_a,,0
149,47146,176,,,,2,2,1.0,0.0,0.0,-1.0,,0.0-178.0,,0.0,815.795,0.0,0.75,1.0,0.75,1.0,0.313628297,0.0,0.36349657399999996,False,,5f73ad2ae06cde12229564f1,,2213749,176,,evan-feature22,full_pf_a,,0
150,47147,177,,,,2,2,0.0,1.0,1.0,0.0,,0.0-179.0,,0.0,601.945,1.0,0.75,1.0,0.734284182,0.0,0.262667667,1.0,0.380199119,False,,5f73ad2ae06cde12229564f1,,2224129,177,,evan-feature22,full_pf_a,,0
151,47148,178,,,,1,1,1.0,0.0,1.0,0.0,,0.0-180.0,,1.0,820.29,1.0,0.75,0.0,0.75,0.0,0.25,0.0,0.394494013,False,,5f73ad2ae06cde12229564f1,,2234735,178,,evan-feature22,full_pf_a,,1
152,47149,179,,,,1,1,1.0,1.0,1.0,0.0,,0.0-181.0,,1.0,537.155,1.0,0.722298145,1.0,0.7357822340000001,0.0,0.25,0.0,0.319142121,False,,5f73ad2ae06cde12229564f1,,2245054,179,,evan-feature22,full_pf_a,,0
153,47150,180,,,,1,1,0.0,1.0,1.0,0.0,,0.0-182.0,,0.0,641.105,0.0,0.73149275,1.0,0.724276446,0.0,0.305856907,0.0,0.281315057,False,,5f73ad2ae06cde12229564f1,,2255468,180,,evan-feature22,full_pf_a,,0
154,47151,181,,,,1,1,0.0,1.0,1.0,0.0,,0.0-183.0,,0.0,867.51,0.0,0.7458732690000001,1.0,0.7336382459999999,1.0,0.272571964,0.0,0.266021999,False,,5f73ad2ae06cde12229564f1,,2266114,181,,evan-feature22,full_pf_a,,0
155,47152,182,,,,2,2,0.0,1.0,0.0,-1.0,,0.0-184.0,,-1.0,878.62,1.0,0.705579037,1.0,0.720778292,0.0,0.320238144,1.0,0.30971744,False,,5f73ad2ae06cde12229564f1,,2276779,182,,evan-feature22,full_pf_a,,1
156,47153,183,,,,2,2,0.0,1.0,0.0,-1.0,,0.0-185.0,,-1.0,1560.17,0.0,0.700425648,0.0,0.7198784009999999,0.0,0.272590393,1.0,0.304182931,False,,5f73ad2ae06cde12229564f1,,2288124,183,,evan-feature22,full_pf_a,,0
157,47154,184,,,,2,2,1.0,0.0,0.0,-1.0,,0.0-186.0,,0.0,483.88,0.0,0.735590785,1.0,0.722714973,1.0,0.25,0.0,0.323421091,False,,5f73ad2ae06cde12229564f1,,2298392,184,,evan-feature22,full_pf_a,,0
158,47155,185,,,,2,2,0.0,0.0,0.0,-1.0,,0.0-187.0,,0.0,1643.075,1.0,0.724807662,0.0,0.63146213,0.0,0.36836492600000004,0.0,0.34592153299999995,False,,5f73ad2ae06cde12229564f1,,2309819,185,,evan-feature22,full_pf_a,,0
159,47156,186,,,,1,1,0.0,1.0,1.0,0.0,,0.0-188.0,,0.0,1076.825,0.0,0.7352796909999999,1.0,0.555111392,1.0,0.36003922,1.0,0.31433779999999995,False,,5f73ad2ae06cde12229564f1,,2320674,186,,evan-feature22,full_pf_a,,1
160,47157,187,notice,,,,,,,,,,0.0-189.0,"{""Q0"":""the first had more black""}",,19191.0,,,,,,,,,False,,5f73ad2ae06cde12229564f1,,2339867,187,Q,survey-text,full_pf_a,,1
161,47158,188,track1,,[0],,,,,,,,0.0-190.0,"{""Q0"":""yes""}",,3805.0,,,,,,,,,False,,5f73ad2ae06cde12229564f1,,2343677,188,Q,evan-quiz,full_pf_a,,1
162,47159,189,track2,,[0],,,,,,,,0.0-191.0,"{""Q0"":""yes""}",,6022.0,,,,,,,,,False,,5f73ad2ae06cde12229564f1,,2349707,189,Q,evan-quiz,full_pf_a,,1
163,47160,190,strat,,,,,,,,,,0.0-192.0,"{""Q0"":""Figure out how to avoid the black aliens and then find the yellow""}",,21086.0,,,,,,,,,False,,5f73ad2ae06cde12229564f1,,2370802,190,Q,survey-text,full_pf_a,,1
