,index,Unnamed: 0,Q_name,button_pressed,choice_idxs,chosen_pos,chosen_state,chosen_state_f_1_outcome,chosen_state_f_2_outcome,f_1_reward,f_2_reward,incor_questions,internal_node_id,responses,reward_received,rt,s_1_f_1_outcome,s_1_f_1_prob,s_1_f_2_outcome,s_1_f_2_prob,s_2_f_1_outcome,s_2_f_1_prob,s_2_f_2_outcome,s_2_f_2_prob,safe_first,stimulus,subjectID,success,time_elapsed,trial_index,trial_num,trial_type,version,view_history,switching
0,9939,30,,,,1,1,0.0,1.0,0.0,1.0,,0.0-27.0,,1.0,1137.085,0.0,0.6,1.0,0.6,1.0,0.4,1.0,0.4,True,,5a6b6b34d5d4cb0001d64b8f,,417815,30,,evan-feature22,full_rf_b,,0
1,9940,31,,,,1,1,1.0,1.0,0.0,1.0,,0.0-28.0,,1.0,977.05,1.0,0.608053294,1.0,0.63424552,1.0,0.397152172,0.0,0.347069101,True,,5a6b6b34d5d4cb0001d64b8f,,428561,31,,evan-feature22,full_rf_b,,0
2,9941,32,,,,2,2,1.0,0.0,0.0,1.0,,0.0-29.0,,0.0,1330.885,1.0,0.642237155,1.0,0.648566321,1.0,0.389407674,0.0,0.285525717,True,,5a6b6b34d5d4cb0001d64b8f,,439657,32,,evan-feature22,full_rf_b,,1
3,9942,33,,,,1,1,1.0,0.0,0.0,1.0,,0.0-30.0,,0.0,937.98,1.0,0.661086576,0.0,0.630492543,0.0,0.399058924,0.0,0.25,True,,5a6b6b34d5d4cb0001d64b8f,,450357,33,,evan-feature22,full_rf_b,,1
4,9943,34,,,,1,1,0.0,0.0,0.0,1.0,,0.0-31.0,,0.0,1024.095,0.0,0.631324137,0.0,0.6269842929999999,1.0,0.38734784299999997,1.0,0.25,True,,5a6b6b34d5d4cb0001d64b8f,,461146,34,,evan-feature22,full_rf_b,,0
5,9944,35,,,,2,2,0.0,0.0,0.0,1.0,,0.0-32.0,,0.0,661.23,0.0,0.6381991370000001,1.0,0.68987999,0.0,0.384107265,0.0,0.271332943,True,,5a6b6b34d5d4cb0001d64b8f,,471569,35,,evan-feature22,full_rf_b,,1
6,9945,36,,,,2,2,0.0,0.0,0.0,1.0,,0.0-33.0,,0.0,749.605,0.0,0.66034901,1.0,0.742641349,0.0,0.360225629,0.0,0.25,True,,5a6b6b34d5d4cb0001d64b8f,,482084,36,,evan-feature22,full_rf_b,,0
7,9946,37,,,,1,1,1.0,1.0,-1.0,0.0,,0.0-34.0,,-1.0,1382.35,1.0,0.638612418,1.0,0.75,0.0,0.367273939,1.0,0.25,True,,5a6b6b34d5d4cb0001d64b8f,,493230,37,,evan-feature22,full_rf_b,,1
8,9947,38,,,,1,1,1.0,1.0,0.0,1.0,,0.0-35.0,,1.0,1118.2,1.0,0.624340629,1.0,0.75,0.0,0.425829545,1.0,0.25,True,,5a6b6b34d5d4cb0001d64b8f,,504117,38,,evan-feature22,full_rf_b,,0
9,9948,39,,,,1,1,1.0,1.0,0.0,1.0,,0.0-36.0,,1.0,1273.07,1.0,0.621999804,1.0,0.75,1.0,0.368609357,0.0,0.25,True,,5a6b6b34d5d4cb0001d64b8f,,515159,39,,evan-feature22,full_rf_b,,0
10,9949,40,,,,1,1,0.0,0.0,-1.0,0.0,,0.0-37.0,,0.0,1789.98,0.0,0.62666403,0.0,0.75,0.0,0.311151498,0.0,0.25,True,,5a6b6b34d5d4cb0001d64b8f,,526713,40,,evan-feature22,full_rf_b,,0
11,9950,41,,,,1,1,1.0,0.0,-1.0,0.0,,0.0-38.0,,-1.0,1324.31,1.0,0.6819650009999999,0.0,0.75,1.0,0.310763048,0.0,0.25,True,,5a6b6b34d5d4cb0001d64b8f,,537804,41,,evan-feature22,full_rf_b,,0
12,9951,42,,,,2,2,0.0,0.0,0.0,1.0,,0.0-39.0,,0.0,1238.33,1.0,0.740626951,1.0,0.75,0.0,0.25,0.0,0.25,True,,5a6b6b34d5d4cb0001d64b8f,,548808,42,,evan-feature22,full_rf_b,,1
13,9952,43,,,,1,1,1.0,1.0,0.0,1.0,,0.0-40.0,,1.0,1577.07,1.0,0.739599242,1.0,0.742034978,1.0,0.25397114600000004,0.0,0.25,True,,5a6b6b34d5d4cb0001d64b8f,,560153,43,,evan-feature22,full_rf_b,,1
14,9953,44,,,,1,1,0.0,0.0,0.0,1.0,,0.0-41.0,,0.0,1161.06,0.0,0.732341315,0.0,0.72735643,0.0,0.25,0.0,0.25,True,,5a6b6b34d5d4cb0001d64b8f,,571078,44,,evan-feature22,full_rf_b,,0
15,9954,45,,,,1,1,1.0,1.0,0.0,1.0,,0.0-42.0,,1.0,1232.48,1.0,0.7062287770000001,1.0,0.75,0.0,0.29002151,0.0,0.288256649,True,,5a6b6b34d5d4cb0001d64b8f,,582077,45,,evan-feature22,full_rf_b,,0
16,9955,46,,,,1,1,0.0,1.0,-1.0,0.0,,0.0-43.0,,0.0,1555.25,0.0,0.7086029209999999,1.0,0.75,0.0,0.274129113,0.0,0.262851608,True,,5a6b6b34d5d4cb0001d64b8f,,593396,46,,evan-feature22,full_rf_b,,0
17,9956,47,,,,1,1,0.0,1.0,0.0,1.0,,0.0-44.0,,1.0,1281.93,0.0,0.669189651,1.0,0.727614338,0.0,0.298444036,0.0,0.296944518,True,,5a6b6b34d5d4cb0001d64b8f,,604444,47,,evan-feature22,full_rf_b,,0
18,9957,48,,,,1,1,1.0,1.0,-1.0,0.0,,0.0-45.0,,-1.0,1415.265,1.0,0.6819912929999999,1.0,0.7179434290000001,1.0,0.265003961,1.0,0.28157921199999997,True,,5a6b6b34d5d4cb0001d64b8f,,615628,48,,evan-feature22,full_rf_b,,0
19,9958,49,,,,2,2,1.0,1.0,-1.0,0.0,,0.0-46.0,,-1.0,909.245,0.0,0.665275002,0.0,0.723065271,1.0,0.260414971,1.0,0.30973870000000003,True,,5a6b6b34d5d4cb0001d64b8f,,626306,49,,evan-feature22,full_rf_b,,1
20,9959,50,,,,1,1,0.0,1.0,0.0,1.0,,0.0-47.0,,1.0,1126.865,0.0,0.6660593260000001,1.0,0.728032907,0.0,0.30922817,1.0,0.338778608,True,,5a6b6b34d5d4cb0001d64b8f,,637198,50,,evan-feature22,full_rf_b,,1
21,9960,51,,,,2,2,0.0,0.0,0.0,1.0,,0.0-48.0,,0.0,936.785,0.0,0.702068785,0.0,0.6528750879999999,0.0,0.287329608,0.0,0.35789613200000003,True,,5a6b6b34d5d4cb0001d64b8f,,647899,51,,evan-feature22,full_rf_b,,1
22,9961,52,,,,1,1,1.0,0.0,0.0,1.0,,0.0-49.0,,0.0,643.41,1.0,0.651939787,0.0,0.636725589,1.0,0.284834488,0.0,0.358563756,True,,5a6b6b34d5d4cb0001d64b8f,,658307,52,,evan-feature22,full_rf_b,,1
23,9962,53,,,,2,2,1.0,0.0,0.0,1.0,,0.0-50.0,,0.0,815.655,1.0,0.67573929,0.0,0.612550049,1.0,0.37130387600000003,0.0,0.383542402,True,,5a6b6b34d5d4cb0001d64b8f,,668886,53,,evan-feature22,full_rf_b,,1
24,9963,54,,,,1,1,0.0,1.0,0.0,1.0,,0.0-51.0,,1.0,563.71,0.0,0.620753801,1.0,0.60513644,0.0,0.385529434,1.0,0.340361743,True,,5a6b6b34d5d4cb0001d64b8f,,679218,54,,evan-feature22,full_rf_b,,1
25,9964,55,,,,1,1,1.0,1.0,-1.0,0.0,,0.0-52.0,,-1.0,938.2,1.0,0.673564893,1.0,0.672437924,0.0,0.292955382,1.0,0.337633795,True,,5a6b6b34d5d4cb0001d64b8f,,689925,55,,evan-feature22,full_rf_b,,0
26,9965,56,,,,2,2,0.0,1.0,0.0,1.0,,0.0-53.0,,1.0,753.775,1.0,0.6749427,1.0,0.724197502,0.0,0.32391132100000003,1.0,0.350995264,True,,5a6b6b34d5d4cb0001d64b8f,,700443,56,,evan-feature22,full_rf_b,,1
27,9966,57,,,,2,2,0.0,0.0,0.0,1.0,,0.0-54.0,,0.0,994.27,1.0,0.6940159379999999,1.0,0.75,0.0,0.31710554399999996,0.0,0.413450341,True,,5a6b6b34d5d4cb0001d64b8f,,711203,57,,evan-feature22,full_rf_b,,0
28,9967,58,,,,1,1,1.0,1.0,0.0,1.0,,0.0-55.0,,1.0,339.355,1.0,0.6916018270000001,1.0,0.69001187,0.0,0.261817804,1.0,0.40038635,True,,5a6b6b34d5d4cb0001d64b8f,,721310,58,,evan-feature22,full_rf_b,,1
29,9968,59,,,,2,2,0.0,0.0,0.0,1.0,,0.0-56.0,,0.0,1267.555,1.0,0.641061544,1.0,0.71337992,0.0,0.277296461,0.0,0.47372791700000005,True,,5a6b6b34d5d4cb0001d64b8f,,732341,59,,evan-feature22,full_rf_b,,1
30,9969,60,,,,2,2,0.0,1.0,0.0,1.0,,0.0-57.0,,1.0,767.35,0.0,0.6082438520000001,1.0,0.708471106,0.0,0.28745137,1.0,0.564174476,True,,5a6b6b34d5d4cb0001d64b8f,,742876,60,,evan-feature22,full_rf_b,,0
31,9970,61,,,,2,2,0.0,1.0,-1.0,0.0,,0.0-58.0,,0.0,1282.615,1.0,0.6051112120000001,1.0,0.7118147229999999,0.0,0.272390611,1.0,0.5595149939999999,True,,5a6b6b34d5d4cb0001d64b8f,,753927,61,,evan-feature22,full_rf_b,,0
32,9971,62,,,,1,1,1.0,0.0,-1.0,0.0,,0.0-59.0,,-1.0,321.98,1.0,0.582420852,0.0,0.635867583,0.0,0.31089574,1.0,0.5227206520000001,True,,5a6b6b34d5d4cb0001d64b8f,,764017,62,,evan-feature22,full_rf_b,,1
33,9972,63,,,,2,2,0.0,0.0,-1.0,0.0,,0.0-60.0,,0.0,815.49,1.0,0.623195575,1.0,0.655026044,0.0,0.25,0.0,0.560387538,True,,5a6b6b34d5d4cb0001d64b8f,,774594,63,,evan-feature22,full_rf_b,,1
34,9973,64,,,,1,1,0.0,1.0,0.0,1.0,,0.0-61.0,,1.0,459.305,0.0,0.601889598,1.0,0.678198724,0.0,0.25,0.0,0.559922936,True,,5a6b6b34d5d4cb0001d64b8f,,784817,64,,evan-feature22,full_rf_b,,1
35,9974,65,,,,1,1,1.0,0.0,-1.0,0.0,,0.0-62.0,,-1.0,636.635,1.0,0.601259914,0.0,0.704681482,1.0,0.33908969299999997,0.0,0.505003715,True,,5a6b6b34d5d4cb0001d64b8f,,795218,65,,evan-feature22,full_rf_b,,0
36,9975,66,,,,1,1,1.0,0.0,-1.0,0.0,,0.0-63.0,,-1.0,924.3,1.0,0.59645454,0.0,0.710437172,0.0,0.327441879,0.0,0.391749613,True,,5a6b6b34d5d4cb0001d64b8f,,805908,66,,evan-feature22,full_rf_b,,0
37,9976,67,,,,2,2,0.0,0.0,0.0,1.0,,0.0-64.0,,0.0,664.11,1.0,0.529473,1.0,0.636758527,0.0,0.301338063,0.0,0.365661481,True,,5a6b6b34d5d4cb0001d64b8f,,816339,67,,evan-feature22,full_rf_b,,1
38,9977,68,,,,1,1,1.0,1.0,-1.0,0.0,,0.0-65.0,,-1.0,638.785,1.0,0.541657162,1.0,0.634541962,0.0,0.343535366,0.0,0.371763742,True,,5a6b6b34d5d4cb0001d64b8f,,826744,68,,evan-feature22,full_rf_b,,1
39,9978,69,,,,2,2,0.0,1.0,-1.0,0.0,,0.0-66.0,,0.0,324.295,0.0,0.5707533260000001,1.0,0.589121171,0.0,0.326428396,1.0,0.43961622899999997,True,,5a6b6b34d5d4cb0001d64b8f,,836837,69,,evan-feature22,full_rf_b,,1
40,9979,70,,,,1,1,0.0,0.0,0.0,1.0,,0.0-67.0,,0.0,375.92,0.0,0.5707533260000001,0.0,0.589121171,1.0,0.326428396,0.0,0.43961622899999997,True,,5a6b6b34d5d4cb0001d64b8f,,846977,70,,evan-feature22,full_rf_b,,1
41,9980,71,,,,2,2,0.0,1.0,0.0,1.0,,0.0-68.0,,1.0,738.685,1.0,0.506271295,0.0,0.641775594,0.0,0.37149690700000004,1.0,0.404330166,True,,5a6b6b34d5d4cb0001d64b8f,,857479,71,,evan-feature22,full_rf_b,,1
42,9981,72,,,,1,1,0.0,1.0,-1.0,0.0,,0.0-69.0,,0.0,571.99,0.0,0.455642565,1.0,0.623605825,0.0,0.358753011,1.0,0.346174041,True,,5a6b6b34d5d4cb0001d64b8f,,867819,72,,evan-feature22,full_rf_b,,1
43,9982,73,,,,2,2,0.0,0.0,0.0,1.0,,0.0-70.0,,0.0,989.615,1.0,0.483677308,0.0,0.5904681070000001,0.0,0.402218411,0.0,0.35344697,True,,5a6b6b34d5d4cb0001d64b8f,,878572,73,,evan-feature22,full_rf_b,,1
44,9983,74,,,,1,1,0.0,0.0,-1.0,0.0,,0.0-71.0,,0.0,575.95,0.0,0.394210977,0.0,0.558925494,1.0,0.540052017,0.0,0.35182128700000004,True,,5a6b6b34d5d4cb0001d64b8f,,888914,74,,evan-feature22,full_rf_b,,1
45,9984,75,,,,1,1,1.0,1.0,0.0,1.0,,0.0-72.0,,1.0,884.42,1.0,0.382300414,1.0,0.577670603,0.0,0.607608448,1.0,0.378261578,True,,5a6b6b34d5d4cb0001d64b8f,,899566,75,,evan-feature22,full_rf_b,,0
46,9985,76,,,,2,2,0.0,1.0,-1.0,0.0,,0.0-73.0,,0.0,769.495,0.0,0.357596762,1.0,0.5929076529999999,0.0,0.6579790010000001,1.0,0.401326777,True,,5a6b6b34d5d4cb0001d64b8f,,910102,76,,evan-feature22,full_rf_b,,1
47,9986,77,,,,1,1,1.0,1.0,0.0,1.0,,0.0-74.0,,1.0,1462.725,1.0,0.362033495,1.0,0.582308608,1.0,0.649195052,0.0,0.355158505,True,,5a6b6b34d5d4cb0001d64b8f,,921331,77,,evan-feature22,full_rf_b,,1
48,9987,78,,,,1,1,1.0,1.0,0.0,1.0,,0.0-75.0,,1.0,1011.925,1.0,0.369620635,1.0,0.669100864,1.0,0.706059111,1.0,0.362516241,True,,5a6b6b34d5d4cb0001d64b8f,,932113,78,,evan-feature22,full_rf_b,,0
49,9988,79,,,,1,1,0.0,0.0,0.0,1.0,,0.0-76.0,,0.0,1082.025,0.0,0.41477751399999996,0.0,0.7284416779999999,0.0,0.7182656940000001,0.0,0.36228040899999997,True,,5a6b6b34d5d4cb0001d64b8f,,942961,79,,evan-feature22,full_rf_b,,0
50,9989,80,,,,1,1,1.0,1.0,-1.0,0.0,,0.0-77.0,,-1.0,1329.55,1.0,0.37675460299999997,1.0,0.703250285,0.0,0.75,0.0,0.461979164,True,,5a6b6b34d5d4cb0001d64b8f,,954057,80,,evan-feature22,full_rf_b,,0
51,9990,81,,,,2,2,1.0,0.0,-1.0,0.0,,0.0-78.0,,-1.0,1112.625,0.0,0.398716075,1.0,0.6723864890000001,1.0,0.674153818,0.0,0.519029516,True,,5a6b6b34d5d4cb0001d64b8f,,964938,81,,evan-feature22,full_rf_b,,1
52,9991,82,,,,1,1,1.0,1.0,-1.0,0.0,,0.0-79.0,,-1.0,513.75,1.0,0.34677856700000004,1.0,0.69057175,1.0,0.6822438540000001,0.0,0.477292237,True,,5a6b6b34d5d4cb0001d64b8f,,975217,82,,evan-feature22,full_rf_b,,1
53,9992,83,,,,1,1,0.0,1.0,0.0,1.0,,0.0-80.0,,1.0,462.075,0.0,0.28580469199999997,1.0,0.68408818,1.0,0.684207565,1.0,0.49780448299999996,True,,5a6b6b34d5d4cb0001d64b8f,,985441,83,,evan-feature22,full_rf_b,,0
54,9994,85,,,,2,2,1.0,0.0,0.0,1.0,,0.0-82.0,,0.0,1497.2,0.0,0.25,0.0,0.7405808970000001,1.0,0.679614108,0.0,0.436436964,True,,5a6b6b34d5d4cb0001d64b8f,,1000103,85,,evan-feature22,full_rf_b,,1
55,9995,86,,,,2,2,1.0,1.0,0.0,1.0,,0.0-83.0,,1.0,834.41,0.0,0.29890393,0.0,0.730505706,1.0,0.7328203320000001,1.0,0.439256938,True,,5a6b6b34d5d4cb0001d64b8f,,1010701,86,,evan-feature22,full_rf_b,,0
56,9996,87,,,,2,2,1.0,1.0,-1.0,0.0,,0.0-84.0,,-1.0,1367.685,0.0,0.326762398,0.0,0.7148059609999999,1.0,0.75,1.0,0.44389608799999997,True,,5a6b6b34d5d4cb0001d64b8f,,1021837,87,,evan-feature22,full_rf_b,,0
57,9997,88,,,,1,1,1.0,1.0,0.0,1.0,,0.0-85.0,,1.0,200.635,1.0,0.295168515,1.0,0.739760854,1.0,0.719947008,0.0,0.35277284600000003,True,,5a6b6b34d5d4cb0001d64b8f,,1031803,88,,evan-feature22,full_rf_b,,1
58,9998,89,,,,1,1,0.0,1.0,0.0,1.0,,0.0-86.0,,1.0,1293.26,0.0,0.25,1.0,0.70781482,1.0,0.75,0.0,0.286095925,True,,5a6b6b34d5d4cb0001d64b8f,,1042867,89,,evan-feature22,full_rf_b,,0
59,9999,90,,,,1,1,1.0,1.0,0.0,1.0,,0.0-87.0,,1.0,731.815,1.0,0.25638190899999996,1.0,0.704088163,1.0,0.75,1.0,0.26872601399999996,True,,5a6b6b34d5d4cb0001d64b8f,,1053369,90,,evan-feature22,full_rf_b,,0
60,10000,91,,,,1,1,0.0,1.0,-1.0,0.0,,0.0-88.0,,0.0,1020.305,0.0,0.271581126,1.0,0.669760107,1.0,0.733896663,0.0,0.273244572,True,,5a6b6b34d5d4cb0001d64b8f,,1064152,91,,evan-feature22,full_rf_b,,0
61,10001,92,,,,2,2,1.0,0.0,0.0,1.0,,0.0-89.0,,0.0,255.105,0.0,0.257144401,1.0,0.600575706,1.0,0.74488122,0.0,0.25,True,,5a6b6b34d5d4cb0001d64b8f,,1074175,92,,evan-feature22,full_rf_b,,1
62,10002,93,,,,1,1,0.0,1.0,0.0,1.0,,0.0-90.0,,1.0,284.59,0.0,0.25,1.0,0.616870026,1.0,0.723610234,0.0,0.25,True,,5a6b6b34d5d4cb0001d64b8f,,1084221,93,,evan-feature22,full_rf_b,,1
63,10003,94,,,,2,2,0.0,0.0,-1.0,0.0,,0.0-91.0,,0.0,438.61,0.0,0.25,1.0,0.583540187,0.0,0.7041042559999999,0.0,0.285961995,True,,5a6b6b34d5d4cb0001d64b8f,,1094422,94,,evan-feature22,full_rf_b,,1
64,10004,95,,,,1,1,1.0,1.0,-1.0,0.0,,0.0-92.0,,-1.0,455.345,1.0,0.27254536,1.0,0.53875765,1.0,0.693783448,0.0,0.284961652,True,,5a6b6b34d5d4cb0001d64b8f,,1104647,95,,evan-feature22,full_rf_b,,1
65,10005,96,,,,2,2,1.0,0.0,-1.0,0.0,,0.0-93.0,,-1.0,1496.455,0.0,0.25,1.0,0.548431252,1.0,0.734221895,0.0,0.279445214,True,,5a6b6b34d5d4cb0001d64b8f,,1115909,96,,evan-feature22,full_rf_b,,1
66,10006,97,,,,1,1,0.0,0.0,0.0,1.0,,0.0-94.0,,0.0,470.52,0.0,0.258640684,0.0,0.545878066,1.0,0.725245965,1.0,0.31487537,True,,5a6b6b34d5d4cb0001d64b8f,,1126144,97,,evan-feature22,full_rf_b,,1
67,10007,98,,,,2,2,0.0,0.0,0.0,1.0,,0.0-95.0,,0.0,316.605,0.0,0.251103711,1.0,0.5776290629999999,0.0,0.696320133,0.0,0.317831047,True,,5a6b6b34d5d4cb0001d64b8f,,1136223,98,,evan-feature22,full_rf_b,,1
68,10008,99,,,,1,1,1.0,1.0,0.0,1.0,,0.0-96.0,,1.0,487.55,1.0,0.276630292,1.0,0.617329858,1.0,0.73838088,1.0,0.261471582,True,,5a6b6b34d5d4cb0001d64b8f,,1146479,99,,evan-feature22,full_rf_b,,1
69,10009,100,,,,2,2,0.0,0.0,0.0,1.0,,0.0-97.0,,0.0,610.415,1.0,0.297716424,1.0,0.618863717,0.0,0.7402358259999999,0.0,0.262600834,True,,5a6b6b34d5d4cb0001d64b8f,,1156852,100,,evan-feature22,full_rf_b,,1
70,10010,101,,,,1,1,1.0,1.0,-1.0,0.0,,0.0-98.0,,-1.0,979.43,1.0,0.290935512,1.0,0.695370945,0.0,0.706570507,1.0,0.280030553,True,,5a6b6b34d5d4cb0001d64b8f,,1167599,101,,evan-feature22,full_rf_b,,1
71,10011,102,,,,2,2,1.0,0.0,0.0,1.0,,0.0-99.0,,0.0,507.13,0.0,0.25,0.0,0.6465277079999999,1.0,0.67766682,0.0,0.25,True,,5a6b6b34d5d4cb0001d64b8f,,1177873,102,,evan-feature22,full_rf_b,,1
72,10012,103,,,,1,1,1.0,0.0,-1.0,0.0,,0.0-100.0,,-1.0,1501.255,1.0,0.26463816,0.0,0.636100213,0.0,0.646048507,0.0,0.265607101,True,,5a6b6b34d5d4cb0001d64b8f,,1189140,103,,evan-feature22,full_rf_b,,1
73,10013,104,,,,1,1,0.0,1.0,-1.0,0.0,,0.0-101.0,,0.0,456.785,0.0,0.314340707,1.0,0.667795927,0.0,0.613630805,0.0,0.25,True,,5a6b6b34d5d4cb0001d64b8f,,1199361,104,,evan-feature22,full_rf_b,,0
74,10014,105,,,,2,2,1.0,1.0,0.0,1.0,,0.0-102.0,,1.0,417.465,1.0,0.28685784,1.0,0.6622549529999999,1.0,0.652154117,1.0,0.25,True,,5a6b6b34d5d4cb0001d64b8f,,1209546,105,,evan-feature22,full_rf_b,,1
75,10015,106,,,,1,1,1.0,1.0,0.0,1.0,,0.0-103.0,,1.0,613.06,1.0,0.304106554,1.0,0.631289538,1.0,0.707041942,0.0,0.29314237,True,,5a6b6b34d5d4cb0001d64b8f,,1219925,106,,evan-feature22,full_rf_b,,1
76,10016,107,,,,1,1,0.0,0.0,0.0,1.0,,0.0-104.0,,0.0,1042.45,0.0,0.304806932,0.0,0.571167718,1.0,0.680472346,1.0,0.25,True,,5a6b6b34d5d4cb0001d64b8f,,1230732,107,,evan-feature22,full_rf_b,,0
77,10017,108,,,,1,1,1.0,1.0,0.0,1.0,,0.0-105.0,,1.0,1734.74,1.0,0.37919861,1.0,0.5724849710000001,0.0,0.705638003,0.0,0.30179300600000003,True,,5a6b6b34d5d4cb0001d64b8f,,1242232,108,,evan-feature22,full_rf_b,,0
78,10018,109,,,,1,1,1.0,0.0,0.0,1.0,,0.0-106.0,,0.0,1997.645,1.0,0.464277969,0.0,0.554034373,1.0,0.7372627340000001,0.0,0.264699741,True,,5a6b6b34d5d4cb0001d64b8f,,1253995,109,,evan-feature22,full_rf_b,,0
79,10019,110,,,,1,1,0.0,1.0,0.0,1.0,,0.0-107.0,,1.0,706.155,0.0,0.465104323,1.0,0.530793115,1.0,0.75,1.0,0.31683071,True,,5a6b6b34d5d4cb0001d64b8f,,1264471,110,,evan-feature22,full_rf_b,,0
80,10020,111,,,,2,2,1.0,1.0,-1.0,0.0,,0.0-108.0,,-1.0,477.52,0.0,0.465104323,0.0,0.530793115,1.0,0.75,1.0,0.31683071,True,,5a6b6b34d5d4cb0001d64b8f,,1274716,111,,evan-feature22,full_rf_b,,1
81,10021,112,,,,1,1,0.0,1.0,-1.0,0.0,,0.0-109.0,,0.0,826.135,0.0,0.46833986,1.0,0.570249239,1.0,0.7244472590000001,0.0,0.364114163,True,,5a6b6b34d5d4cb0001d64b8f,,1285313,112,,evan-feature22,full_rf_b,,1
82,10022,113,,,,1,1,0.0,1.0,-1.0,0.0,,0.0-110.0,,0.0,471.84,0.0,0.445444024,1.0,0.649673355,1.0,0.6845441290000001,1.0,0.300660449,True,,5a6b6b34d5d4cb0001d64b8f,,1295552,113,,evan-feature22,full_rf_b,,0
83,10023,114,,,,1,1,1.0,0.0,-1.0,0.0,,0.0-111.0,,-1.0,635.59,1.0,0.39909721299999995,0.0,0.6715179509999999,1.0,0.742310028,1.0,0.35496088299999995,True,,5a6b6b34d5d4cb0001d64b8f,,1305957,114,,evan-feature22,full_rf_b,,0
84,10024,115,,,,2,2,1.0,0.0,0.0,1.0,,0.0-112.0,,0.0,798.305,1.0,0.37956104799999996,0.0,0.694725302,1.0,0.7181651309999999,0.0,0.38726906299999997,True,,5a6b6b34d5d4cb0001d64b8f,,1316519,115,,evan-feature22,full_rf_b,,1
85,10025,116,,,,1,1,1.0,1.0,0.0,1.0,,0.0-113.0,,1.0,1503.53,1.0,0.404995034,1.0,0.724375412,1.0,0.6910946859999999,1.0,0.387187347,True,,5a6b6b34d5d4cb0001d64b8f,,1327793,116,,evan-feature22,full_rf_b,,1
86,10026,117,,,,1,1,1.0,0.0,-1.0,0.0,,0.0-114.0,,-1.0,2521.89,1.0,0.461740803,0.0,0.75,1.0,0.75,0.0,0.34872038200000005,True,,5a6b6b34d5d4cb0001d64b8f,,1340082,117,,evan-feature22,full_rf_b,,0
87,10027,118,,,,1,1,0.0,1.0,-1.0,0.0,,0.0-115.0,,0.0,323.03,0.0,0.43821380600000004,1.0,0.738833273,1.0,0.728286963,0.0,0.399538128,True,,5a6b6b34d5d4cb0001d64b8f,,1350170,118,,evan-feature22,full_rf_b,,0
88,10028,119,,,,1,1,1.0,1.0,0.0,1.0,,0.0-116.0,,1.0,772.405,1.0,0.41709882,1.0,0.736666736,0.0,0.75,0.0,0.389095584,True,,5a6b6b34d5d4cb0001d64b8f,,1360705,119,,evan-feature22,full_rf_b,,0
89,10029,120,,,,1,1,1.0,1.0,0.0,1.0,,0.0-117.0,,1.0,757.22,1.0,0.39749009799999996,1.0,0.744320029,1.0,0.75,0.0,0.363848678,True,,5a6b6b34d5d4cb0001d64b8f,,1371230,120,,evan-feature22,full_rf_b,,0
90,10030,121,,,,1,1,0.0,1.0,-1.0,0.0,,0.0-118.0,,0.0,1263.865,0.0,0.392653706,1.0,0.75,1.0,0.75,0.0,0.384386976,True,,5a6b6b34d5d4cb0001d64b8f,,1382257,121,,evan-feature22,full_rf_b,,0
91,10031,122,,,,1,1,0.0,1.0,0.0,1.0,,0.0-119.0,,1.0,556.375,0.0,0.31190902600000003,1.0,0.75,0.0,0.732413819,0.0,0.413082932,True,,5a6b6b34d5d4cb0001d64b8f,,1392583,122,,evan-feature22,full_rf_b,,0
92,10032,123,,,,2,2,1.0,0.0,-1.0,0.0,,0.0-120.0,,-1.0,1841.565,0.0,0.366917648,1.0,0.740073855,1.0,0.75,0.0,0.352861979,True,,5a6b6b34d5d4cb0001d64b8f,,1404189,123,,evan-feature22,full_rf_b,,1
93,10033,124,,,,1,1,0.0,1.0,-1.0,0.0,,0.0-121.0,,0.0,1456.46,0.0,0.3645172,1.0,0.721770713,1.0,0.75,1.0,0.404074511,True,,5a6b6b34d5d4cb0001d64b8f,,1415411,124,,evan-feature22,full_rf_b,,1
94,10034,125,,,,SLOW,SLOW,,,-1.0,0.0,,0.0-122.0,,-3.0,,1.0,0.35205600299999995,1.0,0.68983859,1.0,0.739735447,1.0,0.366895945,True,,5a6b6b34d5d4cb0001d64b8f,,1421220,125,,evan-feature22,full_rf_b,,1
95,10035,126,,,,1,1,0.0,1.0,-1.0,0.0,,0.0-123.0,,0.0,1835.92,0.0,0.40998722600000004,1.0,0.720859127,1.0,0.673854955,1.0,0.368528541,True,,5a6b6b34d5d4cb0001d64b8f,,1432820,126,,evan-feature22,full_rf_b,,1
96,10036,127,,,,1,1,0.0,1.0,-1.0,0.0,,0.0-124.0,,0.0,741.92,0.0,0.353625316,1.0,0.75,1.0,0.695605473,1.0,0.38303674200000004,True,,5a6b6b34d5d4cb0001d64b8f,,1443328,127,,evan-feature22,full_rf_b,,0
97,10037,128,,,,1,1,0.0,1.0,-1.0,0.0,,0.0-125.0,,0.0,547.915,0.0,0.359216989,1.0,0.75,1.0,0.6987915090000001,0.0,0.35169046200000004,True,,5a6b6b34d5d4cb0001d64b8f,,1453645,128,,evan-feature22,full_rf_b,,0
98,10038,129,,,,1,1,1.0,0.0,-1.0,0.0,,0.0-126.0,,-1.0,2164.225,1.0,0.35834496899999996,0.0,0.75,0.0,0.707067742,1.0,0.416763636,True,,5a6b6b34d5d4cb0001d64b8f,,1465573,129,,evan-feature22,full_rf_b,,0
99,10039,130,,,,1,1,1.0,1.0,0.0,1.0,,0.0-127.0,,1.0,2337.005,1.0,0.38741613799999997,1.0,0.7177369570000001,1.0,0.734902455,0.0,0.49438664299999996,True,,5a6b6b34d5d4cb0001d64b8f,,1477678,130,,evan-feature22,full_rf_b,,0
100,10040,131,,,,1,1,1.0,1.0,-1.0,0.0,,0.0-128.0,,-1.0,2123.97,1.0,0.405255252,1.0,0.7300466640000001,0.0,0.7027748070000001,1.0,0.504359668,True,,5a6b6b34d5d4cb0001d64b8f,,1489569,131,,evan-feature22,full_rf_b,,0
101,10041,132,,,,1,1,0.0,0.0,-1.0,0.0,,0.0-129.0,,0.0,1405.175,0.0,0.40697073,0.0,0.7260142190000001,1.0,0.724461982,0.0,0.522779179,True,,5a6b6b34d5d4cb0001d64b8f,,1500741,132,,evan-feature22,full_rf_b,,0
102,10042,133,,,,2,2,0.0,1.0,-1.0,0.0,,0.0-130.0,,0.0,2315.84,0.0,0.43906215299999996,1.0,0.7252802340000001,0.0,0.719079934,1.0,0.5712990579999999,True,,5a6b6b34d5d4cb0001d64b8f,,1512827,133,,evan-feature22,full_rf_b,,1
103,10043,134,,,,1,1,1.0,0.0,0.0,1.0,,0.0-131.0,,0.0,472.495,1.0,0.4076705,0.0,0.73280499,0.0,0.681313127,0.0,0.523891346,True,,5a6b6b34d5d4cb0001d64b8f,,1523062,134,,evan-feature22,full_rf_b,,1
104,10044,135,,,,2,2,1.0,0.0,0.0,1.0,,0.0-132.0,,0.0,338.385,0.0,0.399102911,1.0,0.730498344,1.0,0.661080239,0.0,0.46742603,True,,5a6b6b34d5d4cb0001d64b8f,,1533163,135,,evan-feature22,full_rf_b,,1
105,10045,136,,,,2,2,0.0,1.0,0.0,1.0,,0.0-133.0,,1.0,2476.015,0.0,0.356477282,0.0,0.712296395,0.0,0.641812684,1.0,0.44868414,True,,5a6b6b34d5d4cb0001d64b8f,,1545403,136,,evan-feature22,full_rf_b,,0
106,10046,137,,,,2,2,0.0,1.0,-1.0,0.0,,0.0-134.0,,0.0,791.535,1.0,0.462760722,0.0,0.692349322,0.0,0.700947931,1.0,0.394680266,True,,5a6b6b34d5d4cb0001d64b8f,,1555957,137,,evan-feature22,full_rf_b,,0
107,10047,138,,,,1,1,1.0,1.0,-1.0,0.0,,0.0-135.0,,-1.0,1054.58,1.0,0.422306413,1.0,0.718375916,1.0,0.706340917,1.0,0.367787185,True,,5a6b6b34d5d4cb0001d64b8f,,1566780,138,,evan-feature22,full_rf_b,,1
108,10049,140,,,,2,2,1.0,0.0,-1.0,0.0,,0.0-137.0,,-1.0,519.79,0.0,0.4582233,1.0,0.643834117,1.0,0.75,0.0,0.39615823299999997,True,,5a6b6b34d5d4cb0001d64b8f,,1719586,140,,evan-feature22,full_rf_b,,1
109,10050,141,,,,2,2,1.0,0.0,-1.0,0.0,,0.0-138.0,,-1.0,1456.855,0.0,0.43813437899999996,0.0,0.651283804,1.0,0.729674191,0.0,0.37711048,True,,5a6b6b34d5d4cb0001d64b8f,,1730810,141,,evan-feature22,full_rf_b,,0
110,10051,142,,,,2,2,1.0,0.0,-1.0,0.0,,0.0-139.0,,-1.0,686.505,1.0,0.471199094,0.0,0.6470010979999999,1.0,0.715008097,0.0,0.410656191,True,,5a6b6b34d5d4cb0001d64b8f,,1741266,142,,evan-feature22,full_rf_b,,0
111,10052,143,,,,1,1,1.0,1.0,-1.0,0.0,,0.0-140.0,,-1.0,275.675,1.0,0.42486406,1.0,0.629771829,1.0,0.6550939960000001,1.0,0.459093873,True,,5a6b6b34d5d4cb0001d64b8f,,1751315,143,,evan-feature22,full_rf_b,,1
112,10053,144,,,,1,1,1.0,0.0,-1.0,0.0,,0.0-141.0,,-1.0,331.81,1.0,0.4803197,0.0,0.645842715,1.0,0.6421749920000001,1.0,0.443092151,True,,5a6b6b34d5d4cb0001d64b8f,,1761411,144,,evan-feature22,full_rf_b,,0
113,10054,145,,,,2,2,1.0,1.0,0.0,1.0,,0.0-142.0,,1.0,401.995,0.0,0.521848997,1.0,0.735801074,1.0,0.6691348460000001,1.0,0.45259351600000003,True,,5a6b6b34d5d4cb0001d64b8f,,1771578,145,,evan-feature22,full_rf_b,,1
114,10055,146,,,,2,2,0.0,0.0,-1.0,0.0,,0.0-143.0,,0.0,1339.205,1.0,0.49565621299999996,0.0,0.742400847,0.0,0.661512553,0.0,0.483110831,True,,5a6b6b34d5d4cb0001d64b8f,,1782680,146,,evan-feature22,full_rf_b,,0
115,10056,147,,,,2,2,1.0,1.0,-1.0,0.0,,0.0-144.0,,-1.0,1421.225,0.0,0.521564361,1.0,0.731078632,1.0,0.6774886809999999,1.0,0.483263956,True,,5a6b6b34d5d4cb0001d64b8f,,1793867,147,,evan-feature22,full_rf_b,,0
116,10057,148,,,,2,2,0.0,1.0,-1.0,0.0,,0.0-145.0,,0.0,585.21,0.0,0.558893102,1.0,0.719810023,0.0,0.67461031,1.0,0.499349834,True,,5a6b6b34d5d4cb0001d64b8f,,1804217,148,,evan-feature22,full_rf_b,,0
117,10058,149,,,,1,1,1.0,1.0,-1.0,0.0,,0.0-146.0,,-1.0,411.115,1.0,0.611031046,1.0,0.75,0.0,0.688072995,1.0,0.5321422729999999,True,,5a6b6b34d5d4cb0001d64b8f,,1814396,149,,evan-feature22,full_rf_b,,1
118,10059,150,,,,1,1,0.0,0.0,0.0,1.0,,0.0-147.0,,0.0,323.965,0.0,0.633223941,0.0,0.713567728,1.0,0.75,1.0,0.48185314700000004,True,,5a6b6b34d5d4cb0001d64b8f,,1824482,150,,evan-feature22,full_rf_b,,0
119,10060,151,,,,2,2,1.0,0.0,-1.0,0.0,,0.0-148.0,,-1.0,772.35,0.0,0.664001694,0.0,0.705509768,1.0,0.75,0.0,0.500211065,True,,5a6b6b34d5d4cb0001d64b8f,,1835016,151,,evan-feature22,full_rf_b,,1
120,10061,152,,,,1,1,1.0,1.0,-1.0,0.0,,0.0-149.0,,-1.0,937.58,1.0,0.664001694,1.0,0.705509768,0.0,0.75,1.0,0.500211065,True,,5a6b6b34d5d4cb0001d64b8f,,1845721,152,,evan-feature22,full_rf_b,,1
121,10062,153,,,,2,2,1.0,0.0,-1.0,0.0,,0.0-150.0,,-1.0,1057.62,1.0,0.696508041,0.0,0.71066027,1.0,0.717028709,0.0,0.49792991,True,,5a6b6b34d5d4cb0001d64b8f,,1856546,153,,evan-feature22,full_rf_b,,1
122,10063,154,,,,1,1,1.0,1.0,0.0,1.0,,0.0-151.0,,1.0,1143.305,1.0,0.699883272,1.0,0.75,0.0,0.713543895,1.0,0.496962643,True,,5a6b6b34d5d4cb0001d64b8f,,1867457,154,,evan-feature22,full_rf_b,,1
123,10064,155,,,,2,2,1.0,1.0,0.0,1.0,,0.0-152.0,,1.0,1279.595,0.0,0.741163419,1.0,0.75,1.0,0.64691024,1.0,0.513858197,True,,5a6b6b34d5d4cb0001d64b8f,,1878506,155,,evan-feature22,full_rf_b,,1
124,10065,156,,,,1,1,1.0,1.0,0.0,1.0,,0.0-153.0,,1.0,1151.46,1.0,0.75,1.0,0.70816558,1.0,0.594499079,1.0,0.48502124,True,,5a6b6b34d5d4cb0001d64b8f,,1889429,156,,evan-feature22,full_rf_b,,1
125,10066,157,,,,2,2,0.0,1.0,-1.0,0.0,,0.0-154.0,,0.0,1280.405,1.0,0.75,1.0,0.721848901,0.0,0.62197249,1.0,0.48263586399999997,True,,5a6b6b34d5d4cb0001d64b8f,,1900474,157,,evan-feature22,full_rf_b,,1
126,10067,158,,,,1,1,1.0,1.0,-1.0,0.0,,0.0-155.0,,-1.0,1542.935,1.0,0.75,1.0,0.74813071,1.0,0.584357161,0.0,0.411477782,True,,5a6b6b34d5d4cb0001d64b8f,,1911783,158,,evan-feature22,full_rf_b,,1
127,10068,159,,,,2,2,0.0,0.0,-1.0,0.0,,0.0-156.0,,0.0,1183.77,0.0,0.75,1.0,0.75,0.0,0.52287236,0.0,0.488290656,True,,5a6b6b34d5d4cb0001d64b8f,,1922731,159,,evan-feature22,full_rf_b,,1
128,10069,160,,,,2,2,1.0,0.0,-1.0,0.0,,0.0-157.0,,-1.0,1011.96,1.0,0.75,1.0,0.75,1.0,0.544321581,0.0,0.53143059,True,,5a6b6b34d5d4cb0001d64b8f,,1933508,160,,evan-feature22,full_rf_b,,0
129,10070,161,,,,1,1,0.0,1.0,-1.0,0.0,,0.0-158.0,,0.0,623.19,0.0,0.726754564,1.0,0.75,1.0,0.5129306370000001,0.0,0.530592445,True,,5a6b6b34d5d4cb0001d64b8f,,1943897,161,,evan-feature22,full_rf_b,,1
130,10071,162,,,,2,2,1.0,0.0,0.0,1.0,,0.0-159.0,,0.0,754.68,1.0,0.75,1.0,0.7392590729999999,1.0,0.479875835,0.0,0.547007051,True,,5a6b6b34d5d4cb0001d64b8f,,1954421,162,,evan-feature22,full_rf_b,,1
131,10072,163,,,,1,1,1.0,1.0,0.0,1.0,,0.0-160.0,,1.0,423.595,1.0,0.75,1.0,0.7393376979999999,0.0,0.546045419,1.0,0.541267353,True,,5a6b6b34d5d4cb0001d64b8f,,1964622,163,,evan-feature22,full_rf_b,,1
132,10073,164,,,,2,2,1.0,1.0,-1.0,0.0,,0.0-161.0,,-1.0,1171.49,1.0,0.75,1.0,0.75,1.0,0.485725895,1.0,0.527625395,True,,5a6b6b34d5d4cb0001d64b8f,,1975561,164,,evan-feature22,full_rf_b,,1
133,10074,165,,,,2,2,1.0,1.0,0.0,1.0,,0.0-162.0,,1.0,1759.8,1.0,0.75,1.0,0.725087974,1.0,0.488603595,1.0,0.504019206,True,,5a6b6b34d5d4cb0001d64b8f,,1987089,165,,evan-feature22,full_rf_b,,0
134,10075,166,,,,2,2,1.0,1.0,-1.0,0.0,,0.0-163.0,,-1.0,1178.985,0.0,0.745504295,1.0,0.75,1.0,0.452379914,1.0,0.50131194,True,,5a6b6b34d5d4cb0001d64b8f,,1998036,166,,evan-feature22,full_rf_b,,0
135,10076,167,,,,1,1,1.0,0.0,0.0,1.0,,0.0-164.0,,0.0,879.28,1.0,0.728513874,0.0,0.75,0.0,0.44125567200000004,1.0,0.531454591,True,,5a6b6b34d5d4cb0001d64b8f,,2008679,167,,evan-feature22,full_rf_b,,1
136,10077,168,,,,2,2,0.0,1.0,-1.0,0.0,,0.0-165.0,,0.0,1045.97,0.0,0.73790804,1.0,0.75,0.0,0.413036656,1.0,0.524619035,True,,5a6b6b34d5d4cb0001d64b8f,,2019490,168,,evan-feature22,full_rf_b,,1
137,10078,169,,,,1,1,1.0,0.0,-1.0,0.0,,0.0-166.0,,-1.0,544.37,1.0,0.7080961309999999,0.0,0.708666865,1.0,0.431915581,1.0,0.481819489,True,,5a6b6b34d5d4cb0001d64b8f,,2029800,169,,evan-feature22,full_rf_b,,1
138,10079,170,,,,2,2,0.0,1.0,-1.0,0.0,,0.0-167.0,,0.0,302.0,0.0,0.721378003,0.0,0.71605913,0.0,0.36642387,1.0,0.5036739929999999,True,,5a6b6b34d5d4cb0001d64b8f,,2039868,170,,evan-feature22,full_rf_b,,1
139,10080,171,,,,1,1,1.0,1.0,0.0,1.0,,0.0-168.0,,1.0,1408.24,1.0,0.7340618959999999,1.0,0.699323252,0.0,0.35298046299999997,1.0,0.511241692,True,,5a6b6b34d5d4cb0001d64b8f,,2051043,171,,evan-feature22,full_rf_b,,1
140,10081,172,,,,2,2,1.0,1.0,0.0,1.0,,0.0-169.0,,1.0,603.22,1.0,0.75,0.0,0.70412698,1.0,0.380734814,1.0,0.529580116,True,,5a6b6b34d5d4cb0001d64b8f,,2061413,172,,evan-feature22,full_rf_b,,1
141,10082,173,,,,1,1,0.0,1.0,0.0,1.0,,0.0-170.0,,1.0,814.09,0.0,0.7436654909999999,1.0,0.711182751,0.0,0.41125331,0.0,0.49554405,True,,5a6b6b34d5d4cb0001d64b8f,,2071992,173,,evan-feature22,full_rf_b,,1
142,10083,174,,,,1,1,1.0,0.0,-1.0,0.0,,0.0-171.0,,-1.0,1098.205,1.0,0.731607915,0.0,0.651774583,0.0,0.35688023,1.0,0.45194491600000003,True,,5a6b6b34d5d4cb0001d64b8f,,2082859,174,,evan-feature22,full_rf_b,,0
143,10084,175,,,,2,2,1.0,0.0,0.0,1.0,,0.0-172.0,,0.0,782.395,1.0,0.75,1.0,0.75,1.0,0.283145374,0.0,0.528608005,True,,5a6b6b34d5d4cb0001d64b8f,,2093405,175,,evan-feature22,full_rf_b,,1
144,10085,176,,,,1,1,0.0,0.0,-1.0,0.0,,0.0-173.0,,0.0,737.07,0.0,0.7491416890000001,0.0,0.7423785959999999,0.0,0.29135870399999997,0.0,0.498888318,True,,5a6b6b34d5d4cb0001d64b8f,,2103903,176,,evan-feature22,full_rf_b,,1
145,10086,177,,,,2,2,0.0,1.0,0.0,1.0,,0.0-174.0,,1.0,1184.875,0.0,0.708569387,0.0,0.717682277,0.0,0.294421699,1.0,0.493838163,True,,5a6b6b34d5d4cb0001d64b8f,,2114852,177,,evan-feature22,full_rf_b,,1
146,10087,178,,,,1,1,1.0,1.0,-1.0,0.0,,0.0-175.0,,-1.0,480.515,1.0,0.75,1.0,0.7383382159999999,0.0,0.356098707,0.0,0.442533405,True,,5a6b6b34d5d4cb0001d64b8f,,2125097,178,,evan-feature22,full_rf_b,,1
147,10088,179,,,,2,2,1.0,0.0,-1.0,0.0,,0.0-176.0,,-1.0,959.695,1.0,0.744527075,1.0,0.75,1.0,0.334127506,0.0,0.393165805,True,,5a6b6b34d5d4cb0001d64b8f,,2135827,179,,evan-feature22,full_rf_b,,1
148,10089,180,,,,1,1,0.0,1.0,-1.0,0.0,,0.0-177.0,,0.0,944.9,0.0,0.75,1.0,0.75,0.0,0.33571021799999995,0.0,0.350393962,True,,5a6b6b34d5d4cb0001d64b8f,,2146533,180,,evan-feature22,full_rf_b,,1
149,10090,181,,,,2,2,1.0,1.0,0.0,1.0,,0.0-178.0,,1.0,2277.915,1.0,0.75,1.0,0.75,1.0,0.313628297,1.0,0.36349657399999996,True,,5a6b6b34d5d4cb0001d64b8f,,2158581,181,,evan-feature22,full_rf_b,,1
150,10091,182,,,,1,1,0.0,0.0,-1.0,0.0,,0.0-179.0,,0.0,789.785,0.0,0.75,0.0,0.734284182,0.0,0.262667667,1.0,0.380199119,True,,5a6b6b34d5d4cb0001d64b8f,,2169132,182,,evan-feature22,full_rf_b,,1
151,10092,183,,,,2,2,0.0,0.0,-1.0,0.0,,0.0-180.0,,0.0,270.74,1.0,0.75,1.0,0.75,0.0,0.25,0.0,0.394494013,True,,5a6b6b34d5d4cb0001d64b8f,,2179173,183,,evan-feature22,full_rf_b,,1
152,10093,184,,,,1,1,1.0,1.0,-1.0,0.0,,0.0-181.0,,-1.0,294.755,1.0,0.722298145,1.0,0.7357822340000001,1.0,0.25,0.0,0.319142121,True,,5a6b6b34d5d4cb0001d64b8f,,2189235,184,,evan-feature22,full_rf_b,,1
153,10094,185,,,,1,1,1.0,1.0,-1.0,0.0,,0.0-182.0,,-1.0,1029.21,1.0,0.73149275,1.0,0.724276446,0.0,0.305856907,0.0,0.281315057,True,,5a6b6b34d5d4cb0001d64b8f,,2200028,185,,evan-feature22,full_rf_b,,0
154,10095,186,,,,2,2,1.0,0.0,-1.0,0.0,,0.0-183.0,,-1.0,845.015,1.0,0.7458732690000001,1.0,0.7336382459999999,1.0,0.272571964,0.0,0.266021999,True,,5a6b6b34d5d4cb0001d64b8f,,2210634,186,,evan-feature22,full_rf_b,,1
155,10096,187,,,,1,1,1.0,1.0,0.0,1.0,,0.0-184.0,,1.0,474.03,1.0,0.705579037,1.0,0.720778292,0.0,0.320238144,0.0,0.30971744,True,,5a6b6b34d5d4cb0001d64b8f,,2220876,187,,evan-feature22,full_rf_b,,1
156,10097,188,,,,1,1,0.0,1.0,0.0,1.0,,0.0-185.0,,1.0,713.035,0.0,0.700425648,1.0,0.7198784009999999,0.0,0.272590393,1.0,0.304182931,True,,5a6b6b34d5d4cb0001d64b8f,,2231356,188,,evan-feature22,full_rf_b,,0
157,10098,189,,,,1,1,1.0,1.0,0.0,1.0,,0.0-186.0,,1.0,811.195,1.0,0.735590785,1.0,0.722714973,0.0,0.25,0.0,0.323421091,True,,5a6b6b34d5d4cb0001d64b8f,,2241934,189,,evan-feature22,full_rf_b,,0
158,10099,190,,,,1,1,0.0,1.0,0.0,1.0,,0.0-187.0,,1.0,700.875,0.0,0.724807662,1.0,0.63146213,1.0,0.36836492600000004,0.0,0.34592153299999995,True,,5a6b6b34d5d4cb0001d64b8f,,2252400,190,,evan-feature22,full_rf_b,,0
159,10100,191,,,,1,1,1.0,0.0,-1.0,0.0,,0.0-188.0,,-1.0,1319.445,1.0,0.7352796909999999,0.0,0.555111392,0.0,0.36003922,0.0,0.31433779999999995,True,,5a6b6b34d5d4cb0001d64b8f,,2263488,191,,evan-feature22,full_rf_b,,0
160,10101,192,notice,,,,,,,,,,0.0-189.0,"{""Q0"":""no""}",,13420.0,,,,,,,,,True,,5a6b6b34d5d4cb0001d64b8f,,2276910,192,Q,survey-text,full_rf_b,,1
161,10102,193,track1,,[1],,,,,,,,0.0-190.0,"{""Q0"":""no""}",,5635.0,,,,,,,,,True,,5a6b6b34d5d4cb0001d64b8f,,2282551,193,Q,evan-quiz,full_rf_b,,1
162,10103,194,track2,,[0],,,,,,,,0.0-191.0,"{""Q0"":""yes""}",,6060.0,,,,,,,,,True,,5a6b6b34d5d4cb0001d64b8f,,2288614,194,Q,evan-quiz,full_rf_b,,1
163,10104,195,strat,,,,,,,,,,0.0-192.0,"{""Q0"":""the one with the best score i kept choosing til i got it wrong""}",,25032.0,,,,,,,,,True,,5a6b6b34d5d4cb0001d64b8f,,2313650,195,Q,survey-text,full_rf_b,,1
