,index,Unnamed: 0,Q_name,button_pressed,choice_idxs,chosen_pos,chosen_state,chosen_state_f_1_outcome,chosen_state_f_2_outcome,f_1_reward,f_2_reward,incor_questions,internal_node_id,responses,reward_received,rt,s_1_f_1_outcome,s_1_f_1_prob,s_1_f_2_outcome,s_1_f_2_prob,s_2_f_1_outcome,s_2_f_1_prob,s_2_f_2_outcome,s_2_f_2_prob,safe_first,stimulus,subjectID,success,time_elapsed,trial_index,trial_num,trial_type,version,view_history,switching
0,44105,25,,,,2,2,1.0,0.0,0.0,-1.0,,0.0-27.0,,0.0,1838.15,1.0,0.6,1.0,0.6,1.0,0.4,0.0,0.4,False,,5810f69c7d3e6d0001df29a5,,624651,25,,evan-feature22,full_pf_a,,0
1,44106,26,,,,2,2,0.0,0.0,0.0,-1.0,,0.0-28.0,,0.0,623.125,0.0,0.608053294,0.0,0.63424552,0.0,0.397152172,0.0,0.347069101,False,,5810f69c7d3e6d0001df29a5,,635103,26,,evan-feature22,full_pf_a,,0
2,44107,27,,,,2,2,1.0,0.0,0.0,-1.0,,0.0-29.0,,0.0,843.595,0.0,0.642237155,1.0,0.648566321,1.0,0.389407674,0.0,0.285525717,False,,5810f69c7d3e6d0001df29a5,,645780,27,,evan-feature22,full_pf_a,,0
3,44108,28,,,,2,2,0.0,1.0,0.0,-1.0,,0.0-30.0,,-1.0,596.57,1.0,0.661086576,1.0,0.630492543,0.0,0.399058924,1.0,0.25,False,,5810f69c7d3e6d0001df29a5,,656201,28,,evan-feature22,full_pf_a,,0
4,44109,29,,,,2,2,1.0,0.0,0.0,-1.0,,0.0-31.0,,0.0,636.3,1.0,0.631324137,0.0,0.6269842929999999,1.0,0.38734784299999997,0.0,0.25,False,,5810f69c7d3e6d0001df29a5,,666676,29,,evan-feature22,full_pf_a,,0
5,44110,30,,,,2,2,0.0,1.0,0.0,-1.0,,0.0-32.0,,-1.0,1550.55,1.0,0.6381991370000001,1.0,0.68987999,0.0,0.384107265,1.0,0.271332943,False,,5810f69c7d3e6d0001df29a5,,678068,30,,evan-feature22,full_pf_a,,0
6,44111,31,,,,SLOW,SLOW,,,0.0,-1.0,,0.0-33.0,,-3.0,,1.0,0.66034901,1.0,0.742641349,1.0,0.360225629,0.0,0.25,False,,5810f69c7d3e6d0001df29a5,,683912,31,,evan-feature22,full_pf_a,,1
7,44112,32,,,,2,2,1.0,0.0,1.0,0.0,,0.0-34.0,,1.0,3497.985,0.0,0.638612418,0.0,0.75,1.0,0.367273939,0.0,0.25,False,,5810f69c7d3e6d0001df29a5,,697236,32,,evan-feature22,full_pf_a,,1
8,44113,33,,,,SLOW,SLOW,,,0.0,-1.0,,0.0-35.0,,-3.0,,1.0,0.624340629,1.0,0.75,0.0,0.425829545,1.0,0.25,False,,5810f69c7d3e6d0001df29a5,,703091,33,,evan-feature22,full_pf_a,,1
9,44114,34,,,,SLOW,SLOW,,,0.0,-1.0,,0.0-36.0,,-3.0,,0.0,0.621999804,1.0,0.75,0.0,0.368609357,1.0,0.25,False,,5810f69c7d3e6d0001df29a5,,708918,34,,evan-feature22,full_pf_a,,0
10,44115,35,,,,2,2,0.0,0.0,1.0,0.0,,0.0-37.0,,0.0,538.525,1.0,0.62666403,1.0,0.75,0.0,0.311151498,0.0,0.25,False,,5810f69c7d3e6d0001df29a5,,719298,35,,evan-feature22,full_pf_a,,1
11,44116,36,,,,2,2,1.0,1.0,1.0,0.0,,0.0-38.0,,1.0,485.015,1.0,0.6819650009999999,1.0,0.75,1.0,0.310763048,1.0,0.25,False,,5810f69c7d3e6d0001df29a5,,729632,36,,evan-feature22,full_pf_a,,0
12,44117,37,,,,2,2,0.0,1.0,0.0,-1.0,,0.0-39.0,,-1.0,404.4,0.0,0.740626951,1.0,0.75,0.0,0.25,1.0,0.25,False,,5810f69c7d3e6d0001df29a5,,739889,37,,evan-feature22,full_pf_a,,0
13,44118,38,,,,2,2,0.0,0.0,0.0,-1.0,,0.0-40.0,,0.0,877.75,1.0,0.739599242,1.0,0.742034978,0.0,0.25397114600000004,0.0,0.25,False,,5810f69c7d3e6d0001df29a5,,750596,38,,evan-feature22,full_pf_a,,0
14,44119,39,,,,2,2,0.0,1.0,0.0,-1.0,,0.0-41.0,,-1.0,719.945,1.0,0.732341315,1.0,0.72735643,0.0,0.25,1.0,0.25,False,,5810f69c7d3e6d0001df29a5,,761179,39,,evan-feature22,full_pf_a,,0
15,44120,40,,,,2,2,0.0,0.0,0.0,-1.0,,0.0-42.0,,0.0,994.86,1.0,0.7062287770000001,1.0,0.75,0.0,0.29002151,0.0,0.288256649,False,,5810f69c7d3e6d0001df29a5,,772026,40,,evan-feature22,full_pf_a,,0
16,44121,41,,,,2,2,0.0,0.0,1.0,0.0,,0.0-43.0,,0.0,603.2,1.0,0.7086029209999999,0.0,0.75,0.0,0.274129113,0.0,0.262851608,False,,5810f69c7d3e6d0001df29a5,,782446,41,,evan-feature22,full_pf_a,,0
17,44122,42,,,,2,2,1.0,0.0,0.0,-1.0,,0.0-44.0,,0.0,778.455,1.0,0.669189651,1.0,0.727614338,1.0,0.298444036,0.0,0.296944518,False,,5810f69c7d3e6d0001df29a5,,793043,42,,evan-feature22,full_pf_a,,0
18,44123,43,,,,2,2,0.0,0.0,1.0,0.0,,0.0-45.0,,0.0,227.01,1.0,0.6819912929999999,0.0,0.7179434290000001,0.0,0.265003961,0.0,0.28157921199999997,False,,5810f69c7d3e6d0001df29a5,,803138,43,,evan-feature22,full_pf_a,,0
19,44124,44,,,,2,2,1.0,0.0,1.0,0.0,,0.0-46.0,,1.0,1255.295,1.0,0.665275002,1.0,0.723065271,1.0,0.260414971,0.0,0.30973870000000003,False,,5810f69c7d3e6d0001df29a5,,814206,44,,evan-feature22,full_pf_a,,0
20,44125,45,,,,SLOW,SLOW,,,0.0,-1.0,,0.0-47.0,,-3.0,,1.0,0.6660593260000001,1.0,0.728032907,1.0,0.30922817,0.0,0.338778608,False,,5810f69c7d3e6d0001df29a5,,820062,45,,evan-feature22,full_pf_a,,1
21,44126,46,,,,SLOW,SLOW,,,0.0,-1.0,,0.0-48.0,,-3.0,,1.0,0.702068785,1.0,0.6528750879999999,0.0,0.287329608,0.0,0.35789613200000003,False,,5810f69c7d3e6d0001df29a5,,825917,46,,evan-feature22,full_pf_a,,0
22,44127,47,,,,SLOW,SLOW,,,0.0,-1.0,,0.0-49.0,,-3.0,,0.0,0.651939787,0.0,0.636725589,0.0,0.284834488,1.0,0.358563756,False,,5810f69c7d3e6d0001df29a5,,831743,47,,evan-feature22,full_pf_a,,0
23,44128,48,,,,1,1,1.0,1.0,0.0,-1.0,,0.0-50.0,,-1.0,895.04,1.0,0.67573929,1.0,0.612550049,0.0,0.37130387600000003,1.0,0.383542402,False,,5810f69c7d3e6d0001df29a5,,842483,48,,evan-feature22,full_pf_a,,1
24,44129,49,,,,2,2,0.0,1.0,0.0,-1.0,,0.0-51.0,,-1.0,621.795,1.0,0.620753801,0.0,0.60513644,0.0,0.385529434,1.0,0.340361743,False,,5810f69c7d3e6d0001df29a5,,852947,49,,evan-feature22,full_pf_a,,1
25,44130,50,,,,1,1,1.0,1.0,1.0,0.0,,0.0-52.0,,1.0,1619.385,1.0,0.673564893,1.0,0.672437924,1.0,0.292955382,0.0,0.337633795,False,,5810f69c7d3e6d0001df29a5,,864382,50,,evan-feature22,full_pf_a,,1
26,44131,51,,,,1,1,0.0,0.0,0.0,-1.0,,0.0-53.0,,0.0,470.89,0.0,0.6749427,0.0,0.724197502,1.0,0.32391132100000003,0.0,0.350995264,False,,5810f69c7d3e6d0001df29a5,,874667,51,,evan-feature22,full_pf_a,,0
27,44132,52,,,,1,1,1.0,1.0,0.0,-1.0,,0.0-54.0,,-1.0,518.7200001,1.0,0.6940159379999999,1.0,0.75,0.0,0.31710554399999996,0.0,0.413450341,False,,5810f69c7d3e6d0001df29a5,,885023,52,,evan-feature22,full_pf_a,,0
28,44133,53,,,,2,2,0.0,0.0,0.0,-1.0,,0.0-55.0,,0.0,938.735,1.0,0.6916018270000001,0.0,0.69001187,0.0,0.261817804,0.0,0.40038635,False,,5810f69c7d3e6d0001df29a5,,895797,53,,evan-feature22,full_pf_a,,1
29,44134,54,,,,1,1,1.0,1.0,0.0,-1.0,,0.0-56.0,,-1.0,224.485,1.0,0.641061544,1.0,0.71337992,0.0,0.277296461,0.0,0.47372791700000005,False,,5810f69c7d3e6d0001df29a5,,905864,54,,evan-feature22,full_pf_a,,1
30,44135,55,,,,1,1,1.0,1.0,0.0,-1.0,,0.0-57.0,,-1.0,599.75,1.0,0.6082438520000001,1.0,0.708471106,1.0,0.28745137,1.0,0.564174476,False,,5810f69c7d3e6d0001df29a5,,916296,55,,evan-feature22,full_pf_a,,0
31,44136,56,,,,1,1,0.0,1.0,1.0,0.0,,0.0-58.0,,0.0,740.255,0.0,0.6051112120000001,1.0,0.7118147229999999,0.0,0.272390611,1.0,0.5595149939999999,False,,5810f69c7d3e6d0001df29a5,,926845,56,,evan-feature22,full_pf_a,,0
32,44137,57,,,,2,2,0.0,0.0,1.0,0.0,,0.0-59.0,,0.0,690.09,0.0,0.582420852,1.0,0.635867583,0.0,0.31089574,0.0,0.5227206520000001,False,,5810f69c7d3e6d0001df29a5,,937361,57,,evan-feature22,full_pf_a,,1
33,44138,58,,,,2,2,0.0,0.0,1.0,0.0,,0.0-60.0,,0.0,678.26,1.0,0.623195575,0.0,0.655026044,0.0,0.25,0.0,0.560387538,False,,5810f69c7d3e6d0001df29a5,,947848,58,,evan-feature22,full_pf_a,,0
34,44139,59,,,,2,2,0.0,1.0,0.0,-1.0,,0.0-61.0,,-1.0,0.270000019,1.0,0.601889598,1.0,0.678198724,0.0,0.25,1.0,0.559922936,False,,5810f69c7d3e6d0001df29a5,,957640,59,,evan-feature22,full_pf_a,,0
35,44140,60,,,,2,2,1.0,0.0,1.0,0.0,,0.0-62.0,,1.0,756.235,1.0,0.601259914,1.0,0.704681482,1.0,0.33908969299999997,0.0,0.505003715,False,,5810f69c7d3e6d0001df29a5,,968243,60,,evan-feature22,full_pf_a,,0
36,44141,61,,,,2,2,1.0,1.0,1.0,0.0,,0.0-63.0,,1.0,603.85,0.0,0.59645454,0.0,0.710437172,1.0,0.327441879,1.0,0.391749613,False,,5810f69c7d3e6d0001df29a5,,978679,61,,evan-feature22,full_pf_a,,0
37,44142,62,,,,2,2,0.0,1.0,0.0,-1.0,,0.0-64.0,,-1.0,979.785,0.0,0.529473,0.0,0.636758527,0.0,0.301338063,1.0,0.365661481,False,,5810f69c7d3e6d0001df29a5,,989480,62,,evan-feature22,full_pf_a,,0
38,44143,63,,,,2,2,1.0,0.0,1.0,0.0,,0.0-65.0,,1.0,513.945,1.0,0.541657162,1.0,0.634541962,1.0,0.343535366,0.0,0.371763742,False,,5810f69c7d3e6d0001df29a5,,999848,63,,evan-feature22,full_pf_a,,0
39,44144,64,,,,2,2,1.0,1.0,1.0,0.0,,0.0-66.0,,1.0,973.89,0.0,0.5707533260000001,0.0,0.589121171,1.0,0.326428396,1.0,0.43961622899999997,False,,5810f69c7d3e6d0001df29a5,,1010653,64,,evan-feature22,full_pf_a,,0
40,44145,65,,,,1,1,0.0,1.0,0.0,-1.0,,0.0-67.0,,-1.0,1380.415,0.0,0.5707533260000001,1.0,0.589121171,1.0,0.326428396,1.0,0.43961622899999997,False,,5810f69c7d3e6d0001df29a5,,1021853,65,,evan-feature22,full_pf_a,,1
41,44146,66,,,,1,1,1.0,1.0,0.0,-1.0,,0.0-68.0,,-1.0,1306.24,1.0,0.506271295,1.0,0.641775594,0.0,0.37149690700000004,1.0,0.404330166,False,,5810f69c7d3e6d0001df29a5,,1033013,66,,evan-feature22,full_pf_a,,0
42,44147,67,,,,2,2,1.0,0.0,1.0,0.0,,0.0-69.0,,1.0,1176.375,0.0,0.455642565,1.0,0.623605825,1.0,0.358753011,0.0,0.346174041,False,,5810f69c7d3e6d0001df29a5,,1044032,67,,evan-feature22,full_pf_a,,1
43,44148,68,,,,2,2,0.0,0.0,0.0,-1.0,,0.0-70.0,,0.0,1076.285,1.0,0.483677308,0.0,0.5904681070000001,0.0,0.402218411,0.0,0.35344697,False,,5810f69c7d3e6d0001df29a5,,1054922,68,,evan-feature22,full_pf_a,,0
44,44149,69,,,,2,2,0.0,0.0,1.0,0.0,,0.0-71.0,,0.0,818.07,0.0,0.394210977,1.0,0.558925494,0.0,0.540052017,0.0,0.35182128700000004,False,,5810f69c7d3e6d0001df29a5,,1065557,69,,evan-feature22,full_pf_a,,0
45,44150,70,,,,2,2,1.0,0.0,0.0,-1.0,,0.0-72.0,,0.0,1508.36,0.0,0.382300414,0.0,0.577670603,1.0,0.607608448,0.0,0.378261578,False,,5810f69c7d3e6d0001df29a5,,1076896,70,,evan-feature22,full_pf_a,,0
46,44151,71,,,,2,2,0.0,1.0,1.0,0.0,,0.0-73.0,,0.0,813.285,0.0,0.357596762,1.0,0.5929076529999999,0.0,0.6579790010000001,1.0,0.401326777,False,,5810f69c7d3e6d0001df29a5,,1087551,71,,evan-feature22,full_pf_a,,0
47,44152,72,,,,1,1,1.0,0.0,0.0,-1.0,,0.0-74.0,,0.0,1306.94,1.0,0.362033495,0.0,0.582308608,1.0,0.649195052,0.0,0.355158505,False,,5810f69c7d3e6d0001df29a5,,1098708,72,,evan-feature22,full_pf_a,,1
48,44153,73,,,,2,2,0.0,0.0,0.0,-1.0,,0.0-75.0,,0.0,1380.225,1.0,0.369620635,1.0,0.669100864,0.0,0.706059111,0.0,0.362516241,False,,5810f69c7d3e6d0001df29a5,,1109907,73,,evan-feature22,full_pf_a,,1
49,44154,74,,,,2,2,1.0,0.0,0.0,-1.0,,0.0-76.0,,0.0,838.27,0.0,0.41477751399999996,0.0,0.7284416779999999,1.0,0.7182656940000001,0.0,0.36228040899999997,False,,5810f69c7d3e6d0001df29a5,,1120590,74,,evan-feature22,full_pf_a,,0
50,44155,75,,,,2,2,1.0,0.0,1.0,0.0,,0.0-77.0,,1.0,814.3,0.0,0.37675460299999997,1.0,0.703250285,1.0,0.75,0.0,0.461979164,False,,5810f69c7d3e6d0001df29a5,,1131251,75,,evan-feature22,full_pf_a,,0
51,44156,76,,,,2,2,1.0,0.0,1.0,0.0,,0.0-78.0,,1.0,832.685,0.0,0.398716075,0.0,0.6723864890000001,1.0,0.674153818,0.0,0.519029516,False,,5810f69c7d3e6d0001df29a5,,1141918,76,,evan-feature22,full_pf_a,,0
52,44157,77,,,,2,2,1.0,0.0,1.0,0.0,,0.0-79.0,,1.0,745.805,0.0,0.34677856700000004,1.0,0.69057175,1.0,0.6822438540000001,0.0,0.477292237,False,,5810f69c7d3e6d0001df29a5,,1152505,77,,evan-feature22,full_pf_a,,0
53,44158,78,,,,1,1,0.0,1.0,0.0,-1.0,,0.0-80.0,,-1.0,2042.37,0.0,0.28580469199999997,1.0,0.68408818,1.0,0.684207565,1.0,0.49780448299999996,False,,5810f69c7d3e6d0001df29a5,,1164344,78,,evan-feature22,full_pf_a,,1
54,44160,80,,,,2,2,1.0,0.0,0.0,-1.0,,0.0-82.0,,0.0,3970.39,1.0,0.25,1.0,0.7405808970000001,1.0,0.679614108,0.0,0.436436964,False,,5810f69c7d3e6d0001df29a5,,1184188,80,,evan-feature22,full_pf_a,,1
55,44161,81,,,,2,2,1.0,0.0,0.0,-1.0,,0.0-83.0,,0.0,1230.9,0.0,0.29890393,1.0,0.730505706,1.0,0.7328203320000001,0.0,0.439256938,False,,5810f69c7d3e6d0001df29a5,,1195230,81,,evan-feature22,full_pf_a,,0
56,44162,82,,,,2,2,1.0,0.0,1.0,0.0,,0.0-84.0,,1.0,649.705,1.0,0.326762398,0.0,0.7148059609999999,1.0,0.75,0.0,0.44389608799999997,False,,5810f69c7d3e6d0001df29a5,,1205673,82,,evan-feature22,full_pf_a,,0
57,44163,83,,,,2,2,0.0,0.0,0.0,-1.0,,0.0-85.0,,0.0,1771.065,0.0,0.295168515,0.0,0.739760854,0.0,0.719947008,0.0,0.35277284600000003,False,,5810f69c7d3e6d0001df29a5,,1217240,83,,evan-feature22,full_pf_a,,0
58,44164,84,,,,2,2,1.0,1.0,0.0,-1.0,,0.0-86.0,,-1.0,1800.855,0.0,0.25,0.0,0.70781482,1.0,0.75,1.0,0.286095925,False,,5810f69c7d3e6d0001df29a5,,1228863,84,,evan-feature22,full_pf_a,,0
59,44165,85,,,,2,2,1.0,1.0,0.0,-1.0,,0.0-87.0,,-1.0,1288.795,0.0,0.25638190899999996,1.0,0.704088163,1.0,0.75,1.0,0.26872601399999996,False,,5810f69c7d3e6d0001df29a5,,1239976,85,,evan-feature22,full_pf_a,,0
60,44166,86,,,,2,2,1.0,0.0,1.0,0.0,,0.0-88.0,,1.0,999.405,0.0,0.271581126,1.0,0.669760107,1.0,0.733896663,0.0,0.273244572,False,,5810f69c7d3e6d0001df29a5,,1250804,86,,evan-feature22,full_pf_a,,0
61,44167,87,,,,1,1,0.0,0.0,0.0,-1.0,,0.0-89.0,,0.0,896.96,0.0,0.257144401,0.0,0.600575706,1.0,0.74488122,0.0,0.25,False,,5810f69c7d3e6d0001df29a5,,1261524,87,,evan-feature22,full_pf_a,,1
62,44168,88,,,,1,1,0.0,0.0,0.0,-1.0,,0.0-90.0,,0.0,630.17,0.0,0.25,0.0,0.616870026,1.0,0.723610234,1.0,0.25,False,,5810f69c7d3e6d0001df29a5,,1271977,88,,evan-feature22,full_pf_a,,0
63,44169,89,,,,2,2,1.0,1.0,1.0,0.0,,0.0-91.0,,1.0,1334.245,0.0,0.25,1.0,0.583540187,1.0,0.7041042559999999,1.0,0.285961995,False,,5810f69c7d3e6d0001df29a5,,1283144,89,,evan-feature22,full_pf_a,,1
64,44170,90,,,,2,2,1.0,0.0,1.0,0.0,,0.0-92.0,,1.0,810.05,1.0,0.27254536,1.0,0.53875765,1.0,0.693783448,0.0,0.284961652,False,,5810f69c7d3e6d0001df29a5,,1293790,90,,evan-feature22,full_pf_a,,0
65,44171,91,,,,2,2,1.0,0.0,1.0,0.0,,0.0-93.0,,1.0,694.155,0.0,0.25,1.0,0.548431252,1.0,0.734221895,0.0,0.279445214,False,,5810f69c7d3e6d0001df29a5,,1304318,91,,evan-feature22,full_pf_a,,0
66,44172,92,,,,1,1,0.0,0.0,0.0,-1.0,,0.0-94.0,,0.0,1414.87,0.0,0.258640684,0.0,0.545878066,1.0,0.725245965,0.0,0.31487537,False,,5810f69c7d3e6d0001df29a5,,1315582,92,,evan-feature22,full_pf_a,,1
67,44173,93,,,,1,1,0.0,1.0,0.0,-1.0,,0.0-95.0,,-1.0,861.51,0.0,0.251103711,1.0,0.5776290629999999,1.0,0.696320133,1.0,0.317831047,False,,5810f69c7d3e6d0001df29a5,,1326249,93,,evan-feature22,full_pf_a,,0
68,44174,94,,,,1,1,0.0,0.0,0.0,-1.0,,0.0-96.0,,0.0,683.235,0.0,0.276630292,0.0,0.617329858,0.0,0.73838088,0.0,0.261471582,False,,5810f69c7d3e6d0001df29a5,,1336755,94,,evan-feature22,full_pf_a,,0
69,44175,95,,,,1,1,0.0,1.0,0.0,-1.0,,0.0-97.0,,-1.0,1963.35,0.0,0.297716424,1.0,0.618863717,1.0,0.7402358259999999,0.0,0.262600834,False,,5810f69c7d3e6d0001df29a5,,1348586,95,,evan-feature22,full_pf_a,,0
70,44176,96,,,,2,2,1.0,0.0,1.0,0.0,,0.0-98.0,,1.0,931.725,0.0,0.290935512,1.0,0.695370945,1.0,0.706570507,0.0,0.280030553,False,,5810f69c7d3e6d0001df29a5,,1359327,96,,evan-feature22,full_pf_a,,1
71,44177,97,,,,2,2,1.0,0.0,0.0,-1.0,,0.0-99.0,,0.0,1509.125,0.0,0.25,1.0,0.6465277079999999,1.0,0.67766682,0.0,0.25,False,,5810f69c7d3e6d0001df29a5,,1370661,97,,evan-feature22,full_pf_a,,0
72,44178,98,,,,2,2,1.0,0.0,1.0,0.0,,0.0-100.0,,1.0,831.505,1.0,0.26463816,0.0,0.636100213,1.0,0.646048507,0.0,0.265607101,False,,5810f69c7d3e6d0001df29a5,,1381299,98,,evan-feature22,full_pf_a,,0
73,44179,99,,,,2,2,1.0,0.0,1.0,0.0,,0.0-101.0,,1.0,793.565,1.0,0.314340707,1.0,0.667795927,1.0,0.613630805,0.0,0.25,False,,5810f69c7d3e6d0001df29a5,,1391902,99,,evan-feature22,full_pf_a,,0
74,44180,100,,,,2,2,1.0,0.0,0.0,-1.0,,0.0-102.0,,0.0,2376.355,1.0,0.28685784,1.0,0.6622549529999999,1.0,0.652154117,0.0,0.25,False,,5810f69c7d3e6d0001df29a5,,1404088,100,,evan-feature22,full_pf_a,,0
75,44181,101,,,,2,2,1.0,1.0,0.0,-1.0,,0.0-103.0,,-1.0,1004.36,1.0,0.304106554,0.0,0.631289538,1.0,0.707041942,1.0,0.29314237,False,,5810f69c7d3e6d0001df29a5,,1414920,101,,evan-feature22,full_pf_a,,0
76,44182,102,,,,2,2,1.0,0.0,0.0,-1.0,,0.0-104.0,,0.0,1380.22,0.0,0.304806932,1.0,0.571167718,1.0,0.680472346,0.0,0.25,False,,5810f69c7d3e6d0001df29a5,,1426130,102,,evan-feature22,full_pf_a,,0
77,44183,103,,,,1,1,1.0,1.0,0.0,-1.0,,0.0-105.0,,-1.0,1608.84,1.0,0.37919861,1.0,0.5724849710000001,1.0,0.705638003,0.0,0.30179300600000003,False,,5810f69c7d3e6d0001df29a5,,1437579,103,,evan-feature22,full_pf_a,,1
78,44184,104,,,,1,1,0.0,1.0,0.0,-1.0,,0.0-106.0,,-1.0,1077.74,0.0,0.464277969,1.0,0.554034373,1.0,0.7372627340000001,0.0,0.264699741,False,,5810f69c7d3e6d0001df29a5,,1448498,104,,evan-feature22,full_pf_a,,0
79,44185,105,,,,2,2,1.0,0.0,0.0,-1.0,,0.0-107.0,,0.0,1530.525,0.0,0.465104323,1.0,0.530793115,1.0,0.75,0.0,0.31683071,False,,5810f69c7d3e6d0001df29a5,,1459870,105,,evan-feature22,full_pf_a,,1
80,44186,106,,,,2,2,1.0,0.0,1.0,0.0,,0.0-108.0,,1.0,570.97,1.0,0.465104323,0.0,0.530793115,1.0,0.75,0.0,0.31683071,False,,5810f69c7d3e6d0001df29a5,,1470280,106,,evan-feature22,full_pf_a,,0
81,44187,107,,,,2,2,1.0,0.0,1.0,0.0,,0.0-109.0,,1.0,630.96,0.0,0.46833986,1.0,0.570249239,1.0,0.7244472590000001,0.0,0.364114163,False,,5810f69c7d3e6d0001df29a5,,1480766,107,,evan-feature22,full_pf_a,,0
82,44188,108,,,,2,2,1.0,0.0,1.0,0.0,,0.0-110.0,,1.0,716.31,0.0,0.445444024,0.0,0.649673355,1.0,0.6845441290000001,0.0,0.300660449,False,,5810f69c7d3e6d0001df29a5,,1491315,108,,evan-feature22,full_pf_a,,0
83,44189,109,,,,2,2,1.0,1.0,1.0,0.0,,0.0-111.0,,1.0,493.045,1.0,0.39909721299999995,1.0,0.6715179509999999,1.0,0.742310028,1.0,0.35496088299999995,False,,5810f69c7d3e6d0001df29a5,,1501630,109,,evan-feature22,full_pf_a,,0
84,44190,110,,,,2,2,1.0,1.0,0.0,-1.0,,0.0-112.0,,-1.0,1201.865,1.0,0.37956104799999996,1.0,0.694725302,1.0,0.7181651309999999,1.0,0.38726906299999997,False,,5810f69c7d3e6d0001df29a5,,1512669,110,,evan-feature22,full_pf_a,,0
85,44191,111,,,,1,1,0.0,1.0,0.0,-1.0,,0.0-113.0,,-1.0,1529.705,0.0,0.404995034,1.0,0.724375412,1.0,0.6910946859999999,1.0,0.387187347,False,,5810f69c7d3e6d0001df29a5,,1524029,111,,evan-feature22,full_pf_a,,1
86,44192,112,,,,2,2,1.0,0.0,1.0,0.0,,0.0-114.0,,1.0,969.54,0.0,0.461740803,1.0,0.75,1.0,0.75,0.0,0.34872038200000005,False,,5810f69c7d3e6d0001df29a5,,1534824,112,,evan-feature22,full_pf_a,,1
87,44193,113,,,,2,2,1.0,1.0,1.0,0.0,,0.0-115.0,,1.0,610.005,1.0,0.43821380600000004,1.0,0.738833273,1.0,0.728286963,1.0,0.399538128,False,,5810f69c7d3e6d0001df29a5,,1545277,113,,evan-feature22,full_pf_a,,0
88,44194,114,,,,2,2,1.0,0.0,0.0,-1.0,,0.0-116.0,,0.0,1370.35,0.0,0.41709882,0.0,0.736666736,1.0,0.75,0.0,0.389095584,False,,5810f69c7d3e6d0001df29a5,,1556477,114,,evan-feature22,full_pf_a,,0
89,44195,115,,,,2,2,1.0,1.0,0.0,-1.0,,0.0-117.0,,-1.0,1346.04,1.0,0.39749009799999996,1.0,0.744320029,1.0,0.75,1.0,0.363848678,False,,5810f69c7d3e6d0001df29a5,,1567630,115,,evan-feature22,full_pf_a,,0
90,44196,116,,,,2,2,1.0,0.0,1.0,0.0,,0.0-118.0,,1.0,575.73,0.0,0.392653706,0.0,0.75,1.0,0.75,0.0,0.384386976,False,,5810f69c7d3e6d0001df29a5,,1578044,116,,evan-feature22,full_pf_a,,0
91,44197,117,,,,1,1,0.0,1.0,0.0,-1.0,,0.0-119.0,,-1.0,1766.775,0.0,0.31190902600000003,1.0,0.75,1.0,0.732413819,0.0,0.413082932,False,,5810f69c7d3e6d0001df29a5,,1589671,117,,evan-feature22,full_pf_a,,1
92,44198,118,,,,2,2,1.0,0.0,1.0,0.0,,0.0-120.0,,1.0,700.38,0.0,0.366917648,1.0,0.740073855,1.0,0.75,0.0,0.352861979,False,,5810f69c7d3e6d0001df29a5,,1600178,118,,evan-feature22,full_pf_a,,1
93,44199,119,,,,2,2,0.0,1.0,1.0,0.0,,0.0-121.0,,0.0,512.185,0.0,0.3645172,1.0,0.721770713,0.0,0.75,1.0,0.404074511,False,,5810f69c7d3e6d0001df29a5,,1610504,119,,evan-feature22,full_pf_a,,0
94,44200,120,,,,2,2,0.0,1.0,1.0,0.0,,0.0-122.0,,0.0,471.285,0.0,0.35205600299999995,1.0,0.68983859,0.0,0.739735447,1.0,0.366895945,False,,5810f69c7d3e6d0001df29a5,,1620831,120,,evan-feature22,full_pf_a,,0
95,44201,121,,,,2,2,1.0,0.0,1.0,0.0,,0.0-123.0,,1.0,444.06,1.0,0.40998722600000004,1.0,0.720859127,1.0,0.673854955,0.0,0.368528541,False,,5810f69c7d3e6d0001df29a5,,1631100,121,,evan-feature22,full_pf_a,,0
96,44202,122,,,,2,2,1.0,1.0,1.0,0.0,,0.0-124.0,,1.0,563.565,0.0,0.353625316,1.0,0.75,1.0,0.695605473,1.0,0.38303674200000004,False,,5810f69c7d3e6d0001df29a5,,1641501,122,,evan-feature22,full_pf_a,,0
97,44203,123,,,,2,2,0.0,0.0,1.0,0.0,,0.0-125.0,,0.0,689.21,0.0,0.359216989,1.0,0.75,0.0,0.6987915090000001,0.0,0.35169046200000004,False,,5810f69c7d3e6d0001df29a5,,1651987,123,,evan-feature22,full_pf_a,,0
98,44204,124,,,,2,2,1.0,0.0,1.0,0.0,,0.0-126.0,,1.0,763.785,0.0,0.35834496899999996,1.0,0.75,1.0,0.707067742,0.0,0.416763636,False,,5810f69c7d3e6d0001df29a5,,1662580,124,,evan-feature22,full_pf_a,,0
99,44205,125,,,,2,2,1.0,1.0,0.0,-1.0,,0.0-127.0,,-1.0,1593.135,1.0,0.38741613799999997,1.0,0.7177369570000001,1.0,0.734902455,1.0,0.49438664299999996,False,,5810f69c7d3e6d0001df29a5,,1674004,125,,evan-feature22,full_pf_a,,0
100,44206,126,,,,2,2,1.0,0.0,1.0,0.0,,0.0-128.0,,1.0,616.56,0.0,0.405255252,0.0,0.7300466640000001,1.0,0.7027748070000001,0.0,0.504359668,False,,5810f69c7d3e6d0001df29a5,,1684466,126,,evan-feature22,full_pf_a,,0
101,44207,127,,,,2,2,1.0,1.0,1.0,0.0,,0.0-129.0,,1.0,398.33,1.0,0.40697073,1.0,0.7260142190000001,1.0,0.724461982,1.0,0.522779179,False,,5810f69c7d3e6d0001df29a5,,1694716,127,,evan-feature22,full_pf_a,,0
102,44208,128,,,,2,2,1.0,0.0,1.0,0.0,,0.0-130.0,,1.0,637.45,0.0,0.43906215299999996,1.0,0.7252802340000001,1.0,0.719079934,0.0,0.5712990579999999,False,,5810f69c7d3e6d0001df29a5,,1705212,128,,evan-feature22,full_pf_a,,0
103,44209,129,,,,2,2,0.0,1.0,0.0,-1.0,,0.0-131.0,,-1.0,1458.915,0.0,0.4076705,1.0,0.73280499,0.0,0.681313127,1.0,0.523891346,False,,5810f69c7d3e6d0001df29a5,,1716497,129,,evan-feature22,full_pf_a,,0
104,44210,130,,,,2,2,1.0,0.0,0.0,-1.0,,0.0-132.0,,0.0,874.09,1.0,0.399102911,1.0,0.730498344,1.0,0.661080239,0.0,0.46742603,False,,5810f69c7d3e6d0001df29a5,,1727165,130,,evan-feature22,full_pf_a,,0
105,44211,131,,,,2,2,1.0,1.0,0.0,-1.0,,0.0-133.0,,-1.0,1130.02,0.0,0.356477282,1.0,0.712296395,1.0,0.641812684,1.0,0.44868414,False,,5810f69c7d3e6d0001df29a5,,1738118,131,,evan-feature22,full_pf_a,,0
106,44212,132,,,,2,2,1.0,0.0,1.0,0.0,,0.0-134.0,,1.0,719.68,0.0,0.462760722,1.0,0.692349322,1.0,0.700947931,0.0,0.394680266,False,,5810f69c7d3e6d0001df29a5,,1748679,132,,evan-feature22,full_pf_a,,0
107,44213,133,,,,2,2,1.0,0.0,1.0,0.0,,0.0-135.0,,1.0,576.34,1.0,0.422306413,1.0,0.718375916,1.0,0.706340917,0.0,0.367787185,False,,5810f69c7d3e6d0001df29a5,,1759061,133,,evan-feature22,full_pf_a,,0
108,44215,135,,,,2,2,1.0,1.0,1.0,0.0,,0.0-137.0,,1.0,712.665,0.0,0.4582233,1.0,0.643834117,1.0,0.75,1.0,0.39615823299999997,False,,5810f69c7d3e6d0001df29a5,,1773865,135,,evan-feature22,full_pf_a,,0
109,44216,136,,,,2,2,1.0,1.0,1.0,0.0,,0.0-138.0,,1.0,603.205,0.0,0.43813437899999996,0.0,0.651283804,1.0,0.729674191,1.0,0.37711048,False,,5810f69c7d3e6d0001df29a5,,1784327,136,,evan-feature22,full_pf_a,,0
110,44217,137,,,,2,2,1.0,1.0,1.0,0.0,,0.0-139.0,,1.0,557.665,0.0,0.471199094,1.0,0.6470010979999999,1.0,0.715008097,1.0,0.410656191,False,,5810f69c7d3e6d0001df29a5,,1794687,137,,evan-feature22,full_pf_a,,0
111,44218,138,,,,2,2,0.0,0.0,1.0,0.0,,0.0-140.0,,0.0,541.91,0.0,0.42486406,1.0,0.629771829,0.0,0.6550939960000001,0.0,0.459093873,False,,5810f69c7d3e6d0001df29a5,,1805042,138,,evan-feature22,full_pf_a,,0
112,44219,139,,,,2,2,1.0,1.0,1.0,0.0,,0.0-141.0,,1.0,443.76,1.0,0.4803197,0.0,0.645842715,1.0,0.6421749920000001,1.0,0.443092151,False,,5810f69c7d3e6d0001df29a5,,1815304,139,,evan-feature22,full_pf_a,,0
113,44220,140,,,,1,1,0.0,1.0,0.0,-1.0,,0.0-142.0,,-1.0,1558.08,0.0,0.521848997,1.0,0.735801074,1.0,0.6691348460000001,0.0,0.45259351600000003,False,,5810f69c7d3e6d0001df29a5,,1826695,140,,evan-feature22,full_pf_a,,1
114,44221,141,,,,2,2,0.0,1.0,1.0,0.0,,0.0-143.0,,0.0,486.715,0.0,0.49565621299999996,0.0,0.742400847,0.0,0.661512553,1.0,0.483110831,False,,5810f69c7d3e6d0001df29a5,,1837011,141,,evan-feature22,full_pf_a,,1
115,44222,142,,,,2,2,0.0,1.0,1.0,0.0,,0.0-144.0,,0.0,670.265,0.0,0.521564361,1.0,0.731078632,0.0,0.6774886809999999,1.0,0.483263956,False,,5810f69c7d3e6d0001df29a5,,1847528,142,,evan-feature22,full_pf_a,,0
116,44223,143,,,,2,2,1.0,1.0,1.0,0.0,,0.0-145.0,,1.0,421.63,0.0,0.558893102,1.0,0.719810023,1.0,0.67461031,1.0,0.499349834,False,,5810f69c7d3e6d0001df29a5,,1857777,143,,evan-feature22,full_pf_a,,0
117,44224,144,,,,2,2,1.0,1.0,1.0,0.0,,0.0-146.0,,1.0,639.9,0.0,0.611031046,1.0,0.75,1.0,0.688072995,1.0,0.5321422729999999,False,,5810f69c7d3e6d0001df29a5,,1868241,144,,evan-feature22,full_pf_a,,0
118,44225,145,,,,1,1,1.0,1.0,0.0,-1.0,,0.0-147.0,,-1.0,1627.86,1.0,0.633223941,1.0,0.713567728,0.0,0.75,1.0,0.48185314700000004,False,,5810f69c7d3e6d0001df29a5,,1879721,145,,evan-feature22,full_pf_a,,1
119,44226,146,,,,2,2,1.0,1.0,1.0,0.0,,0.0-148.0,,1.0,498.795,1.0,0.664001694,1.0,0.705509768,1.0,0.75,1.0,0.500211065,False,,5810f69c7d3e6d0001df29a5,,1890034,146,,evan-feature22,full_pf_a,,1
120,44227,147,,,,2,2,0.0,0.0,1.0,0.0,,0.0-149.0,,0.0,460.0,1.0,0.664001694,1.0,0.705509768,0.0,0.75,0.0,0.500211065,False,,5810f69c7d3e6d0001df29a5,,1900296,147,,evan-feature22,full_pf_a,,0
121,44228,148,,,,2,2,0.0,1.0,1.0,0.0,,0.0-150.0,,0.0,631.59,0.0,0.696508041,1.0,0.71066027,0.0,0.717028709,1.0,0.49792991,False,,5810f69c7d3e6d0001df29a5,,1910727,148,,evan-feature22,full_pf_a,,0
122,44229,149,,,,1,1,0.0,1.0,0.0,-1.0,,0.0-151.0,,-1.0,1431.49,0.0,0.699883272,1.0,0.75,1.0,0.713543895,0.0,0.496962643,False,,5810f69c7d3e6d0001df29a5,,1921970,149,,evan-feature22,full_pf_a,,1
123,44230,150,,,,1,1,1.0,1.0,0.0,-1.0,,0.0-152.0,,-1.0,1188.3,1.0,0.741163419,1.0,0.75,0.0,0.64691024,1.0,0.513858197,False,,5810f69c7d3e6d0001df29a5,,1933000,150,,evan-feature22,full_pf_a,,0
124,44231,151,,,,1,1,0.0,1.0,0.0,-1.0,,0.0-153.0,,-1.0,1210.635,0.0,0.75,1.0,0.70816558,0.0,0.594499079,1.0,0.48502124,False,,5810f69c7d3e6d0001df29a5,,1944029,151,,evan-feature22,full_pf_a,,0
125,44232,152,,,,2,2,1.0,1.0,1.0,0.0,,0.0-154.0,,1.0,371.38,1.0,0.75,1.0,0.721848901,1.0,0.62197249,1.0,0.48263586399999997,False,,5810f69c7d3e6d0001df29a5,,1954227,152,,evan-feature22,full_pf_a,,1
126,44233,153,,,,2,2,0.0,0.0,1.0,0.0,,0.0-155.0,,0.0,591.86,1.0,0.75,1.0,0.74813071,0.0,0.584357161,0.0,0.411477782,False,,5810f69c7d3e6d0001df29a5,,1964637,153,,evan-feature22,full_pf_a,,0
127,44234,154,,,,2,2,0.0,0.0,1.0,0.0,,0.0-156.0,,0.0,596.565,1.0,0.75,0.0,0.75,0.0,0.52287236,0.0,0.488290656,False,,5810f69c7d3e6d0001df29a5,,1975048,154,,evan-feature22,full_pf_a,,0
128,44235,155,,,,2,2,0.0,0.0,1.0,0.0,,0.0-157.0,,0.0,552.45,1.0,0.75,1.0,0.75,0.0,0.544321581,0.0,0.53143059,False,,5810f69c7d3e6d0001df29a5,,1985437,155,,evan-feature22,full_pf_a,,0
129,44236,156,,,,2,2,1.0,1.0,1.0,0.0,,0.0-158.0,,1.0,853.5950001,0.0,0.726754564,1.0,0.75,1.0,0.5129306370000001,1.0,0.530592445,False,,5810f69c7d3e6d0001df29a5,,1996127,156,,evan-feature22,full_pf_a,,0
130,44237,157,,,,2,2,1.0,0.0,0.0,-1.0,,0.0-159.0,,0.0,1240.71,1.0,0.75,1.0,0.7392590729999999,1.0,0.479875835,0.0,0.547007051,False,,5810f69c7d3e6d0001df29a5,,2007199,157,,evan-feature22,full_pf_a,,0
131,44238,158,,,,2,2,1.0,1.0,0.0,-1.0,,0.0-160.0,,-1.0,1123.695,1.0,0.75,0.0,0.7393376979999999,1.0,0.546045419,1.0,0.541267353,False,,5810f69c7d3e6d0001df29a5,,2018185,158,,evan-feature22,full_pf_a,,0
132,44239,159,,,,2,2,1.0,1.0,1.0,0.0,,0.0-161.0,,1.0,618.355,1.0,0.75,1.0,0.75,1.0,0.485725895,1.0,0.527625395,False,,5810f69c7d3e6d0001df29a5,,2028618,159,,evan-feature22,full_pf_a,,0
133,44240,160,,,,2,2,0.0,1.0,0.0,-1.0,,0.0-162.0,,-1.0,1317.69,1.0,0.75,1.0,0.725087974,0.0,0.488603595,1.0,0.504019206,False,,5810f69c7d3e6d0001df29a5,,2039765,160,,evan-feature22,full_pf_a,,0
134,44241,161,,,,2,2,1.0,0.0,1.0,0.0,,0.0-163.0,,1.0,750.39,1.0,0.745504295,1.0,0.75,1.0,0.452379914,0.0,0.50131194,False,,5810f69c7d3e6d0001df29a5,,2050335,161,,evan-feature22,full_pf_a,,0
135,44242,162,,,,2,2,1.0,1.0,0.0,-1.0,,0.0-164.0,,-1.0,1098.27,1.0,0.728513874,1.0,0.75,1.0,0.44125567200000004,1.0,0.531454591,False,,5810f69c7d3e6d0001df29a5,,2061267,162,,evan-feature22,full_pf_a,,0
136,44243,163,,,,2,2,0.0,1.0,1.0,0.0,,0.0-165.0,,0.0,710.25,0.0,0.73790804,0.0,0.75,0.0,0.413036656,1.0,0.524619035,False,,5810f69c7d3e6d0001df29a5,,2071795,163,,evan-feature22,full_pf_a,,0
137,44244,164,,,,2,2,0.0,0.0,1.0,0.0,,0.0-166.0,,0.0,503.135,1.0,0.7080961309999999,1.0,0.708666865,0.0,0.431915581,0.0,0.481819489,False,,5810f69c7d3e6d0001df29a5,,2082131,164,,evan-feature22,full_pf_a,,0
138,44245,165,,,,2,2,0.0,0.0,1.0,0.0,,0.0-167.0,,0.0,594.255,1.0,0.721378003,1.0,0.71605913,0.0,0.36642387,0.0,0.5036739929999999,False,,5810f69c7d3e6d0001df29a5,,2092552,165,,evan-feature22,full_pf_a,,0
139,44246,166,,,,2,2,0.0,1.0,0.0,-1.0,,0.0-168.0,,-1.0,672.945,1.0,0.7340618959999999,1.0,0.699323252,0.0,0.35298046299999997,1.0,0.511241692,False,,5810f69c7d3e6d0001df29a5,,2103037,166,,evan-feature22,full_pf_a,,0
140,44247,167,,,,2,2,1.0,0.0,0.0,-1.0,,0.0-169.0,,0.0,686.285,1.0,0.75,1.0,0.70412698,1.0,0.380734814,0.0,0.529580116,False,,5810f69c7d3e6d0001df29a5,,2113588,167,,evan-feature22,full_pf_a,,0
141,44248,168,,,,2,2,1.0,0.0,0.0,-1.0,,0.0-170.0,,0.0,1285.03,0.0,0.7436654909999999,0.0,0.711182751,1.0,0.41125331,0.0,0.49554405,False,,5810f69c7d3e6d0001df29a5,,2124669,168,,evan-feature22,full_pf_a,,0
142,44249,169,,,,2,2,0.0,1.0,1.0,0.0,,0.0-171.0,,0.0,516.835,1.0,0.731607915,1.0,0.651774583,0.0,0.35688023,1.0,0.45194491600000003,False,,5810f69c7d3e6d0001df29a5,,2134985,169,,evan-feature22,full_pf_a,,0
143,44250,170,,,,2,2,0.0,1.0,0.0,-1.0,,0.0-172.0,,-1.0,1082.58,1.0,0.75,1.0,0.75,0.0,0.283145374,1.0,0.528608005,False,,5810f69c7d3e6d0001df29a5,,2145928,170,,evan-feature22,full_pf_a,,0
144,44251,171,,,,2,2,0.0,0.0,1.0,0.0,,0.0-173.0,,0.0,678.385,0.0,0.7491416890000001,1.0,0.7423785959999999,0.0,0.29135870399999997,0.0,0.498888318,False,,5810f69c7d3e6d0001df29a5,,2156445,171,,evan-feature22,full_pf_a,,0
145,44252,172,,,,2,2,0.0,0.0,0.0,-1.0,,0.0-174.0,,0.0,713.97,1.0,0.708569387,1.0,0.717682277,0.0,0.294421699,0.0,0.493838163,False,,5810f69c7d3e6d0001df29a5,,2166962,172,,evan-feature22,full_pf_a,,0
146,44253,173,,,,2,2,0.0,1.0,1.0,0.0,,0.0-175.0,,0.0,571.765,1.0,0.75,1.0,0.7383382159999999,0.0,0.356098707,1.0,0.442533405,False,,5810f69c7d3e6d0001df29a5,,2177351,173,,evan-feature22,full_pf_a,,0
147,44254,174,,,,2,2,0.0,0.0,1.0,0.0,,0.0-176.0,,0.0,1028.005,1.0,0.744527075,1.0,0.75,0.0,0.334127506,0.0,0.393165805,False,,5810f69c7d3e6d0001df29a5,,2188169,174,,evan-feature22,full_pf_a,,0
148,44255,175,,,,2,2,0.0,0.0,1.0,0.0,,0.0-177.0,,0.0,533.045,0.0,0.75,0.0,0.75,0.0,0.33571021799999995,0.0,0.350393962,False,,5810f69c7d3e6d0001df29a5,,2198536,175,,evan-feature22,full_pf_a,,0
149,44256,176,,,,1,1,1.0,1.0,0.0,-1.0,,0.0-178.0,,-1.0,1966.235,1.0,0.75,1.0,0.75,0.0,0.313628297,0.0,0.36349657399999996,False,,5810f69c7d3e6d0001df29a5,,2210343,176,,evan-feature22,full_pf_a,,1
150,44257,177,,,,2,2,0.0,0.0,1.0,0.0,,0.0-179.0,,0.0,812.15,1.0,0.75,1.0,0.734284182,0.0,0.262667667,0.0,0.380199119,False,,5810f69c7d3e6d0001df29a5,,2220989,177,,evan-feature22,full_pf_a,,1
151,44258,178,,,,2,2,0.0,0.0,1.0,0.0,,0.0-180.0,,0.0,962.71,1.0,0.75,1.0,0.75,0.0,0.25,0.0,0.394494013,False,,5810f69c7d3e6d0001df29a5,,2231784,178,,evan-feature22,full_pf_a,,0
152,44259,179,,,,2,2,0.0,0.0,1.0,0.0,,0.0-181.0,,0.0,532.465,1.0,0.722298145,0.0,0.7357822340000001,0.0,0.25,0.0,0.319142121,False,,5810f69c7d3e6d0001df29a5,,2242141,179,,evan-feature22,full_pf_a,,0
153,44260,180,,,,2,2,0.0,0.0,1.0,0.0,,0.0-182.0,,0.0,767.64,0.0,0.73149275,1.0,0.724276446,0.0,0.305856907,0.0,0.281315057,False,,5810f69c7d3e6d0001df29a5,,2252723,180,,evan-feature22,full_pf_a,,0
154,44261,181,,,,2,2,0.0,0.0,1.0,0.0,,0.0-183.0,,0.0,780.98,1.0,0.7458732690000001,1.0,0.7336382459999999,0.0,0.272571964,0.0,0.266021999,False,,5810f69c7d3e6d0001df29a5,,2263325,181,,evan-feature22,full_pf_a,,0
155,44262,182,,,,2,2,1.0,0.0,0.0,-1.0,,0.0-184.0,,0.0,564.73,0.0,0.705579037,1.0,0.720778292,1.0,0.320238144,0.0,0.30971744,False,,5810f69c7d3e6d0001df29a5,,2273712,182,,evan-feature22,full_pf_a,,0
156,44263,183,,,,1,1,1.0,1.0,0.0,-1.0,,0.0-185.0,,-1.0,1366.555,1.0,0.700425648,1.0,0.7198784009999999,0.0,0.272590393,0.0,0.304182931,False,,5810f69c7d3e6d0001df29a5,,2284895,183,,evan-feature22,full_pf_a,,1
157,44264,184,,,,1,1,1.0,1.0,0.0,-1.0,,0.0-186.0,,-1.0,1089.77,1.0,0.735590785,1.0,0.722714973,0.0,0.25,0.0,0.323421091,False,,5810f69c7d3e6d0001df29a5,,2295828,184,,evan-feature22,full_pf_a,,0
158,44265,185,,,,1,1,1.0,0.0,0.0,-1.0,,0.0-187.0,,0.0,652.635,1.0,0.724807662,0.0,0.63146213,1.0,0.36836492600000004,1.0,0.34592153299999995,False,,5810f69c7d3e6d0001df29a5,,2306311,185,,evan-feature22,full_pf_a,,0
159,44266,186,,,,2,2,0.0,0.0,1.0,0.0,,0.0-188.0,,0.0,887.265,1.0,0.7352796909999999,1.0,0.555111392,0.0,0.36003922,0.0,0.31433779999999995,False,,5810f69c7d3e6d0001df29a5,,2317010,186,,evan-feature22,full_pf_a,,1
160,44267,187,notice,,,,,,,,,,0.0-189.0,"{""Q0"":""no""}",,20136.0,,,,,,,,,False,,5810f69c7d3e6d0001df29a5,,2337148,187,Q,survey-text,full_pf_a,,1
161,44268,188,track1,,[1],,,,,,,,0.0-190.0,"{""Q0"":""no""}",,4499.0,,,,,,,,,False,,5810f69c7d3e6d0001df29a5,,2341653,188,Q,evan-quiz,full_pf_a,,1
162,44269,189,track2,,[0],,,,,,,,0.0-191.0,"{""Q0"":""yes""}",,5898.0,,,,,,,,,False,,5810f69c7d3e6d0001df29a5,,2347556,189,Q,evan-quiz,full_pf_a,,1
163,44270,190,strat,,,,,,,,,,0.0-192.0,"{""Q0"":""orange door +1 tended to score +1""}",,42477.0,,,,,,,,,False,,5810f69c7d3e6d0001df29a5,,2390036,190,Q,survey-text,full_pf_a,,1
