,index,Unnamed: 0,Q_name,button_pressed,choice_idxs,chosen_pos,chosen_state,chosen_state_f_1_outcome,chosen_state_f_2_outcome,f_1_reward,f_2_reward,incor_questions,internal_node_id,responses,reward_received,rt,s_1_f_1_outcome,s_1_f_1_prob,s_1_f_2_outcome,s_1_f_2_prob,s_2_f_1_outcome,s_2_f_1_prob,s_2_f_2_outcome,s_2_f_2_prob,safe_first,stimulus,subjectID,success,time_elapsed,trial_index,trial_num,trial_type,version,view_history,switching
0,13225,40,,,,1,1,1.0,1.0,0.0,1.0,,0.0-27.0,,1.0,965.37,1.0,0.6,1.0,0.6,0.0,0.4,1.0,0.4,True,,5f18a5e60ce7b80ab30d90ae,,1222327,40,,evan-feature22,full_rf_b,,0
1,13226,41,,,,1,1,0.0,0.0,0.0,1.0,,0.0-28.0,,0.0,1380.63,0.0,0.608053294,0.0,0.63424552,1.0,0.397152172,0.0,0.347069101,True,,5f18a5e60ce7b80ab30d90ae,,1233504,41,,evan-feature22,full_rf_b,,0
2,13227,42,,,,1,1,1.0,0.0,0.0,1.0,,0.0-29.0,,0.0,7.3049999770000005,1.0,0.642237155,0.0,0.648566321,0.0,0.389407674,0.0,0.285525717,True,,5f18a5e60ce7b80ab30d90ae,,1243299,42,,evan-feature22,full_rf_b,,0
3,13228,43,,,,1,1,1.0,0.0,0.0,1.0,,0.0-30.0,,0.0,318.13,1.0,0.661086576,0.0,0.630492543,1.0,0.399058924,0.0,0.25,True,,5f18a5e60ce7b80ab30d90ae,,1253407,43,,evan-feature22,full_rf_b,,0
4,13229,44,,,,1,1,1.0,1.0,0.0,1.0,,0.0-31.0,,1.0,250.935,1.0,0.631324137,1.0,0.6269842929999999,1.0,0.38734784299999997,0.0,0.25,True,,5f18a5e60ce7b80ab30d90ae,,1263453,44,,evan-feature22,full_rf_b,,0
5,13230,45,,,,2,2,1.0,0.0,0.0,1.0,,0.0-32.0,,0.0,554.995,1.0,0.6381991370000001,0.0,0.68987999,1.0,0.384107265,0.0,0.271332943,True,,5f18a5e60ce7b80ab30d90ae,,1273797,45,,evan-feature22,full_rf_b,,1
6,13231,46,,,,1,1,1.0,1.0,0.0,1.0,,0.0-33.0,,1.0,251.475,1.0,0.66034901,1.0,0.742641349,1.0,0.360225629,0.0,0.25,True,,5f18a5e60ce7b80ab30d90ae,,1283837,46,,evan-feature22,full_rf_b,,1
7,13232,47,,,,1,1,1.0,1.0,-1.0,0.0,,0.0-34.0,,-1.0,168.87,1.0,0.638612418,1.0,0.75,0.0,0.367273939,0.0,0.25,True,,5f18a5e60ce7b80ab30d90ae,,1293796,47,,evan-feature22,full_rf_b,,0
8,13233,48,,,,2,2,0.0,0.0,0.0,1.0,,0.0-35.0,,0.0,396.135,1.0,0.624340629,0.0,0.75,0.0,0.425829545,0.0,0.25,True,,5f18a5e60ce7b80ab30d90ae,,1303978,48,,evan-feature22,full_rf_b,,1
9,13234,49,,,,2,2,0.0,1.0,0.0,1.0,,0.0-36.0,,1.0,22.00500004,1.0,0.621999804,1.0,0.75,0.0,0.368609357,1.0,0.25,True,,5f18a5e60ce7b80ab30d90ae,,1313855,49,,evan-feature22,full_rf_b,,0
10,13235,50,,,,1,1,0.0,0.0,-1.0,0.0,,0.0-37.0,,0.0,399.93,0.0,0.62666403,0.0,0.75,1.0,0.311151498,0.0,0.25,True,,5f18a5e60ce7b80ab30d90ae,,1324042,50,,evan-feature22,full_rf_b,,1
11,13236,51,,,,2,2,0.0,0.0,-1.0,0.0,,0.0-38.0,,0.0,375.75,1.0,0.6819650009999999,1.0,0.75,0.0,0.310763048,0.0,0.25,True,,5f18a5e60ce7b80ab30d90ae,,1334205,51,,evan-feature22,full_rf_b,,1
12,13237,52,,,,1,1,1.0,1.0,0.0,1.0,,0.0-39.0,,1.0,47.915,1.0,0.740626951,1.0,0.75,0.0,0.25,1.0,0.25,True,,5f18a5e60ce7b80ab30d90ae,,1344050,52,,evan-feature22,full_rf_b,,1
13,13238,53,,,,2,2,0.0,0.0,0.0,1.0,,0.0-40.0,,0.0,351.635,1.0,0.739599242,1.0,0.742034978,0.0,0.25397114600000004,0.0,0.25,True,,5f18a5e60ce7b80ab30d90ae,,1354182,53,,evan-feature22,full_rf_b,,1
14,13239,54,,,,2,2,0.0,0.0,0.0,1.0,,0.0-41.0,,0.0,79.38499999,1.0,0.732341315,0.0,0.72735643,0.0,0.25,0.0,0.25,True,,5f18a5e60ce7b80ab30d90ae,,1364041,54,,evan-feature22,full_rf_b,,0
15,13240,55,,,,2,2,0.0,1.0,0.0,1.0,,0.0-42.0,,1.0,275.94,0.0,0.7062287770000001,0.0,0.75,0.0,0.29002151,1.0,0.288256649,True,,5f18a5e60ce7b80ab30d90ae,,1374157,55,,evan-feature22,full_rf_b,,0
16,13241,56,,,,2,2,0.0,1.0,-1.0,0.0,,0.0-43.0,,0.0,143.64,0.0,0.7086029209999999,1.0,0.75,0.0,0.274129113,1.0,0.262851608,True,,5f18a5e60ce7b80ab30d90ae,,1384092,56,,evan-feature22,full_rf_b,,0
17,13242,57,,,,1,1,1.0,1.0,0.0,1.0,,0.0-44.0,,1.0,14.50999995,1.0,0.669189651,1.0,0.727614338,1.0,0.298444036,0.0,0.296944518,True,,5f18a5e60ce7b80ab30d90ae,,1393902,57,,evan-feature22,full_rf_b,,1
18,13243,58,,,,2,2,0.0,0.0,-1.0,0.0,,0.0-45.0,,0.0,188.44,1.0,0.6819912929999999,1.0,0.7179434290000001,0.0,0.265003961,0.0,0.28157921199999997,True,,5f18a5e60ce7b80ab30d90ae,,1403937,58,,evan-feature22,full_rf_b,,1
19,13244,59,,,,1,1,0.0,1.0,-1.0,0.0,,0.0-46.0,,0.0,58.51,0.0,0.665275002,1.0,0.723065271,1.0,0.260414971,0.0,0.30973870000000003,True,,5f18a5e60ce7b80ab30d90ae,,1413830,59,,evan-feature22,full_rf_b,,1
20,13245,60,,,,2,2,0.0,1.0,0.0,1.0,,0.0-47.0,,1.0,105.655,1.0,0.6660593260000001,1.0,0.728032907,0.0,0.30922817,1.0,0.338778608,True,,5f18a5e60ce7b80ab30d90ae,,1423779,60,,evan-feature22,full_rf_b,,1
21,13246,61,,,,1,1,0.0,1.0,0.0,1.0,,0.0-48.0,,1.0,139.43,0.0,0.702068785,1.0,0.6528750879999999,0.0,0.287329608,0.0,0.35789613200000003,True,,5f18a5e60ce7b80ab30d90ae,,1433708,61,,evan-feature22,full_rf_b,,1
22,13247,62,,,,1,1,0.0,0.0,0.0,1.0,,0.0-49.0,,0.0,586.57,0.0,0.651939787,0.0,0.636725589,0.0,0.284834488,0.0,0.358563756,True,,5f18a5e60ce7b80ab30d90ae,,1444083,62,,evan-feature22,full_rf_b,,0
23,13248,63,,,,1,1,1.0,0.0,0.0,1.0,,0.0-50.0,,0.0,1750.605,1.0,0.67573929,0.0,0.612550049,0.0,0.37130387600000003,1.0,0.383542402,True,,5f18a5e60ce7b80ab30d90ae,,1455621,63,,evan-feature22,full_rf_b,,0
24,13249,64,,,,1,1,1.0,1.0,0.0,1.0,,0.0-51.0,,1.0,2622.6,1.0,0.620753801,1.0,0.60513644,1.0,0.385529434,1.0,0.340361743,True,,5f18a5e60ce7b80ab30d90ae,,1468040,64,,evan-feature22,full_rf_b,,0
25,13250,65,,,,1,1,1.0,1.0,-1.0,0.0,,0.0-52.0,,-1.0,314.73,1.0,0.673564893,1.0,0.672437924,1.0,0.292955382,1.0,0.337633795,True,,5f18a5e60ce7b80ab30d90ae,,1478151,65,,evan-feature22,full_rf_b,,0
26,13251,66,,,,1,1,1.0,1.0,0.0,1.0,,0.0-53.0,,1.0,127.395,1.0,0.6749427,1.0,0.724197502,1.0,0.32391132100000003,1.0,0.350995264,True,,5f18a5e60ce7b80ab30d90ae,,1488071,66,,evan-feature22,full_rf_b,,0
27,13252,67,,,,1,1,1.0,1.0,0.0,1.0,,0.0-54.0,,1.0,68.38000001,1.0,0.6940159379999999,1.0,0.75,0.0,0.31710554399999996,0.0,0.413450341,True,,5f18a5e60ce7b80ab30d90ae,,1497935,67,,evan-feature22,full_rf_b,,0
28,13253,68,,,,1,1,1.0,1.0,0.0,1.0,,0.0-55.0,,1.0,358.25,1.0,0.6916018270000001,1.0,0.69001187,0.0,0.261817804,1.0,0.40038635,True,,5f18a5e60ce7b80ab30d90ae,,1508085,68,,evan-feature22,full_rf_b,,0
29,13254,69,,,,1,1,1.0,1.0,0.0,1.0,,0.0-56.0,,1.0,545.585,1.0,0.641061544,1.0,0.71337992,0.0,0.277296461,1.0,0.47372791700000005,True,,5f18a5e60ce7b80ab30d90ae,,1518432,69,,evan-feature22,full_rf_b,,0
30,13255,70,,,,2,2,1.0,0.0,0.0,1.0,,0.0-57.0,,0.0,318.845,1.0,0.6082438520000001,0.0,0.708471106,1.0,0.28745137,0.0,0.564174476,True,,5f18a5e60ce7b80ab30d90ae,,1528543,70,,evan-feature22,full_rf_b,,1
31,13256,71,,,,1,1,1.0,1.0,-1.0,0.0,,0.0-58.0,,-1.0,499.455,1.0,0.6051112120000001,1.0,0.7118147229999999,0.0,0.272390611,1.0,0.5595149939999999,True,,5f18a5e60ce7b80ab30d90ae,,1538854,71,,evan-feature22,full_rf_b,,1
32,13257,72,,,,1,1,0.0,1.0,-1.0,0.0,,0.0-59.0,,0.0,173.44,0.0,0.582420852,1.0,0.635867583,0.0,0.31089574,0.0,0.5227206520000001,True,,5f18a5e60ce7b80ab30d90ae,,1548817,72,,evan-feature22,full_rf_b,,0
33,13258,73,,,,1,1,0.0,1.0,-1.0,0.0,,0.0-60.0,,0.0,337.255,0.0,0.623195575,1.0,0.655026044,0.0,0.25,1.0,0.560387538,True,,5f18a5e60ce7b80ab30d90ae,,1558937,73,,evan-feature22,full_rf_b,,0
34,13259,74,,,,2,2,0.0,0.0,0.0,1.0,,0.0-61.0,,0.0,444.165,1.0,0.601889598,1.0,0.678198724,0.0,0.25,0.0,0.559922936,True,,5f18a5e60ce7b80ab30d90ae,,1569183,74,,evan-feature22,full_rf_b,,1
35,13260,75,,,,1,1,1.0,0.0,-1.0,0.0,,0.0-62.0,,-1.0,144.1,1.0,0.601259914,0.0,0.704681482,0.0,0.33908969299999997,0.0,0.505003715,True,,5f18a5e60ce7b80ab30d90ae,,1579150,75,,evan-feature22,full_rf_b,,1
36,13261,76,,,,1,1,1.0,1.0,-1.0,0.0,,0.0-63.0,,-1.0,387.85,1.0,0.59645454,1.0,0.710437172,0.0,0.327441879,0.0,0.391749613,True,,5f18a5e60ce7b80ab30d90ae,,1589324,76,,evan-feature22,full_rf_b,,0
37,13262,77,,,,1,1,1.0,1.0,0.0,1.0,,0.0-64.0,,1.0,253.525,1.0,0.529473,1.0,0.636758527,1.0,0.301338063,1.0,0.365661481,True,,5f18a5e60ce7b80ab30d90ae,,1599413,77,,evan-feature22,full_rf_b,,0
38,13263,78,,,,2,2,1.0,1.0,-1.0,0.0,,0.0-65.0,,-1.0,240.375,1.0,0.541657162,1.0,0.634541962,1.0,0.343535366,1.0,0.371763742,True,,5f18a5e60ce7b80ab30d90ae,,1609450,78,,evan-feature22,full_rf_b,,1
39,13264,79,,,,1,1,1.0,0.0,-1.0,0.0,,0.0-66.0,,-1.0,518.085,1.0,0.5707533260000001,0.0,0.589121171,1.0,0.326428396,0.0,0.43961622899999997,True,,5f18a5e60ce7b80ab30d90ae,,1619763,79,,evan-feature22,full_rf_b,,1
40,13265,80,,,,1,1,0.0,1.0,0.0,1.0,,0.0-67.0,,1.0,72.19500002,0.0,0.5707533260000001,1.0,0.589121171,0.0,0.326428396,1.0,0.43961622899999997,True,,5f18a5e60ce7b80ab30d90ae,,1629627,80,,evan-feature22,full_rf_b,,0
41,13266,81,,,,1,1,0.0,0.0,0.0,1.0,,0.0-68.0,,0.0,548.715,0.0,0.506271295,0.0,0.641775594,1.0,0.37149690700000004,0.0,0.404330166,True,,5f18a5e60ce7b80ab30d90ae,,1639949,81,,evan-feature22,full_rf_b,,0
42,13267,82,,,,2,2,1.0,0.0,-1.0,0.0,,0.0-69.0,,-1.0,308.515,1.0,0.455642565,1.0,0.623605825,1.0,0.358753011,0.0,0.346174041,True,,5f18a5e60ce7b80ab30d90ae,,1650103,82,,evan-feature22,full_rf_b,,1
43,13268,83,,,,1,1,1.0,1.0,0.0,1.0,,0.0-70.0,,1.0,34.45500002,1.0,0.483677308,1.0,0.5904681070000001,1.0,0.402218411,1.0,0.35344697,True,,5f18a5e60ce7b80ab30d90ae,,1659924,83,,evan-feature22,full_rf_b,,1
44,13269,84,,,,2,2,0.0,0.0,-1.0,0.0,,0.0-71.0,,0.0,52.61499999,0.0,0.394210977,0.0,0.558925494,0.0,0.540052017,0.0,0.35182128700000004,True,,5f18a5e60ce7b80ab30d90ae,,1669759,84,,evan-feature22,full_rf_b,,1
45,13270,85,,,,2,2,0.0,0.0,0.0,1.0,,0.0-72.0,,0.0,22.795,1.0,0.382300414,1.0,0.577670603,0.0,0.607608448,0.0,0.378261578,True,,5f18a5e60ce7b80ab30d90ae,,1679563,85,,evan-feature22,full_rf_b,,0
46,13271,86,,,,2,2,1.0,1.0,-1.0,0.0,,0.0-73.0,,-1.0,76.75499999,0.0,0.357596762,1.0,0.5929076529999999,1.0,0.6579790010000001,1.0,0.401326777,True,,5f18a5e60ce7b80ab30d90ae,,1689428,86,,evan-feature22,full_rf_b,,0
47,13272,87,,,,1,1,1.0,1.0,0.0,1.0,,0.0-74.0,,1.0,494.39,1.0,0.362033495,1.0,0.582308608,1.0,0.649195052,1.0,0.355158505,True,,5f18a5e60ce7b80ab30d90ae,,1699717,87,,evan-feature22,full_rf_b,,1
48,13273,88,,,,2,2,1.0,1.0,0.0,1.0,,0.0-75.0,,1.0,267.59,1.0,0.369620635,1.0,0.669100864,1.0,0.706059111,1.0,0.362516241,True,,5f18a5e60ce7b80ab30d90ae,,1709829,88,,evan-feature22,full_rf_b,,1
49,13274,89,,,,1,1,0.0,1.0,0.0,1.0,,0.0-76.0,,1.0,414.085,0.0,0.41477751399999996,1.0,0.7284416779999999,1.0,0.7182656940000001,0.0,0.36228040899999997,True,,5f18a5e60ce7b80ab30d90ae,,1720065,89,,evan-feature22,full_rf_b,,1
50,13275,90,,,,2,2,1.0,1.0,-1.0,0.0,,0.0-77.0,,-1.0,302.475,1.0,0.37675460299999997,0.0,0.703250285,1.0,0.75,1.0,0.461979164,True,,5f18a5e60ce7b80ab30d90ae,,1730161,90,,evan-feature22,full_rf_b,,1
51,13276,91,,,,1,1,1.0,1.0,-1.0,0.0,,0.0-78.0,,-1.0,231.025,1.0,0.398716075,1.0,0.6723864890000001,1.0,0.674153818,1.0,0.519029516,True,,5f18a5e60ce7b80ab30d90ae,,1740188,91,,evan-feature22,full_rf_b,,1
52,13277,92,,,,2,2,1.0,1.0,-1.0,0.0,,0.0-79.0,,-1.0,30.87000002,0.0,0.34677856700000004,0.0,0.69057175,1.0,0.6822438540000001,1.0,0.477292237,True,,5f18a5e60ce7b80ab30d90ae,,1750024,92,,evan-feature22,full_rf_b,,1
53,13278,93,,,,1,1,0.0,1.0,0.0,1.0,,0.0-80.0,,1.0,27.49000001,0.0,0.28580469199999997,1.0,0.68408818,0.0,0.684207565,1.0,0.49780448299999996,True,,5f18a5e60ce7b80ab30d90ae,,1759850,93,,evan-feature22,full_rf_b,,1
54,13280,95,,,,1,1,0.0,1.0,0.0,1.0,,0.0-82.0,,1.0,887.55,0.0,0.25,1.0,0.7405808970000001,0.0,0.679614108,0.0,0.436436964,True,,5f18a5e60ce7b80ab30d90ae,,1775387,95,,evan-feature22,full_rf_b,,0
55,13281,96,,,,2,2,0.0,0.0,0.0,1.0,,0.0-83.0,,0.0,412.785,0.0,0.29890393,0.0,0.730505706,0.0,0.7328203320000001,0.0,0.439256938,True,,5f18a5e60ce7b80ab30d90ae,,1785583,96,,evan-feature22,full_rf_b,,1
56,13282,97,,,,1,1,0.0,1.0,-1.0,0.0,,0.0-84.0,,0.0,247.31,0.0,0.326762398,1.0,0.7148059609999999,1.0,0.75,1.0,0.44389608799999997,True,,5f18a5e60ce7b80ab30d90ae,,1795618,97,,evan-feature22,full_rf_b,,1
57,13283,98,,,,1,1,1.0,1.0,0.0,1.0,,0.0-85.0,,1.0,335.89,1.0,0.295168515,1.0,0.739760854,1.0,0.719947008,1.0,0.35277284600000003,True,,5f18a5e60ce7b80ab30d90ae,,1805740,98,,evan-feature22,full_rf_b,,0
58,13284,99,,,,2,2,1.0,0.0,0.0,1.0,,0.0-86.0,,0.0,135.115,0.0,0.25,0.0,0.70781482,1.0,0.75,0.0,0.286095925,True,,5f18a5e60ce7b80ab30d90ae,,1815665,99,,evan-feature22,full_rf_b,,1
59,13285,100,,,,1,1,0.0,0.0,0.0,1.0,,0.0-87.0,,0.0,1837.035,0.0,0.25638190899999996,0.0,0.704088163,1.0,0.75,0.0,0.26872601399999996,True,,5f18a5e60ce7b80ab30d90ae,,1827290,100,,evan-feature22,full_rf_b,,1
60,13286,101,,,,1,1,0.0,1.0,-1.0,0.0,,0.0-88.0,,0.0,745.795,0.0,0.271581126,1.0,0.669760107,1.0,0.733896663,0.0,0.273244572,True,,5f18a5e60ce7b80ab30d90ae,,1837834,101,,evan-feature22,full_rf_b,,0
61,13287,102,,,,2,2,1.0,0.0,0.0,1.0,,0.0-89.0,,0.0,220.99,0.0,0.257144401,1.0,0.600575706,1.0,0.74488122,0.0,0.25,True,,5f18a5e60ce7b80ab30d90ae,,1847852,102,,evan-feature22,full_rf_b,,1
62,13288,103,,,,1,1,0.0,1.0,0.0,1.0,,0.0-90.0,,1.0,93.66999997,0.0,0.25,1.0,0.616870026,1.0,0.723610234,1.0,0.25,True,,5f18a5e60ce7b80ab30d90ae,,1857748,103,,evan-feature22,full_rf_b,,1
63,13289,104,,,,2,2,1.0,0.0,-1.0,0.0,,0.0-91.0,,-1.0,86.26499999,0.0,0.25,1.0,0.583540187,1.0,0.7041042559999999,0.0,0.285961995,True,,5f18a5e60ce7b80ab30d90ae,,1867685,104,,evan-feature22,full_rf_b,,1
64,13290,105,,,,1,1,1.0,1.0,-1.0,0.0,,0.0-92.0,,-1.0,301.395,1.0,0.27254536,1.0,0.53875765,0.0,0.693783448,0.0,0.284961652,True,,5f18a5e60ce7b80ab30d90ae,,1877773,105,,evan-feature22,full_rf_b,,1
65,13291,106,,,,1,1,0.0,1.0,-1.0,0.0,,0.0-93.0,,0.0,419.815,0.0,0.25,1.0,0.548431252,1.0,0.734221895,1.0,0.279445214,True,,5f18a5e60ce7b80ab30d90ae,,1887982,106,,evan-feature22,full_rf_b,,0
66,13292,107,,,,2,2,1.0,0.0,0.0,1.0,,0.0-94.0,,0.0,27.24000002,0.0,0.258640684,0.0,0.545878066,1.0,0.725245965,0.0,0.31487537,True,,5f18a5e60ce7b80ab30d90ae,,1897799,107,,evan-feature22,full_rf_b,,1
67,13293,108,,,,2,2,1.0,1.0,0.0,1.0,,0.0-95.0,,1.0,57.00999999,0.0,0.251103711,0.0,0.5776290629999999,1.0,0.696320133,1.0,0.317831047,True,,5f18a5e60ce7b80ab30d90ae,,1907643,108,,evan-feature22,full_rf_b,,0
68,13294,109,,,,1,1,1.0,0.0,0.0,1.0,,0.0-96.0,,0.0,201.59,1.0,0.276630292,0.0,0.617329858,1.0,0.73838088,1.0,0.261471582,True,,5f18a5e60ce7b80ab30d90ae,,1917641,109,,evan-feature22,full_rf_b,,1
69,13295,110,,,,2,2,1.0,0.0,0.0,1.0,,0.0-97.0,,0.0,47.95499996,0.0,0.297716424,0.0,0.618863717,1.0,0.7402358259999999,0.0,0.262600834,True,,5f18a5e60ce7b80ab30d90ae,,1927478,110,,evan-feature22,full_rf_b,,1
70,13296,111,,,,1,1,0.0,0.0,-1.0,0.0,,0.0-98.0,,0.0,104.97,0.0,0.290935512,0.0,0.695370945,1.0,0.706570507,0.0,0.280030553,True,,5f18a5e60ce7b80ab30d90ae,,1937371,111,,evan-feature22,full_rf_b,,1
71,13297,112,,,,2,2,0.0,0.0,0.0,1.0,,0.0-99.0,,0.0,367.53,0.0,0.25,1.0,0.6465277079999999,0.0,0.67766682,0.0,0.25,True,,5f18a5e60ce7b80ab30d90ae,,1947526,112,,evan-feature22,full_rf_b,,1
72,13298,113,,,,2,2,1.0,0.0,-1.0,0.0,,0.0-100.0,,-1.0,86.91000001,1.0,0.26463816,1.0,0.636100213,1.0,0.646048507,0.0,0.265607101,True,,5f18a5e60ce7b80ab30d90ae,,1957455,113,,evan-feature22,full_rf_b,,0
73,13299,114,,,,1,1,0.0,1.0,-1.0,0.0,,0.0-101.0,,0.0,474.675,0.0,0.314340707,1.0,0.667795927,1.0,0.613630805,0.0,0.25,True,,5f18a5e60ce7b80ab30d90ae,,1967721,114,,evan-feature22,full_rf_b,,1
74,13300,115,,,,2,2,1.0,0.0,0.0,1.0,,0.0-102.0,,0.0,2.9099999810000003,0.0,0.28685784,0.0,0.6622549529999999,1.0,0.652154117,0.0,0.25,True,,5f18a5e60ce7b80ab30d90ae,,1977570,115,,evan-feature22,full_rf_b,,1
75,13301,116,,,,1,1,1.0,1.0,0.0,1.0,,0.0-103.0,,1.0,263.9899999,1.0,0.304106554,1.0,0.631289538,1.0,0.707041942,1.0,0.29314237,True,,5f18a5e60ce7b80ab30d90ae,,1987617,116,,evan-feature22,full_rf_b,,1
76,13302,117,,,,1,1,0.0,0.0,0.0,1.0,,0.0-104.0,,0.0,534.18,0.0,0.304806932,0.0,0.571167718,1.0,0.680472346,1.0,0.25,True,,5f18a5e60ce7b80ab30d90ae,,1997939,117,,evan-feature22,full_rf_b,,0
77,13303,118,,,,1,1,0.0,1.0,0.0,1.0,,0.0-105.0,,1.0,352.585,0.0,0.37919861,1.0,0.5724849710000001,1.0,0.705638003,0.0,0.30179300600000003,True,,5f18a5e60ce7b80ab30d90ae,,2008082,118,,evan-feature22,full_rf_b,,0
78,13304,119,,,,1,1,0.0,0.0,0.0,1.0,,0.0-106.0,,0.0,212.25,0.0,0.464277969,0.0,0.554034373,1.0,0.7372627340000001,0.0,0.264699741,True,,5f18a5e60ce7b80ab30d90ae,,2018083,119,,evan-feature22,full_rf_b,,0
79,13305,120,,,,1,1,0.0,1.0,0.0,1.0,,0.0-107.0,,1.0,79.67000001,0.0,0.465104323,1.0,0.530793115,0.0,0.75,1.0,0.31683071,True,,5f18a5e60ce7b80ab30d90ae,,2027948,120,,evan-feature22,full_rf_b,,0
80,13306,121,,,,1,1,0.0,0.0,-1.0,0.0,,0.0-108.0,,0.0,529.665,0.0,0.465104323,0.0,0.530793115,1.0,0.75,0.0,0.31683071,True,,5f18a5e60ce7b80ab30d90ae,,2038255,121,,evan-feature22,full_rf_b,,0
81,13307,122,,,,2,2,1.0,1.0,-1.0,0.0,,0.0-109.0,,-1.0,459.54,0.0,0.46833986,1.0,0.570249239,1.0,0.7244472590000001,1.0,0.364114163,True,,5f18a5e60ce7b80ab30d90ae,,2048507,122,,evan-feature22,full_rf_b,,1
82,13308,123,,,,1,1,1.0,0.0,-1.0,0.0,,0.0-110.0,,-1.0,575.355,1.0,0.445444024,0.0,0.649673355,0.0,0.6845441290000001,0.0,0.300660449,True,,5f18a5e60ce7b80ab30d90ae,,2058875,123,,evan-feature22,full_rf_b,,1
83,13309,124,,,,1,1,0.0,1.0,-1.0,0.0,,0.0-111.0,,0.0,310.0150001,0.0,0.39909721299999995,1.0,0.6715179509999999,1.0,0.742310028,0.0,0.35496088299999995,True,,5f18a5e60ce7b80ab30d90ae,,2068976,124,,evan-feature22,full_rf_b,,0
84,13310,125,,,,2,2,1.0,0.0,0.0,1.0,,0.0-112.0,,0.0,493.74,1.0,0.37956104799999996,1.0,0.694725302,1.0,0.7181651309999999,0.0,0.38726906299999997,True,,5f18a5e60ce7b80ab30d90ae,,2079284,125,,evan-feature22,full_rf_b,,1
85,13311,126,,,,1,1,1.0,0.0,0.0,1.0,,0.0-113.0,,0.0,352.81,1.0,0.404995034,0.0,0.724375412,1.0,0.6910946859999999,0.0,0.387187347,True,,5f18a5e60ce7b80ab30d90ae,,2089419,126,,evan-feature22,full_rf_b,,1
86,13312,127,,,,1,1,0.0,0.0,-1.0,0.0,,0.0-114.0,,0.0,565.72,0.0,0.461740803,0.0,0.75,1.0,0.75,0.0,0.34872038200000005,True,,5f18a5e60ce7b80ab30d90ae,,2099772,127,,evan-feature22,full_rf_b,,0
87,13313,128,,,,2,2,0.0,0.0,-1.0,0.0,,0.0-115.0,,0.0,200.75,1.0,0.43821380600000004,1.0,0.738833273,0.0,0.728286963,0.0,0.399538128,True,,5f18a5e60ce7b80ab30d90ae,,2109758,128,,evan-feature22,full_rf_b,,1
88,13314,129,,,,1,1,0.0,0.0,0.0,1.0,,0.0-116.0,,0.0,135.835,0.0,0.41709882,0.0,0.736666736,0.0,0.75,0.0,0.389095584,True,,5f18a5e60ce7b80ab30d90ae,,2119677,129,,evan-feature22,full_rf_b,,1
89,13315,130,,,,2,2,0.0,0.0,0.0,1.0,,0.0-117.0,,0.0,423.29,1.0,0.39749009799999996,1.0,0.744320029,0.0,0.75,0.0,0.363848678,True,,5f18a5e60ce7b80ab30d90ae,,2129878,130,,evan-feature22,full_rf_b,,1
90,13316,131,,,,1,1,0.0,0.0,-1.0,0.0,,0.0-118.0,,0.0,131.77,0.0,0.392653706,0.0,0.75,1.0,0.75,1.0,0.384386976,True,,5f18a5e60ce7b80ab30d90ae,,2139790,131,,evan-feature22,full_rf_b,,1
91,13317,132,,,,2,2,0.0,1.0,0.0,1.0,,0.0-119.0,,1.0,484.8499999,1.0,0.31190902600000003,0.0,0.75,0.0,0.732413819,1.0,0.413082932,True,,5f18a5e60ce7b80ab30d90ae,,2150113,132,,evan-feature22,full_rf_b,,1
92,13318,133,,,,1,1,0.0,1.0,-1.0,0.0,,0.0-120.0,,0.0,452.95,0.0,0.366917648,1.0,0.740073855,1.0,0.75,0.0,0.352861979,True,,5f18a5e60ce7b80ab30d90ae,,2160355,133,,evan-feature22,full_rf_b,,1
93,13319,134,,,,1,1,1.0,1.0,-1.0,0.0,,0.0-121.0,,-1.0,825.9,1.0,0.3645172,1.0,0.721770713,1.0,0.75,0.0,0.404074511,True,,5f18a5e60ce7b80ab30d90ae,,2170972,134,,evan-feature22,full_rf_b,,0
94,13320,135,,,,2,2,1.0,1.0,-1.0,0.0,,0.0-122.0,,-1.0,518.91,1.0,0.35205600299999995,1.0,0.68983859,1.0,0.739735447,1.0,0.366895945,True,,5f18a5e60ce7b80ab30d90ae,,2181284,135,,evan-feature22,full_rf_b,,1
95,13321,136,,,,1,1,0.0,1.0,-1.0,0.0,,0.0-123.0,,0.0,372.425,0.0,0.40998722600000004,1.0,0.720859127,1.0,0.673854955,0.0,0.368528541,True,,5f18a5e60ce7b80ab30d90ae,,2191444,136,,evan-feature22,full_rf_b,,1
96,13322,137,,,,1,1,1.0,1.0,-1.0,0.0,,0.0-124.0,,-1.0,1056.0,1.0,0.353625316,1.0,0.75,0.0,0.695605473,0.0,0.38303674200000004,True,,5f18a5e60ce7b80ab30d90ae,,2202351,137,,evan-feature22,full_rf_b,,0
97,13323,138,,,,2,2,1.0,1.0,-1.0,0.0,,0.0-125.0,,-1.0,31.32499999,1.0,0.359216989,0.0,0.75,1.0,0.6987915090000001,1.0,0.35169046200000004,True,,5f18a5e60ce7b80ab30d90ae,,2212173,138,,evan-feature22,full_rf_b,,1
98,13324,139,,,,1,1,0.0,1.0,-1.0,0.0,,0.0-126.0,,0.0,356.74,0.0,0.35834496899999996,1.0,0.75,1.0,0.707067742,0.0,0.416763636,True,,5f18a5e60ce7b80ab30d90ae,,2222317,139,,evan-feature22,full_rf_b,,1
99,13325,140,,,,2,2,1.0,0.0,0.0,1.0,,0.0-127.0,,0.0,597.33,0.0,0.38741613799999997,0.0,0.7177369570000001,1.0,0.734902455,0.0,0.49438664299999996,True,,5f18a5e60ce7b80ab30d90ae,,2232701,140,,evan-feature22,full_rf_b,,1
100,13326,141,,,,2,2,0.0,1.0,-1.0,0.0,,0.0-128.0,,0.0,1737.275,0.0,0.405255252,1.0,0.7300466640000001,0.0,0.7027748070000001,1.0,0.504359668,True,,5f18a5e60ce7b80ab30d90ae,,2244233,141,,evan-feature22,full_rf_b,,0
101,13327,142,,,,1,1,1.0,0.0,-1.0,0.0,,0.0-129.0,,-1.0,92.59000001,1.0,0.40697073,0.0,0.7260142190000001,0.0,0.724461982,0.0,0.522779179,True,,5f18a5e60ce7b80ab30d90ae,,2254121,142,,evan-feature22,full_rf_b,,1
102,13328,143,,,,2,2,1.0,1.0,-1.0,0.0,,0.0-130.0,,-1.0,1149.765,0.0,0.43906215299999996,0.0,0.7252802340000001,1.0,0.719079934,1.0,0.5712990579999999,True,,5f18a5e60ce7b80ab30d90ae,,2265058,143,,evan-feature22,full_rf_b,,1
103,13329,144,,,,1,1,1.0,1.0,0.0,1.0,,0.0-131.0,,1.0,926.15,1.0,0.4076705,1.0,0.73280499,0.0,0.681313127,0.0,0.523891346,True,,5f18a5e60ce7b80ab30d90ae,,2275813,144,,evan-feature22,full_rf_b,,1
104,13330,145,,,,1,1,1.0,1.0,0.0,1.0,,0.0-132.0,,1.0,702.36,1.0,0.399102911,1.0,0.730498344,1.0,0.661080239,1.0,0.46742603,True,,5f18a5e60ce7b80ab30d90ae,,2286316,145,,evan-feature22,full_rf_b,,0
105,13331,146,,,,2,2,0.0,1.0,0.0,1.0,,0.0-133.0,,1.0,345.4,1.0,0.356477282,1.0,0.712296395,0.0,0.641812684,1.0,0.44868414,True,,5f18a5e60ce7b80ab30d90ae,,2296449,146,,evan-feature22,full_rf_b,,1
106,13332,147,,,,1,1,0.0,0.0,-1.0,0.0,,0.0-134.0,,0.0,486.115,0.0,0.462760722,0.0,0.692349322,0.0,0.700947931,0.0,0.394680266,True,,5f18a5e60ce7b80ab30d90ae,,2306715,147,,evan-feature22,full_rf_b,,1
107,13333,148,,,,2,2,1.0,0.0,-1.0,0.0,,0.0-135.0,,-1.0,436.355,1.0,0.422306413,1.0,0.718375916,1.0,0.706340917,0.0,0.367787185,True,,5f18a5e60ce7b80ab30d90ae,,2316935,148,,evan-feature22,full_rf_b,,1
108,13335,150,,,,2,2,0.0,1.0,-1.0,0.0,,0.0-137.0,,0.0,2570.75,0.0,0.4582233,1.0,0.643834117,0.0,0.75,1.0,0.39615823299999997,True,,5f18a5e60ce7b80ab30d90ae,,2340965,150,,evan-feature22,full_rf_b,,0
109,13336,151,,,,1,1,1.0,1.0,-1.0,0.0,,0.0-138.0,,-1.0,910.07,1.0,0.43813437899999996,1.0,0.651283804,1.0,0.729674191,0.0,0.37711048,True,,5f18a5e60ce7b80ab30d90ae,,2351668,151,,evan-feature22,full_rf_b,,1
110,13337,152,,,,2,2,1.0,0.0,-1.0,0.0,,0.0-139.0,,-1.0,545.08,0.0,0.471199094,0.0,0.6470010979999999,1.0,0.715008097,0.0,0.410656191,True,,5f18a5e60ce7b80ab30d90ae,,2362005,152,,evan-feature22,full_rf_b,,1
111,13338,153,,,,1,1,1.0,1.0,-1.0,0.0,,0.0-140.0,,-1.0,186.735,1.0,0.42486406,1.0,0.629771829,1.0,0.6550939960000001,0.0,0.459093873,True,,5f18a5e60ce7b80ab30d90ae,,2372010,153,,evan-feature22,full_rf_b,,1
112,13339,154,,,,2,2,1.0,1.0,-1.0,0.0,,0.0-141.0,,-1.0,101.53,1.0,0.4803197,1.0,0.645842715,1.0,0.6421749920000001,1.0,0.443092151,True,,5f18a5e60ce7b80ab30d90ae,,2381899,154,,evan-feature22,full_rf_b,,1
113,13340,155,,,,1,1,0.0,1.0,0.0,1.0,,0.0-142.0,,1.0,689.87,0.0,0.521848997,1.0,0.735801074,0.0,0.6691348460000001,0.0,0.45259351600000003,True,,5f18a5e60ce7b80ab30d90ae,,2392382,155,,evan-feature22,full_rf_b,,1
114,13341,156,,,,2,2,1.0,1.0,-1.0,0.0,,0.0-143.0,,-1.0,66.75999996,1.0,0.49565621299999996,0.0,0.742400847,1.0,0.661512553,1.0,0.483110831,True,,5f18a5e60ce7b80ab30d90ae,,2402267,156,,evan-feature22,full_rf_b,,1
115,13342,157,,,,1,1,0.0,1.0,-1.0,0.0,,0.0-144.0,,0.0,556.35,0.0,0.521564361,1.0,0.731078632,1.0,0.6774886809999999,1.0,0.483263956,True,,5f18a5e60ce7b80ab30d90ae,,2412663,157,,evan-feature22,full_rf_b,,1
116,13343,158,,,,2,2,0.0,1.0,-1.0,0.0,,0.0-145.0,,0.0,366.34,0.0,0.558893102,0.0,0.719810023,0.0,0.67461031,1.0,0.499349834,True,,5f18a5e60ce7b80ab30d90ae,,2422820,158,,evan-feature22,full_rf_b,,1
117,13344,159,,,,1,1,1.0,1.0,-1.0,0.0,,0.0-146.0,,-1.0,109.58,1.0,0.611031046,1.0,0.75,1.0,0.688072995,1.0,0.5321422729999999,True,,5f18a5e60ce7b80ab30d90ae,,2432726,159,,evan-feature22,full_rf_b,,1
118,13345,160,,,,1,1,1.0,1.0,0.0,1.0,,0.0-147.0,,1.0,558.87,1.0,0.633223941,1.0,0.713567728,1.0,0.75,1.0,0.48185314700000004,True,,5f18a5e60ce7b80ab30d90ae,,2443074,160,,evan-feature22,full_rf_b,,0
119,13346,161,,,,2,2,1.0,1.0,-1.0,0.0,,0.0-148.0,,-1.0,290.145,0.0,0.664001694,1.0,0.705509768,1.0,0.75,1.0,0.500211065,True,,5f18a5e60ce7b80ab30d90ae,,2453182,161,,evan-feature22,full_rf_b,,1
120,13347,162,,,,1,1,1.0,1.0,-1.0,0.0,,0.0-149.0,,-1.0,545.65,1.0,0.664001694,1.0,0.705509768,1.0,0.75,1.0,0.500211065,True,,5f18a5e60ce7b80ab30d90ae,,2463522,162,,evan-feature22,full_rf_b,,1
121,13348,163,,,,2,2,0.0,0.0,-1.0,0.0,,0.0-150.0,,0.0,209.035,1.0,0.696508041,1.0,0.71066027,0.0,0.717028709,0.0,0.49792991,True,,5f18a5e60ce7b80ab30d90ae,,2473518,163,,evan-feature22,full_rf_b,,1
122,13349,164,,,,1,1,1.0,1.0,0.0,1.0,,0.0-151.0,,1.0,665.375,1.0,0.699883272,1.0,0.75,1.0,0.713543895,1.0,0.496962643,True,,5f18a5e60ce7b80ab30d90ae,,2483986,164,,evan-feature22,full_rf_b,,1
123,13350,165,,,,2,2,0.0,0.0,0.0,1.0,,0.0-152.0,,0.0,291.855,1.0,0.741163419,0.0,0.75,0.0,0.64691024,0.0,0.513858197,True,,5f18a5e60ce7b80ab30d90ae,,2494112,165,,evan-feature22,full_rf_b,,1
124,13351,166,,,,1,1,1.0,0.0,0.0,1.0,,0.0-153.0,,0.0,781.06,1.0,0.75,0.0,0.70816558,0.0,0.594499079,0.0,0.48502124,True,,5f18a5e60ce7b80ab30d90ae,,2504712,166,,evan-feature22,full_rf_b,,1
125,13352,167,,,,1,1,1.0,1.0,-1.0,0.0,,0.0-154.0,,-1.0,949.33,1.0,0.75,1.0,0.721848901,1.0,0.62197249,1.0,0.48263586399999997,True,,5f18a5e60ce7b80ab30d90ae,,2515442,167,,evan-feature22,full_rf_b,,0
126,13353,168,,,,2,2,1.0,0.0,-1.0,0.0,,0.0-155.0,,-1.0,700.09,1.0,0.75,1.0,0.74813071,1.0,0.584357161,0.0,0.411477782,True,,5f18a5e60ce7b80ab30d90ae,,2525951,168,,evan-feature22,full_rf_b,,1
127,13354,169,,,,1,1,0.0,1.0,-1.0,0.0,,0.0-156.0,,0.0,675.755,0.0,0.75,1.0,0.75,0.0,0.52287236,1.0,0.488290656,True,,5f18a5e60ce7b80ab30d90ae,,2536424,169,,evan-feature22,full_rf_b,,1
128,13355,170,,,,2,2,1.0,0.0,-1.0,0.0,,0.0-157.0,,-1.0,564.88,0.0,0.75,1.0,0.75,1.0,0.544321581,0.0,0.53143059,True,,5f18a5e60ce7b80ab30d90ae,,2546782,170,,evan-feature22,full_rf_b,,1
129,13356,171,,,,1,1,0.0,1.0,-1.0,0.0,,0.0-158.0,,0.0,2822.93,0.0,0.726754564,1.0,0.75,1.0,0.5129306370000001,1.0,0.530592445,True,,5f18a5e60ce7b80ab30d90ae,,2559397,171,,evan-feature22,full_rf_b,,1
130,13357,172,,,,1,1,1.0,1.0,0.0,1.0,,0.0-159.0,,1.0,341.725,1.0,0.75,1.0,0.7392590729999999,0.0,0.479875835,1.0,0.547007051,True,,5f18a5e60ce7b80ab30d90ae,,2569530,172,,evan-feature22,full_rf_b,,0
131,13358,173,,,,1,1,1.0,0.0,0.0,1.0,,0.0-160.0,,0.0,413.525,1.0,0.75,0.0,0.7393376979999999,0.0,0.546045419,1.0,0.541267353,True,,5f18a5e60ce7b80ab30d90ae,,2579795,173,,evan-feature22,full_rf_b,,0
132,13359,174,,,,2,2,1.0,0.0,-1.0,0.0,,0.0-161.0,,-1.0,473.01,0.0,0.75,1.0,0.75,1.0,0.485725895,0.0,0.527625395,True,,5f18a5e60ce7b80ab30d90ae,,2590056,174,,evan-feature22,full_rf_b,,1
133,13360,175,,,,1,1,0.0,1.0,0.0,1.0,,0.0-162.0,,1.0,683.82,0.0,0.75,1.0,0.725087974,0.0,0.488603595,1.0,0.504019206,True,,5f18a5e60ce7b80ab30d90ae,,2600536,175,,evan-feature22,full_rf_b,,1
134,13361,176,,,,2,2,1.0,1.0,-1.0,0.0,,0.0-163.0,,-1.0,459.345,1.0,0.745504295,1.0,0.75,1.0,0.452379914,1.0,0.50131194,True,,5f18a5e60ce7b80ab30d90ae,,2610783,176,,evan-feature22,full_rf_b,,1
135,13362,177,,,,2,2,1.0,0.0,0.0,1.0,,0.0-164.0,,0.0,359.305,0.0,0.728513874,1.0,0.75,1.0,0.44125567200000004,0.0,0.531454591,True,,5f18a5e60ce7b80ab30d90ae,,2620935,177,,evan-feature22,full_rf_b,,0
136,13363,178,,,,2,2,1.0,1.0,-1.0,0.0,,0.0-165.0,,-1.0,44.10499998,0.0,0.73790804,1.0,0.75,1.0,0.413036656,1.0,0.524619035,True,,5f18a5e60ce7b80ab30d90ae,,2630770,178,,evan-feature22,full_rf_b,,0
137,13364,179,,,,1,1,0.0,1.0,-1.0,0.0,,0.0-166.0,,0.0,48.28499997,0.0,0.7080961309999999,1.0,0.708666865,0.0,0.431915581,0.0,0.481819489,True,,5f18a5e60ce7b80ab30d90ae,,2640606,179,,evan-feature22,full_rf_b,,1
138,13365,180,,,,1,1,1.0,1.0,-1.0,0.0,,0.0-167.0,,-1.0,659.73,1.0,0.721378003,1.0,0.71605913,0.0,0.36642387,1.0,0.5036739929999999,True,,5f18a5e60ce7b80ab30d90ae,,2651109,180,,evan-feature22,full_rf_b,,0
139,13366,181,,,,1,1,1.0,1.0,0.0,1.0,,0.0-168.0,,1.0,446.77,1.0,0.7340618959999999,1.0,0.699323252,0.0,0.35298046299999997,1.0,0.511241692,True,,5f18a5e60ce7b80ab30d90ae,,2661401,181,,evan-feature22,full_rf_b,,0
140,13367,182,,,,2,2,1.0,0.0,0.0,1.0,,0.0-169.0,,0.0,321.24,1.0,0.75,1.0,0.70412698,1.0,0.380734814,0.0,0.529580116,True,,5f18a5e60ce7b80ab30d90ae,,2671517,182,,evan-feature22,full_rf_b,,1
141,13368,183,,,,1,1,1.0,1.0,0.0,1.0,,0.0-170.0,,1.0,1166.675,1.0,0.7436654909999999,1.0,0.711182751,1.0,0.41125331,0.0,0.49554405,True,,5f18a5e60ce7b80ab30d90ae,,2682483,183,,evan-feature22,full_rf_b,,1
142,13369,184,,,,2,2,0.0,1.0,-1.0,0.0,,0.0-171.0,,0.0,699.54,1.0,0.731607915,0.0,0.651774583,0.0,0.35688023,1.0,0.45194491600000003,True,,5f18a5e60ce7b80ab30d90ae,,2692983,184,,evan-feature22,full_rf_b,,1
143,13370,185,,,,1,1,0.0,1.0,0.0,1.0,,0.0-172.0,,1.0,87.91,0.0,0.75,1.0,0.75,0.0,0.283145374,1.0,0.528608005,True,,5f18a5e60ce7b80ab30d90ae,,2702858,185,,evan-feature22,full_rf_b,,1
144,13371,186,,,,2,2,0.0,1.0,-1.0,0.0,,0.0-173.0,,0.0,478.9,0.0,0.7491416890000001,1.0,0.7423785959999999,0.0,0.29135870399999997,1.0,0.498888318,True,,5f18a5e60ce7b80ab30d90ae,,2713137,186,,evan-feature22,full_rf_b,,1
145,13372,187,,,,2,2,1.0,1.0,0.0,1.0,,0.0-174.0,,1.0,467.195,0.0,0.708569387,0.0,0.717682277,1.0,0.294421699,1.0,0.493838163,True,,5f18a5e60ce7b80ab30d90ae,,2723387,187,,evan-feature22,full_rf_b,,0
146,13373,188,,,,1,1,0.0,1.0,-1.0,0.0,,0.0-175.0,,0.0,263.71,0.0,0.75,1.0,0.7383382159999999,1.0,0.356098707,1.0,0.442533405,True,,5f18a5e60ce7b80ab30d90ae,,2733445,188,,evan-feature22,full_rf_b,,1
147,13374,189,,,,2,2,0.0,0.0,-1.0,0.0,,0.0-176.0,,0.0,373.365,1.0,0.744527075,0.0,0.75,0.0,0.334127506,0.0,0.393165805,True,,5f18a5e60ce7b80ab30d90ae,,2743598,189,,evan-feature22,full_rf_b,,1
148,13375,190,,,,2,2,0.0,1.0,-1.0,0.0,,0.0-177.0,,0.0,39.74500002,1.0,0.75,1.0,0.75,0.0,0.33571021799999995,1.0,0.350393962,True,,5f18a5e60ce7b80ab30d90ae,,2753426,190,,evan-feature22,full_rf_b,,0
149,13376,191,,,,1,1,0.0,1.0,0.0,1.0,,0.0-178.0,,1.0,436.895,0.0,0.75,1.0,0.75,1.0,0.313628297,0.0,0.36349657399999996,True,,5f18a5e60ce7b80ab30d90ae,,2763649,191,,evan-feature22,full_rf_b,,1
150,13377,192,,,,2,2,0.0,1.0,-1.0,0.0,,0.0-179.0,,0.0,450.265,1.0,0.75,1.0,0.734284182,0.0,0.262667667,1.0,0.380199119,True,,5f18a5e60ce7b80ab30d90ae,,2773890,192,,evan-feature22,full_rf_b,,1
151,13378,193,,,,1,1,0.0,1.0,-1.0,0.0,,0.0-180.0,,0.0,448.705,0.0,0.75,1.0,0.75,0.0,0.25,1.0,0.394494013,True,,5f18a5e60ce7b80ab30d90ae,,2784158,193,,evan-feature22,full_rf_b,,1
152,13379,194,,,,2,2,0.0,0.0,-1.0,0.0,,0.0-181.0,,0.0,78.47499999,1.0,0.722298145,0.0,0.7357822340000001,0.0,0.25,0.0,0.319142121,True,,5f18a5e60ce7b80ab30d90ae,,2794018,194,,evan-feature22,full_rf_b,,1
153,13380,195,,,,1,1,0.0,0.0,-1.0,0.0,,0.0-182.0,,0.0,651.855,0.0,0.73149275,0.0,0.724276446,0.0,0.305856907,0.0,0.281315057,True,,5f18a5e60ce7b80ab30d90ae,,2804458,195,,evan-feature22,full_rf_b,,1
154,13381,196,,,,2,2,0.0,0.0,-1.0,0.0,,0.0-183.0,,0.0,646.32,1.0,0.7458732690000001,0.0,0.7336382459999999,0.0,0.272571964,0.0,0.266021999,True,,5f18a5e60ce7b80ab30d90ae,,2814891,196,,evan-feature22,full_rf_b,,1
155,13382,197,,,,2,2,0.0,0.0,0.0,1.0,,0.0-184.0,,0.0,624.16,1.0,0.705579037,1.0,0.720778292,0.0,0.320238144,0.0,0.30971744,True,,5f18a5e60ce7b80ab30d90ae,,2825313,197,,evan-feature22,full_rf_b,,0
156,13383,198,,,,1,1,1.0,1.0,0.0,1.0,,0.0-185.0,,1.0,669.48,1.0,0.700425648,1.0,0.7198784009999999,0.0,0.272590393,1.0,0.304182931,True,,5f18a5e60ce7b80ab30d90ae,,2835776,198,,evan-feature22,full_rf_b,,1
157,13384,199,,,,1,1,1.0,1.0,0.0,1.0,,0.0-186.0,,1.0,552.04,1.0,0.735590785,1.0,0.722714973,0.0,0.25,0.0,0.323421091,True,,5f18a5e60ce7b80ab30d90ae,,2846142,199,,evan-feature22,full_rf_b,,0
158,13385,200,,,,1,1,1.0,1.0,0.0,1.0,,0.0-187.0,,1.0,219.235,1.0,0.724807662,1.0,0.63146213,0.0,0.36836492600000004,0.0,0.34592153299999995,True,,5f18a5e60ce7b80ab30d90ae,,2856151,200,,evan-feature22,full_rf_b,,0
159,13386,201,,,,2,2,0.0,0.0,-1.0,0.0,,0.0-188.0,,0.0,423.53,1.0,0.7352796909999999,1.0,0.555111392,0.0,0.36003922,0.0,0.31433779999999995,True,,5f18a5e60ce7b80ab30d90ae,,2866354,201,,evan-feature22,full_rf_b,,1
160,13387,202,notice,,,,,,,,,,0.0-189.0,"{""Q0"":""yes""}",,12758.0,,,,,,,,,True,,5f18a5e60ce7b80ab30d90ae,,2879118,202,Q,survey-text,full_rf_b,,1
161,13388,203,track1,,[1],,,,,,,,0.0-190.0,"{""Q0"":""no""}",,9006.0,,,,,,,,,True,,5f18a5e60ce7b80ab30d90ae,,2888144,203,Q,evan-quiz,full_rf_b,,1
162,13389,204,track2,,[0],,,,,,,,0.0-191.0,"{""Q0"":""yes""}",,8514.0,,,,,,,,,True,,5f18a5e60ce7b80ab30d90ae,,2896669,204,Q,evan-quiz,full_rf_b,,1
163,13390,205,strat,,,,,,,,,,0.0-192.0,"{""Q0"":""concetrate on the keys""}",,40178.0,,,,,,,,,True,,5f18a5e60ce7b80ab30d90ae,,2936862,205,Q,survey-text,full_rf_b,,1
