,index,Unnamed: 0,Q_name,button_pressed,choice_idxs,chosen_pos,chosen_state,chosen_state_f_1_outcome,chosen_state_f_2_outcome,f_1_reward,f_2_reward,incor_questions,internal_node_id,responses,reward_received,rt,s_1_f_1_outcome,s_1_f_1_prob,s_1_f_2_outcome,s_1_f_2_prob,s_2_f_1_outcome,s_2_f_1_prob,s_2_f_2_outcome,s_2_f_2_prob,safe_first,stimulus,subjectID,success,time_elapsed,trial_index,trial_num,trial_type,version,view_history,switching
0,36999,25,,,,1,1,0.0,1.0,0.0,1.0,,0.0-27.0,,1.0,2276.18,0.0,0.6,1.0,0.6,1.0,0.4,1.0,0.4,True,,5f4e117dbfcaa83f1b418976,,538085,25,,evan-feature22,full_rf_b,,0
1,37000,26,,,,2,2,0.0,0.0,0.0,1.0,,0.0-28.0,,0.0,411.56,1.0,0.608053294,1.0,0.63424552,0.0,0.397152172,0.0,0.347069101,True,,5f4e117dbfcaa83f1b418976,,548267,26,,evan-feature22,full_rf_b,,1
2,37001,27,,,,2,2,0.0,0.0,0.0,1.0,,0.0-29.0,,0.0,702.06,1.0,0.642237155,1.0,0.648566321,0.0,0.389407674,0.0,0.285525717,True,,5f4e117dbfcaa83f1b418976,,558745,27,,evan-feature22,full_rf_b,,0
3,37002,28,,,,1,1,0.0,0.0,0.0,1.0,,0.0-30.0,,0.0,1764.745,0.0,0.661086576,0.0,0.630492543,0.0,0.399058924,1.0,0.25,True,,5f4e117dbfcaa83f1b418976,,570281,28,,evan-feature22,full_rf_b,,1
4,37003,29,,,,2,2,0.0,0.0,0.0,1.0,,0.0-31.0,,0.0,1209.5,1.0,0.631324137,1.0,0.6269842929999999,0.0,0.38734784299999997,0.0,0.25,True,,5f4e117dbfcaa83f1b418976,,581256,29,,evan-feature22,full_rf_b,,1
5,37004,30,,,,1,1,1.0,1.0,0.0,1.0,,0.0-32.0,,1.0,1544.32,1.0,0.6381991370000001,1.0,0.68987999,0.0,0.384107265,1.0,0.271332943,True,,5f4e117dbfcaa83f1b418976,,592578,30,,evan-feature22,full_rf_b,,1
6,37005,31,,,,1,1,1.0,0.0,0.0,1.0,,0.0-33.0,,0.0,706.84,1.0,0.66034901,0.0,0.742641349,0.0,0.360225629,0.0,0.25,True,,5f4e117dbfcaa83f1b418976,,603054,31,,evan-feature22,full_rf_b,,0
7,37006,32,,,,2,2,0.0,1.0,-1.0,0.0,,0.0-34.0,,0.0,1307.81,1.0,0.638612418,1.0,0.75,0.0,0.367273939,1.0,0.25,True,,5f4e117dbfcaa83f1b418976,,614137,32,,evan-feature22,full_rf_b,,1
8,37007,33,,,,1,1,1.0,1.0,0.0,1.0,,0.0-35.0,,1.0,752.145,1.0,0.624340629,1.0,0.75,1.0,0.425829545,0.0,0.25,True,,5f4e117dbfcaa83f1b418976,,624668,33,,evan-feature22,full_rf_b,,1
9,37008,34,,,,2,2,0.0,1.0,0.0,1.0,,0.0-36.0,,1.0,1466.15,0.0,0.621999804,1.0,0.75,0.0,0.368609357,1.0,0.25,True,,5f4e117dbfcaa83f1b418976,,635902,34,,evan-feature22,full_rf_b,,1
10,37009,35,,,,1,1,0.0,1.0,-1.0,0.0,,0.0-37.0,,0.0,1873.165,0.0,0.62666403,1.0,0.75,0.0,0.311151498,0.0,0.25,True,,5f4e117dbfcaa83f1b418976,,647540,35,,evan-feature22,full_rf_b,,1
11,37010,36,,,,1,1,0.0,1.0,-1.0,0.0,,0.0-38.0,,0.0,1234.735,0.0,0.6819650009999999,1.0,0.75,0.0,0.310763048,0.0,0.25,True,,5f4e117dbfcaa83f1b418976,,658546,36,,evan-feature22,full_rf_b,,0
12,37011,37,,,,1,1,1.0,1.0,0.0,1.0,,0.0-39.0,,1.0,1637.915,1.0,0.740626951,1.0,0.75,0.0,0.25,0.0,0.25,True,,5f4e117dbfcaa83f1b418976,,669972,37,,evan-feature22,full_rf_b,,0
13,37012,38,,,,1,1,0.0,1.0,0.0,1.0,,0.0-40.0,,1.0,1626.845,0.0,0.739599242,1.0,0.742034978,0.0,0.25397114600000004,0.0,0.25,True,,5f4e117dbfcaa83f1b418976,,681366,38,,evan-feature22,full_rf_b,,0
14,37013,39,,,,1,1,1.0,0.0,0.0,1.0,,0.0-41.0,,0.0,864.015,1.0,0.732341315,0.0,0.72735643,0.0,0.25,0.0,0.25,True,,5f4e117dbfcaa83f1b418976,,692006,39,,evan-feature22,full_rf_b,,0
15,37014,40,,,,1,1,1.0,1.0,0.0,1.0,,0.0-42.0,,1.0,863.275,1.0,0.7062287770000001,1.0,0.75,1.0,0.29002151,1.0,0.288256649,True,,5f4e117dbfcaa83f1b418976,,702650,40,,evan-feature22,full_rf_b,,0
16,37015,41,,,,2,2,1.0,0.0,-1.0,0.0,,0.0-43.0,,-1.0,485.665,1.0,0.7086029209999999,1.0,0.75,1.0,0.274129113,0.0,0.262851608,True,,5f4e117dbfcaa83f1b418976,,712899,41,,evan-feature22,full_rf_b,,1
17,37016,42,,,,1,1,1.0,1.0,0.0,1.0,,0.0-44.0,,1.0,480.82,1.0,0.669189651,1.0,0.727614338,0.0,0.298444036,0.0,0.296944518,True,,5f4e117dbfcaa83f1b418976,,723173,42,,evan-feature22,full_rf_b,,1
18,37017,43,,,,1,1,1.0,0.0,-1.0,0.0,,0.0-45.0,,-1.0,684.12,1.0,0.6819912929999999,0.0,0.7179434290000001,0.0,0.265003961,0.0,0.28157921199999997,True,,5f4e117dbfcaa83f1b418976,,733630,43,,evan-feature22,full_rf_b,,0
19,37018,44,,,,2,2,1.0,0.0,-1.0,0.0,,0.0-46.0,,-1.0,1029.79,1.0,0.665275002,0.0,0.723065271,1.0,0.260414971,0.0,0.30973870000000003,True,,5f4e117dbfcaa83f1b418976,,744432,44,,evan-feature22,full_rf_b,,1
20,37019,45,,,,1,1,0.0,0.0,0.0,1.0,,0.0-47.0,,0.0,1012.73,0.0,0.6660593260000001,0.0,0.728032907,0.0,0.30922817,0.0,0.338778608,True,,5f4e117dbfcaa83f1b418976,,755210,45,,evan-feature22,full_rf_b,,1
21,37020,46,,,,1,1,1.0,1.0,0.0,1.0,,0.0-48.0,,1.0,929.645,1.0,0.702068785,1.0,0.6528750879999999,0.0,0.287329608,1.0,0.35789613200000003,True,,5f4e117dbfcaa83f1b418976,,765919,46,,evan-feature22,full_rf_b,,0
22,37021,47,,,,1,1,1.0,1.0,0.0,1.0,,0.0-49.0,,1.0,1211.505,1.0,0.651939787,1.0,0.636725589,1.0,0.284834488,1.0,0.358563756,True,,5f4e117dbfcaa83f1b418976,,776913,47,,evan-feature22,full_rf_b,,0
23,37022,48,,,,1,1,1.0,1.0,0.0,1.0,,0.0-50.0,,1.0,1124.29,1.0,0.67573929,1.0,0.612550049,1.0,0.37130387600000003,0.0,0.383542402,True,,5f4e117dbfcaa83f1b418976,,787812,48,,evan-feature22,full_rf_b,,0
24,37023,49,,,,1,1,1.0,0.0,0.0,1.0,,0.0-51.0,,0.0,1367.85,1.0,0.620753801,0.0,0.60513644,0.0,0.385529434,0.0,0.340361743,True,,5f4e117dbfcaa83f1b418976,,798949,49,,evan-feature22,full_rf_b,,0
25,37024,50,,,,2,2,1.0,0.0,-1.0,0.0,,0.0-52.0,,-1.0,1940.215,0.0,0.673564893,0.0,0.672437924,1.0,0.292955382,0.0,0.337633795,True,,5f4e117dbfcaa83f1b418976,,810659,50,,evan-feature22,full_rf_b,,1
26,37025,51,,,,1,1,1.0,1.0,0.0,1.0,,0.0-53.0,,1.0,1275.495,1.0,0.6749427,1.0,0.724197502,1.0,0.32391132100000003,0.0,0.350995264,True,,5f4e117dbfcaa83f1b418976,,821704,51,,evan-feature22,full_rf_b,,1
27,37026,52,,,,1,1,0.0,1.0,0.0,1.0,,0.0-54.0,,1.0,1540.72,0.0,0.6940159379999999,1.0,0.75,0.0,0.31710554399999996,1.0,0.413450341,True,,5f4e117dbfcaa83f1b418976,,833017,52,,evan-feature22,full_rf_b,,0
28,37027,53,,,,1,1,0.0,1.0,0.0,1.0,,0.0-55.0,,1.0,1332.455,0.0,0.6916018270000001,1.0,0.69001187,0.0,0.261817804,0.0,0.40038635,True,,5f4e117dbfcaa83f1b418976,,844115,53,,evan-feature22,full_rf_b,,0
29,37028,54,,,,1,1,0.0,1.0,0.0,1.0,,0.0-56.0,,1.0,1178.225,0.0,0.641061544,1.0,0.71337992,0.0,0.277296461,0.0,0.47372791700000005,True,,5f4e117dbfcaa83f1b418976,,855072,54,,evan-feature22,full_rf_b,,0
30,37029,55,,,,1,1,0.0,1.0,0.0,1.0,,0.0-57.0,,1.0,1641.35,0.0,0.6082438520000001,1.0,0.708471106,1.0,0.28745137,0.0,0.564174476,True,,5f4e117dbfcaa83f1b418976,,866491,55,,evan-feature22,full_rf_b,,0
31,37030,56,,,,2,2,0.0,1.0,-1.0,0.0,,0.0-58.0,,0.0,1129.11,1.0,0.6051112120000001,1.0,0.7118147229999999,0.0,0.272390611,1.0,0.5595149939999999,True,,5f4e117dbfcaa83f1b418976,,877391,56,,evan-feature22,full_rf_b,,1
32,37031,57,,,,2,2,0.0,1.0,-1.0,0.0,,0.0-59.0,,0.0,1381.3,1.0,0.582420852,0.0,0.635867583,0.0,0.31089574,1.0,0.5227206520000001,True,,5f4e117dbfcaa83f1b418976,,888550,57,,evan-feature22,full_rf_b,,0
33,37032,58,,,,2,2,1.0,0.0,-1.0,0.0,,0.0-60.0,,-1.0,1343.24,1.0,0.623195575,0.0,0.655026044,1.0,0.25,0.0,0.560387538,True,,5f4e117dbfcaa83f1b418976,,899662,58,,evan-feature22,full_rf_b,,0
34,37033,59,,,,1,1,1.0,0.0,0.0,1.0,,0.0-61.0,,0.0,1302.27,1.0,0.601889598,0.0,0.678198724,1.0,0.25,1.0,0.559922936,True,,5f4e117dbfcaa83f1b418976,,910735,59,,evan-feature22,full_rf_b,,1
35,37034,60,,,,2,2,0.0,0.0,-1.0,0.0,,0.0-62.0,,0.0,1167.595,1.0,0.601259914,1.0,0.704681482,0.0,0.33908969299999997,0.0,0.505003715,True,,5f4e117dbfcaa83f1b418976,,921675,60,,evan-feature22,full_rf_b,,1
36,37035,61,,,,2,2,1.0,0.0,-1.0,0.0,,0.0-63.0,,-1.0,1592.64,0.0,0.59645454,1.0,0.710437172,1.0,0.327441879,0.0,0.391749613,True,,5f4e117dbfcaa83f1b418976,,933043,61,,evan-feature22,full_rf_b,,0
37,37036,62,,,,1,1,0.0,0.0,0.0,1.0,,0.0-64.0,,0.0,848.38,0.0,0.529473,0.0,0.636758527,1.0,0.301338063,0.0,0.365661481,True,,5f4e117dbfcaa83f1b418976,,943659,62,,evan-feature22,full_rf_b,,1
38,37037,63,,,,2,2,1.0,0.0,-1.0,0.0,,0.0-65.0,,-1.0,1412.025,0.0,0.541657162,0.0,0.634541962,1.0,0.343535366,0.0,0.371763742,True,,5f4e117dbfcaa83f1b418976,,954849,63,,evan-feature22,full_rf_b,,1
39,37038,64,,,,1,1,1.0,0.0,-1.0,0.0,,0.0-66.0,,-1.0,1752.355,1.0,0.5707533260000001,0.0,0.589121171,0.0,0.326428396,0.0,0.43961622899999997,True,,5f4e117dbfcaa83f1b418976,,966378,64,,evan-feature22,full_rf_b,,1
40,37039,65,,,,1,1,1.0,0.0,0.0,1.0,,0.0-67.0,,0.0,1150.045,1.0,0.5707533260000001,0.0,0.589121171,0.0,0.326428396,0.0,0.43961622899999997,True,,5f4e117dbfcaa83f1b418976,,977297,65,,evan-feature22,full_rf_b,,0
41,37040,66,,,,1,1,0.0,1.0,0.0,1.0,,0.0-68.0,,1.0,1305.015,0.0,0.506271295,1.0,0.641775594,0.0,0.37149690700000004,1.0,0.404330166,True,,5f4e117dbfcaa83f1b418976,,988368,66,,evan-feature22,full_rf_b,,0
42,37041,67,,,,1,1,0.0,1.0,-1.0,0.0,,0.0-69.0,,0.0,1721.01,0.0,0.455642565,1.0,0.623605825,0.0,0.358753011,0.0,0.346174041,True,,5f4e117dbfcaa83f1b418976,,999855,67,,evan-feature22,full_rf_b,,0
43,37042,68,,,,1,1,0.0,0.0,0.0,1.0,,0.0-70.0,,0.0,987.19,0.0,0.483677308,0.0,0.5904681070000001,0.0,0.402218411,0.0,0.35344697,True,,5f4e117dbfcaa83f1b418976,,1010613,68,,evan-feature22,full_rf_b,,0
44,37043,69,,,,1,1,0.0,0.0,-1.0,0.0,,0.0-71.0,,0.0,2387.38,0.0,0.394210977,0.0,0.558925494,1.0,0.540052017,1.0,0.35182128700000004,True,,5f4e117dbfcaa83f1b418976,,1022771,69,,evan-feature22,full_rf_b,,0
45,37044,70,,,,1,1,1.0,0.0,0.0,1.0,,0.0-72.0,,0.0,2801.725,1.0,0.382300414,0.0,0.577670603,1.0,0.607608448,1.0,0.378261578,True,,5f4e117dbfcaa83f1b418976,,1035351,70,,evan-feature22,full_rf_b,,0
46,37045,71,,,,1,1,0.0,1.0,-1.0,0.0,,0.0-73.0,,0.0,1361.05,0.0,0.357596762,1.0,0.5929076529999999,0.0,0.6579790010000001,1.0,0.401326777,True,,5f4e117dbfcaa83f1b418976,,1046478,71,,evan-feature22,full_rf_b,,0
47,37046,72,,,,1,1,1.0,0.0,0.0,1.0,,0.0-74.0,,0.0,1014.36,1.0,0.362033495,0.0,0.582308608,1.0,0.649195052,0.0,0.355158505,True,,5f4e117dbfcaa83f1b418976,,1057259,72,,evan-feature22,full_rf_b,,0
48,37047,73,,,,1,1,1.0,1.0,0.0,1.0,,0.0-75.0,,1.0,1293.87,1.0,0.369620635,1.0,0.669100864,1.0,0.706059111,0.0,0.362516241,True,,5f4e117dbfcaa83f1b418976,,1068327,73,,evan-feature22,full_rf_b,,0
49,37048,74,,,,1,1,0.0,1.0,0.0,1.0,,0.0-76.0,,1.0,1356.67,0.0,0.41477751399999996,1.0,0.7284416779999999,1.0,0.7182656940000001,0.0,0.36228040899999997,True,,5f4e117dbfcaa83f1b418976,,1079451,74,,evan-feature22,full_rf_b,,0
50,37049,75,,,,2,2,0.0,1.0,-1.0,0.0,,0.0-77.0,,0.0,1286.465,0.0,0.37675460299999997,1.0,0.703250285,0.0,0.75,1.0,0.461979164,True,,5f4e117dbfcaa83f1b418976,,1090517,75,,evan-feature22,full_rf_b,,1
51,37050,76,,,,2,2,0.0,1.0,-1.0,0.0,,0.0-78.0,,0.0,1327.015,0.0,0.398716075,1.0,0.6723864890000001,0.0,0.674153818,1.0,0.519029516,True,,5f4e117dbfcaa83f1b418976,,1101617,76,,evan-feature22,full_rf_b,,0
52,37051,77,,,,2,2,1.0,1.0,-1.0,0.0,,0.0-79.0,,-1.0,1594.905,0.0,0.34677856700000004,1.0,0.69057175,1.0,0.6822438540000001,1.0,0.477292237,True,,5f4e117dbfcaa83f1b418976,,1112984,77,,evan-feature22,full_rf_b,,0
53,37052,78,,,,1,1,0.0,0.0,0.0,1.0,,0.0-80.0,,0.0,1083.83,0.0,0.28580469199999997,0.0,0.68408818,1.0,0.684207565,0.0,0.49780448299999996,True,,5f4e117dbfcaa83f1b418976,,1123832,78,,evan-feature22,full_rf_b,,1
54,37054,80,,,,1,1,0.0,0.0,0.0,1.0,,0.0-82.0,,0.0,2722.72,0.0,0.25,0.0,0.7405808970000001,0.0,0.679614108,1.0,0.436436964,True,,5f4e117dbfcaa83f1b418976,,1141063,80,,evan-feature22,full_rf_b,,0
55,37055,81,,,,1,1,0.0,0.0,0.0,1.0,,0.0-83.0,,0.0,1478.81,0.0,0.29890393,0.0,0.730505706,1.0,0.7328203320000001,1.0,0.439256938,True,,5f4e117dbfcaa83f1b418976,,1152308,81,,evan-feature22,full_rf_b,,0
56,37056,82,,,,2,2,1.0,0.0,-1.0,0.0,,0.0-84.0,,-1.0,1165.135,1.0,0.326762398,1.0,0.7148059609999999,1.0,0.75,0.0,0.44389608799999997,True,,5f4e117dbfcaa83f1b418976,,1163253,82,,evan-feature22,full_rf_b,,1
57,37057,83,,,,1,1,1.0,1.0,0.0,1.0,,0.0-85.0,,1.0,1331.385,1.0,0.295168515,1.0,0.739760854,1.0,0.719947008,0.0,0.35277284600000003,True,,5f4e117dbfcaa83f1b418976,,1174361,83,,evan-feature22,full_rf_b,,1
58,37058,84,,,,1,1,0.0,1.0,0.0,1.0,,0.0-86.0,,1.0,977.51,0.0,0.25,1.0,0.70781482,1.0,0.75,0.0,0.286095925,True,,5f4e117dbfcaa83f1b418976,,1185106,84,,evan-feature22,full_rf_b,,0
59,37059,85,,,,1,1,0.0,1.0,0.0,1.0,,0.0-87.0,,1.0,1191.86,0.0,0.25638190899999996,1.0,0.704088163,0.0,0.75,0.0,0.26872601399999996,True,,5f4e117dbfcaa83f1b418976,,1196072,85,,evan-feature22,full_rf_b,,0
60,37060,86,,,,2,2,1.0,1.0,-1.0,0.0,,0.0-88.0,,-1.0,1865.7,0.0,0.271581126,1.0,0.669760107,1.0,0.733896663,1.0,0.273244572,True,,5f4e117dbfcaa83f1b418976,,1207712,86,,evan-feature22,full_rf_b,,1
61,37061,87,,,,1,1,0.0,0.0,0.0,1.0,,0.0-89.0,,0.0,1199.43,0.0,0.257144401,0.0,0.600575706,1.0,0.74488122,1.0,0.25,True,,5f4e117dbfcaa83f1b418976,,1218684,87,,evan-feature22,full_rf_b,,1
62,37062,88,,,,1,1,0.0,1.0,0.0,1.0,,0.0-90.0,,1.0,1055.645,0.0,0.25,1.0,0.616870026,1.0,0.723610234,0.0,0.25,True,,5f4e117dbfcaa83f1b418976,,1229513,88,,evan-feature22,full_rf_b,,0
63,37063,89,,,,1,1,0.0,1.0,-1.0,0.0,,0.0-91.0,,0.0,1448.035,0.0,0.25,1.0,0.583540187,1.0,0.7041042559999999,0.0,0.285961995,True,,5f4e117dbfcaa83f1b418976,,1240734,89,,evan-feature22,full_rf_b,,0
64,37064,90,,,,2,2,1.0,0.0,-1.0,0.0,,0.0-92.0,,-1.0,3325.84,1.0,0.27254536,1.0,0.53875765,1.0,0.693783448,0.0,0.284961652,True,,5f4e117dbfcaa83f1b418976,,1253825,90,,evan-feature22,full_rf_b,,1
65,37065,91,,,,1,1,1.0,0.0,-1.0,0.0,,0.0-93.0,,-1.0,2131.955,1.0,0.25,0.0,0.548431252,1.0,0.734221895,1.0,0.279445214,True,,5f4e117dbfcaa83f1b418976,,1265726,91,,evan-feature22,full_rf_b,,1
66,37066,92,,,,1,1,0.0,0.0,0.0,1.0,,0.0-94.0,,0.0,1382.075,0.0,0.258640684,0.0,0.545878066,1.0,0.725245965,1.0,0.31487537,True,,5f4e117dbfcaa83f1b418976,,1276878,92,,evan-feature22,full_rf_b,,0
67,37067,93,,,,1,1,0.0,1.0,0.0,1.0,,0.0-95.0,,1.0,807.57,0.0,0.251103711,1.0,0.5776290629999999,1.0,0.696320133,1.0,0.317831047,True,,5f4e117dbfcaa83f1b418976,,1287462,93,,evan-feature22,full_rf_b,,0
68,37068,94,,,,1,1,0.0,0.0,0.0,1.0,,0.0-96.0,,0.0,1601.79,0.0,0.276630292,0.0,0.617329858,0.0,0.73838088,0.0,0.261471582,True,,5f4e117dbfcaa83f1b418976,,1298830,94,,evan-feature22,full_rf_b,,0
69,37069,95,,,,1,1,0.0,0.0,0.0,1.0,,0.0-97.0,,0.0,1117.585,0.0,0.297716424,0.0,0.618863717,1.0,0.7402358259999999,0.0,0.262600834,True,,5f4e117dbfcaa83f1b418976,,1309720,95,,evan-feature22,full_rf_b,,0
70,37070,96,,,,2,2,1.0,1.0,-1.0,0.0,,0.0-98.0,,-1.0,1721.065,0.0,0.290935512,1.0,0.695370945,1.0,0.706570507,1.0,0.280030553,True,,5f4e117dbfcaa83f1b418976,,1321213,96,,evan-feature22,full_rf_b,,1
71,37071,97,,,,1,1,0.0,1.0,0.0,1.0,,0.0-99.0,,1.0,946.305,0.0,0.25,1.0,0.6465277079999999,0.0,0.67766682,0.0,0.25,True,,5f4e117dbfcaa83f1b418976,,1331933,97,,evan-feature22,full_rf_b,,1
72,37072,98,,,,1,1,1.0,1.0,-1.0,0.0,,0.0-100.0,,-1.0,1532.8,1.0,0.26463816,1.0,0.636100213,1.0,0.646048507,0.0,0.265607101,True,,5f4e117dbfcaa83f1b418976,,1343240,98,,evan-feature22,full_rf_b,,0
73,37073,99,,,,2,2,1.0,0.0,-1.0,0.0,,0.0-101.0,,-1.0,2483.855,1.0,0.314340707,0.0,0.667795927,1.0,0.613630805,0.0,0.25,True,,5f4e117dbfcaa83f1b418976,,1355493,99,,evan-feature22,full_rf_b,,1
74,37074,100,,,,1,1,1.0,1.0,0.0,1.0,,0.0-102.0,,1.0,816.355,1.0,0.28685784,1.0,0.6622549529999999,0.0,0.652154117,0.0,0.25,True,,5f4e117dbfcaa83f1b418976,,1366079,100,,evan-feature22,full_rf_b,,1
75,37075,101,,,,1,1,0.0,1.0,0.0,1.0,,0.0-103.0,,1.0,2018.225,0.0,0.304106554,1.0,0.631289538,1.0,0.707041942,0.0,0.29314237,True,,5f4e117dbfcaa83f1b418976,,1377863,101,,evan-feature22,full_rf_b,,0
76,37076,102,,,,1,1,1.0,0.0,0.0,1.0,,0.0-104.0,,0.0,975.06,1.0,0.304806932,0.0,0.571167718,1.0,0.680472346,1.0,0.25,True,,5f4e117dbfcaa83f1b418976,,1388611,102,,evan-feature22,full_rf_b,,0
77,37077,103,,,,1,1,0.0,1.0,0.0,1.0,,0.0-105.0,,1.0,1024.18,0.0,0.37919861,1.0,0.5724849710000001,1.0,0.705638003,0.0,0.30179300600000003,True,,5f4e117dbfcaa83f1b418976,,1399403,103,,evan-feature22,full_rf_b,,0
78,37078,104,,,,1,1,1.0,0.0,0.0,1.0,,0.0-106.0,,0.0,713.515,1.0,0.464277969,0.0,0.554034373,1.0,0.7372627340000001,0.0,0.264699741,True,,5f4e117dbfcaa83f1b418976,,1409903,104,,evan-feature22,full_rf_b,,0
79,37079,105,,,,1,1,0.0,1.0,0.0,1.0,,0.0-107.0,,1.0,1787.81,0.0,0.465104323,1.0,0.530793115,1.0,0.75,0.0,0.31683071,True,,5f4e117dbfcaa83f1b418976,,1421461,105,,evan-feature22,full_rf_b,,0
80,37080,106,,,,2,2,1.0,1.0,-1.0,0.0,,0.0-108.0,,-1.0,1541.085,0.0,0.465104323,1.0,0.530793115,1.0,0.75,1.0,0.31683071,True,,5f4e117dbfcaa83f1b418976,,1432772,106,,evan-feature22,full_rf_b,,1
81,37081,107,,,,2,2,1.0,0.0,-1.0,0.0,,0.0-109.0,,-1.0,1544.27,1.0,0.46833986,0.0,0.570249239,1.0,0.7244472590000001,0.0,0.364114163,True,,5f4e117dbfcaa83f1b418976,,1444090,107,,evan-feature22,full_rf_b,,0
82,37082,108,,,,SLOW,SLOW,,,-1.0,0.0,,0.0-110.0,,-3.0,,1.0,0.445444024,1.0,0.649673355,0.0,0.6845441290000001,1.0,0.300660449,True,,5f4e117dbfcaa83f1b418976,,1449901,108,,evan-feature22,full_rf_b,,1
83,37083,109,,,,2,2,1.0,0.0,-1.0,0.0,,0.0-111.0,,-1.0,1835.96,1.0,0.39909721299999995,1.0,0.6715179509999999,1.0,0.742310028,0.0,0.35496088299999995,True,,5f4e117dbfcaa83f1b418976,,1461510,109,,evan-feature22,full_rf_b,,1
84,37084,110,,,,1,1,0.0,0.0,0.0,1.0,,0.0-112.0,,0.0,854.55,0.0,0.37956104799999996,0.0,0.694725302,0.0,0.7181651309999999,0.0,0.38726906299999997,True,,5f4e117dbfcaa83f1b418976,,1472142,110,,evan-feature22,full_rf_b,,1
85,37085,111,,,,1,1,0.0,0.0,0.0,1.0,,0.0-113.0,,0.0,1364.305,0.0,0.404995034,0.0,0.724375412,1.0,0.6910946859999999,0.0,0.387187347,True,,5f4e117dbfcaa83f1b418976,,1483274,111,,evan-feature22,full_rf_b,,0
86,37086,112,,,,2,2,0.0,0.0,-1.0,0.0,,0.0-114.0,,0.0,851.945,0.0,0.461740803,1.0,0.75,0.0,0.75,0.0,0.34872038200000005,True,,5f4e117dbfcaa83f1b418976,,1493899,112,,evan-feature22,full_rf_b,,1
87,37087,113,,,,1,1,0.0,1.0,-1.0,0.0,,0.0-115.0,,0.0,587.025,0.0,0.43821380600000004,1.0,0.738833273,1.0,0.728286963,1.0,0.399538128,True,,5f4e117dbfcaa83f1b418976,,1504259,113,,evan-feature22,full_rf_b,,1
88,37088,114,,,,1,1,1.0,1.0,0.0,1.0,,0.0-116.0,,1.0,573.565,1.0,0.41709882,1.0,0.736666736,1.0,0.75,0.0,0.389095584,True,,5f4e117dbfcaa83f1b418976,,1514613,114,,evan-feature22,full_rf_b,,0
89,37089,115,,,,1,1,1.0,1.0,0.0,1.0,,0.0-117.0,,1.0,783.075,1.0,0.39749009799999996,1.0,0.744320029,1.0,0.75,1.0,0.363848678,True,,5f4e117dbfcaa83f1b418976,,1525167,115,,evan-feature22,full_rf_b,,0
90,37090,116,,,,2,2,1.0,0.0,-1.0,0.0,,0.0-118.0,,-1.0,1900.56,1.0,0.392653706,1.0,0.75,1.0,0.75,0.0,0.384386976,True,,5f4e117dbfcaa83f1b418976,,1536844,116,,evan-feature22,full_rf_b,,1
91,37091,117,,,,1,1,1.0,1.0,0.0,1.0,,0.0-119.0,,1.0,992.825,1.0,0.31190902600000003,1.0,0.75,0.0,0.732413819,0.0,0.413082932,True,,5f4e117dbfcaa83f1b418976,,1547617,117,,evan-feature22,full_rf_b,,1
92,37092,118,,,,2,2,0.0,1.0,-1.0,0.0,,0.0-120.0,,0.0,2000.385,0.0,0.366917648,1.0,0.740073855,0.0,0.75,1.0,0.352861979,True,,5f4e117dbfcaa83f1b418976,,1559383,118,,evan-feature22,full_rf_b,,1
93,37093,119,,,,1,1,0.0,1.0,-1.0,0.0,,0.0-121.0,,0.0,1687.695,0.0,0.3645172,1.0,0.721770713,1.0,0.75,0.0,0.404074511,True,,5f4e117dbfcaa83f1b418976,,1570843,119,,evan-feature22,full_rf_b,,1
94,37094,120,,,,1,1,1.0,0.0,-1.0,0.0,,0.0-122.0,,-1.0,1275.03,1.0,0.35205600299999995,0.0,0.68983859,0.0,0.739735447,0.0,0.366895945,True,,5f4e117dbfcaa83f1b418976,,1581892,120,,evan-feature22,full_rf_b,,0
95,37095,121,,,,2,2,0.0,1.0,-1.0,0.0,,0.0-123.0,,0.0,1038.25,0.0,0.40998722600000004,1.0,0.720859127,0.0,0.673854955,1.0,0.368528541,True,,5f4e117dbfcaa83f1b418976,,1592694,121,,evan-feature22,full_rf_b,,1
96,37096,122,,,,2,2,0.0,0.0,-1.0,0.0,,0.0-124.0,,0.0,1014.14,0.0,0.353625316,1.0,0.75,0.0,0.695605473,0.0,0.38303674200000004,True,,5f4e117dbfcaa83f1b418976,,1603474,122,,evan-feature22,full_rf_b,,0
97,37097,123,,,,2,2,1.0,0.0,-1.0,0.0,,0.0-125.0,,-1.0,1107.625,0.0,0.359216989,0.0,0.75,1.0,0.6987915090000001,0.0,0.35169046200000004,True,,5f4e117dbfcaa83f1b418976,,1614351,123,,evan-feature22,full_rf_b,,0
98,37098,124,,,,1,1,0.0,0.0,-1.0,0.0,,0.0-126.0,,0.0,1449.985,0.0,0.35834496899999996,0.0,0.75,1.0,0.707067742,1.0,0.416763636,True,,5f4e117dbfcaa83f1b418976,,1625568,124,,evan-feature22,full_rf_b,,1
99,37099,125,,,,1,1,1.0,0.0,0.0,1.0,,0.0-127.0,,0.0,668.565,1.0,0.38741613799999997,0.0,0.7177369570000001,1.0,0.734902455,1.0,0.49438664299999996,True,,5f4e117dbfcaa83f1b418976,,1636005,125,,evan-feature22,full_rf_b,,0
100,37100,126,,,,1,1,1.0,1.0,-1.0,0.0,,0.0-128.0,,-1.0,2876.93,1.0,0.405255252,1.0,0.7300466640000001,0.0,0.7027748070000001,0.0,0.504359668,True,,5f4e117dbfcaa83f1b418976,,1648659,126,,evan-feature22,full_rf_b,,0
101,37101,127,,,,1,1,0.0,1.0,-1.0,0.0,,0.0-129.0,,0.0,2821.905,0.0,0.40697073,1.0,0.7260142190000001,1.0,0.724461982,0.0,0.522779179,True,,5f4e117dbfcaa83f1b418976,,1661264,127,,evan-feature22,full_rf_b,,0
102,37102,128,,,,1,1,0.0,0.0,-1.0,0.0,,0.0-130.0,,0.0,1221.325,0.0,0.43906215299999996,0.0,0.7252802340000001,1.0,0.719079934,1.0,0.5712990579999999,True,,5f4e117dbfcaa83f1b418976,,1672253,128,,evan-feature22,full_rf_b,,0
103,37103,129,,,,1,1,0.0,1.0,0.0,1.0,,0.0-131.0,,1.0,1048.2,0.0,0.4076705,1.0,0.73280499,1.0,0.681313127,1.0,0.523891346,True,,5f4e117dbfcaa83f1b418976,,1683071,129,,evan-feature22,full_rf_b,,0
104,37104,130,,,,1,1,0.0,1.0,0.0,1.0,,0.0-132.0,,1.0,862.53,0.0,0.399102911,1.0,0.730498344,0.0,0.661080239,1.0,0.46742603,True,,5f4e117dbfcaa83f1b418976,,1693708,130,,evan-feature22,full_rf_b,,0
105,37105,131,,,,1,1,0.0,0.0,0.0,1.0,,0.0-133.0,,0.0,1234.645,0.0,0.356477282,0.0,0.712296395,1.0,0.641812684,0.0,0.44868414,True,,5f4e117dbfcaa83f1b418976,,1704711,131,,evan-feature22,full_rf_b,,0
106,37106,132,,,,1,1,0.0,0.0,-1.0,0.0,,0.0-134.0,,0.0,1524.075,0.0,0.462760722,0.0,0.692349322,1.0,0.700947931,1.0,0.394680266,True,,5f4e117dbfcaa83f1b418976,,1716000,132,,evan-feature22,full_rf_b,,0
107,37107,133,,,,1,1,0.0,1.0,-1.0,0.0,,0.0-135.0,,0.0,1191.26,0.0,0.422306413,1.0,0.718375916,1.0,0.706340917,1.0,0.367787185,True,,5f4e117dbfcaa83f1b418976,,1726962,133,,evan-feature22,full_rf_b,,0
108,37109,135,,,,1,1,1.0,1.0,-1.0,0.0,,0.0-137.0,,-1.0,1492.4,1.0,0.4582233,1.0,0.643834117,1.0,0.75,0.0,0.39615823299999997,True,,5f4e117dbfcaa83f1b418976,,1743631,135,,evan-feature22,full_rf_b,,0
109,37110,136,,,,1,1,1.0,1.0,-1.0,0.0,,0.0-138.0,,-1.0,2105.43,1.0,0.43813437899999996,1.0,0.651283804,0.0,0.729674191,0.0,0.37711048,True,,5f4e117dbfcaa83f1b418976,,1755510,136,,evan-feature22,full_rf_b,,0
110,37111,137,,,,1,1,0.0,0.0,-1.0,0.0,,0.0-139.0,,0.0,1098.845,0.0,0.471199094,0.0,0.6470010979999999,0.0,0.715008097,1.0,0.410656191,True,,5f4e117dbfcaa83f1b418976,,1766380,137,,evan-feature22,full_rf_b,,0
111,37112,138,,,,1,1,1.0,1.0,-1.0,0.0,,0.0-140.0,,-1.0,1824.94,1.0,0.42486406,1.0,0.629771829,1.0,0.6550939960000001,0.0,0.459093873,True,,5f4e117dbfcaa83f1b418976,,1777984,138,,evan-feature22,full_rf_b,,0
112,37113,139,,,,2,2,1.0,0.0,-1.0,0.0,,0.0-141.0,,-1.0,757.835,1.0,0.4803197,1.0,0.645842715,1.0,0.6421749920000001,0.0,0.443092151,True,,5f4e117dbfcaa83f1b418976,,1788518,139,,evan-feature22,full_rf_b,,1
113,37114,140,,,,1,1,0.0,1.0,0.0,1.0,,0.0-142.0,,1.0,1121.02,0.0,0.521848997,1.0,0.735801074,0.0,0.6691348460000001,0.0,0.45259351600000003,True,,5f4e117dbfcaa83f1b418976,,1799411,140,,evan-feature22,full_rf_b,,1
114,37115,141,,,,1,1,1.0,1.0,-1.0,0.0,,0.0-143.0,,-1.0,2006.96,1.0,0.49565621299999996,1.0,0.742400847,0.0,0.661512553,1.0,0.483110831,True,,5f4e117dbfcaa83f1b418976,,1811195,141,,evan-feature22,full_rf_b,,0
115,37116,142,,,,1,1,0.0,0.0,-1.0,0.0,,0.0-144.0,,0.0,1703.195,0.0,0.521564361,0.0,0.731078632,1.0,0.6774886809999999,0.0,0.483263956,True,,5f4e117dbfcaa83f1b418976,,1822666,142,,evan-feature22,full_rf_b,,0
116,37117,143,,,,2,2,1.0,1.0,-1.0,0.0,,0.0-145.0,,-1.0,1492.01,1.0,0.558893102,1.0,0.719810023,1.0,0.67461031,1.0,0.499349834,True,,5f4e117dbfcaa83f1b418976,,1833935,143,,evan-feature22,full_rf_b,,1
117,37118,144,,,,1,1,0.0,1.0,-1.0,0.0,,0.0-146.0,,0.0,1633.94,0.0,0.611031046,1.0,0.75,1.0,0.688072995,0.0,0.5321422729999999,True,,5f4e117dbfcaa83f1b418976,,1845335,144,,evan-feature22,full_rf_b,,1
118,37119,145,,,,1,1,0.0,1.0,0.0,1.0,,0.0-147.0,,1.0,1079.48,0.0,0.633223941,1.0,0.713567728,1.0,0.75,1.0,0.48185314700000004,True,,5f4e117dbfcaa83f1b418976,,1856185,145,,evan-feature22,full_rf_b,,0
119,37120,146,,,,1,1,0.0,1.0,-1.0,0.0,,0.0-148.0,,0.0,1786.075,0.0,0.664001694,1.0,0.705509768,1.0,0.75,1.0,0.500211065,True,,5f4e117dbfcaa83f1b418976,,1867746,146,,evan-feature22,full_rf_b,,0
120,37121,147,,,,1,1,1.0,1.0,-1.0,0.0,,0.0-149.0,,-1.0,1242.095,1.0,0.664001694,1.0,0.705509768,0.0,0.75,1.0,0.500211065,True,,5f4e117dbfcaa83f1b418976,,1878769,147,,evan-feature22,full_rf_b,,0
121,37122,148,,,,2,2,1.0,1.0,-1.0,0.0,,0.0-150.0,,-1.0,2558.925,1.0,0.696508041,1.0,0.71066027,1.0,0.717028709,1.0,0.49792991,True,,5f4e117dbfcaa83f1b418976,,1891101,148,,evan-feature22,full_rf_b,,1
122,37123,149,,,,1,1,0.0,1.0,0.0,1.0,,0.0-151.0,,1.0,646.92,0.0,0.699883272,1.0,0.75,1.0,0.713543895,0.0,0.496962643,True,,5f4e117dbfcaa83f1b418976,,1901521,149,,evan-feature22,full_rf_b,,1
123,37124,150,,,,1,1,0.0,1.0,0.0,1.0,,0.0-152.0,,1.0,788.675,0.0,0.741163419,1.0,0.75,1.0,0.64691024,1.0,0.513858197,True,,5f4e117dbfcaa83f1b418976,,1912074,150,,evan-feature22,full_rf_b,,0
124,37125,151,,,,1,1,0.0,1.0,0.0,1.0,,0.0-153.0,,1.0,551.93,0.0,0.75,1.0,0.70816558,1.0,0.594499079,0.0,0.48502124,True,,5f4e117dbfcaa83f1b418976,,1922395,151,,evan-feature22,full_rf_b,,0
125,37126,152,,,,2,2,0.0,1.0,-1.0,0.0,,0.0-154.0,,0.0,1472.235,0.0,0.75,0.0,0.721848901,0.0,0.62197249,1.0,0.48263586399999997,True,,5f4e117dbfcaa83f1b418976,,1933637,152,,evan-feature22,full_rf_b,,1
126,37127,153,,,,2,2,1.0,1.0,-1.0,0.0,,0.0-155.0,,-1.0,1592.65,1.0,0.75,1.0,0.74813071,1.0,0.584357161,1.0,0.411477782,True,,5f4e117dbfcaa83f1b418976,,1945006,153,,evan-feature22,full_rf_b,,0
127,37128,154,,,,2,2,0.0,0.0,-1.0,0.0,,0.0-156.0,,0.0,1055.595,1.0,0.75,1.0,0.75,0.0,0.52287236,0.0,0.488290656,True,,5f4e117dbfcaa83f1b418976,,1955829,154,,evan-feature22,full_rf_b,,0
128,37129,155,,,,2,2,1.0,1.0,-1.0,0.0,,0.0-157.0,,-1.0,756.725,1.0,0.75,1.0,0.75,1.0,0.544321581,1.0,0.53143059,True,,5f4e117dbfcaa83f1b418976,,1966356,155,,evan-feature22,full_rf_b,,0
129,37130,156,,,,1,1,1.0,1.0,-1.0,0.0,,0.0-158.0,,-1.0,1315.13,1.0,0.726754564,1.0,0.75,0.0,0.5129306370000001,1.0,0.530592445,True,,5f4e117dbfcaa83f1b418976,,1977441,156,,evan-feature22,full_rf_b,,1
130,37131,157,,,,1,1,0.0,0.0,0.0,1.0,,0.0-159.0,,0.0,538.825,0.0,0.75,0.0,0.7392590729999999,1.0,0.479875835,1.0,0.547007051,True,,5f4e117dbfcaa83f1b418976,,1987742,157,,evan-feature22,full_rf_b,,0
131,37132,158,,,,1,1,1.0,0.0,0.0,1.0,,0.0-160.0,,0.0,578.895,1.0,0.75,0.0,0.7393376979999999,1.0,0.546045419,1.0,0.541267353,True,,5f4e117dbfcaa83f1b418976,,1998095,158,,evan-feature22,full_rf_b,,0
132,37133,159,,,,1,1,1.0,1.0,-1.0,0.0,,0.0-161.0,,-1.0,1085.36,1.0,0.75,1.0,0.75,0.0,0.485725895,1.0,0.527625395,True,,5f4e117dbfcaa83f1b418976,,2008964,159,,evan-feature22,full_rf_b,,0
133,37134,160,,,,1,1,1.0,1.0,0.0,1.0,,0.0-162.0,,1.0,902.455,1.0,0.75,1.0,0.725087974,0.0,0.488603595,1.0,0.504019206,True,,5f4e117dbfcaa83f1b418976,,2019631,160,,evan-feature22,full_rf_b,,0
134,37135,161,,,,2,2,0.0,1.0,-1.0,0.0,,0.0-163.0,,0.0,1490.73,1.0,0.745504295,0.0,0.75,0.0,0.452379914,1.0,0.50131194,True,,5f4e117dbfcaa83f1b418976,,2030888,161,,evan-feature22,full_rf_b,,1
135,37136,162,,,,1,1,1.0,1.0,0.0,1.0,,0.0-164.0,,1.0,553.49,1.0,0.728513874,1.0,0.75,1.0,0.44125567200000004,0.0,0.531454591,True,,5f4e117dbfcaa83f1b418976,,2041209,162,,evan-feature22,full_rf_b,,1
136,37137,163,,,,2,2,0.0,1.0,-1.0,0.0,,0.0-165.0,,0.0,947.075,1.0,0.73790804,0.0,0.75,0.0,0.413036656,1.0,0.524619035,True,,5f4e117dbfcaa83f1b418976,,2051923,163,,evan-feature22,full_rf_b,,1
137,37138,164,,,,2,2,1.0,1.0,-1.0,0.0,,0.0-166.0,,-1.0,948.035,1.0,0.7080961309999999,1.0,0.708666865,1.0,0.431915581,1.0,0.481819489,True,,5f4e117dbfcaa83f1b418976,,2062638,164,,evan-feature22,full_rf_b,,0
138,37139,165,,,,1,1,0.0,1.0,-1.0,0.0,,0.0-167.0,,0.0,1193.595,0.0,0.721378003,1.0,0.71605913,0.0,0.36642387,0.0,0.5036739929999999,True,,5f4e117dbfcaa83f1b418976,,2073607,165,,evan-feature22,full_rf_b,,1
139,37140,166,,,,1,1,1.0,0.0,0.0,1.0,,0.0-168.0,,0.0,758.15,1.0,0.7340618959999999,0.0,0.699323252,0.0,0.35298046299999997,1.0,0.511241692,True,,5f4e117dbfcaa83f1b418976,,2084131,166,,evan-feature22,full_rf_b,,0
140,37141,167,,,,1,1,1.0,0.0,0.0,1.0,,0.0-169.0,,0.0,629.155,1.0,0.75,0.0,0.70412698,0.0,0.380734814,1.0,0.529580116,True,,5f4e117dbfcaa83f1b418976,,2094527,167,,evan-feature22,full_rf_b,,0
141,37142,168,,,,1,1,1.0,1.0,0.0,1.0,,0.0-170.0,,1.0,751.595,1.0,0.7436654909999999,1.0,0.711182751,1.0,0.41125331,1.0,0.49554405,True,,5f4e117dbfcaa83f1b418976,,2105059,168,,evan-feature22,full_rf_b,,0
142,37143,169,,,,1,1,0.0,0.0,-1.0,0.0,,0.0-171.0,,0.0,571.105,0.0,0.731607915,0.0,0.651774583,0.0,0.35688023,0.0,0.45194491600000003,True,,5f4e117dbfcaa83f1b418976,,2115397,169,,evan-feature22,full_rf_b,,0
143,37144,170,,,,1,1,1.0,1.0,0.0,1.0,,0.0-172.0,,1.0,806.535,1.0,0.75,1.0,0.75,0.0,0.283145374,0.0,0.528608005,True,,5f4e117dbfcaa83f1b418976,,2125974,170,,evan-feature22,full_rf_b,,0
144,37145,171,,,,2,2,0.0,1.0,-1.0,0.0,,0.0-173.0,,0.0,1369.095,1.0,0.7491416890000001,1.0,0.7423785959999999,0.0,0.29135870399999997,1.0,0.498888318,True,,5f4e117dbfcaa83f1b418976,,2137111,171,,evan-feature22,full_rf_b,,1
145,37146,172,,,,1,1,0.0,0.0,0.0,1.0,,0.0-174.0,,0.0,879.535,0.0,0.708569387,0.0,0.717682277,0.0,0.294421699,1.0,0.493838163,True,,5f4e117dbfcaa83f1b418976,,2147757,172,,evan-feature22,full_rf_b,,1
146,37147,173,,,,1,1,1.0,1.0,-1.0,0.0,,0.0-175.0,,-1.0,1320.25,1.0,0.75,1.0,0.7383382159999999,0.0,0.356098707,0.0,0.442533405,True,,5f4e117dbfcaa83f1b418976,,2158854,173,,evan-feature22,full_rf_b,,0
147,37148,174,,,,1,1,0.0,1.0,-1.0,0.0,,0.0-176.0,,0.0,1339.13,0.0,0.744527075,1.0,0.75,0.0,0.334127506,0.0,0.393165805,True,,5f4e117dbfcaa83f1b418976,,2169962,174,,evan-feature22,full_rf_b,,0
148,37149,175,,,,1,1,0.0,1.0,-1.0,0.0,,0.0-177.0,,0.0,975.835,0.0,0.75,1.0,0.75,1.0,0.33571021799999995,0.0,0.350393962,True,,5f4e117dbfcaa83f1b418976,,2180706,175,,evan-feature22,full_rf_b,,0
149,37150,176,,,,1,1,1.0,0.0,0.0,1.0,,0.0-178.0,,0.0,1173.15,1.0,0.75,0.0,0.75,0.0,0.313628297,0.0,0.36349657399999996,True,,5f4e117dbfcaa83f1b418976,,2191645,176,,evan-feature22,full_rf_b,,0
150,37151,177,,,,1,1,0.0,1.0,-1.0,0.0,,0.0-179.0,,0.0,1484.775,0.0,0.75,1.0,0.734284182,1.0,0.262667667,0.0,0.380199119,True,,5f4e117dbfcaa83f1b418976,,2202897,177,,evan-feature22,full_rf_b,,0
151,37152,178,,,,1,1,1.0,1.0,-1.0,0.0,,0.0-180.0,,-1.0,1142.45,1.0,0.75,1.0,0.75,0.0,0.25,1.0,0.394494013,True,,5f4e117dbfcaa83f1b418976,,2213811,178,,evan-feature22,full_rf_b,,0
152,37153,179,,,,1,1,1.0,1.0,-1.0,0.0,,0.0-181.0,,-1.0,1293.025,1.0,0.722298145,1.0,0.7357822340000001,0.0,0.25,1.0,0.319142121,True,,5f4e117dbfcaa83f1b418976,,2224883,179,,evan-feature22,full_rf_b,,0
153,37154,180,,,,2,2,0.0,0.0,-1.0,0.0,,0.0-182.0,,0.0,896.03,0.0,0.73149275,1.0,0.724276446,0.0,0.305856907,0.0,0.281315057,True,,5f4e117dbfcaa83f1b418976,,2235550,180,,evan-feature22,full_rf_b,,1
154,37155,181,,,,2,2,0.0,0.0,-1.0,0.0,,0.0-183.0,,0.0,1328.77,1.0,0.7458732690000001,1.0,0.7336382459999999,0.0,0.272571964,0.0,0.266021999,True,,5f4e117dbfcaa83f1b418976,,2246646,181,,evan-feature22,full_rf_b,,0
155,37156,182,,,,1,1,1.0,1.0,0.0,1.0,,0.0-184.0,,1.0,701.735,1.0,0.705579037,1.0,0.720778292,0.0,0.320238144,1.0,0.30971744,True,,5f4e117dbfcaa83f1b418976,,2257119,182,,evan-feature22,full_rf_b,,1
156,37157,183,,,,1,1,1.0,0.0,0.0,1.0,,0.0-185.0,,0.0,906.45,1.0,0.700425648,0.0,0.7198784009999999,1.0,0.272590393,0.0,0.304182931,True,,5f4e117dbfcaa83f1b418976,,2267794,183,,evan-feature22,full_rf_b,,0
157,37158,184,,,,1,1,1.0,1.0,0.0,1.0,,0.0-186.0,,1.0,805.315,1.0,0.735590785,1.0,0.722714973,0.0,0.25,1.0,0.323421091,True,,5f4e117dbfcaa83f1b418976,,2278374,184,,evan-feature22,full_rf_b,,0
158,37159,185,,,,1,1,1.0,1.0,0.0,1.0,,0.0-187.0,,1.0,657.05,1.0,0.724807662,1.0,0.63146213,0.0,0.36836492600000004,0.0,0.34592153299999995,True,,5f4e117dbfcaa83f1b418976,,2288806,185,,evan-feature22,full_rf_b,,0
159,37160,186,,,,2,2,1.0,0.0,-1.0,0.0,,0.0-188.0,,-1.0,1374.33,1.0,0.7352796909999999,1.0,0.555111392,1.0,0.36003922,0.0,0.31433779999999995,True,,5f4e117dbfcaa83f1b418976,,2299953,186,,evan-feature22,full_rf_b,,1
160,37161,187,notice,,,,,,,,,,0.0-189.0,"{""Q0"":""it seemed harder to win""}",,19590.0,,,,,,,,,True,,5f4e117dbfcaa83f1b418976,,2319547,187,Q,survey-text,full_rf_b,,1
161,37162,188,track1,,[1],,,,,,,,0.0-190.0,"{""Q0"":""no""}",,7889.0,,,,,,,,,True,,5f4e117dbfcaa83f1b418976,,2327445,188,Q,evan-quiz,full_rf_b,,1
162,37163,189,track2,,[0],,,,,,,,0.0-191.0,"{""Q0"":""yes""}",,4847.0,,,,,,,,,True,,5f4e117dbfcaa83f1b418976,,2332298,189,Q,evan-quiz,full_rf_b,,1
163,37164,190,strat,,,,,,,,,,0.0-192.0,"{""Q0"":""when the black one was a positive I chose the left one, I chose the left one more than the right""}",,30111.0,,,,,,,,,True,,5f4e117dbfcaa83f1b418976,,2362415,190,Q,survey-text,full_rf_b,,1
