,index,Unnamed: 0,Q_name,button_pressed,choice_idxs,chosen_pos,chosen_state,chosen_state_f_1_outcome,chosen_state_f_2_outcome,f_1_reward,f_2_reward,incor_questions,internal_node_id,responses,reward_received,rt,s_1_f_1_outcome,s_1_f_1_prob,s_1_f_2_outcome,s_1_f_2_prob,s_2_f_1_outcome,s_2_f_1_prob,s_2_f_2_outcome,s_2_f_2_prob,safe_first,stimulus,subjectID,success,time_elapsed,trial_index,trial_num,trial_type,version,view_history,switching
0,8401,25,,,,1,1,0.0,1.0,-1.0,0.0,,0.0-27.0,,0.0,795.88,0.0,0.6,1.0,0.6,0.0,0.4,1.0,0.4,False,,5f7366fe5b5261081e3d6fb8,,645929,25,,evan-feature22,full_pf_b,,0
1,8402,26,,,,SLOW,SLOW,,,-1.0,0.0,,0.0-28.0,,-3.0,,0.0,0.608053294,1.0,0.63424552,1.0,0.397152172,0.0,0.347069101,False,,5f7366fe5b5261081e3d6fb8,,651746,26,,evan-feature22,full_pf_b,,1
2,8403,27,,,,1,1,1.0,1.0,-1.0,0.0,,0.0-29.0,,-1.0,1245.115,1.0,0.642237155,1.0,0.648566321,1.0,0.389407674,0.0,0.285525717,False,,5f7366fe5b5261081e3d6fb8,,662815,27,,evan-feature22,full_pf_b,,1
3,8404,28,,,,2,2,1.0,1.0,-1.0,0.0,,0.0-30.0,,-1.0,1049.765,1.0,0.661086576,1.0,0.630492543,1.0,0.399058924,1.0,0.25,False,,5f7366fe5b5261081e3d6fb8,,673698,28,,evan-feature22,full_pf_b,,1
4,8405,29,,,,1,1,0.0,1.0,0.0,1.0,,0.0-31.0,,1.0,917.54,0.0,0.631324137,1.0,0.6269842929999999,0.0,0.38734784299999997,0.0,0.25,False,,5f7366fe5b5261081e3d6fb8,,684441,29,,evan-feature22,full_pf_b,,1
5,8406,30,,,,1,1,1.0,1.0,0.0,1.0,,0.0-32.0,,1.0,1013.38,1.0,0.6381991370000001,1.0,0.68987999,0.0,0.384107265,0.0,0.271332943,False,,5f7366fe5b5261081e3d6fb8,,695271,30,,evan-feature22,full_pf_b,,0
6,8407,31,,,,2,2,0.0,0.0,-1.0,0.0,,0.0-33.0,,0.0,2024.59,1.0,0.66034901,1.0,0.742641349,0.0,0.360225629,0.0,0.25,False,,5f7366fe5b5261081e3d6fb8,,707117,31,,evan-feature22,full_pf_b,,1
7,8408,32,,,,1,1,0.0,1.0,-1.0,0.0,,0.0-34.0,,0.0,1386.515,0.0,0.638612418,1.0,0.75,0.0,0.367273939,1.0,0.25,False,,5f7366fe5b5261081e3d6fb8,,718313,32,,evan-feature22,full_pf_b,,1
8,8409,33,,,,1,1,0.0,1.0,0.0,1.0,,0.0-35.0,,1.0,1183.565,0.0,0.624340629,1.0,0.75,0.0,0.425829545,0.0,0.25,False,,5f7366fe5b5261081e3d6fb8,,729310,33,,evan-feature22,full_pf_b,,0
9,8410,34,,,,1,1,1.0,1.0,0.0,1.0,,0.0-36.0,,1.0,1212.035,1.0,0.621999804,1.0,0.75,1.0,0.368609357,0.0,0.25,False,,5f7366fe5b5261081e3d6fb8,,740351,34,,evan-feature22,full_pf_b,,0
10,8411,35,,,,1,1,0.0,1.0,-1.0,0.0,,0.0-37.0,,0.0,1570.375,0.0,0.62666403,1.0,0.75,0.0,0.311151498,0.0,0.25,False,,5f7366fe5b5261081e3d6fb8,,751740,35,,evan-feature22,full_pf_b,,0
11,8412,36,,,,1,1,1.0,1.0,0.0,1.0,,0.0-38.0,,1.0,863.33,1.0,0.6819650009999999,1.0,0.75,0.0,0.310763048,1.0,0.25,False,,5f7366fe5b5261081e3d6fb8,,762437,36,,evan-feature22,full_pf_b,,0
12,8413,37,,,,2,2,0.0,0.0,-1.0,0.0,,0.0-39.0,,0.0,2459.855,1.0,0.740626951,1.0,0.75,0.0,0.25,0.0,0.25,False,,5f7366fe5b5261081e3d6fb8,,774731,37,,evan-feature22,full_pf_b,,1
13,8414,38,,,,2,2,1.0,0.0,-1.0,0.0,,0.0-40.0,,-1.0,1697.645,1.0,0.739599242,1.0,0.742034978,1.0,0.25397114600000004,0.0,0.25,False,,5f7366fe5b5261081e3d6fb8,,786250,38,,evan-feature22,full_pf_b,,0
14,8415,39,,,,1,1,1.0,0.0,-1.0,0.0,,0.0-41.0,,-1.0,1071.06,1.0,0.732341315,0.0,0.72735643,0.0,0.25,1.0,0.25,False,,5f7366fe5b5261081e3d6fb8,,797144,39,,evan-feature22,full_pf_b,,1
15,8416,40,,,,1,1,1.0,1.0,-1.0,0.0,,0.0-42.0,,-1.0,1702.27,1.0,0.7062287770000001,1.0,0.75,1.0,0.29002151,0.0,0.288256649,False,,5f7366fe5b5261081e3d6fb8,,808677,40,,evan-feature22,full_pf_b,,0
16,8417,41,,,,1,1,1.0,0.0,-1.0,0.0,,0.0-43.0,,-1.0,2318.885,1.0,0.7086029209999999,0.0,0.75,1.0,0.274129113,1.0,0.262851608,False,,5f7366fe5b5261081e3d6fb8,,820821,41,,evan-feature22,full_pf_b,,0
17,8418,42,,,,2,2,0.0,1.0,-1.0,0.0,,0.0-44.0,,0.0,1329.73,0.0,0.669189651,1.0,0.727614338,0.0,0.298444036,1.0,0.296944518,False,,5f7366fe5b5261081e3d6fb8,,831993,42,,evan-feature22,full_pf_b,,1
18,8419,43,,,,2,2,0.0,0.0,-1.0,0.0,,0.0-45.0,,0.0,1416.065,0.0,0.6819912929999999,1.0,0.7179434290000001,0.0,0.265003961,0.0,0.28157921199999997,False,,5f7366fe5b5261081e3d6fb8,,843220,43,,evan-feature22,full_pf_b,,0
19,8420,44,,,,1,1,1.0,0.0,0.0,1.0,,0.0-46.0,,0.0,1283.415,1.0,0.665275002,0.0,0.723065271,1.0,0.260414971,0.0,0.30973870000000003,False,,5f7366fe5b5261081e3d6fb8,,854338,44,,evan-feature22,full_pf_b,,1
20,8421,45,,,,1,1,1.0,1.0,-1.0,0.0,,0.0-47.0,,-1.0,1581.17,1.0,0.6660593260000001,1.0,0.728032907,0.0,0.30922817,1.0,0.338778608,False,,5f7366fe5b5261081e3d6fb8,,865736,45,,evan-feature22,full_pf_b,,0
21,8422,46,,,,2,2,0.0,0.0,-1.0,0.0,,0.0-48.0,,0.0,1814.705,0.0,0.702068785,1.0,0.6528750879999999,0.0,0.287329608,0.0,0.35789613200000003,False,,5f7366fe5b5261081e3d6fb8,,877378,46,,evan-feature22,full_pf_b,,1
22,8423,47,,,,1,1,1.0,1.0,-1.0,0.0,,0.0-49.0,,-1.0,1101.715,1.0,0.651939787,1.0,0.636725589,0.0,0.284834488,0.0,0.358563756,False,,5f7366fe5b5261081e3d6fb8,,888287,47,,evan-feature22,full_pf_b,,1
23,8424,48,,,,1,1,1.0,0.0,0.0,1.0,,0.0-50.0,,0.0,867.405,1.0,0.67573929,0.0,0.612550049,1.0,0.37130387600000003,1.0,0.383542402,False,,5f7366fe5b5261081e3d6fb8,,898978,48,,evan-feature22,full_pf_b,,0
24,8425,49,,,,2,2,1.0,1.0,0.0,1.0,,0.0-51.0,,1.0,883.49,0.0,0.620753801,0.0,0.60513644,1.0,0.385529434,1.0,0.340361743,False,,5f7366fe5b5261081e3d6fb8,,909658,49,,evan-feature22,full_pf_b,,1
25,8426,50,,,,2,2,0.0,1.0,0.0,1.0,,0.0-52.0,,1.0,919.305,1.0,0.673564893,1.0,0.672437924,0.0,0.292955382,1.0,0.337633795,False,,5f7366fe5b5261081e3d6fb8,,920417,50,,evan-feature22,full_pf_b,,0
26,8427,51,,,,1,1,1.0,0.0,-1.0,0.0,,0.0-53.0,,-1.0,1598.67,1.0,0.6749427,0.0,0.724197502,1.0,0.32391132100000003,0.0,0.350995264,False,,5f7366fe5b5261081e3d6fb8,,931832,51,,evan-feature22,full_pf_b,,1
27,8428,52,,,,2,2,0.0,0.0,-1.0,0.0,,0.0-54.0,,0.0,1630.925,1.0,0.6940159379999999,1.0,0.75,0.0,0.31710554399999996,0.0,0.413450341,False,,5f7366fe5b5261081e3d6fb8,,943268,52,,evan-feature22,full_pf_b,,1
28,8429,53,,,,2,2,1.0,0.0,-1.0,0.0,,0.0-55.0,,-1.0,1967.515,1.0,0.6916018270000001,1.0,0.69001187,1.0,0.261817804,0.0,0.40038635,False,,5f7366fe5b5261081e3d6fb8,,955072,53,,evan-feature22,full_pf_b,,0
29,8430,54,,,,2,2,1.0,1.0,-1.0,0.0,,0.0-56.0,,-1.0,1350.09,0.0,0.641061544,0.0,0.71337992,1.0,0.277296461,1.0,0.47372791700000005,False,,5f7366fe5b5261081e3d6fb8,,966225,54,,evan-feature22,full_pf_b,,0
30,8431,55,,,,1,1,0.0,1.0,-1.0,0.0,,0.0-57.0,,0.0,894.88,0.0,0.6082438520000001,1.0,0.708471106,0.0,0.28745137,0.0,0.564174476,False,,5f7366fe5b5261081e3d6fb8,,976949,55,,evan-feature22,full_pf_b,,1
31,8432,56,,,,1,1,1.0,1.0,-1.0,0.0,,0.0-58.0,,-1.0,969.245,1.0,0.6051112120000001,1.0,0.7118147229999999,0.0,0.272390611,1.0,0.5595149939999999,False,,5f7366fe5b5261081e3d6fb8,,987726,56,,evan-feature22,full_pf_b,,0
32,8433,57,,,,1,1,1.0,0.0,-1.0,0.0,,0.0-59.0,,-1.0,1165.425,1.0,0.582420852,0.0,0.635867583,1.0,0.31089574,0.0,0.5227206520000001,False,,5f7366fe5b5261081e3d6fb8,,998689,57,,evan-feature22,full_pf_b,,0
33,8434,58,,,,1,1,1.0,1.0,0.0,1.0,,0.0-60.0,,1.0,1346.125,1.0,0.623195575,1.0,0.655026044,0.0,0.25,1.0,0.560387538,False,,5f7366fe5b5261081e3d6fb8,,1009840,58,,evan-feature22,full_pf_b,,0
34,8435,59,,,,2,2,0.0,0.0,-1.0,0.0,,0.0-61.0,,0.0,1983.945,1.0,0.601889598,1.0,0.678198724,0.0,0.25,0.0,0.559922936,False,,5f7366fe5b5261081e3d6fb8,,1021648,59,,evan-feature22,full_pf_b,,1
35,8436,60,,,,2,2,0.0,1.0,-1.0,0.0,,0.0-62.0,,0.0,1325.97,1.0,0.601259914,1.0,0.704681482,0.0,0.33908969299999997,1.0,0.505003715,False,,5f7366fe5b5261081e3d6fb8,,1032811,60,,evan-feature22,full_pf_b,,0
36,8437,61,,,,2,2,1.0,0.0,-1.0,0.0,,0.0-63.0,,-1.0,1281.505,1.0,0.59645454,1.0,0.710437172,1.0,0.327441879,0.0,0.391749613,False,,5f7366fe5b5261081e3d6fb8,,1043889,61,,evan-feature22,full_pf_b,,0
37,8438,62,,,,1,1,0.0,0.0,-1.0,0.0,,0.0-64.0,,0.0,2120.68,0.0,0.529473,0.0,0.636758527,1.0,0.301338063,0.0,0.365661481,False,,5f7366fe5b5261081e3d6fb8,,1055811,62,,evan-feature22,full_pf_b,,1
38,8439,63,,,,1,1,0.0,1.0,0.0,1.0,,0.0-65.0,,1.0,1480.66,0.0,0.541657162,1.0,0.634541962,1.0,0.343535366,1.0,0.371763742,False,,5f7366fe5b5261081e3d6fb8,,1067092,63,,evan-feature22,full_pf_b,,0
39,8440,64,,,,1,1,1.0,0.0,-1.0,0.0,,0.0-66.0,,-1.0,1577.645,1.0,0.5707533260000001,0.0,0.589121171,1.0,0.326428396,0.0,0.43961622899999997,False,,5f7366fe5b5261081e3d6fb8,,1078478,64,,evan-feature22,full_pf_b,,0
40,8441,65,,,,1,1,0.0,1.0,-1.0,0.0,,0.0-67.0,,0.0,1377.94,0.0,0.5707533260000001,1.0,0.589121171,1.0,0.326428396,0.0,0.43961622899999997,False,,5f7366fe5b5261081e3d6fb8,,1089682,65,,evan-feature22,full_pf_b,,0
41,8442,66,,,,1,1,1.0,1.0,-1.0,0.0,,0.0-68.0,,-1.0,2042.055,1.0,0.506271295,1.0,0.641775594,0.0,0.37149690700000004,1.0,0.404330166,False,,5f7366fe5b5261081e3d6fb8,,1101544,66,,evan-feature22,full_pf_b,,0
42,8443,67,,,,1,1,0.0,1.0,0.0,1.0,,0.0-69.0,,1.0,1455.405,0.0,0.455642565,1.0,0.623605825,0.0,0.358753011,1.0,0.346174041,False,,5f7366fe5b5261081e3d6fb8,,1112828,67,,evan-feature22,full_pf_b,,0
43,8444,68,,,,1,1,0.0,1.0,0.0,1.0,,0.0-70.0,,1.0,1016.51,0.0,0.483677308,1.0,0.5904681070000001,1.0,0.402218411,1.0,0.35344697,False,,5f7366fe5b5261081e3d6fb8,,1123634,68,,evan-feature22,full_pf_b,,0
44,8445,69,,,,1,1,0.0,1.0,0.0,1.0,,0.0-71.0,,1.0,975.15,0.0,0.394210977,1.0,0.558925494,0.0,0.540052017,0.0,0.35182128700000004,False,,5f7366fe5b5261081e3d6fb8,,1134412,69,,evan-feature22,full_pf_b,,0
45,8446,70,,,,2,2,0.0,1.0,-1.0,0.0,,0.0-72.0,,0.0,1464.505,0.0,0.382300414,1.0,0.577670603,0.0,0.607608448,1.0,0.378261578,False,,5f7366fe5b5261081e3d6fb8,,1145685,70,,evan-feature22,full_pf_b,,1
46,8447,71,,,,1,1,0.0,0.0,-1.0,0.0,,0.0-73.0,,0.0,1581.76,0.0,0.357596762,0.0,0.5929076529999999,1.0,0.6579790010000001,0.0,0.401326777,False,,5f7366fe5b5261081e3d6fb8,,1157088,71,,evan-feature22,full_pf_b,,1
47,8448,72,,,,1,1,0.0,0.0,-1.0,0.0,,0.0-74.0,,0.0,1413.775,0.0,0.362033495,0.0,0.582308608,1.0,0.649195052,0.0,0.355158505,False,,5f7366fe5b5261081e3d6fb8,,1168348,72,,evan-feature22,full_pf_b,,0
48,8449,73,,,,1,1,0.0,0.0,-1.0,0.0,,0.0-75.0,,0.0,1455.925,0.0,0.369620635,0.0,0.669100864,0.0,0.706059111,0.0,0.362516241,False,,5f7366fe5b5261081e3d6fb8,,1179631,73,,evan-feature22,full_pf_b,,0
49,8450,74,,,,1,1,0.0,1.0,-1.0,0.0,,0.0-76.0,,0.0,1160.485,0.0,0.41477751399999996,1.0,0.7284416779999999,0.0,0.7182656940000001,1.0,0.36228040899999997,False,,5f7366fe5b5261081e3d6fb8,,1190600,74,,evan-feature22,full_pf_b,,0
50,8451,75,,,,1,1,1.0,1.0,0.0,1.0,,0.0-77.0,,1.0,1478.63,1.0,0.37675460299999997,1.0,0.703250285,1.0,0.75,1.0,0.461979164,False,,5f7366fe5b5261081e3d6fb8,,1201895,75,,evan-feature22,full_pf_b,,0
51,8452,76,,,,1,1,1.0,1.0,0.0,1.0,,0.0-78.0,,1.0,966.16,1.0,0.398716075,1.0,0.6723864890000001,0.0,0.674153818,1.0,0.519029516,False,,5f7366fe5b5261081e3d6fb8,,1212689,76,,evan-feature22,full_pf_b,,0
52,8453,77,,,,2,2,1.0,1.0,-1.0,0.0,,0.0-79.0,,-1.0,1963.645,0.0,0.34677856700000004,1.0,0.69057175,1.0,0.6822438540000001,1.0,0.477292237,False,,5f7366fe5b5261081e3d6fb8,,1224459,77,,evan-feature22,full_pf_b,,1
53,8454,78,,,,1,1,0.0,0.0,0.0,1.0,,0.0-80.0,,0.0,1041.645,0.0,0.28580469199999997,0.0,0.68408818,1.0,0.684207565,0.0,0.49780448299999996,False,,5f7366fe5b5261081e3d6fb8,,1235320,78,,evan-feature22,full_pf_b,,1
54,8456,80,,,,1,1,0.0,1.0,-1.0,0.0,,0.0-82.0,,0.0,1094.145,0.0,0.25,1.0,0.7405808970000001,1.0,0.679614108,1.0,0.436436964,False,,5f7366fe5b5261081e3d6fb8,,1259111,80,,evan-feature22,full_pf_b,,0
55,8457,81,,,,1,1,0.0,0.0,0.0,1.0,,0.0-83.0,,0.0,965.175,0.0,0.29890393,0.0,0.730505706,1.0,0.7328203320000001,1.0,0.439256938,False,,5f7366fe5b5261081e3d6fb8,,1269885,81,,evan-feature22,full_pf_b,,0
56,8458,82,,,,2,2,1.0,0.0,-1.0,0.0,,0.0-84.0,,-1.0,1252.67,1.0,0.326762398,1.0,0.7148059609999999,1.0,0.75,0.0,0.44389608799999997,False,,5f7366fe5b5261081e3d6fb8,,1280958,82,,evan-feature22,full_pf_b,,1
57,8459,83,,,,1,1,0.0,0.0,-1.0,0.0,,0.0-85.0,,0.0,910.98,0.0,0.295168515,0.0,0.739760854,0.0,0.719947008,0.0,0.35277284600000003,False,,5f7366fe5b5261081e3d6fb8,,1291697,83,,evan-feature22,full_pf_b,,1
58,8460,84,,,,1,1,0.0,0.0,-1.0,0.0,,0.0-86.0,,0.0,1020.45,0.0,0.25,0.0,0.70781482,1.0,0.75,0.0,0.286095925,False,,5f7366fe5b5261081e3d6fb8,,1302522,84,,evan-feature22,full_pf_b,,0
59,8461,85,,,,1,1,0.0,1.0,0.0,1.0,,0.0-87.0,,1.0,1013.7,0.0,0.25638190899999996,1.0,0.704088163,0.0,0.75,0.0,0.26872601399999996,False,,5f7366fe5b5261081e3d6fb8,,1313344,85,,evan-feature22,full_pf_b,,0
60,8462,86,,,,1,1,0.0,0.0,0.0,1.0,,0.0-88.0,,0.0,864.17,0.0,0.271581126,0.0,0.669760107,0.0,0.733896663,0.0,0.273244572,False,,5f7366fe5b5261081e3d6fb8,,1324005,86,,evan-feature22,full_pf_b,,0
61,8463,87,,,,1,1,0.0,1.0,0.0,1.0,,0.0-89.0,,1.0,704.52,0.0,0.257144401,1.0,0.600575706,1.0,0.74488122,0.0,0.25,False,,5f7366fe5b5261081e3d6fb8,,1334519,87,,evan-feature22,full_pf_b,,0
62,8464,88,,,,1,1,0.0,1.0,-1.0,0.0,,0.0-90.0,,0.0,1350.715,0.0,0.25,1.0,0.616870026,1.0,0.723610234,0.0,0.25,False,,5f7366fe5b5261081e3d6fb8,,1345662,88,,evan-feature22,full_pf_b,,0
63,8465,89,,,,1,1,1.0,1.0,0.0,1.0,,0.0-91.0,,1.0,794.515,1.0,0.25,1.0,0.583540187,1.0,0.7041042559999999,1.0,0.285961995,False,,5f7366fe5b5261081e3d6fb8,,1356270,89,,evan-feature22,full_pf_b,,0
64,8466,90,,,,1,1,0.0,1.0,-1.0,0.0,,0.0-92.0,,0.0,1280.505,0.0,0.27254536,1.0,0.53875765,1.0,0.693783448,1.0,0.284961652,False,,5f7366fe5b5261081e3d6fb8,,1367375,90,,evan-feature22,full_pf_b,,0
65,8467,91,,,,1,1,0.0,1.0,0.0,1.0,,0.0-93.0,,1.0,760.16,0.0,0.25,1.0,0.548431252,1.0,0.734221895,1.0,0.279445214,False,,5f7366fe5b5261081e3d6fb8,,1377964,91,,evan-feature22,full_pf_b,,0
66,8468,92,,,,1,1,0.0,1.0,-1.0,0.0,,0.0-94.0,,0.0,1164.705,0.0,0.258640684,1.0,0.545878066,1.0,0.725245965,1.0,0.31487537,False,,5f7366fe5b5261081e3d6fb8,,1388939,92,,evan-feature22,full_pf_b,,0
67,8469,93,,,,1,1,0.0,1.0,-1.0,0.0,,0.0-95.0,,0.0,915.08,0.0,0.251103711,1.0,0.5776290629999999,1.0,0.696320133,0.0,0.317831047,False,,5f7366fe5b5261081e3d6fb8,,1399655,93,,evan-feature22,full_pf_b,,0
68,8470,94,,,,1,1,0.0,0.0,-1.0,0.0,,0.0-96.0,,0.0,842.635,0.0,0.276630292,0.0,0.617329858,1.0,0.73838088,1.0,0.261471582,False,,5f7366fe5b5261081e3d6fb8,,1410323,94,,evan-feature22,full_pf_b,,0
69,8471,95,,,,1,1,1.0,0.0,0.0,1.0,,0.0-97.0,,0.0,1043.155,1.0,0.297716424,0.0,0.618863717,1.0,0.7402358259999999,0.0,0.262600834,False,,5f7366fe5b5261081e3d6fb8,,1421179,95,,evan-feature22,full_pf_b,,0
70,8472,96,,,,1,1,1.0,1.0,-1.0,0.0,,0.0-98.0,,-1.0,1119.495,1.0,0.290935512,1.0,0.695370945,1.0,0.706570507,0.0,0.280030553,False,,5f7366fe5b5261081e3d6fb8,,1432138,96,,evan-feature22,full_pf_b,,0
71,8473,97,,,,1,1,1.0,1.0,-1.0,0.0,,0.0-99.0,,-1.0,858.475,1.0,0.25,1.0,0.6465277079999999,0.0,0.67766682,0.0,0.25,False,,5f7366fe5b5261081e3d6fb8,,1442830,97,,evan-feature22,full_pf_b,,0
72,8474,98,,,,1,1,1.0,0.0,-1.0,0.0,,0.0-100.0,,-1.0,874.835,1.0,0.26463816,0.0,0.636100213,1.0,0.646048507,1.0,0.265607101,False,,5f7366fe5b5261081e3d6fb8,,1453512,98,,evan-feature22,full_pf_b,,0
73,8475,99,,,,2,2,0.0,0.0,-1.0,0.0,,0.0-101.0,,0.0,790.525,1.0,0.314340707,1.0,0.667795927,0.0,0.613630805,0.0,0.25,False,,5f7366fe5b5261081e3d6fb8,,1464130,99,,evan-feature22,full_pf_b,,1
74,8476,100,,,,2,2,0.0,0.0,-1.0,0.0,,0.0-102.0,,0.0,682.7,0.0,0.28685784,1.0,0.6622549529999999,0.0,0.652154117,0.0,0.25,False,,5f7366fe5b5261081e3d6fb8,,1474607,100,,evan-feature22,full_pf_b,,0
75,8477,101,,,,1,1,0.0,1.0,0.0,1.0,,0.0-103.0,,1.0,1026.405,0.0,0.304106554,1.0,0.631289538,0.0,0.707041942,0.0,0.29314237,False,,5f7366fe5b5261081e3d6fb8,,1485446,101,,evan-feature22,full_pf_b,,1
76,8478,102,,,,1,1,0.0,0.0,0.0,1.0,,0.0-104.0,,0.0,955.81,0.0,0.304806932,0.0,0.571167718,1.0,0.680472346,0.0,0.25,False,,5f7366fe5b5261081e3d6fb8,,1496216,102,,evan-feature22,full_pf_b,,0
77,8479,103,,,,1,1,0.0,1.0,0.0,1.0,,0.0-105.0,,1.0,961.815,0.0,0.37919861,1.0,0.5724849710000001,1.0,0.705638003,0.0,0.30179300600000003,False,,5f7366fe5b5261081e3d6fb8,,1506991,103,,evan-feature22,full_pf_b,,0
78,8480,104,,,,1,1,1.0,0.0,0.0,1.0,,0.0-106.0,,0.0,818.98,1.0,0.464277969,0.0,0.554034373,0.0,0.7372627340000001,0.0,0.264699741,False,,5f7366fe5b5261081e3d6fb8,,1517604,104,,evan-feature22,full_pf_b,,0
79,8481,105,,,,2,2,1.0,1.0,-1.0,0.0,,0.0-107.0,,-1.0,1245.675,1.0,0.465104323,0.0,0.530793115,1.0,0.75,1.0,0.31683071,False,,5f7366fe5b5261081e3d6fb8,,1528680,105,,evan-feature22,full_pf_b,,1
80,8482,106,,,,1,1,1.0,1.0,0.0,1.0,,0.0-108.0,,1.0,936.595,1.0,0.465104323,1.0,0.530793115,1.0,0.75,1.0,0.31683071,False,,5f7366fe5b5261081e3d6fb8,,1539413,106,,evan-feature22,full_pf_b,,1
81,8483,107,,,,1,1,0.0,0.0,0.0,1.0,,0.0-109.0,,0.0,883.84,0.0,0.46833986,0.0,0.570249239,1.0,0.7244472590000001,0.0,0.364114163,False,,5f7366fe5b5261081e3d6fb8,,1550134,107,,evan-feature22,full_pf_b,,0
82,8484,108,,,,1,1,1.0,0.0,0.0,1.0,,0.0-110.0,,0.0,740.275,1.0,0.445444024,0.0,0.649673355,1.0,0.6845441290000001,0.0,0.300660449,False,,5f7366fe5b5261081e3d6fb8,,1560689,108,,evan-feature22,full_pf_b,,0
83,8485,109,,,,1,1,0.0,1.0,0.0,1.0,,0.0-111.0,,1.0,721.305,0.0,0.39909721299999995,1.0,0.6715179509999999,1.0,0.742310028,0.0,0.35496088299999995,False,,5f7366fe5b5261081e3d6fb8,,1571200,109,,evan-feature22,full_pf_b,,0
84,8486,110,,,,1,1,0.0,1.0,0.0,1.0,,0.0-112.0,,1.0,853.5,0.0,0.37956104799999996,1.0,0.694725302,1.0,0.7181651309999999,0.0,0.38726906299999997,False,,5f7366fe5b5261081e3d6fb8,,1581862,110,,evan-feature22,full_pf_b,,0
85,8487,111,,,,1,1,0.0,1.0,0.0,1.0,,0.0-113.0,,1.0,724.63,0.0,0.404995034,1.0,0.724375412,1.0,0.6910946859999999,0.0,0.387187347,False,,5f7366fe5b5261081e3d6fb8,,1592417,111,,evan-feature22,full_pf_b,,0
86,8488,112,,,,1,1,1.0,1.0,0.0,1.0,,0.0-114.0,,1.0,718.2,1.0,0.461740803,1.0,0.75,1.0,0.75,1.0,0.34872038200000005,False,,5f7366fe5b5261081e3d6fb8,,1602959,112,,evan-feature22,full_pf_b,,0
87,8489,113,,,,2,2,1.0,0.0,-1.0,0.0,,0.0-115.0,,-1.0,982.865,0.0,0.43821380600000004,1.0,0.738833273,1.0,0.728286963,0.0,0.399538128,False,,5f7366fe5b5261081e3d6fb8,,1613755,113,,evan-feature22,full_pf_b,,1
88,8490,114,,,,1,1,1.0,1.0,0.0,1.0,,0.0-116.0,,1.0,801.02,1.0,0.41709882,1.0,0.736666736,1.0,0.75,1.0,0.389095584,False,,5f7366fe5b5261081e3d6fb8,,1624366,114,,evan-feature22,full_pf_b,,1
89,8491,115,,,,1,1,0.0,1.0,0.0,1.0,,0.0-117.0,,1.0,723.545,0.0,0.39749009799999996,1.0,0.744320029,1.0,0.75,0.0,0.363848678,False,,5f7366fe5b5261081e3d6fb8,,1634919,115,,evan-feature22,full_pf_b,,0
90,8492,116,,,,1,1,1.0,0.0,-1.0,0.0,,0.0-118.0,,-1.0,1214.915,1.0,0.392653706,0.0,0.75,1.0,0.75,1.0,0.384386976,False,,5f7366fe5b5261081e3d6fb8,,1645958,116,,evan-feature22,full_pf_b,,0
91,8493,117,,,,1,1,1.0,1.0,-1.0,0.0,,0.0-119.0,,-1.0,1046.49,1.0,0.31190902600000003,1.0,0.75,1.0,0.732413819,1.0,0.413082932,False,,5f7366fe5b5261081e3d6fb8,,1656833,117,,evan-feature22,full_pf_b,,0
92,8494,118,,,,1,1,1.0,1.0,0.0,1.0,,0.0-120.0,,1.0,1004.68,1.0,0.366917648,1.0,0.740073855,1.0,0.75,0.0,0.352861979,False,,5f7366fe5b5261081e3d6fb8,,1667659,118,,evan-feature22,full_pf_b,,0
93,8495,119,,,,1,1,0.0,1.0,0.0,1.0,,0.0-121.0,,1.0,723.34,0.0,0.3645172,1.0,0.721770713,1.0,0.75,1.0,0.404074511,False,,5f7366fe5b5261081e3d6fb8,,1678204,119,,evan-feature22,full_pf_b,,0
94,8496,120,,,,1,1,1.0,0.0,0.0,1.0,,0.0-122.0,,0.0,699.155,1.0,0.35205600299999995,0.0,0.68983859,1.0,0.739735447,1.0,0.366895945,False,,5f7366fe5b5261081e3d6fb8,,1688725,120,,evan-feature22,full_pf_b,,0
95,8497,121,,,,1,1,0.0,1.0,0.0,1.0,,0.0-123.0,,1.0,672.255,0.0,0.40998722600000004,1.0,0.720859127,0.0,0.673854955,0.0,0.368528541,False,,5f7366fe5b5261081e3d6fb8,,1699233,121,,evan-feature22,full_pf_b,,0
96,8498,122,,,,2,2,0.0,1.0,-1.0,0.0,,0.0-124.0,,0.0,1489.055,0.0,0.353625316,1.0,0.75,0.0,0.695605473,1.0,0.38303674200000004,False,,5f7366fe5b5261081e3d6fb8,,1710526,122,,evan-feature22,full_pf_b,,1
97,8499,123,,,,1,1,0.0,1.0,0.0,1.0,,0.0-125.0,,1.0,765.03,0.0,0.359216989,1.0,0.75,1.0,0.6987915090000001,1.0,0.35169046200000004,False,,5f7366fe5b5261081e3d6fb8,,1721098,123,,evan-feature22,full_pf_b,,1
98,8500,124,,,,1,1,0.0,1.0,-1.0,0.0,,0.0-126.0,,0.0,1353.19,0.0,0.35834496899999996,1.0,0.75,1.0,0.707067742,1.0,0.416763636,False,,5f7366fe5b5261081e3d6fb8,,1732256,124,,evan-feature22,full_pf_b,,0
99,8501,125,,,,1,1,0.0,1.0,-1.0,0.0,,0.0-127.0,,0.0,891.315,0.0,0.38741613799999997,1.0,0.7177369570000001,1.0,0.734902455,1.0,0.49438664299999996,False,,5f7366fe5b5261081e3d6fb8,,1742959,125,,evan-feature22,full_pf_b,,0
100,8502,126,,,,1,1,0.0,1.0,0.0,1.0,,0.0-128.0,,1.0,923.55,0.0,0.405255252,1.0,0.7300466640000001,1.0,0.7027748070000001,1.0,0.504359668,False,,5f7366fe5b5261081e3d6fb8,,1753681,126,,evan-feature22,full_pf_b,,0
101,8503,127,,,,1,1,0.0,1.0,0.0,1.0,,0.0-129.0,,1.0,707.97,0.0,0.40697073,1.0,0.7260142190000001,1.0,0.724461982,1.0,0.522779179,False,,5f7366fe5b5261081e3d6fb8,,1764205,127,,evan-feature22,full_pf_b,,0
102,8504,128,,,,1,1,1.0,0.0,0.0,1.0,,0.0-130.0,,0.0,521.865,1.0,0.43906215299999996,0.0,0.7252802340000001,0.0,0.719079934,1.0,0.5712990579999999,False,,5f7366fe5b5261081e3d6fb8,,1774516,128,,evan-feature22,full_pf_b,,0
103,8505,129,,,,1,1,1.0,1.0,0.0,1.0,,0.0-131.0,,1.0,811.74,1.0,0.4076705,1.0,0.73280499,1.0,0.681313127,1.0,0.523891346,False,,5f7366fe5b5261081e3d6fb8,,1785162,129,,evan-feature22,full_pf_b,,0
104,8506,130,,,,1,1,1.0,0.0,0.0,1.0,,0.0-132.0,,0.0,623.74,1.0,0.399102911,0.0,0.730498344,0.0,0.661080239,0.0,0.46742603,False,,5f7366fe5b5261081e3d6fb8,,1795577,130,,evan-feature22,full_pf_b,,0
105,8507,131,,,,1,1,0.0,0.0,-1.0,0.0,,0.0-133.0,,0.0,1427.37,0.0,0.356477282,0.0,0.712296395,1.0,0.641812684,0.0,0.44868414,False,,5f7366fe5b5261081e3d6fb8,,1806802,131,,evan-feature22,full_pf_b,,0
106,8508,132,,,,1,1,1.0,1.0,0.0,1.0,,0.0-134.0,,1.0,804.575,1.0,0.462760722,1.0,0.692349322,1.0,0.700947931,0.0,0.394680266,False,,5f7366fe5b5261081e3d6fb8,,1817425,132,,evan-feature22,full_pf_b,,0
107,8509,133,,,,1,1,0.0,0.0,0.0,1.0,,0.0-135.0,,0.0,685.025,0.0,0.422306413,0.0,0.718375916,0.0,0.706340917,1.0,0.367787185,False,,5f7366fe5b5261081e3d6fb8,,1827917,133,,evan-feature22,full_pf_b,,0
108,8511,135,,,,1,1,1.0,0.0,0.0,1.0,,0.0-137.0,,0.0,1003.675,1.0,0.4582233,0.0,0.643834117,1.0,0.75,0.0,0.39615823299999997,False,,5f7366fe5b5261081e3d6fb8,,1841309,135,,evan-feature22,full_pf_b,,0
109,8512,136,,,,1,1,0.0,1.0,0.0,1.0,,0.0-138.0,,1.0,809.86,0.0,0.43813437899999996,1.0,0.651283804,1.0,0.729674191,1.0,0.37711048,False,,5f7366fe5b5261081e3d6fb8,,1851917,136,,evan-feature22,full_pf_b,,0
110,8513,137,,,,1,1,0.0,1.0,0.0,1.0,,0.0-139.0,,1.0,546.685,0.0,0.471199094,1.0,0.6470010979999999,1.0,0.715008097,1.0,0.410656191,False,,5f7366fe5b5261081e3d6fb8,,1862281,137,,evan-feature22,full_pf_b,,0
111,8514,138,,,,1,1,1.0,1.0,-1.0,0.0,,0.0-140.0,,-1.0,1325.85,1.0,0.42486406,1.0,0.629771829,1.0,0.6550939960000001,0.0,0.459093873,False,,5f7366fe5b5261081e3d6fb8,,1873424,138,,evan-feature22,full_pf_b,,0
112,8515,139,,,,1,1,0.0,0.0,-1.0,0.0,,0.0-141.0,,0.0,1079.965,0.0,0.4803197,0.0,0.645842715,1.0,0.6421749920000001,0.0,0.443092151,False,,5f7366fe5b5261081e3d6fb8,,1884342,139,,evan-feature22,full_pf_b,,0
113,8516,140,,,,1,1,1.0,1.0,-1.0,0.0,,0.0-142.0,,-1.0,790.89,1.0,0.521848997,1.0,0.735801074,0.0,0.6691348460000001,0.0,0.45259351600000003,False,,5f7366fe5b5261081e3d6fb8,,1894954,140,,evan-feature22,full_pf_b,,0
114,8517,141,,,,1,1,0.0,0.0,0.0,1.0,,0.0-143.0,,0.0,807.715,0.0,0.49565621299999996,0.0,0.742400847,0.0,0.661512553,1.0,0.483110831,False,,5f7366fe5b5261081e3d6fb8,,1905577,141,,evan-feature22,full_pf_b,,0
115,8518,142,,,,1,1,1.0,0.0,-1.0,0.0,,0.0-144.0,,-1.0,962.49,1.0,0.521564361,0.0,0.731078632,1.0,0.6774886809999999,0.0,0.483263956,False,,5f7366fe5b5261081e3d6fb8,,1916351,142,,evan-feature22,full_pf_b,,0
116,8519,143,,,,1,1,0.0,1.0,-1.0,0.0,,0.0-145.0,,0.0,804.035,0.0,0.558893102,1.0,0.719810023,1.0,0.67461031,0.0,0.499349834,False,,5f7366fe5b5261081e3d6fb8,,1926960,143,,evan-feature22,full_pf_b,,0
117,8520,144,,,,1,1,0.0,1.0,0.0,1.0,,0.0-146.0,,1.0,670.415,0.0,0.611031046,1.0,0.75,1.0,0.688072995,1.0,0.5321422729999999,False,,5f7366fe5b5261081e3d6fb8,,1937450,144,,evan-feature22,full_pf_b,,0
118,8521,145,,,,1,1,1.0,0.0,-1.0,0.0,,0.0-147.0,,-1.0,1000.725,1.0,0.633223941,0.0,0.713567728,1.0,0.75,0.0,0.48185314700000004,False,,5f7366fe5b5261081e3d6fb8,,1948288,145,,evan-feature22,full_pf_b,,0
119,8522,146,,,,1,1,1.0,1.0,-1.0,0.0,,0.0-148.0,,-1.0,687.4,1.0,0.664001694,1.0,0.705509768,1.0,0.75,1.0,0.500211065,False,,5f7366fe5b5261081e3d6fb8,,1958799,146,,evan-feature22,full_pf_b,,0
120,8523,147,,,,1,1,1.0,0.0,0.0,1.0,,0.0-149.0,,0.0,913.425,1.0,0.664001694,0.0,0.705509768,1.0,0.75,0.0,0.500211065,False,,5f7366fe5b5261081e3d6fb8,,1969521,147,,evan-feature22,full_pf_b,,0
121,8524,148,,,,1,1,1.0,1.0,0.0,1.0,,0.0-150.0,,1.0,670.65,1.0,0.696508041,1.0,0.71066027,1.0,0.717028709,0.0,0.49792991,False,,5f7366fe5b5261081e3d6fb8,,1980003,148,,evan-feature22,full_pf_b,,0
122,8525,149,,,,1,1,0.0,1.0,-1.0,0.0,,0.0-151.0,,0.0,702.03,0.0,0.699883272,1.0,0.75,1.0,0.713543895,1.0,0.496962643,False,,5f7366fe5b5261081e3d6fb8,,1990513,149,,evan-feature22,full_pf_b,,0
123,8526,150,,,,1,1,1.0,1.0,0.0,1.0,,0.0-152.0,,1.0,853.29,1.0,0.741163419,1.0,0.75,1.0,0.64691024,0.0,0.513858197,False,,5f7366fe5b5261081e3d6fb8,,2001188,150,,evan-feature22,full_pf_b,,0
124,8527,151,,,,1,1,0.0,1.0,-1.0,0.0,,0.0-153.0,,0.0,1280.495,0.0,0.75,1.0,0.70816558,1.0,0.594499079,1.0,0.48502124,False,,5f7366fe5b5261081e3d6fb8,,2012267,151,,evan-feature22,full_pf_b,,0
125,8528,152,,,,1,1,1.0,1.0,0.0,1.0,,0.0-154.0,,1.0,729.365,1.0,0.75,1.0,0.721848901,0.0,0.62197249,1.0,0.48263586399999997,False,,5f7366fe5b5261081e3d6fb8,,2022800,152,,evan-feature22,full_pf_b,,0
126,8529,153,,,,1,1,1.0,1.0,-1.0,0.0,,0.0-155.0,,-1.0,933.46,1.0,0.75,1.0,0.74813071,0.0,0.584357161,1.0,0.411477782,False,,5f7366fe5b5261081e3d6fb8,,2033552,153,,evan-feature22,full_pf_b,,0
127,8530,154,,,,1,1,1.0,1.0,0.0,1.0,,0.0-156.0,,1.0,922.3,1.0,0.75,1.0,0.75,0.0,0.52287236,1.0,0.488290656,False,,5f7366fe5b5261081e3d6fb8,,2044290,154,,evan-feature22,full_pf_b,,0
128,8531,155,,,,1,1,0.0,0.0,0.0,1.0,,0.0-157.0,,0.0,606.4,0.0,0.75,0.0,0.75,1.0,0.544321581,0.0,0.53143059,False,,5f7366fe5b5261081e3d6fb8,,2054704,155,,evan-feature22,full_pf_b,,0
129,8532,156,,,,1,1,1.0,1.0,0.0,1.0,,0.0-158.0,,1.0,773.24,1.0,0.726754564,1.0,0.75,0.0,0.5129306370000001,0.0,0.530592445,False,,5f7366fe5b5261081e3d6fb8,,2065287,156,,evan-feature22,full_pf_b,,0
130,8533,157,,,,1,1,0.0,1.0,-1.0,0.0,,0.0-159.0,,0.0,1161.175,0.0,0.75,1.0,0.7392590729999999,0.0,0.479875835,0.0,0.547007051,False,,5f7366fe5b5261081e3d6fb8,,2076266,157,,evan-feature22,full_pf_b,,0
131,8534,158,,,,1,1,0.0,1.0,-1.0,0.0,,0.0-160.0,,0.0,837.765,0.0,0.75,1.0,0.7393376979999999,0.0,0.546045419,1.0,0.541267353,False,,5f7366fe5b5261081e3d6fb8,,2086928,158,,evan-feature22,full_pf_b,,0
132,8535,159,,,,1,1,0.0,1.0,-1.0,0.0,,0.0-161.0,,0.0,899.13,0.0,0.75,1.0,0.75,0.0,0.485725895,1.0,0.527625395,False,,5f7366fe5b5261081e3d6fb8,,2097651,159,,evan-feature22,full_pf_b,,0
133,8536,160,,,,1,1,1.0,1.0,0.0,1.0,,0.0-162.0,,1.0,718.2,1.0,0.75,1.0,0.725087974,1.0,0.488603595,1.0,0.504019206,False,,5f7366fe5b5261081e3d6fb8,,2108184,160,,evan-feature22,full_pf_b,,0
134,8537,161,,,,1,1,1.0,1.0,0.0,1.0,,0.0-163.0,,1.0,841.245,1.0,0.745504295,1.0,0.75,1.0,0.452379914,1.0,0.50131194,False,,5f7366fe5b5261081e3d6fb8,,2118832,161,,evan-feature22,full_pf_b,,0
135,8538,162,,,,1,1,1.0,0.0,0.0,1.0,,0.0-164.0,,0.0,692.075,1.0,0.728513874,0.0,0.75,1.0,0.44125567200000004,0.0,0.531454591,False,,5f7366fe5b5261081e3d6fb8,,2129352,162,,evan-feature22,full_pf_b,,0
136,8539,163,,,,1,1,1.0,1.0,-1.0,0.0,,0.0-165.0,,-1.0,1034.725,1.0,0.73790804,1.0,0.75,0.0,0.413036656,0.0,0.524619035,False,,5f7366fe5b5261081e3d6fb8,,2140202,163,,evan-feature22,full_pf_b,,0
137,8540,164,,,,1,1,1.0,1.0,0.0,1.0,,0.0-166.0,,1.0,796.965,1.0,0.7080961309999999,1.0,0.708666865,0.0,0.431915581,0.0,0.481819489,False,,5f7366fe5b5261081e3d6fb8,,2150819,164,,evan-feature22,full_pf_b,,0
138,8541,165,,,,1,1,0.0,1.0,0.0,1.0,,0.0-167.0,,1.0,753.225,0.0,0.721378003,1.0,0.71605913,0.0,0.36642387,1.0,0.5036739929999999,False,,5f7366fe5b5261081e3d6fb8,,2161375,165,,evan-feature22,full_pf_b,,0
139,8542,166,,,,1,1,1.0,1.0,0.0,1.0,,0.0-168.0,,1.0,1723.055,1.0,0.7340618959999999,1.0,0.699323252,0.0,0.35298046299999997,0.0,0.511241692,False,,5f7366fe5b5261081e3d6fb8,,2172899,166,,evan-feature22,full_pf_b,,0
140,8543,167,,,,2,2,1.0,0.0,-1.0,0.0,,0.0-169.0,,-1.0,834.3,0.0,0.75,1.0,0.70412698,1.0,0.380734814,0.0,0.529580116,False,,5f7366fe5b5261081e3d6fb8,,2183556,167,,evan-feature22,full_pf_b,,1
141,8544,168,,,,1,1,0.0,1.0,0.0,1.0,,0.0-170.0,,1.0,762.145,0.0,0.7436654909999999,1.0,0.711182751,1.0,0.41125331,1.0,0.49554405,False,,5f7366fe5b5261081e3d6fb8,,2194130,168,,evan-feature22,full_pf_b,,1
142,8545,169,,,,1,1,1.0,0.0,0.0,1.0,,0.0-171.0,,0.0,624.115,1.0,0.731607915,0.0,0.651774583,1.0,0.35688023,1.0,0.45194491600000003,False,,5f7366fe5b5261081e3d6fb8,,2204566,169,,evan-feature22,full_pf_b,,0
143,8546,170,,,,1,1,1.0,0.0,-1.0,0.0,,0.0-172.0,,-1.0,1302.515,1.0,0.75,0.0,0.75,0.0,0.283145374,0.0,0.528608005,False,,5f7366fe5b5261081e3d6fb8,,2215686,170,,evan-feature22,full_pf_b,,0
144,8547,171,,,,2,2,0.0,0.0,-1.0,0.0,,0.0-173.0,,0.0,1084.44,1.0,0.7491416890000001,1.0,0.7423785959999999,0.0,0.29135870399999997,0.0,0.498888318,False,,5f7366fe5b5261081e3d6fb8,,2226571,171,,evan-feature22,full_pf_b,,1
145,8548,172,,,,2,2,0.0,0.0,-1.0,0.0,,0.0-174.0,,0.0,832.255,1.0,0.708569387,0.0,0.717682277,0.0,0.294421699,0.0,0.493838163,False,,5f7366fe5b5261081e3d6fb8,,2237235,172,,evan-feature22,full_pf_b,,0
146,8549,173,,,,1,1,1.0,0.0,0.0,1.0,,0.0-175.0,,0.0,793.695,1.0,0.75,0.0,0.7383382159999999,0.0,0.356098707,0.0,0.442533405,False,,5f7366fe5b5261081e3d6fb8,,2247846,173,,evan-feature22,full_pf_b,,1
147,8550,174,,,,1,1,1.0,1.0,0.0,1.0,,0.0-176.0,,1.0,675.31,1.0,0.744527075,1.0,0.75,0.0,0.334127506,1.0,0.393165805,False,,5f7366fe5b5261081e3d6fb8,,2258328,174,,evan-feature22,full_pf_b,,0
148,8551,175,,,,1,1,1.0,1.0,0.0,1.0,,0.0-177.0,,1.0,712.31,1.0,0.75,1.0,0.75,0.0,0.33571021799999995,0.0,0.350393962,False,,5f7366fe5b5261081e3d6fb8,,2268877,175,,evan-feature22,full_pf_b,,0
149,8552,176,,,,1,1,0.0,1.0,0.0,1.0,,0.0-178.0,,1.0,886.175,0.0,0.75,1.0,0.75,0.0,0.313628297,0.0,0.36349657399999996,False,,5f7366fe5b5261081e3d6fb8,,2279562,176,,evan-feature22,full_pf_b,,0
150,8553,177,,,,2,2,0.0,1.0,-1.0,0.0,,0.0-179.0,,0.0,914.9,0.0,0.75,1.0,0.734284182,0.0,0.262667667,1.0,0.380199119,False,,5f7366fe5b5261081e3d6fb8,,2290278,177,,evan-feature22,full_pf_b,,1
151,8554,178,,,,1,1,0.0,1.0,0.0,1.0,,0.0-180.0,,1.0,808.13,0.0,0.75,1.0,0.75,0.0,0.25,0.0,0.394494013,False,,5f7366fe5b5261081e3d6fb8,,2300891,178,,evan-feature22,full_pf_b,,1
152,8555,179,,,,2,2,0.0,0.0,-1.0,0.0,,0.0-181.0,,0.0,970.86,0.0,0.722298145,1.0,0.7357822340000001,0.0,0.25,0.0,0.319142121,False,,5f7366fe5b5261081e3d6fb8,,2311681,179,,evan-feature22,full_pf_b,,1
153,8556,180,,,,2,2,1.0,0.0,-1.0,0.0,,0.0-182.0,,-1.0,736.18,1.0,0.73149275,0.0,0.724276446,1.0,0.305856907,0.0,0.281315057,False,,5f7366fe5b5261081e3d6fb8,,2322230,180,,evan-feature22,full_pf_b,,0
154,8557,181,,,,1,1,1.0,1.0,0.0,1.0,,0.0-183.0,,1.0,758.095,1.0,0.7458732690000001,1.0,0.7336382459999999,0.0,0.272571964,0.0,0.266021999,False,,5f7366fe5b5261081e3d6fb8,,2332783,181,,evan-feature22,full_pf_b,,1
155,8558,182,,,,1,1,0.0,0.0,0.0,1.0,,0.0-184.0,,0.0,894.38,0.0,0.705579037,0.0,0.720778292,0.0,0.320238144,0.0,0.30971744,False,,5f7366fe5b5261081e3d6fb8,,2343451,182,,evan-feature22,full_pf_b,,0
156,8559,183,,,,1,1,1.0,1.0,0.0,1.0,,0.0-185.0,,1.0,728.325,1.0,0.700425648,1.0,0.7198784009999999,0.0,0.272590393,0.0,0.304182931,False,,5f7366fe5b5261081e3d6fb8,,2353990,183,,evan-feature22,full_pf_b,,0
157,8560,184,,,,1,1,1.0,0.0,0.0,1.0,,0.0-186.0,,0.0,926.66,1.0,0.735590785,0.0,0.722714973,1.0,0.25,0.0,0.323421091,False,,5f7366fe5b5261081e3d6fb8,,2364726,184,,evan-feature22,full_pf_b,,0
158,8561,185,,,,1,1,1.0,0.0,0.0,1.0,,0.0-187.0,,0.0,646.11,1.0,0.724807662,0.0,0.63146213,0.0,0.36836492600000004,1.0,0.34592153299999995,False,,5f7366fe5b5261081e3d6fb8,,2375201,185,,evan-feature22,full_pf_b,,0
159,8562,186,,,,1,1,1.0,1.0,0.0,1.0,,0.0-188.0,,1.0,848.85,1.0,0.7352796909999999,1.0,0.555111392,1.0,0.36003922,0.0,0.31433779999999995,False,,5f7366fe5b5261081e3d6fb8,,2385868,186,,evan-feature22,full_pf_b,,0
160,8563,187,notice,,,,,,,,,,0.0-189.0,"{""Q0"":""In the first half, black was more frequently on the left whereas this switched in the second half""}",,56611.0,,,,,,,,,False,,5f7366fe5b5261081e3d6fb8,,2442482,187,Q,survey-text,full_pf_b,,1
161,8564,188,track1,,[0],,,,,,,,0.0-190.0,"{""Q0"":""yes""}",,7445.0,,,,,,,,,False,,5f7366fe5b5261081e3d6fb8,,2449931,188,Q,evan-quiz,full_pf_b,,1
162,8565,189,track2,,[2],,,,,,,,0.0-191.0,"{""Q0"":""N/A""}",,6341.0,,,,,,,,,False,,5f7366fe5b5261081e3d6fb8,,2456274,189,Q,evan-quiz,full_pf_b,,1
163,8566,190,strat,,,,,,,,,,0.0-192.0,"{""Q0"":""If the black was giving positive numbers then I identified which side it was more likely to go to and then always chose that side. If the yellow was negative I selected the side most likely to have black.""}",,70238.0,,,,,,,,,False,,5f7366fe5b5261081e3d6fb8,,2526514,190,Q,survey-text,full_pf_b,,1
