,index,Unnamed: 0,Q_name,button_pressed,choice_idxs,chosen_pos,chosen_state,chosen_state_f_1_outcome,chosen_state_f_2_outcome,f_1_reward,f_2_reward,incor_questions,internal_node_id,responses,reward_received,rt,s_1_f_1_outcome,s_1_f_1_prob,s_1_f_2_outcome,s_1_f_2_prob,s_2_f_1_outcome,s_2_f_1_prob,s_2_f_2_outcome,s_2_f_2_prob,safe_first,stimulus,subjectID,success,time_elapsed,trial_index,trial_num,trial_type,version,view_history,switching
0,40532,25,,,,1,1,0.0,1.0,1.0,0.0,,0.0-27.0,,0.0,1092.39,0.0,0.6,1.0,0.6,0.0,0.4,0.0,0.4,True,,5f4d17da030fef97ee2d782e,,482427,25,,evan-feature22,full_rf_a,,0
1,40533,26,,,,2,2,0.0,1.0,1.0,0.0,,0.0-28.0,,0.0,1297.82,1.0,0.608053294,1.0,0.63424552,0.0,0.397152172,1.0,0.347069101,True,,5f4d17da030fef97ee2d782e,,493483,26,,evan-feature22,full_rf_a,,1
2,40534,27,,,,1,1,0.0,1.0,1.0,0.0,,0.0-29.0,,0.0,1002.405,0.0,0.642237155,1.0,0.648566321,0.0,0.389407674,0.0,0.285525717,True,,5f4d17da030fef97ee2d782e,,504245,27,,evan-feature22,full_rf_a,,1
3,40535,28,,,,2,2,1.0,0.0,1.0,0.0,,0.0-30.0,,1.0,689.08,1.0,0.661086576,0.0,0.630492543,1.0,0.399058924,0.0,0.25,True,,5f4d17da030fef97ee2d782e,,514693,28,,evan-feature22,full_rf_a,,1
4,40536,29,,,,2,2,0.0,0.0,0.0,-1.0,,0.0-31.0,,0.0,1503.855,0.0,0.631324137,1.0,0.6269842929999999,0.0,0.38734784299999997,0.0,0.25,True,,5f4d17da030fef97ee2d782e,,525956,29,,evan-feature22,full_rf_a,,0
5,40537,30,,,,2,2,1.0,0.0,0.0,-1.0,,0.0-32.0,,0.0,552.415,1.0,0.6381991370000001,1.0,0.68987999,1.0,0.384107265,0.0,0.271332943,True,,5f4d17da030fef97ee2d782e,,536269,30,,evan-feature22,full_rf_a,,0
6,40538,31,,,,1,1,0.0,1.0,1.0,0.0,,0.0-33.0,,0.0,1287.865,0.0,0.66034901,1.0,0.742641349,0.0,0.360225629,0.0,0.25,True,,5f4d17da030fef97ee2d782e,,547316,31,,evan-feature22,full_rf_a,,1
7,40539,32,,,,1,1,1.0,1.0,1.0,0.0,,0.0-34.0,,1.0,1120.51,1.0,0.638612418,1.0,0.75,0.0,0.367273939,0.0,0.25,True,,5f4d17da030fef97ee2d782e,,558195,32,,evan-feature22,full_rf_a,,0
8,40540,33,,,,2,2,1.0,0.0,0.0,-1.0,,0.0-35.0,,0.0,880.095,0.0,0.624340629,1.0,0.75,1.0,0.425829545,0.0,0.25,True,,5f4d17da030fef97ee2d782e,,568837,33,,evan-feature22,full_rf_a,,1
9,40541,34,,,,2,2,0.0,1.0,0.0,-1.0,,0.0-36.0,,-1.0,761.185,1.0,0.621999804,0.0,0.75,0.0,0.368609357,1.0,0.25,True,,5f4d17da030fef97ee2d782e,,579358,34,,evan-feature22,full_rf_a,,0
10,40542,35,,,,1,1,1.0,1.0,1.0,0.0,,0.0-37.0,,1.0,1279.455,1.0,0.62666403,1.0,0.75,1.0,0.311151498,0.0,0.25,True,,5f4d17da030fef97ee2d782e,,590396,35,,evan-feature22,full_rf_a,,1
11,40543,36,,,,2,2,0.0,1.0,0.0,-1.0,,0.0-38.0,,-1.0,1407.66,1.0,0.6819650009999999,1.0,0.75,0.0,0.310763048,1.0,0.25,True,,5f4d17da030fef97ee2d782e,,601565,36,,evan-feature22,full_rf_a,,1
12,40544,37,,,,1,1,1.0,0.0,1.0,0.0,,0.0-39.0,,1.0,1351.415,1.0,0.740626951,0.0,0.75,0.0,0.25,0.0,0.25,True,,5f4d17da030fef97ee2d782e,,612675,37,,evan-feature22,full_rf_a,,1
13,40545,38,,,,1,1,1.0,0.0,1.0,0.0,,0.0-40.0,,1.0,840.355,1.0,0.739599242,0.0,0.742034978,0.0,0.25397114600000004,0.0,0.25,True,,5f4d17da030fef97ee2d782e,,623278,38,,evan-feature22,full_rf_a,,0
14,40546,39,,,,1,1,1.0,0.0,1.0,0.0,,0.0-41.0,,1.0,790.995,1.0,0.732341315,0.0,0.72735643,0.0,0.25,0.0,0.25,True,,5f4d17da030fef97ee2d782e,,633828,39,,evan-feature22,full_rf_a,,0
15,40547,40,,,,1,1,1.0,1.0,1.0,0.0,,0.0-42.0,,1.0,568.475,1.0,0.7062287770000001,1.0,0.75,0.0,0.29002151,0.0,0.288256649,True,,5f4d17da030fef97ee2d782e,,644154,40,,evan-feature22,full_rf_a,,0
16,40548,41,,,,1,1,0.0,0.0,1.0,0.0,,0.0-43.0,,0.0,642.705,0.0,0.7086029209999999,0.0,0.75,1.0,0.274129113,0.0,0.262851608,True,,5f4d17da030fef97ee2d782e,,654557,41,,evan-feature22,full_rf_a,,0
17,40549,42,,,,1,1,0.0,1.0,1.0,0.0,,0.0-44.0,,0.0,790.485,0.0,0.669189651,1.0,0.727614338,0.0,0.298444036,1.0,0.296944518,True,,5f4d17da030fef97ee2d782e,,665108,42,,evan-feature22,full_rf_a,,0
18,40550,43,,,,1,1,0.0,0.0,1.0,0.0,,0.0-45.0,,0.0,1256.115,0.0,0.6819912929999999,0.0,0.7179434290000001,0.0,0.265003961,0.0,0.28157921199999997,True,,5f4d17da030fef97ee2d782e,,676123,43,,evan-feature22,full_rf_a,,0
19,40551,44,,,,2,2,0.0,0.0,0.0,-1.0,,0.0-46.0,,0.0,1128.91,1.0,0.665275002,1.0,0.723065271,0.0,0.260414971,0.0,0.30973870000000003,True,,5f4d17da030fef97ee2d782e,,687011,44,,evan-feature22,full_rf_a,,1
20,40552,45,,,,1,1,1.0,1.0,1.0,0.0,,0.0-47.0,,1.0,856.535,1.0,0.6660593260000001,1.0,0.728032907,0.0,0.30922817,1.0,0.338778608,True,,5f4d17da030fef97ee2d782e,,697630,45,,evan-feature22,full_rf_a,,1
21,40553,46,,,,1,1,1.0,1.0,1.0,0.0,,0.0-48.0,,1.0,622.635,1.0,0.702068785,1.0,0.6528750879999999,0.0,0.287329608,1.0,0.35789613200000003,True,,5f4d17da030fef97ee2d782e,,708012,46,,evan-feature22,full_rf_a,,0
22,40554,47,,,,1,1,1.0,0.0,1.0,0.0,,0.0-49.0,,1.0,632.055,1.0,0.651939787,0.0,0.636725589,0.0,0.284834488,0.0,0.358563756,True,,5f4d17da030fef97ee2d782e,,718402,47,,evan-feature22,full_rf_a,,0
23,40555,48,,,,2,2,1.0,1.0,0.0,-1.0,,0.0-50.0,,-1.0,883.32,1.0,0.67573929,0.0,0.612550049,1.0,0.37130387600000003,1.0,0.383542402,True,,5f4d17da030fef97ee2d782e,,729043,48,,evan-feature22,full_rf_a,,1
24,40556,49,,,,2,2,0.0,0.0,0.0,-1.0,,0.0-51.0,,0.0,1225.63,1.0,0.620753801,0.0,0.60513644,0.0,0.385529434,0.0,0.340361743,True,,5f4d17da030fef97ee2d782e,,740028,49,,evan-feature22,full_rf_a,,0
25,40557,50,,,,2,2,0.0,0.0,0.0,-1.0,,0.0-52.0,,0.0,984.56,0.0,0.673564893,0.0,0.672437924,0.0,0.292955382,0.0,0.337633795,True,,5f4d17da030fef97ee2d782e,,750772,50,,evan-feature22,full_rf_a,,0
26,40558,51,,,,1,1,1.0,1.0,1.0,0.0,,0.0-53.0,,1.0,759.95,1.0,0.6749427,1.0,0.724197502,0.0,0.32391132100000003,0.0,0.350995264,True,,5f4d17da030fef97ee2d782e,,761291,51,,evan-feature22,full_rf_a,,1
27,40559,52,,,,1,1,0.0,1.0,1.0,0.0,,0.0-54.0,,0.0,665.275,0.0,0.6940159379999999,1.0,0.75,0.0,0.31710554399999996,1.0,0.413450341,True,,5f4d17da030fef97ee2d782e,,771715,52,,evan-feature22,full_rf_a,,0
28,40560,53,,,,1,1,1.0,1.0,1.0,0.0,,0.0-55.0,,1.0,850.405,1.0,0.6916018270000001,1.0,0.69001187,0.0,0.261817804,1.0,0.40038635,True,,5f4d17da030fef97ee2d782e,,782328,53,,evan-feature22,full_rf_a,,0
29,40561,54,,,,1,1,1.0,0.0,1.0,0.0,,0.0-56.0,,1.0,770.655,1.0,0.641061544,0.0,0.71337992,0.0,0.277296461,0.0,0.47372791700000005,True,,5f4d17da030fef97ee2d782e,,792860,54,,evan-feature22,full_rf_a,,0
30,40562,55,,,,1,1,0.0,1.0,1.0,0.0,,0.0-57.0,,0.0,567.965,0.0,0.6082438520000001,1.0,0.708471106,1.0,0.28745137,1.0,0.564174476,True,,5f4d17da030fef97ee2d782e,,803188,55,,evan-feature22,full_rf_a,,0
31,40563,56,,,,1,1,1.0,1.0,1.0,0.0,,0.0-58.0,,1.0,703.795,1.0,0.6051112120000001,1.0,0.7118147229999999,0.0,0.272390611,1.0,0.5595149939999999,True,,5f4d17da030fef97ee2d782e,,813651,56,,evan-feature22,full_rf_a,,0
32,40564,57,,,,1,1,0.0,1.0,1.0,0.0,,0.0-59.0,,0.0,570.77,0.0,0.582420852,1.0,0.635867583,0.0,0.31089574,1.0,0.5227206520000001,True,,5f4d17da030fef97ee2d782e,,823980,57,,evan-feature22,full_rf_a,,0
33,40565,58,,,,SLOW,SLOW,,,0.0,-1.0,,0.0-60.0,,-3.0,,1.0,0.623195575,0.0,0.655026044,0.0,0.25,0.0,0.560387538,True,,5f4d17da030fef97ee2d782e,,829785,58,,evan-feature22,full_rf_a,,1
34,40566,59,,,,1,1,0.0,1.0,1.0,0.0,,0.0-61.0,,0.0,972.425,0.0,0.601889598,1.0,0.678198724,1.0,0.25,1.0,0.559922936,True,,5f4d17da030fef97ee2d782e,,840518,59,,evan-feature22,full_rf_a,,1
35,40567,60,,,,1,1,1.0,1.0,1.0,0.0,,0.0-62.0,,1.0,774.04,1.0,0.601259914,1.0,0.704681482,0.0,0.33908969299999997,1.0,0.505003715,True,,5f4d17da030fef97ee2d782e,,851054,60,,evan-feature22,full_rf_a,,0
36,40568,61,,,,1,1,0.0,0.0,1.0,0.0,,0.0-63.0,,0.0,718.51,0.0,0.59645454,0.0,0.710437172,0.0,0.327441879,1.0,0.391749613,True,,5f4d17da030fef97ee2d782e,,861531,61,,evan-feature22,full_rf_a,,0
37,40569,62,,,,1,1,1.0,1.0,1.0,0.0,,0.0-64.0,,1.0,553.585,1.0,0.529473,1.0,0.636758527,1.0,0.301338063,1.0,0.365661481,True,,5f4d17da030fef97ee2d782e,,871848,62,,evan-feature22,full_rf_a,,0
38,40570,63,,,,1,1,0.0,0.0,0.0,-1.0,,0.0-65.0,,0.0,835.875,0.0,0.541657162,0.0,0.634541962,0.0,0.343535366,0.0,0.371763742,True,,5f4d17da030fef97ee2d782e,,882441,63,,evan-feature22,full_rf_a,,0
39,40571,64,,,,1,1,1.0,1.0,1.0,0.0,,0.0-66.0,,1.0,1059.36,1.0,0.5707533260000001,1.0,0.589121171,0.0,0.326428396,0.0,0.43961622899999997,True,,5f4d17da030fef97ee2d782e,,893260,64,,evan-feature22,full_rf_a,,0
40,40572,65,,,,1,1,0.0,1.0,1.0,0.0,,0.0-67.0,,0.0,1089.295,0.0,0.5707533260000001,1.0,0.589121171,1.0,0.326428396,1.0,0.43961622899999997,True,,5f4d17da030fef97ee2d782e,,904108,65,,evan-feature22,full_rf_a,,0
41,40573,66,,,,1,1,1.0,0.0,1.0,0.0,,0.0-68.0,,1.0,911.87,1.0,0.506271295,0.0,0.641775594,0.0,0.37149690700000004,1.0,0.404330166,True,,5f4d17da030fef97ee2d782e,,914781,66,,evan-feature22,full_rf_a,,0
42,40574,67,,,,2,2,0.0,0.0,0.0,-1.0,,0.0-69.0,,0.0,1296.775,1.0,0.455642565,0.0,0.623605825,0.0,0.358753011,0.0,0.346174041,True,,5f4d17da030fef97ee2d782e,,925836,67,,evan-feature22,full_rf_a,,1
43,40575,68,,,,1,1,0.0,0.0,0.0,-1.0,,0.0-70.0,,0.0,648.125,0.0,0.483677308,0.0,0.5904681070000001,1.0,0.402218411,0.0,0.35344697,True,,5f4d17da030fef97ee2d782e,,936244,68,,evan-feature22,full_rf_a,,1
44,40576,69,,,,2,2,1.0,1.0,0.0,-1.0,,0.0-71.0,,-1.0,1817.45,0.0,0.394210977,0.0,0.558925494,1.0,0.540052017,1.0,0.35182128700000004,True,,5f4d17da030fef97ee2d782e,,947820,69,,evan-feature22,full_rf_a,,1
45,40577,70,,,,1,1,1.0,1.0,1.0,0.0,,0.0-72.0,,1.0,705.66,1.0,0.382300414,1.0,0.577670603,0.0,0.607608448,0.0,0.378261578,True,,5f4d17da030fef97ee2d782e,,958287,70,,evan-feature22,full_rf_a,,1
46,40578,71,,,,1,1,1.0,1.0,1.0,0.0,,0.0-73.0,,1.0,806.265,1.0,0.357596762,1.0,0.5929076529999999,1.0,0.6579790010000001,1.0,0.401326777,True,,5f4d17da030fef97ee2d782e,,968853,71,,evan-feature22,full_rf_a,,0
47,40579,72,,,,1,1,0.0,1.0,1.0,0.0,,0.0-74.0,,0.0,415.77,0.0,0.362033495,1.0,0.582308608,1.0,0.649195052,0.0,0.355158505,True,,5f4d17da030fef97ee2d782e,,979027,72,,evan-feature22,full_rf_a,,0
48,40580,73,,,,1,1,1.0,1.0,1.0,0.0,,0.0-75.0,,1.0,752.69,1.0,0.369620635,1.0,0.669100864,1.0,0.706059111,0.0,0.362516241,True,,5f4d17da030fef97ee2d782e,,989539,73,,evan-feature22,full_rf_a,,0
49,40581,74,,,,1,1,0.0,1.0,1.0,0.0,,0.0-76.0,,0.0,714.695,0.0,0.41477751399999996,1.0,0.7284416779999999,0.0,0.7182656940000001,1.0,0.36228040899999997,True,,5f4d17da030fef97ee2d782e,,1000013,74,,evan-feature22,full_rf_a,,0
50,40582,75,,,,2,2,1.0,1.0,0.0,-1.0,,0.0-77.0,,-1.0,751.975,0.0,0.37675460299999997,0.0,0.703250285,1.0,0.75,1.0,0.461979164,True,,5f4d17da030fef97ee2d782e,,1010525,75,,evan-feature22,full_rf_a,,1
51,40583,76,,,,1,1,0.0,0.0,0.0,-1.0,,0.0-78.0,,0.0,385.625,0.0,0.398716075,0.0,0.6723864890000001,0.0,0.674153818,0.0,0.519029516,True,,5f4d17da030fef97ee2d782e,,1020677,76,,evan-feature22,full_rf_a,,1
52,40584,77,,,,1,1,1.0,1.0,1.0,0.0,,0.0-79.0,,1.0,552.255,1.0,0.34677856700000004,1.0,0.69057175,1.0,0.6822438540000001,1.0,0.477292237,True,,5f4d17da030fef97ee2d782e,,1030988,77,,evan-feature22,full_rf_a,,0
53,40585,78,,,,2,2,1.0,1.0,0.0,-1.0,,0.0-80.0,,-1.0,953.08,1.0,0.28580469199999997,1.0,0.68408818,1.0,0.684207565,1.0,0.49780448299999996,True,,5f4d17da030fef97ee2d782e,,1041701,78,,evan-feature22,full_rf_a,,1
54,40587,80,,,,1,1,0.0,1.0,1.0,0.0,,0.0-82.0,,0.0,829.515,0.0,0.25,1.0,0.7405808970000001,1.0,0.679614108,0.0,0.436436964,True,,5f4d17da030fef97ee2d782e,,1053531,80,,evan-feature22,full_rf_a,,1
55,40588,81,,,,2,2,1.0,0.0,0.0,-1.0,,0.0-83.0,,0.0,928.01,1.0,0.29890393,1.0,0.730505706,1.0,0.7328203320000001,0.0,0.439256938,True,,5f4d17da030fef97ee2d782e,,1064220,81,,evan-feature22,full_rf_a,,1
56,40589,82,,,,1,1,0.0,1.0,1.0,0.0,,0.0-84.0,,0.0,911.45,0.0,0.326762398,1.0,0.7148059609999999,1.0,0.75,1.0,0.44389608799999997,True,,5f4d17da030fef97ee2d782e,,1074890,82,,evan-feature22,full_rf_a,,1
57,40590,83,,,,1,1,0.0,0.0,1.0,0.0,,0.0-85.0,,0.0,809.795,0.0,0.295168515,0.0,0.739760854,1.0,0.719947008,0.0,0.35277284600000003,True,,5f4d17da030fef97ee2d782e,,1085457,83,,evan-feature22,full_rf_a,,0
58,40591,84,,,,1,1,1.0,1.0,1.0,0.0,,0.0-86.0,,1.0,828.175,1.0,0.25,1.0,0.70781482,1.0,0.75,0.0,0.286095925,True,,5f4d17da030fef97ee2d782e,,1096044,84,,evan-feature22,full_rf_a,,0
59,40592,85,,,,2,2,1.0,0.0,0.0,-1.0,,0.0-87.0,,0.0,985.8,1.0,0.25638190899999996,1.0,0.704088163,1.0,0.75,0.0,0.26872601399999996,True,,5f4d17da030fef97ee2d782e,,1106787,85,,evan-feature22,full_rf_a,,1
60,40593,86,,,,2,2,1.0,0.0,0.0,-1.0,,0.0-88.0,,0.0,2105.135,1.0,0.271581126,0.0,0.669760107,1.0,0.733896663,0.0,0.273244572,True,,5f4d17da030fef97ee2d782e,,1118652,86,,evan-feature22,full_rf_a,,0
61,40594,87,,,,2,2,1.0,0.0,0.0,-1.0,,0.0-89.0,,0.0,1152.665,0.0,0.257144401,0.0,0.600575706,1.0,0.74488122,0.0,0.25,True,,5f4d17da030fef97ee2d782e,,1129565,87,,evan-feature22,full_rf_a,,0
62,40595,88,,,,1,1,1.0,1.0,1.0,0.0,,0.0-90.0,,1.0,984.285,1.0,0.25,1.0,0.616870026,1.0,0.723610234,1.0,0.25,True,,5f4d17da030fef97ee2d782e,,1140308,88,,evan-feature22,full_rf_a,,1
63,40596,89,,,,2,2,0.0,0.0,0.0,-1.0,,0.0-91.0,,0.0,864.77,0.0,0.25,0.0,0.583540187,0.0,0.7041042559999999,0.0,0.285961995,True,,5f4d17da030fef97ee2d782e,,1150930,89,,evan-feature22,full_rf_a,,1
64,40597,90,,,,1,1,0.0,1.0,1.0,0.0,,0.0-92.0,,0.0,809.15,0.0,0.27254536,1.0,0.53875765,1.0,0.693783448,0.0,0.284961652,True,,5f4d17da030fef97ee2d782e,,1161501,90,,evan-feature22,full_rf_a,,1
65,40598,91,,,,2,2,0.0,1.0,0.0,-1.0,,0.0-93.0,,-1.0,961.47,0.0,0.25,0.0,0.548431252,0.0,0.734221895,1.0,0.279445214,True,,5f4d17da030fef97ee2d782e,,1172221,91,,evan-feature22,full_rf_a,,1
66,40599,92,,,,1,1,0.0,0.0,1.0,0.0,,0.0-94.0,,0.0,758.975,0.0,0.258640684,0.0,0.545878066,1.0,0.725245965,1.0,0.31487537,True,,5f4d17da030fef97ee2d782e,,1182738,92,,evan-feature22,full_rf_a,,1
67,40600,93,,,,1,1,0.0,1.0,1.0,0.0,,0.0-95.0,,0.0,673.995,0.0,0.251103711,1.0,0.5776290629999999,1.0,0.696320133,0.0,0.317831047,True,,5f4d17da030fef97ee2d782e,,1193171,93,,evan-feature22,full_rf_a,,0
68,40601,94,,,,SLOW,SLOW,,,1.0,0.0,,0.0-96.0,,-3.0,,0.0,0.276630292,1.0,0.617329858,0.0,0.73838088,0.0,0.261471582,True,,5f4d17da030fef97ee2d782e,,1198978,94,,evan-feature22,full_rf_a,,1
69,40602,95,,,,2,2,0.0,0.0,0.0,-1.0,,0.0-97.0,,0.0,1163.215,0.0,0.297716424,1.0,0.618863717,0.0,0.7402358259999999,0.0,0.262600834,True,,5f4d17da030fef97ee2d782e,,1209899,95,,evan-feature22,full_rf_a,,1
70,40603,96,,,,1,1,0.0,0.0,1.0,0.0,,0.0-98.0,,0.0,795.455,0.0,0.290935512,0.0,0.695370945,1.0,0.706570507,1.0,0.280030553,True,,5f4d17da030fef97ee2d782e,,1220454,96,,evan-feature22,full_rf_a,,1
71,40604,97,,,,1,1,0.0,1.0,1.0,0.0,,0.0-99.0,,0.0,716.65,0.0,0.25,1.0,0.6465277079999999,1.0,0.67766682,0.0,0.25,True,,5f4d17da030fef97ee2d782e,,1230932,97,,evan-feature22,full_rf_a,,0
72,40605,98,,,,1,1,0.0,1.0,1.0,0.0,,0.0-100.0,,0.0,688.155,0.0,0.26463816,1.0,0.636100213,1.0,0.646048507,1.0,0.265607101,True,,5f4d17da030fef97ee2d782e,,1241381,98,,evan-feature22,full_rf_a,,0
73,40606,99,,,,1,1,0.0,1.0,1.0,0.0,,0.0-101.0,,0.0,759.045,0.0,0.314340707,1.0,0.667795927,0.0,0.613630805,0.0,0.25,True,,5f4d17da030fef97ee2d782e,,1251899,99,,evan-feature22,full_rf_a,,0
74,40607,100,,,,1,1,0.0,1.0,1.0,0.0,,0.0-102.0,,0.0,848.65,0.0,0.28685784,1.0,0.6622549529999999,1.0,0.652154117,0.0,0.25,True,,5f4d17da030fef97ee2d782e,,1262507,100,,evan-feature22,full_rf_a,,0
75,40608,101,,,,2,2,1.0,0.0,0.0,-1.0,,0.0-103.0,,0.0,962.005,0.0,0.304106554,0.0,0.631289538,1.0,0.707041942,0.0,0.29314237,True,,5f4d17da030fef97ee2d782e,,1273228,101,,evan-feature22,full_rf_a,,1
76,40609,102,,,,2,2,1.0,1.0,0.0,-1.0,,0.0-104.0,,-1.0,1038.685,0.0,0.304806932,0.0,0.571167718,1.0,0.680472346,1.0,0.25,True,,5f4d17da030fef97ee2d782e,,1284027,102,,evan-feature22,full_rf_a,,0
77,40610,103,,,,2,2,1.0,1.0,0.0,-1.0,,0.0-105.0,,-1.0,1001.85,0.0,0.37919861,0.0,0.5724849710000001,1.0,0.705638003,1.0,0.30179300600000003,True,,5f4d17da030fef97ee2d782e,,1294787,103,,evan-feature22,full_rf_a,,0
78,40611,104,,,,2,2,1.0,0.0,0.0,-1.0,,0.0-106.0,,0.0,1257.35,1.0,0.464277969,0.0,0.554034373,1.0,0.7372627340000001,0.0,0.264699741,True,,5f4d17da030fef97ee2d782e,,1305805,104,,evan-feature22,full_rf_a,,0
79,40612,105,,,,1,1,1.0,0.0,1.0,0.0,,0.0-107.0,,1.0,1015.145,1.0,0.465104323,0.0,0.530793115,0.0,0.75,0.0,0.31683071,True,,5f4d17da030fef97ee2d782e,,1316578,105,,evan-feature22,full_rf_a,,1
80,40613,106,,,,2,2,0.0,0.0,0.0,-1.0,,0.0-108.0,,0.0,762.325,1.0,0.465104323,0.0,0.530793115,0.0,0.75,0.0,0.31683071,True,,5f4d17da030fef97ee2d782e,,1327100,106,,evan-feature22,full_rf_a,,1
81,40614,107,,,,2,2,0.0,1.0,0.0,-1.0,,0.0-109.0,,-1.0,1118.165,1.0,0.46833986,0.0,0.570249239,0.0,0.7244472590000001,1.0,0.364114163,True,,5f4d17da030fef97ee2d782e,,1337977,107,,evan-feature22,full_rf_a,,0
82,40615,108,,,,1,1,1.0,1.0,0.0,-1.0,,0.0-110.0,,-1.0,1715.205,1.0,0.445444024,1.0,0.649673355,1.0,0.6845441290000001,0.0,0.300660449,True,,5f4d17da030fef97ee2d782e,,1349455,108,,evan-feature22,full_rf_a,,1
83,40616,109,,,,2,2,1.0,0.0,0.0,-1.0,,0.0-111.0,,0.0,1150.335,0.0,0.39909721299999995,0.0,0.6715179509999999,1.0,0.742310028,0.0,0.35496088299999995,True,,5f4d17da030fef97ee2d782e,,1360362,109,,evan-feature22,full_rf_a,,1
84,40617,110,,,,1,1,0.0,1.0,0.0,-1.0,,0.0-112.0,,-1.0,1473.38,0.0,0.37956104799999996,1.0,0.694725302,1.0,0.7181651309999999,0.0,0.38726906299999997,True,,5f4d17da030fef97ee2d782e,,1371597,110,,evan-feature22,full_rf_a,,1
85,40618,111,,,,2,2,1.0,1.0,0.0,-1.0,,0.0-113.0,,-1.0,808.11,1.0,0.404995034,1.0,0.724375412,1.0,0.6910946859999999,1.0,0.387187347,True,,5f4d17da030fef97ee2d782e,,1382167,111,,evan-feature22,full_rf_a,,1
86,40619,112,,,,1,1,1.0,1.0,0.0,-1.0,,0.0-114.0,,-1.0,526.27,1.0,0.461740803,1.0,0.75,1.0,0.75,1.0,0.34872038200000005,True,,5f4d17da030fef97ee2d782e,,1392451,112,,evan-feature22,full_rf_a,,1
87,40620,113,,,,2,2,1.0,1.0,1.0,0.0,,0.0-115.0,,1.0,2609.815,0.0,0.43821380600000004,1.0,0.738833273,1.0,0.728286963,1.0,0.399538128,True,,5f4d17da030fef97ee2d782e,,1404821,113,,evan-feature22,full_rf_a,,1
88,40621,114,,,,1,1,1.0,1.0,0.0,-1.0,,0.0-116.0,,-1.0,1311.345,1.0,0.41709882,1.0,0.736666736,0.0,0.75,1.0,0.389095584,True,,5f4d17da030fef97ee2d782e,,1415892,114,,evan-feature22,full_rf_a,,1
89,40622,115,,,,2,2,1.0,0.0,0.0,-1.0,,0.0-117.0,,0.0,1089.79,0.0,0.39749009799999996,1.0,0.744320029,1.0,0.75,0.0,0.363848678,True,,5f4d17da030fef97ee2d782e,,1426742,115,,evan-feature22,full_rf_a,,1
90,40623,116,,,,1,1,1.0,0.0,1.0,0.0,,0.0-118.0,,1.0,926.025,1.0,0.392653706,0.0,0.75,1.0,0.75,0.0,0.384386976,True,,5f4d17da030fef97ee2d782e,,1437427,116,,evan-feature22,full_rf_a,,1
91,40624,117,,,,1,1,0.0,0.0,1.0,0.0,,0.0-119.0,,0.0,1145.265,0.0,0.31190902600000003,0.0,0.75,0.0,0.732413819,0.0,0.413082932,True,,5f4d17da030fef97ee2d782e,,1448331,117,,evan-feature22,full_rf_a,,0
92,40625,118,,,,2,2,0.0,0.0,0.0,-1.0,,0.0-120.0,,0.0,858.445,1.0,0.366917648,1.0,0.740073855,0.0,0.75,0.0,0.352861979,True,,5f4d17da030fef97ee2d782e,,1458949,118,,evan-feature22,full_rf_a,,1
93,40626,119,,,,2,2,0.0,0.0,0.0,-1.0,,0.0-121.0,,0.0,495.605,0.0,0.3645172,0.0,0.721770713,0.0,0.75,0.0,0.404074511,True,,5f4d17da030fef97ee2d782e,,1469203,119,,evan-feature22,full_rf_a,,0
94,40627,120,,,,2,2,1.0,0.0,0.0,-1.0,,0.0-122.0,,0.0,850.39,0.0,0.35205600299999995,1.0,0.68983859,1.0,0.739735447,0.0,0.366895945,True,,5f4d17da030fef97ee2d782e,,1479812,120,,evan-feature22,full_rf_a,,0
95,40628,121,,,,2,2,1.0,1.0,0.0,-1.0,,0.0-123.0,,-1.0,1151.035,0.0,0.40998722600000004,1.0,0.720859127,1.0,0.673854955,1.0,0.368528541,True,,5f4d17da030fef97ee2d782e,,1490722,121,,evan-feature22,full_rf_a,,0
96,40629,122,,,,1,1,0.0,1.0,1.0,0.0,,0.0-124.0,,0.0,745.95,0.0,0.353625316,1.0,0.75,1.0,0.695605473,1.0,0.38303674200000004,True,,5f4d17da030fef97ee2d782e,,1501229,122,,evan-feature22,full_rf_a,,1
97,40630,123,,,,2,2,1.0,1.0,0.0,-1.0,,0.0-125.0,,-1.0,877.795,1.0,0.359216989,0.0,0.75,1.0,0.6987915090000001,1.0,0.35169046200000004,True,,5f4d17da030fef97ee2d782e,,1511864,123,,evan-feature22,full_rf_a,,1
98,40631,124,,,,1,1,0.0,1.0,1.0,0.0,,0.0-126.0,,0.0,2123.76,0.0,0.35834496899999996,1.0,0.75,1.0,0.707067742,0.0,0.416763636,True,,5f4d17da030fef97ee2d782e,,1523746,124,,evan-feature22,full_rf_a,,1
99,40632,125,,,,1,1,0.0,1.0,1.0,0.0,,0.0-127.0,,0.0,884.04,0.0,0.38741613799999997,1.0,0.7177369570000001,1.0,0.734902455,1.0,0.49438664299999996,True,,5f4d17da030fef97ee2d782e,,1534389,125,,evan-feature22,full_rf_a,,0
100,40633,126,,,,2,2,1.0,0.0,0.0,-1.0,,0.0-128.0,,0.0,862.635,1.0,0.405255252,1.0,0.7300466640000001,1.0,0.7027748070000001,0.0,0.504359668,True,,5f4d17da030fef97ee2d782e,,1545010,126,,evan-feature22,full_rf_a,,1
101,40634,127,,,,1,1,0.0,1.0,0.0,-1.0,,0.0-129.0,,-1.0,897.99,0.0,0.40697073,1.0,0.7260142190000001,1.0,0.724461982,1.0,0.522779179,True,,5f4d17da030fef97ee2d782e,,1555668,127,,evan-feature22,full_rf_a,,1
102,40635,128,,,,2,2,1.0,0.0,0.0,-1.0,,0.0-130.0,,0.0,1695.785,0.0,0.43906215299999996,0.0,0.7252802340000001,1.0,0.719079934,0.0,0.5712990579999999,True,,5f4d17da030fef97ee2d782e,,1567123,128,,evan-feature22,full_rf_a,,1
103,40636,129,,,,2,2,1.0,0.0,0.0,-1.0,,0.0-131.0,,0.0,795.7,1.0,0.4076705,0.0,0.73280499,1.0,0.681313127,0.0,0.523891346,True,,5f4d17da030fef97ee2d782e,,1577678,129,,evan-feature22,full_rf_a,,0
104,40637,130,,,,1,1,1.0,1.0,0.0,-1.0,,0.0-132.0,,-1.0,823.325,1.0,0.399102911,1.0,0.730498344,0.0,0.661080239,0.0,0.46742603,True,,5f4d17da030fef97ee2d782e,,1588262,130,,evan-feature22,full_rf_a,,1
105,40638,131,,,,1,1,0.0,1.0,1.0,0.0,,0.0-133.0,,0.0,1206.19,0.0,0.356477282,1.0,0.712296395,1.0,0.641812684,0.0,0.44868414,True,,5f4d17da030fef97ee2d782e,,1599226,131,,evan-feature22,full_rf_a,,0
106,40639,132,,,,2,2,1.0,1.0,0.0,-1.0,,0.0-134.0,,-1.0,794.17,1.0,0.462760722,0.0,0.692349322,1.0,0.700947931,1.0,0.394680266,True,,5f4d17da030fef97ee2d782e,,1609780,132,,evan-feature22,full_rf_a,,1
107,40640,133,,,,2,2,1.0,0.0,0.0,-1.0,,0.0-135.0,,0.0,2113.515,0.0,0.422306413,0.0,0.718375916,1.0,0.706340917,0.0,0.367787185,True,,5f4d17da030fef97ee2d782e,,1621651,133,,evan-feature22,full_rf_a,,0
108,40642,135,,,,1,1,1.0,1.0,0.0,-1.0,,0.0-137.0,,-1.0,1507.89,1.0,0.4582233,1.0,0.643834117,0.0,0.75,0.0,0.39615823299999997,True,,5f4d17da030fef97ee2d782e,,1636267,135,,evan-feature22,full_rf_a,,1
109,40643,136,,,,2,2,1.0,1.0,0.0,-1.0,,0.0-138.0,,-1.0,1159.755,1.0,0.43813437899999996,0.0,0.651283804,1.0,0.729674191,1.0,0.37711048,True,,5f4d17da030fef97ee2d782e,,1647185,136,,evan-feature22,full_rf_a,,1
110,40644,137,,,,2,2,1.0,0.0,0.0,-1.0,,0.0-139.0,,0.0,961.925,0.0,0.471199094,0.0,0.6470010979999999,1.0,0.715008097,0.0,0.410656191,True,,5f4d17da030fef97ee2d782e,,1657908,137,,evan-feature22,full_rf_a,,0
111,40645,138,,,,1,1,0.0,1.0,1.0,0.0,,0.0-140.0,,0.0,830.525,0.0,0.42486406,1.0,0.629771829,1.0,0.6550939960000001,1.0,0.459093873,True,,5f4d17da030fef97ee2d782e,,1668500,138,,evan-feature22,full_rf_a,,1
112,40646,139,,,,1,1,1.0,1.0,1.0,0.0,,0.0-141.0,,1.0,1088.91,1.0,0.4803197,1.0,0.645842715,0.0,0.6421749920000001,1.0,0.443092151,True,,5f4d17da030fef97ee2d782e,,1679349,139,,evan-feature22,full_rf_a,,0
113,40647,140,,,,1,1,0.0,1.0,1.0,0.0,,0.0-142.0,,0.0,599.565,0.0,0.521848997,1.0,0.735801074,1.0,0.6691348460000001,0.0,0.45259351600000003,True,,5f4d17da030fef97ee2d782e,,1689707,140,,evan-feature22,full_rf_a,,0
114,40648,141,,,,2,2,1.0,0.0,0.0,-1.0,,0.0-143.0,,0.0,832.75,1.0,0.49565621299999996,1.0,0.742400847,1.0,0.661512553,0.0,0.483110831,True,,5f4d17da030fef97ee2d782e,,1700300,141,,evan-feature22,full_rf_a,,1
115,40649,142,,,,1,1,0.0,1.0,1.0,0.0,,0.0-144.0,,0.0,720.04,0.0,0.521564361,1.0,0.731078632,1.0,0.6774886809999999,0.0,0.483263956,True,,5f4d17da030fef97ee2d782e,,1710780,142,,evan-feature22,full_rf_a,,1
116,40650,143,,,,1,1,0.0,1.0,1.0,0.0,,0.0-145.0,,0.0,760.08,0.0,0.558893102,1.0,0.719810023,0.0,0.67461031,0.0,0.499349834,True,,5f4d17da030fef97ee2d782e,,1721298,143,,evan-feature22,full_rf_a,,0
117,40651,144,,,,2,2,0.0,1.0,0.0,-1.0,,0.0-146.0,,-1.0,986.77,1.0,0.611031046,1.0,0.75,0.0,0.688072995,1.0,0.5321422729999999,True,,5f4d17da030fef97ee2d782e,,1732043,144,,evan-feature22,full_rf_a,,1
118,40652,145,,,,1,1,1.0,1.0,1.0,0.0,,0.0-147.0,,1.0,671.86,1.0,0.633223941,1.0,0.713567728,0.0,0.75,1.0,0.48185314700000004,True,,5f4d17da030fef97ee2d782e,,1742476,145,,evan-feature22,full_rf_a,,1
119,40653,146,,,,1,1,0.0,0.0,1.0,0.0,,0.0-148.0,,0.0,719.77,0.0,0.664001694,0.0,0.705509768,1.0,0.75,1.0,0.500211065,True,,5f4d17da030fef97ee2d782e,,1752952,146,,evan-feature22,full_rf_a,,0
120,40654,147,,,,1,1,0.0,1.0,0.0,-1.0,,0.0-149.0,,-1.0,1178.89,0.0,0.664001694,1.0,0.705509768,0.0,0.75,0.0,0.500211065,True,,5f4d17da030fef97ee2d782e,,1763891,147,,evan-feature22,full_rf_a,,0
121,40655,148,,,,2,2,1.0,0.0,0.0,-1.0,,0.0-150.0,,0.0,831.9,1.0,0.696508041,1.0,0.71066027,1.0,0.717028709,0.0,0.49792991,True,,5f4d17da030fef97ee2d782e,,1774484,148,,evan-feature22,full_rf_a,,1
122,40656,149,,,,1,1,1.0,1.0,1.0,0.0,,0.0-151.0,,1.0,808.38,1.0,0.699883272,1.0,0.75,1.0,0.713543895,1.0,0.496962643,True,,5f4d17da030fef97ee2d782e,,1785054,149,,evan-feature22,full_rf_a,,1
123,40657,150,,,,1,1,1.0,1.0,0.0,-1.0,,0.0-152.0,,-1.0,1918.7,1.0,0.741163419,1.0,0.75,1.0,0.64691024,1.0,0.513858197,True,,5f4d17da030fef97ee2d782e,,1796734,150,,evan-feature22,full_rf_a,,0
124,40658,151,,,,1,1,1.0,1.0,1.0,0.0,,0.0-153.0,,1.0,957.64,1.0,0.75,1.0,0.70816558,0.0,0.594499079,0.0,0.48502124,True,,5f4d17da030fef97ee2d782e,,1807451,151,,evan-feature22,full_rf_a,,0
125,40659,152,,,,2,2,1.0,0.0,0.0,-1.0,,0.0-154.0,,0.0,1177.48,1.0,0.75,1.0,0.721848901,1.0,0.62197249,0.0,0.48263586399999997,True,,5f4d17da030fef97ee2d782e,,1818388,152,,evan-feature22,full_rf_a,,1
126,40660,153,,,,1,1,1.0,1.0,1.0,0.0,,0.0-155.0,,1.0,792.69,1.0,0.75,1.0,0.74813071,1.0,0.584357161,0.0,0.411477782,True,,5f4d17da030fef97ee2d782e,,1828942,153,,evan-feature22,full_rf_a,,1
127,40661,154,,,,2,2,0.0,0.0,0.0,-1.0,,0.0-156.0,,0.0,845.7,0.0,0.75,1.0,0.75,0.0,0.52287236,0.0,0.488290656,True,,5f4d17da030fef97ee2d782e,,1839546,154,,evan-feature22,full_rf_a,,1
128,40662,155,,,,2,2,1.0,0.0,0.0,-1.0,,0.0-157.0,,0.0,778.52,1.0,0.75,1.0,0.75,1.0,0.544321581,0.0,0.53143059,True,,5f4d17da030fef97ee2d782e,,1850084,155,,evan-feature22,full_rf_a,,0
129,40663,156,,,,1,1,1.0,1.0,0.0,-1.0,,0.0-158.0,,-1.0,793.48,1.0,0.726754564,1.0,0.75,1.0,0.5129306370000001,0.0,0.530592445,True,,5f4d17da030fef97ee2d782e,,1860636,156,,evan-feature22,full_rf_a,,1
130,40664,157,,,,1,1,0.0,1.0,1.0,0.0,,0.0-159.0,,0.0,935.395,0.0,0.75,1.0,0.7392590729999999,1.0,0.479875835,0.0,0.547007051,True,,5f4d17da030fef97ee2d782e,,1871333,157,,evan-feature22,full_rf_a,,0
131,40665,158,,,,1,1,1.0,1.0,1.0,0.0,,0.0-160.0,,1.0,661.52,1.0,0.75,1.0,0.7393376979999999,1.0,0.546045419,0.0,0.541267353,True,,5f4d17da030fef97ee2d782e,,1881754,158,,evan-feature22,full_rf_a,,0
132,40666,159,,,,1,1,1.0,1.0,1.0,0.0,,0.0-161.0,,1.0,641.62,1.0,0.75,1.0,0.75,1.0,0.485725895,1.0,0.527625395,True,,5f4d17da030fef97ee2d782e,,1892155,159,,evan-feature22,full_rf_a,,0
133,40667,160,,,,2,2,1.0,1.0,0.0,-1.0,,0.0-162.0,,-1.0,896.76,1.0,0.75,1.0,0.725087974,1.0,0.488603595,1.0,0.504019206,True,,5f4d17da030fef97ee2d782e,,1902813,160,,evan-feature22,full_rf_a,,1
134,40668,161,,,,2,2,0.0,1.0,0.0,-1.0,,0.0-163.0,,-1.0,1431.47,1.0,0.745504295,1.0,0.75,0.0,0.452379914,1.0,0.50131194,True,,5f4d17da030fef97ee2d782e,,1914002,161,,evan-feature22,full_rf_a,,0
135,40669,162,,,,1,1,0.0,1.0,0.0,-1.0,,0.0-164.0,,-1.0,1555.685,0.0,0.728513874,1.0,0.75,0.0,0.44125567200000004,0.0,0.531454591,True,,5f4d17da030fef97ee2d782e,,1925316,162,,evan-feature22,full_rf_a,,1
136,40670,163,,,,1,1,1.0,0.0,1.0,0.0,,0.0-165.0,,1.0,1126.325,1.0,0.73790804,0.0,0.75,1.0,0.413036656,1.0,0.524619035,True,,5f4d17da030fef97ee2d782e,,1936204,163,,evan-feature22,full_rf_a,,0
137,40671,164,,,,2,2,0.0,0.0,0.0,-1.0,,0.0-166.0,,0.0,1120.35,1.0,0.7080961309999999,0.0,0.708666865,0.0,0.431915581,0.0,0.481819489,True,,5f4d17da030fef97ee2d782e,,1947081,164,,evan-feature22,full_rf_a,,1
138,40672,165,,,,2,2,0.0,1.0,0.0,-1.0,,0.0-167.0,,-1.0,1051.515,0.0,0.721378003,1.0,0.71605913,0.0,0.36642387,1.0,0.5036739929999999,True,,5f4d17da030fef97ee2d782e,,1957891,165,,evan-feature22,full_rf_a,,0
139,40673,166,,,,1,1,1.0,1.0,0.0,-1.0,,0.0-168.0,,-1.0,1240.99,1.0,0.7340618959999999,1.0,0.699323252,0.0,0.35298046299999997,1.0,0.511241692,True,,5f4d17da030fef97ee2d782e,,1968893,166,,evan-feature22,full_rf_a,,1
140,40674,167,,,,1,1,0.0,0.0,1.0,0.0,,0.0-169.0,,0.0,863.675,0.0,0.75,0.0,0.70412698,0.0,0.380734814,1.0,0.529580116,True,,5f4d17da030fef97ee2d782e,,1979515,167,,evan-feature22,full_rf_a,,0
141,40675,168,,,,2,2,0.0,1.0,0.0,-1.0,,0.0-170.0,,-1.0,1672.655,1.0,0.7436654909999999,1.0,0.711182751,0.0,0.41125331,1.0,0.49554405,True,,5f4d17da030fef97ee2d782e,,1990947,168,,evan-feature22,full_rf_a,,1
142,40676,169,,,,1,1,1.0,1.0,0.0,-1.0,,0.0-171.0,,-1.0,1609.44,1.0,0.731607915,1.0,0.651774583,0.0,0.35688023,1.0,0.45194491600000003,True,,5f4d17da030fef97ee2d782e,,2002315,169,,evan-feature22,full_rf_a,,1
143,40677,170,,,,2,2,1.0,0.0,1.0,0.0,,0.0-172.0,,1.0,1728.13,1.0,0.75,0.0,0.75,1.0,0.283145374,0.0,0.528608005,True,,5f4d17da030fef97ee2d782e,,2013802,170,,evan-feature22,full_rf_a,,1
144,40678,171,,,,2,2,0.0,1.0,1.0,0.0,,0.0-173.0,,0.0,963.16,1.0,0.7491416890000001,1.0,0.7423785959999999,0.0,0.29135870399999997,1.0,0.498888318,True,,5f4d17da030fef97ee2d782e,,2024527,171,,evan-feature22,full_rf_a,,0
145,40679,172,,,,1,1,1.0,1.0,1.0,0.0,,0.0-174.0,,1.0,877.805,1.0,0.708569387,1.0,0.717682277,1.0,0.294421699,1.0,0.493838163,True,,5f4d17da030fef97ee2d782e,,2035167,172,,evan-feature22,full_rf_a,,1
146,40680,173,,,,SLOW,SLOW,,,0.0,-1.0,,0.0-175.0,,-3.0,,1.0,0.75,0.0,0.7383382159999999,0.0,0.356098707,1.0,0.442533405,True,,5f4d17da030fef97ee2d782e,,2040972,173,,evan-feature22,full_rf_a,,1
147,40681,174,,,,1,1,1.0,1.0,0.0,-1.0,,0.0-176.0,,-1.0,832.875,1.0,0.744527075,1.0,0.75,1.0,0.334127506,0.0,0.393165805,True,,5f4d17da030fef97ee2d782e,,2051565,174,,evan-feature22,full_rf_a,,1
148,40682,175,,,,2,2,0.0,1.0,0.0,-1.0,,0.0-177.0,,-1.0,909.95,0.0,0.75,1.0,0.75,0.0,0.33571021799999995,1.0,0.350393962,True,,5f4d17da030fef97ee2d782e,,2062236,175,,evan-feature22,full_rf_a,,1
149,40683,176,,,,1,1,1.0,1.0,0.0,-1.0,,0.0-178.0,,-1.0,833.195,1.0,0.75,1.0,0.75,1.0,0.313628297,0.0,0.36349657399999996,True,,5f4d17da030fef97ee2d782e,,2072832,176,,evan-feature22,full_rf_a,,1
150,40684,177,,,,1,1,1.0,0.0,1.0,0.0,,0.0-179.0,,1.0,1115.18,1.0,0.75,0.0,0.734284182,0.0,0.262667667,1.0,0.380199119,True,,5f4d17da030fef97ee2d782e,,2083708,177,,evan-feature22,full_rf_a,,0
151,40685,178,,,,2,2,1.0,1.0,0.0,-1.0,,0.0-180.0,,-1.0,715.37,1.0,0.75,1.0,0.75,1.0,0.25,1.0,0.394494013,True,,5f4d17da030fef97ee2d782e,,2094188,178,,evan-feature22,full_rf_a,,1
152,40686,179,,,,1,1,1.0,1.0,1.0,0.0,,0.0-181.0,,1.0,656.205,1.0,0.722298145,1.0,0.7357822340000001,0.0,0.25,0.0,0.319142121,True,,5f4d17da030fef97ee2d782e,,2104604,179,,evan-feature22,full_rf_a,,1
153,40687,180,,,,1,1,1.0,1.0,1.0,0.0,,0.0-182.0,,1.0,792.585,1.0,0.73149275,1.0,0.724276446,1.0,0.305856907,0.0,0.281315057,True,,5f4d17da030fef97ee2d782e,,2115157,180,,evan-feature22,full_rf_a,,0
154,40688,181,,,,2,2,0.0,0.0,0.0,-1.0,,0.0-183.0,,0.0,2055.635,0.0,0.7458732690000001,1.0,0.7336382459999999,0.0,0.272571964,0.0,0.266021999,True,,5f4d17da030fef97ee2d782e,,2126970,181,,evan-feature22,full_rf_a,,1
155,40689,182,,,,2,2,0.0,0.0,0.0,-1.0,,0.0-184.0,,0.0,867.34,1.0,0.705579037,1.0,0.720778292,0.0,0.320238144,0.0,0.30971744,True,,5f4d17da030fef97ee2d782e,,2137597,182,,evan-feature22,full_rf_a,,0
156,40690,183,,,,2,2,1.0,1.0,0.0,-1.0,,0.0-185.0,,-1.0,966.355,0.0,0.700425648,1.0,0.7198784009999999,1.0,0.272590393,1.0,0.304182931,True,,5f4d17da030fef97ee2d782e,,2148325,183,,evan-feature22,full_rf_a,,0
157,40691,184,,,,2,2,0.0,0.0,0.0,-1.0,,0.0-186.0,,0.0,898.59,1.0,0.735590785,1.0,0.722714973,0.0,0.25,0.0,0.323421091,True,,5f4d17da030fef97ee2d782e,,2158983,184,,evan-feature22,full_rf_a,,0
158,40692,185,,,,2,2,0.0,0.0,0.0,-1.0,,0.0-187.0,,0.0,981.005,0.0,0.724807662,0.0,0.63146213,0.0,0.36836492600000004,0.0,0.34592153299999995,True,,5f4d17da030fef97ee2d782e,,2169723,185,,evan-feature22,full_rf_a,,0
159,40693,186,,,,2,2,0.0,1.0,0.0,-1.0,,0.0-188.0,,-1.0,777.28,0.0,0.7352796909999999,1.0,0.555111392,0.0,0.36003922,1.0,0.31433779999999995,True,,5f4d17da030fef97ee2d782e,,2180261,186,,evan-feature22,full_rf_a,,0
160,40694,187,notice,,,,,,,,,,0.0-189.0,"{""Q0"":""There seemed to be more blacks in the second half?""}",,16489.0,,,,,,,,,True,,5f4d17da030fef97ee2d782e,,2196751,187,Q,survey-text,full_rf_a,,1
161,40695,188,track1,,[1],,,,,,,,0.0-190.0,"{""Q0"":""no""}",,3142.0,,,,,,,,,True,,5f4d17da030fef97ee2d782e,,2199895,188,Q,evan-quiz,full_rf_a,,1
162,40696,189,track2,,[0],,,,,,,,0.0-191.0,"{""Q0"":""yes""}",,4285.0,,,,,,,,,True,,5f4d17da030fef97ee2d782e,,2204183,189,Q,evan-quiz,full_rf_a,,1
163,40697,190,strat,,,,,,,,,,0.0-192.0,"{""Q0"":""I basically just judged it on how many times each one had had each colour. Kind of a roughly-guesstimated thing.""}",,59004.0,,,,,,,,,True,,5f4d17da030fef97ee2d782e,,2263191,190,Q,survey-text,full_rf_a,,1
