,index,Unnamed: 0,Q_name,button_pressed,choice_idxs,chosen_pos,chosen_state,chosen_state_f_1_outcome,chosen_state_f_2_outcome,f_1_reward,f_2_reward,incor_questions,internal_node_id,responses,reward_received,rt,s_1_f_1_outcome,s_1_f_1_prob,s_1_f_2_outcome,s_1_f_2_prob,s_2_f_1_outcome,s_2_f_1_prob,s_2_f_2_outcome,s_2_f_2_prob,safe_first,stimulus,subjectID,success,time_elapsed,trial_index,trial_num,trial_type,version,view_history,switching
0,31669,25,,,,1,1,0.0,1.0,0.0,-1.0,,0.0-27.0,,-1.0,785.745,0.0,0.6,1.0,0.6,0.0,0.4,0.0,0.4,False,,56afc8219bf45c000d00d499,,627530,25,,evan-feature22,full_pf_a,,0
1,31670,26,,,,1,1,0.0,1.0,0.0,-1.0,,0.0-28.0,,-1.0,1326.735,0.0,0.608053294,1.0,0.63424552,1.0,0.397152172,1.0,0.347069101,False,,56afc8219bf45c000d00d499,,638639,26,,evan-feature22,full_pf_a,,0
2,31671,27,,,,2,2,1.0,0.0,0.0,-1.0,,0.0-29.0,,0.0,753.495,1.0,0.642237155,1.0,0.648566321,1.0,0.389407674,0.0,0.285525717,False,,56afc8219bf45c000d00d499,,649159,27,,evan-feature22,full_pf_a,,1
3,31672,28,,,,2,2,0.0,0.0,0.0,-1.0,,0.0-30.0,,0.0,1434.215,1.0,0.661086576,1.0,0.630492543,0.0,0.399058924,0.0,0.25,False,,56afc8219bf45c000d00d499,,660367,28,,evan-feature22,full_pf_a,,0
4,31673,29,,,,1,1,0.0,1.0,0.0,-1.0,,0.0-31.0,,-1.0,422.945,0.0,0.631324137,1.0,0.6269842929999999,1.0,0.38734784299999997,0.0,0.25,False,,56afc8219bf45c000d00d499,,670561,29,,evan-feature22,full_pf_a,,1
5,31674,30,,,,2,2,0.0,0.0,0.0,-1.0,,0.0-32.0,,0.0,366.42,0.0,0.6381991370000001,0.0,0.68987999,0.0,0.384107265,0.0,0.271332943,False,,56afc8219bf45c000d00d499,,680700,30,,evan-feature22,full_pf_a,,1
6,31675,31,,,,2,2,1.0,0.0,0.0,-1.0,,0.0-33.0,,0.0,797.565,0.0,0.66034901,1.0,0.742641349,1.0,0.360225629,0.0,0.25,False,,56afc8219bf45c000d00d499,,691271,31,,evan-feature22,full_pf_a,,0
7,31676,32,,,,1,1,0.0,0.0,1.0,0.0,,0.0-34.0,,0.0,1856.675,0.0,0.638612418,0.0,0.75,0.0,0.367273939,0.0,0.25,False,,56afc8219bf45c000d00d499,,702900,32,,evan-feature22,full_pf_a,,1
8,31677,33,,,,2,2,1.0,1.0,0.0,-1.0,,0.0-35.0,,-1.0,1072.045,1.0,0.624340629,1.0,0.75,1.0,0.425829545,1.0,0.25,False,,56afc8219bf45c000d00d499,,713746,33,,evan-feature22,full_pf_a,,1
9,31678,34,,,,2,2,0.0,1.0,0.0,-1.0,,0.0-36.0,,-1.0,1397.6,1.0,0.621999804,1.0,0.75,0.0,0.368609357,1.0,0.25,False,,56afc8219bf45c000d00d499,,724914,34,,evan-feature22,full_pf_a,,0
10,31679,35,,,,2,2,0.0,0.0,1.0,0.0,,0.0-37.0,,0.0,1644.945,0.0,0.62666403,1.0,0.75,0.0,0.311151498,0.0,0.25,False,,56afc8219bf45c000d00d499,,736339,35,,evan-feature22,full_pf_a,,0
11,31680,36,,,,2,2,1.0,0.0,1.0,0.0,,0.0-38.0,,1.0,763.84,1.0,0.6819650009999999,0.0,0.75,1.0,0.310763048,0.0,0.25,False,,56afc8219bf45c000d00d499,,746872,36,,evan-feature22,full_pf_a,,0
12,31681,37,,,,1,1,1.0,1.0,0.0,-1.0,,0.0-39.0,,-1.0,996.655,1.0,0.740626951,1.0,0.75,1.0,0.25,0.0,0.25,False,,56afc8219bf45c000d00d499,,757647,37,,evan-feature22,full_pf_a,,1
13,31682,38,,,,2,2,0.0,1.0,0.0,-1.0,,0.0-40.0,,-1.0,375.68,1.0,0.739599242,1.0,0.742034978,0.0,0.25397114600000004,1.0,0.25,False,,56afc8219bf45c000d00d499,,767801,38,,evan-feature22,full_pf_a,,1
14,31683,39,,,,1,1,1.0,1.0,0.0,-1.0,,0.0-41.0,,-1.0,1219.41,1.0,0.732341315,1.0,0.72735643,0.0,0.25,0.0,0.25,False,,56afc8219bf45c000d00d499,,778793,39,,evan-feature22,full_pf_a,,1
15,31684,40,,,,1,1,0.0,1.0,0.0,-1.0,,0.0-42.0,,-1.0,916.38,0.0,0.7062287770000001,1.0,0.75,0.0,0.29002151,1.0,0.288256649,False,,56afc8219bf45c000d00d499,,789486,40,,evan-feature22,full_pf_a,,0
16,31685,41,,,,2,2,0.0,1.0,1.0,0.0,,0.0-43.0,,0.0,605.4,0.0,0.7086029209999999,1.0,0.75,0.0,0.274129113,1.0,0.262851608,False,,56afc8219bf45c000d00d499,,799866,41,,evan-feature22,full_pf_a,,1
17,31686,42,,,,2,2,0.0,1.0,0.0,-1.0,,0.0-44.0,,-1.0,1195.15,1.0,0.669189651,1.0,0.727614338,0.0,0.298444036,1.0,0.296944518,False,,56afc8219bf45c000d00d499,,810836,42,,evan-feature22,full_pf_a,,0
18,31687,43,,,,1,1,1.0,1.0,1.0,0.0,,0.0-45.0,,1.0,404.625,1.0,0.6819912929999999,1.0,0.7179434290000001,1.0,0.265003961,0.0,0.28157921199999997,False,,56afc8219bf45c000d00d499,,821019,43,,evan-feature22,full_pf_a,,1
19,31688,44,,,,2,2,0.0,0.0,1.0,0.0,,0.0-46.0,,0.0,160.245,0.0,0.665275002,1.0,0.723065271,0.0,0.260414971,0.0,0.30973870000000003,False,,56afc8219bf45c000d00d499,,830953,44,,evan-feature22,full_pf_a,,1
20,31689,45,,,,2,2,0.0,0.0,0.0,-1.0,,0.0-47.0,,0.0,379.24,1.0,0.6660593260000001,1.0,0.728032907,0.0,0.30922817,0.0,0.338778608,False,,56afc8219bf45c000d00d499,,841105,45,,evan-feature22,full_pf_a,,0
21,31690,46,,,,1,1,1.0,1.0,0.0,-1.0,,0.0-48.0,,-1.0,940.05,1.0,0.702068785,1.0,0.6528750879999999,0.0,0.287329608,0.0,0.35789613200000003,False,,56afc8219bf45c000d00d499,,851819,46,,evan-feature22,full_pf_a,,1
22,31691,47,,,,2,2,0.0,0.0,0.0,-1.0,,0.0-49.0,,0.0,1718.86,1.0,0.651939787,0.0,0.636725589,0.0,0.284834488,0.0,0.358563756,False,,56afc8219bf45c000d00d499,,863311,47,,evan-feature22,full_pf_a,,1
23,31692,48,,,,2,2,1.0,0.0,0.0,-1.0,,0.0-50.0,,0.0,910.11,0.0,0.67573929,1.0,0.612550049,1.0,0.37130387600000003,0.0,0.383542402,False,,56afc8219bf45c000d00d499,,873991,48,,evan-feature22,full_pf_a,,0
24,31693,49,,,,2,2,0.0,0.0,0.0,-1.0,,0.0-51.0,,0.0,2258.5,1.0,0.620753801,1.0,0.60513644,0.0,0.385529434,0.0,0.340361743,False,,56afc8219bf45c000d00d499,,886030,49,,evan-feature22,full_pf_a,,0
25,31694,50,,,,1,1,1.0,0.0,1.0,0.0,,0.0-52.0,,1.0,523.59,1.0,0.673564893,0.0,0.672437924,0.0,0.292955382,0.0,0.337633795,False,,56afc8219bf45c000d00d499,,896327,50,,evan-feature22,full_pf_a,,1
26,31695,51,,,,1,1,0.0,1.0,0.0,-1.0,,0.0-53.0,,-1.0,746.165,0.0,0.6749427,1.0,0.724197502,1.0,0.32391132100000003,1.0,0.350995264,False,,56afc8219bf45c000d00d499,,906849,51,,evan-feature22,full_pf_a,,0
27,31696,52,,,,2,2,0.0,0.0,0.0,-1.0,,0.0-54.0,,0.0,971.11,1.0,0.6940159379999999,0.0,0.75,0.0,0.31710554399999996,0.0,0.413450341,False,,56afc8219bf45c000d00d499,,917593,52,,evan-feature22,full_pf_a,,1
28,31697,53,,,,1,1,0.0,1.0,0.0,-1.0,,0.0-55.0,,-1.0,548.8,0.0,0.6916018270000001,1.0,0.69001187,0.0,0.261817804,0.0,0.40038635,False,,56afc8219bf45c000d00d499,,927907,53,,evan-feature22,full_pf_a,,1
29,31698,54,,,,2,2,0.0,0.0,0.0,-1.0,,0.0-56.0,,0.0,758.33,1.0,0.641061544,1.0,0.71337992,0.0,0.277296461,0.0,0.47372791700000005,False,,56afc8219bf45c000d00d499,,938436,54,,evan-feature22,full_pf_a,,1
30,31699,55,,,,1,1,1.0,0.0,0.0,-1.0,,0.0-57.0,,0.0,2114.295,1.0,0.6082438520000001,0.0,0.708471106,0.0,0.28745137,1.0,0.564174476,False,,56afc8219bf45c000d00d499,,950318,55,,evan-feature22,full_pf_a,,1
31,31700,56,,,,1,1,1.0,1.0,1.0,0.0,,0.0-58.0,,1.0,453.63,1.0,0.6051112120000001,1.0,0.7118147229999999,0.0,0.272390611,0.0,0.5595149939999999,False,,56afc8219bf45c000d00d499,,960554,56,,evan-feature22,full_pf_a,,0
32,31701,57,,,,2,2,0.0,0.0,1.0,0.0,,0.0-59.0,,0.0,1242.165,0.0,0.582420852,0.0,0.635867583,0.0,0.31089574,0.0,0.5227206520000001,False,,56afc8219bf45c000d00d499,,971570,57,,evan-feature22,full_pf_a,,1
33,31702,58,,,,2,2,0.0,0.0,1.0,0.0,,0.0-60.0,,0.0,733.03,1.0,0.623195575,0.0,0.655026044,0.0,0.25,0.0,0.560387538,False,,56afc8219bf45c000d00d499,,982079,58,,evan-feature22,full_pf_a,,0
34,31703,59,,,,2,2,0.0,1.0,0.0,-1.0,,0.0-61.0,,-1.0,481.335,1.0,0.601889598,0.0,0.678198724,0.0,0.25,1.0,0.559922936,False,,56afc8219bf45c000d00d499,,992335,59,,evan-feature22,full_pf_a,,0
35,31704,60,,,,1,1,0.0,1.0,1.0,0.0,,0.0-62.0,,0.0,1073.49,0.0,0.601259914,1.0,0.704681482,1.0,0.33908969299999997,1.0,0.505003715,False,,56afc8219bf45c000d00d499,,1003179,60,,evan-feature22,full_pf_a,,1
36,31705,61,,,,2,2,0.0,0.0,1.0,0.0,,0.0-63.0,,0.0,357.595,1.0,0.59645454,1.0,0.710437172,0.0,0.327441879,0.0,0.391749613,False,,56afc8219bf45c000d00d499,,1013308,61,,evan-feature22,full_pf_a,,1
37,31706,62,,,,1,1,1.0,0.0,0.0,-1.0,,0.0-64.0,,0.0,412.715,1.0,0.529473,0.0,0.636758527,0.0,0.301338063,1.0,0.365661481,False,,56afc8219bf45c000d00d499,,1023492,62,,evan-feature22,full_pf_a,,1
38,31707,63,,,,2,2,1.0,0.0,1.0,0.0,,0.0-65.0,,1.0,504.135,1.0,0.541657162,1.0,0.634541962,1.0,0.343535366,0.0,0.371763742,False,,56afc8219bf45c000d00d499,,1033771,63,,evan-feature22,full_pf_a,,1
39,31708,64,,,,2,2,0.0,0.0,1.0,0.0,,0.0-66.0,,0.0,1017.15,0.0,0.5707533260000001,0.0,0.589121171,0.0,0.326428396,0.0,0.43961622899999997,False,,56afc8219bf45c000d00d499,,1044568,64,,evan-feature22,full_pf_a,,0
40,31709,65,,,,1,1,0.0,0.0,0.0,-1.0,,0.0-67.0,,0.0,820.915,0.0,0.5707533260000001,0.0,0.589121171,0.0,0.326428396,0.0,0.43961622899999997,False,,56afc8219bf45c000d00d499,,1055170,65,,evan-feature22,full_pf_a,,1
41,31710,66,,,,1,1,0.0,0.0,0.0,-1.0,,0.0-68.0,,0.0,384.985,0.0,0.506271295,0.0,0.641775594,0.0,0.37149690700000004,0.0,0.404330166,False,,56afc8219bf45c000d00d499,,1065330,66,,evan-feature22,full_pf_a,,0
42,31711,67,,,,1,1,0.0,1.0,1.0,0.0,,0.0-69.0,,0.0,476.03,0.0,0.455642565,1.0,0.623605825,1.0,0.358753011,0.0,0.346174041,False,,56afc8219bf45c000d00d499,,1075581,67,,evan-feature22,full_pf_a,,0
43,31712,68,,,,2,2,0.0,0.0,0.0,-1.0,,0.0-70.0,,0.0,1457.04,1.0,0.483677308,1.0,0.5904681070000001,0.0,0.402218411,0.0,0.35344697,False,,56afc8219bf45c000d00d499,,1086802,68,,evan-feature22,full_pf_a,,1
44,31713,69,,,,2,2,1.0,1.0,1.0,0.0,,0.0-71.0,,1.0,558.445,1.0,0.394210977,0.0,0.558925494,1.0,0.540052017,1.0,0.35182128700000004,False,,56afc8219bf45c000d00d499,,1097134,69,,evan-feature22,full_pf_a,,0
45,31714,70,,,,2,2,1.0,0.0,0.0,-1.0,,0.0-72.0,,0.0,625.005,1.0,0.382300414,0.0,0.577670603,1.0,0.607608448,0.0,0.378261578,False,,56afc8219bf45c000d00d499,,1107533,70,,evan-feature22,full_pf_a,,0
46,31715,71,,,,1,1,0.0,1.0,1.0,0.0,,0.0-73.0,,0.0,904.105,0.0,0.357596762,1.0,0.5929076529999999,1.0,0.6579790010000001,1.0,0.401326777,False,,56afc8219bf45c000d00d499,,1118211,71,,evan-feature22,full_pf_a,,1
47,31716,72,,,,2,2,1.0,0.0,0.0,-1.0,,0.0-74.0,,0.0,440.655,0.0,0.362033495,1.0,0.582308608,1.0,0.649195052,0.0,0.355158505,False,,56afc8219bf45c000d00d499,,1128429,72,,evan-feature22,full_pf_a,,1
48,31717,73,,,,1,1,0.0,0.0,0.0,-1.0,,0.0-75.0,,0.0,576.225,0.0,0.369620635,0.0,0.669100864,1.0,0.706059111,1.0,0.362516241,False,,56afc8219bf45c000d00d499,,1138775,73,,evan-feature22,full_pf_a,,1
49,31718,74,,,,2,2,1.0,0.0,0.0,-1.0,,0.0-76.0,,0.0,327.175,0.0,0.41477751399999996,1.0,0.7284416779999999,1.0,0.7182656940000001,0.0,0.36228040899999997,False,,56afc8219bf45c000d00d499,,1148868,74,,evan-feature22,full_pf_a,,1
50,31719,75,,,,2,2,1.0,1.0,1.0,0.0,,0.0-77.0,,1.0,472.405,1.0,0.37675460299999997,1.0,0.703250285,1.0,0.75,1.0,0.461979164,False,,56afc8219bf45c000d00d499,,1159114,75,,evan-feature22,full_pf_a,,0
51,31720,76,,,,2,2,0.0,1.0,1.0,0.0,,0.0-78.0,,0.0,556.915,0.0,0.398716075,1.0,0.6723864890000001,0.0,0.674153818,1.0,0.519029516,False,,56afc8219bf45c000d00d499,,1169453,76,,evan-feature22,full_pf_a,,0
52,31721,77,,,,1,1,0.0,1.0,1.0,0.0,,0.0-79.0,,0.0,1333.245,0.0,0.34677856700000004,1.0,0.69057175,1.0,0.6822438540000001,0.0,0.477292237,False,,56afc8219bf45c000d00d499,,1180556,77,,evan-feature22,full_pf_a,,1
53,31722,78,,,,1,1,0.0,1.0,0.0,-1.0,,0.0-80.0,,-1.0,551.065,0.0,0.28580469199999997,1.0,0.68408818,1.0,0.684207565,1.0,0.49780448299999996,False,,56afc8219bf45c000d00d499,,1190884,78,,evan-feature22,full_pf_a,,0
54,31724,80,,,,2,2,1.0,0.0,0.0,-1.0,,0.0-82.0,,0.0,1600.38,0.0,0.25,1.0,0.7405808970000001,1.0,0.679614108,0.0,0.436436964,False,,56afc8219bf45c000d00d499,,1204658,80,,evan-feature22,full_pf_a,,1
55,31725,81,,,,2,2,1.0,0.0,0.0,-1.0,,0.0-83.0,,0.0,741.13,0.0,0.29890393,1.0,0.730505706,1.0,0.7328203320000001,0.0,0.439256938,False,,56afc8219bf45c000d00d499,,1215172,81,,evan-feature22,full_pf_a,,0
56,31726,82,,,,2,2,1.0,1.0,1.0,0.0,,0.0-84.0,,1.0,475.62,0.0,0.326762398,1.0,0.7148059609999999,1.0,0.75,1.0,0.44389608799999997,False,,56afc8219bf45c000d00d499,,1225412,82,,evan-feature22,full_pf_a,,0
57,31727,83,,,,2,2,1.0,0.0,0.0,-1.0,,0.0-85.0,,0.0,801.935,0.0,0.295168515,0.0,0.739760854,1.0,0.719947008,0.0,0.35277284600000003,False,,56afc8219bf45c000d00d499,,1235972,83,,evan-feature22,full_pf_a,,0
58,31728,84,,,,1,1,0.0,1.0,0.0,-1.0,,0.0-86.0,,-1.0,958.8,0.0,0.25,1.0,0.70781482,0.0,0.75,1.0,0.286095925,False,,56afc8219bf45c000d00d499,,1246697,84,,evan-feature22,full_pf_a,,1
59,31729,85,,,,1,1,1.0,1.0,0.0,-1.0,,0.0-87.0,,-1.0,720.32,1.0,0.25638190899999996,1.0,0.704088163,1.0,0.75,0.0,0.26872601399999996,False,,56afc8219bf45c000d00d499,,1257191,85,,evan-feature22,full_pf_a,,0
60,31730,86,,,,1,1,0.0,0.0,1.0,0.0,,0.0-88.0,,0.0,491.32,0.0,0.271581126,0.0,0.669760107,1.0,0.733896663,0.0,0.273244572,False,,56afc8219bf45c000d00d499,,1267463,86,,evan-feature22,full_pf_a,,0
61,31731,87,,,,2,2,0.0,1.0,0.0,-1.0,,0.0-89.0,,-1.0,437.975,0.0,0.257144401,1.0,0.600575706,0.0,0.74488122,1.0,0.25,False,,56afc8219bf45c000d00d499,,1277675,87,,evan-feature22,full_pf_a,,1
62,31732,88,,,,1,1,1.0,1.0,0.0,-1.0,,0.0-90.0,,-1.0,803.61,1.0,0.25,1.0,0.616870026,1.0,0.723610234,1.0,0.25,False,,56afc8219bf45c000d00d499,,1288251,88,,evan-feature22,full_pf_a,,1
63,31733,89,,,,1,1,1.0,0.0,1.0,0.0,,0.0-91.0,,1.0,798.875,1.0,0.25,0.0,0.583540187,1.0,0.7041042559999999,0.0,0.285961995,False,,56afc8219bf45c000d00d499,,1298827,89,,evan-feature22,full_pf_a,,0
64,31734,90,,,,1,1,0.0,1.0,1.0,0.0,,0.0-92.0,,0.0,557.56,0.0,0.27254536,1.0,0.53875765,1.0,0.693783448,0.0,0.284961652,False,,56afc8219bf45c000d00d499,,1309168,90,,evan-feature22,full_pf_a,,0
65,31735,91,,,,1,1,1.0,1.0,1.0,0.0,,0.0-93.0,,1.0,400.04,1.0,0.25,1.0,0.548431252,0.0,0.734221895,0.0,0.279445214,False,,56afc8219bf45c000d00d499,,1319348,91,,evan-feature22,full_pf_a,,0
66,31736,92,,,,1,1,1.0,1.0,0.0,-1.0,,0.0-94.0,,-1.0,680.09,1.0,0.258640684,1.0,0.545878066,1.0,0.725245965,0.0,0.31487537,False,,56afc8219bf45c000d00d499,,1329799,92,,evan-feature22,full_pf_a,,0
67,31737,93,,,,1,1,0.0,0.0,0.0,-1.0,,0.0-95.0,,0.0,619.34,0.0,0.251103711,0.0,0.5776290629999999,1.0,0.696320133,1.0,0.317831047,False,,56afc8219bf45c000d00d499,,1340199,93,,evan-feature22,full_pf_a,,0
68,31738,94,,,,1,1,1.0,0.0,0.0,-1.0,,0.0-96.0,,0.0,399.23,1.0,0.276630292,0.0,0.617329858,1.0,0.73838088,0.0,0.261471582,False,,56afc8219bf45c000d00d499,,1350377,94,,evan-feature22,full_pf_a,,0
69,31739,95,,,,1,1,0.0,0.0,0.0,-1.0,,0.0-97.0,,0.0,485.705,0.0,0.297716424,0.0,0.618863717,0.0,0.7402358259999999,0.0,0.262600834,False,,56afc8219bf45c000d00d499,,1360640,95,,evan-feature22,full_pf_a,,0
70,31740,96,,,,2,2,1.0,0.0,1.0,0.0,,0.0-98.0,,1.0,988.795,0.0,0.290935512,1.0,0.695370945,1.0,0.706570507,0.0,0.280030553,False,,56afc8219bf45c000d00d499,,1371405,96,,evan-feature22,full_pf_a,,1
71,31741,97,,,,2,2,1.0,0.0,0.0,-1.0,,0.0-99.0,,0.0,379.2,0.0,0.25,1.0,0.6465277079999999,1.0,0.67766682,0.0,0.25,False,,56afc8219bf45c000d00d499,,1381565,97,,evan-feature22,full_pf_a,,0
72,31742,98,,,,2,2,0.0,0.0,1.0,0.0,,0.0-100.0,,0.0,323.775,0.0,0.26463816,1.0,0.636100213,0.0,0.646048507,0.0,0.265607101,False,,56afc8219bf45c000d00d499,,1391666,98,,evan-feature22,full_pf_a,,0
73,31743,99,,,,2,2,1.0,1.0,1.0,0.0,,0.0-101.0,,1.0,288.725,1.0,0.314340707,0.0,0.667795927,1.0,0.613630805,1.0,0.25,False,,56afc8219bf45c000d00d499,,1401724,99,,evan-feature22,full_pf_a,,0
74,31744,100,,,,2,2,1.0,0.0,0.0,-1.0,,0.0-102.0,,0.0,309.985,0.0,0.28685784,0.0,0.6622549529999999,1.0,0.652154117,0.0,0.25,False,,56afc8219bf45c000d00d499,,1411812,100,,evan-feature22,full_pf_a,,0
75,31745,101,,,,2,2,1.0,0.0,0.0,-1.0,,0.0-103.0,,0.0,339.14,0.0,0.304106554,0.0,0.631289538,1.0,0.707041942,0.0,0.29314237,False,,56afc8219bf45c000d00d499,,1421924,101,,evan-feature22,full_pf_a,,0
76,31746,102,,,,2,2,1.0,0.0,0.0,-1.0,,0.0-104.0,,0.0,313.28,0.0,0.304806932,0.0,0.571167718,1.0,0.680472346,0.0,0.25,False,,56afc8219bf45c000d00d499,,1432010,102,,evan-feature22,full_pf_a,,0
77,31747,103,,,,2,2,1.0,1.0,0.0,-1.0,,0.0-105.0,,-1.0,312.315,1.0,0.37919861,1.0,0.5724849710000001,1.0,0.705638003,1.0,0.30179300600000003,False,,56afc8219bf45c000d00d499,,1442106,103,,evan-feature22,full_pf_a,,0
78,31748,104,,,,2,2,1.0,0.0,0.0,-1.0,,0.0-106.0,,0.0,927.545,1.0,0.464277969,1.0,0.554034373,1.0,0.7372627340000001,0.0,0.264699741,False,,56afc8219bf45c000d00d499,,1452816,104,,evan-feature22,full_pf_a,,0
79,31749,105,,,,1,1,0.0,1.0,0.0,-1.0,,0.0-107.0,,-1.0,319.805,0.0,0.465104323,1.0,0.530793115,1.0,0.75,0.0,0.31683071,False,,56afc8219bf45c000d00d499,,1462917,105,,evan-feature22,full_pf_a,,1
80,31750,106,,,,1,1,0.0,1.0,1.0,0.0,,0.0-108.0,,0.0,459.78,0.0,0.465104323,1.0,0.530793115,1.0,0.75,1.0,0.31683071,False,,56afc8219bf45c000d00d499,,1473155,106,,evan-feature22,full_pf_a,,0
81,31751,107,,,,2,2,1.0,1.0,1.0,0.0,,0.0-109.0,,1.0,452.82,0.0,0.46833986,0.0,0.570249239,1.0,0.7244472590000001,1.0,0.364114163,False,,56afc8219bf45c000d00d499,,1483387,107,,evan-feature22,full_pf_a,,1
82,31752,108,,,,2,2,0.0,1.0,1.0,0.0,,0.0-110.0,,0.0,310.94,1.0,0.445444024,0.0,0.649673355,0.0,0.6845441290000001,1.0,0.300660449,False,,56afc8219bf45c000d00d499,,1493473,108,,evan-feature22,full_pf_a,,0
83,31753,109,,,,2,2,1.0,0.0,1.0,0.0,,0.0-111.0,,1.0,358.44,0.0,0.39909721299999995,1.0,0.6715179509999999,1.0,0.742310028,0.0,0.35496088299999995,False,,56afc8219bf45c000d00d499,,1503602,109,,evan-feature22,full_pf_a,,0
84,31754,110,,,,2,2,1.0,0.0,0.0,-1.0,,0.0-112.0,,0.0,422.57,0.0,0.37956104799999996,1.0,0.694725302,1.0,0.7181651309999999,0.0,0.38726906299999997,False,,56afc8219bf45c000d00d499,,1513800,110,,evan-feature22,full_pf_a,,0
85,31755,111,,,,2,2,1.0,1.0,0.0,-1.0,,0.0-113.0,,-1.0,512.865,0.0,0.404995034,1.0,0.724375412,1.0,0.6910946859999999,1.0,0.387187347,False,,56afc8219bf45c000d00d499,,1524089,111,,evan-feature22,full_pf_a,,0
86,31756,112,,,,2,2,1.0,0.0,1.0,0.0,,0.0-114.0,,1.0,362.015,1.0,0.461740803,1.0,0.75,1.0,0.75,0.0,0.34872038200000005,False,,56afc8219bf45c000d00d499,,1534226,112,,evan-feature22,full_pf_a,,0
87,31757,113,,,,2,2,1.0,1.0,1.0,0.0,,0.0-115.0,,1.0,402.01,0.0,0.43821380600000004,1.0,0.738833273,1.0,0.728286963,1.0,0.399538128,False,,56afc8219bf45c000d00d499,,1544404,113,,evan-feature22,full_pf_a,,0
88,31758,114,,,,2,2,1.0,1.0,0.0,-1.0,,0.0-116.0,,-1.0,418.06,0.0,0.41709882,0.0,0.736666736,1.0,0.75,1.0,0.389095584,False,,56afc8219bf45c000d00d499,,1554595,114,,evan-feature22,full_pf_a,,0
89,31759,115,,,,2,2,1.0,0.0,0.0,-1.0,,0.0-117.0,,0.0,381.03,0.0,0.39749009799999996,1.0,0.744320029,1.0,0.75,0.0,0.363848678,False,,56afc8219bf45c000d00d499,,1564752,115,,evan-feature22,full_pf_a,,0
90,31760,116,,,,2,2,0.0,1.0,1.0,0.0,,0.0-118.0,,0.0,331.295,0.0,0.392653706,1.0,0.75,0.0,0.75,1.0,0.384386976,False,,56afc8219bf45c000d00d499,,1574862,116,,evan-feature22,full_pf_a,,0
91,31761,117,,,,2,2,0.0,0.0,0.0,-1.0,,0.0-119.0,,0.0,340.59,0.0,0.31190902600000003,0.0,0.75,0.0,0.732413819,0.0,0.413082932,False,,56afc8219bf45c000d00d499,,1584976,117,,evan-feature22,full_pf_a,,0
92,31762,118,,,,2,2,1.0,0.0,1.0,0.0,,0.0-120.0,,1.0,348.88,0.0,0.366917648,1.0,0.740073855,1.0,0.75,0.0,0.352861979,False,,56afc8219bf45c000d00d499,,1595102,118,,evan-feature22,full_pf_a,,0
93,31763,119,,,,2,2,1.0,0.0,1.0,0.0,,0.0-121.0,,1.0,511.115,1.0,0.3645172,1.0,0.721770713,1.0,0.75,0.0,0.404074511,False,,56afc8219bf45c000d00d499,,1605385,119,,evan-feature22,full_pf_a,,0
94,31764,120,,,,2,2,1.0,1.0,1.0,0.0,,0.0-122.0,,1.0,299.475,0.0,0.35205600299999995,1.0,0.68983859,1.0,0.739735447,1.0,0.366895945,False,,56afc8219bf45c000d00d499,,1615461,120,,evan-feature22,full_pf_a,,0
95,31765,121,,,,2,2,1.0,0.0,1.0,0.0,,0.0-123.0,,1.0,336.835,1.0,0.40998722600000004,1.0,0.720859127,1.0,0.673854955,0.0,0.368528541,False,,56afc8219bf45c000d00d499,,1625573,121,,evan-feature22,full_pf_a,,0
96,31766,122,,,,2,2,0.0,0.0,1.0,0.0,,0.0-124.0,,0.0,336.465,1.0,0.353625316,1.0,0.75,0.0,0.695605473,0.0,0.38303674200000004,False,,56afc8219bf45c000d00d499,,1635690,122,,evan-feature22,full_pf_a,,0
97,31767,123,,,,2,2,1.0,0.0,1.0,0.0,,0.0-125.0,,1.0,388.33,0.0,0.359216989,1.0,0.75,1.0,0.6987915090000001,0.0,0.35169046200000004,False,,56afc8219bf45c000d00d499,,1645856,123,,evan-feature22,full_pf_a,,0
98,31768,124,,,,2,2,1.0,0.0,1.0,0.0,,0.0-126.0,,1.0,921.995,0.0,0.35834496899999996,1.0,0.75,1.0,0.707067742,0.0,0.416763636,False,,56afc8219bf45c000d00d499,,1656550,124,,evan-feature22,full_pf_a,,0
99,31769,125,,,,2,2,1.0,0.0,0.0,-1.0,,0.0-127.0,,0.0,364.13,0.0,0.38741613799999997,1.0,0.7177369570000001,1.0,0.734902455,0.0,0.49438664299999996,False,,56afc8219bf45c000d00d499,,1666690,125,,evan-feature22,full_pf_a,,0
100,31770,126,,,,2,2,1.0,1.0,1.0,0.0,,0.0-128.0,,1.0,691.775,0.0,0.405255252,1.0,0.7300466640000001,1.0,0.7027748070000001,1.0,0.504359668,False,,56afc8219bf45c000d00d499,,1677164,126,,evan-feature22,full_pf_a,,0
101,31771,127,,,,2,2,1.0,1.0,1.0,0.0,,0.0-129.0,,1.0,422.07,1.0,0.40697073,1.0,0.7260142190000001,1.0,0.724461982,1.0,0.522779179,False,,56afc8219bf45c000d00d499,,1687367,127,,evan-feature22,full_pf_a,,0
102,31772,128,,,,2,2,0.0,1.0,1.0,0.0,,0.0-130.0,,0.0,338.27,0.0,0.43906215299999996,0.0,0.7252802340000001,0.0,0.719079934,1.0,0.5712990579999999,False,,56afc8219bf45c000d00d499,,1697480,128,,evan-feature22,full_pf_a,,0
103,31773,129,,,,2,2,1.0,0.0,0.0,-1.0,,0.0-131.0,,0.0,360.94,0.0,0.4076705,0.0,0.73280499,1.0,0.681313127,0.0,0.523891346,False,,56afc8219bf45c000d00d499,,1707618,129,,evan-feature22,full_pf_a,,0
104,31774,130,,,,2,2,0.0,1.0,0.0,-1.0,,0.0-132.0,,-1.0,433.21,0.0,0.399102911,1.0,0.730498344,0.0,0.661080239,1.0,0.46742603,False,,56afc8219bf45c000d00d499,,1717828,130,,evan-feature22,full_pf_a,,0
105,31775,131,,,,2,2,0.0,1.0,0.0,-1.0,,0.0-133.0,,-1.0,982.045,0.0,0.356477282,1.0,0.712296395,0.0,0.641812684,1.0,0.44868414,False,,56afc8219bf45c000d00d499,,1728589,131,,evan-feature22,full_pf_a,,0
106,31776,132,,,,1,1,0.0,0.0,1.0,0.0,,0.0-134.0,,0.0,554.025,0.0,0.462760722,0.0,0.692349322,1.0,0.700947931,1.0,0.394680266,False,,56afc8219bf45c000d00d499,,1738918,132,,evan-feature22,full_pf_a,,1
107,31777,133,,,,1,1,0.0,1.0,1.0,0.0,,0.0-135.0,,0.0,932.155,0.0,0.422306413,1.0,0.718375916,1.0,0.706340917,1.0,0.367787185,False,,56afc8219bf45c000d00d499,,1749625,133,,evan-feature22,full_pf_a,,0
108,31779,135,,,,2,2,1.0,1.0,1.0,0.0,,0.0-137.0,,1.0,632.705,0.0,0.4582233,0.0,0.643834117,1.0,0.75,1.0,0.39615823299999997,False,,56afc8219bf45c000d00d499,,1762510,135,,evan-feature22,full_pf_a,,1
109,31780,136,,,,2,2,0.0,1.0,1.0,0.0,,0.0-138.0,,0.0,906.205,1.0,0.43813437899999996,1.0,0.651283804,0.0,0.729674191,1.0,0.37711048,False,,56afc8219bf45c000d00d499,,1773199,136,,evan-feature22,full_pf_a,,0
110,31781,137,,,,2,2,1.0,0.0,1.0,0.0,,0.0-139.0,,1.0,1086.9,1.0,0.471199094,0.0,0.6470010979999999,1.0,0.715008097,0.0,0.410656191,False,,56afc8219bf45c000d00d499,,1784068,137,,evan-feature22,full_pf_a,,0
111,31782,138,,,,2,2,0.0,1.0,1.0,0.0,,0.0-140.0,,0.0,418.915,0.0,0.42486406,1.0,0.629771829,0.0,0.6550939960000001,1.0,0.459093873,False,,56afc8219bf45c000d00d499,,1794258,138,,evan-feature22,full_pf_a,,0
112,31783,139,,,,2,2,0.0,1.0,1.0,0.0,,0.0-141.0,,0.0,721.01,1.0,0.4803197,1.0,0.645842715,0.0,0.6421749920000001,1.0,0.443092151,False,,56afc8219bf45c000d00d499,,1804757,139,,evan-feature22,full_pf_a,,0
113,31784,140,,,,2,2,1.0,1.0,0.0,-1.0,,0.0-142.0,,-1.0,507.44,1.0,0.521848997,1.0,0.735801074,1.0,0.6691348460000001,1.0,0.45259351600000003,False,,56afc8219bf45c000d00d499,,1815038,140,,evan-feature22,full_pf_a,,0
114,31785,141,,,,2,2,1.0,0.0,1.0,0.0,,0.0-143.0,,1.0,532.28,1.0,0.49565621299999996,1.0,0.742400847,1.0,0.661512553,0.0,0.483110831,False,,56afc8219bf45c000d00d499,,1825344,141,,evan-feature22,full_pf_a,,0
115,31786,142,,,,2,2,1.0,1.0,1.0,0.0,,0.0-144.0,,1.0,534.83,1.0,0.521564361,1.0,0.731078632,1.0,0.6774886809999999,1.0,0.483263956,False,,56afc8219bf45c000d00d499,,1835659,142,,evan-feature22,full_pf_a,,0
116,31787,143,,,,2,2,0.0,1.0,1.0,0.0,,0.0-145.0,,0.0,308.85,1.0,0.558893102,0.0,0.719810023,0.0,0.67461031,1.0,0.499349834,False,,56afc8219bf45c000d00d499,,1845745,143,,evan-feature22,full_pf_a,,0
117,31788,144,,,,2,2,1.0,0.0,1.0,0.0,,0.0-146.0,,1.0,523.66,0.0,0.611031046,0.0,0.75,1.0,0.688072995,0.0,0.5321422729999999,False,,56afc8219bf45c000d00d499,,1856049,144,,evan-feature22,full_pf_a,,0
118,31789,145,,,,2,2,1.0,1.0,0.0,-1.0,,0.0-147.0,,-1.0,1867.205,1.0,0.633223941,0.0,0.713567728,1.0,0.75,1.0,0.48185314700000004,False,,56afc8219bf45c000d00d499,,1867696,145,,evan-feature22,full_pf_a,,0
119,31790,146,,,,2,2,1.0,1.0,1.0,0.0,,0.0-148.0,,1.0,444.66,0.0,0.664001694,0.0,0.705509768,1.0,0.75,1.0,0.500211065,False,,56afc8219bf45c000d00d499,,1877927,146,,evan-feature22,full_pf_a,,0
120,31791,147,,,,2,2,0.0,1.0,1.0,0.0,,0.0-149.0,,0.0,2145.715,1.0,0.664001694,0.0,0.705509768,0.0,0.75,1.0,0.500211065,False,,56afc8219bf45c000d00d499,,1889847,147,,evan-feature22,full_pf_a,,0
121,31792,148,,,,2,2,1.0,0.0,1.0,0.0,,0.0-150.0,,1.0,384.39,1.0,0.696508041,1.0,0.71066027,1.0,0.717028709,0.0,0.49792991,False,,56afc8219bf45c000d00d499,,1900010,148,,evan-feature22,full_pf_a,,0
122,31793,149,,,,2,2,1.0,0.0,0.0,-1.0,,0.0-151.0,,0.0,386.13,1.0,0.699883272,1.0,0.75,1.0,0.713543895,0.0,0.496962643,False,,56afc8219bf45c000d00d499,,1910173,149,,evan-feature22,full_pf_a,,0
123,31794,150,,,,2,2,1.0,1.0,0.0,-1.0,,0.0-152.0,,-1.0,584.165,0.0,0.741163419,1.0,0.75,1.0,0.64691024,1.0,0.513858197,False,,56afc8219bf45c000d00d499,,1920536,150,,evan-feature22,full_pf_a,,0
124,31795,151,,,,2,2,0.0,1.0,0.0,-1.0,,0.0-153.0,,-1.0,356.78,1.0,0.75,0.0,0.70816558,0.0,0.594499079,1.0,0.48502124,False,,56afc8219bf45c000d00d499,,1930664,151,,evan-feature22,full_pf_a,,0
125,31796,152,,,,2,2,1.0,1.0,1.0,0.0,,0.0-154.0,,1.0,655.64,1.0,0.75,0.0,0.721848901,1.0,0.62197249,1.0,0.48263586399999997,False,,56afc8219bf45c000d00d499,,1941085,152,,evan-feature22,full_pf_a,,0
126,31797,153,,,,2,2,0.0,0.0,1.0,0.0,,0.0-155.0,,0.0,615.365,1.0,0.75,1.0,0.74813071,0.0,0.584357161,0.0,0.411477782,False,,56afc8219bf45c000d00d499,,1951472,153,,evan-feature22,full_pf_a,,0
127,31798,154,,,,2,2,0.0,0.0,1.0,0.0,,0.0-156.0,,0.0,922.615,1.0,0.75,1.0,0.75,0.0,0.52287236,0.0,0.488290656,False,,56afc8219bf45c000d00d499,,1962174,154,,evan-feature22,full_pf_a,,0
128,31799,155,,,,2,2,1.0,0.0,1.0,0.0,,0.0-157.0,,1.0,477.39,0.0,0.75,1.0,0.75,1.0,0.544321581,0.0,0.53143059,False,,56afc8219bf45c000d00d499,,1972426,155,,evan-feature22,full_pf_a,,0
129,31800,156,,,,2,2,1.0,1.0,1.0,0.0,,0.0-158.0,,1.0,411.21,1.0,0.726754564,0.0,0.75,1.0,0.5129306370000001,1.0,0.530592445,False,,56afc8219bf45c000d00d499,,1982616,156,,evan-feature22,full_pf_a,,0
130,31801,157,,,,2,2,1.0,1.0,0.0,-1.0,,0.0-159.0,,-1.0,357.805,1.0,0.75,1.0,0.7392590729999999,1.0,0.479875835,1.0,0.547007051,False,,56afc8219bf45c000d00d499,,1992757,157,,evan-feature22,full_pf_a,,0
131,31802,158,,,,2,2,0.0,0.0,0.0,-1.0,,0.0-160.0,,0.0,1286.295,1.0,0.75,1.0,0.7393376979999999,0.0,0.546045419,0.0,0.541267353,False,,56afc8219bf45c000d00d499,,2003821,158,,evan-feature22,full_pf_a,,0
132,31803,159,,,,2,2,0.0,1.0,1.0,0.0,,0.0-161.0,,0.0,1170.935,0.0,0.75,1.0,0.75,0.0,0.485725895,1.0,0.527625395,False,,56afc8219bf45c000d00d499,,2014768,159,,evan-feature22,full_pf_a,,0
133,31804,160,,,,2,2,1.0,1.0,0.0,-1.0,,0.0-162.0,,-1.0,206.0,1.0,0.75,0.0,0.725087974,1.0,0.488603595,1.0,0.504019206,False,,56afc8219bf45c000d00d499,,2024753,160,,evan-feature22,full_pf_a,,0
134,31805,161,,,,2,2,0.0,1.0,1.0,0.0,,0.0-163.0,,0.0,736.81,0.0,0.745504295,1.0,0.75,0.0,0.452379914,1.0,0.50131194,False,,56afc8219bf45c000d00d499,,2035267,161,,evan-feature22,full_pf_a,,0
135,31806,162,,,,2,2,1.0,1.0,0.0,-1.0,,0.0-164.0,,-1.0,422.805,1.0,0.728513874,1.0,0.75,1.0,0.44125567200000004,1.0,0.531454591,False,,56afc8219bf45c000d00d499,,2045473,162,,evan-feature22,full_pf_a,,0
136,31807,163,,,,2,2,1.0,0.0,1.0,0.0,,0.0-165.0,,1.0,493.85,0.0,0.73790804,1.0,0.75,1.0,0.413036656,0.0,0.524619035,False,,56afc8219bf45c000d00d499,,2055740,163,,evan-feature22,full_pf_a,,0
137,31808,164,,,,2,2,0.0,0.0,1.0,0.0,,0.0-166.0,,0.0,673.55,1.0,0.7080961309999999,0.0,0.708666865,0.0,0.431915581,0.0,0.481819489,False,,56afc8219bf45c000d00d499,,2066183,164,,evan-feature22,full_pf_a,,0
138,31809,165,,,,2,2,0.0,1.0,1.0,0.0,,0.0-167.0,,0.0,564.255,1.0,0.721378003,0.0,0.71605913,0.0,0.36642387,1.0,0.5036739929999999,False,,56afc8219bf45c000d00d499,,2076525,165,,evan-feature22,full_pf_a,,0
139,31810,166,,,,2,2,0.0,0.0,0.0,-1.0,,0.0-168.0,,0.0,744.23,0.0,0.7340618959999999,1.0,0.699323252,0.0,0.35298046299999997,0.0,0.511241692,False,,56afc8219bf45c000d00d499,,2087044,166,,evan-feature22,full_pf_a,,0
140,31811,167,,,,2,2,0.0,0.0,0.0,-1.0,,0.0-169.0,,0.0,341.88,0.0,0.75,1.0,0.70412698,0.0,0.380734814,0.0,0.529580116,False,,56afc8219bf45c000d00d499,,2097164,167,,evan-feature22,full_pf_a,,0
141,31812,168,,,,2,2,1.0,1.0,0.0,-1.0,,0.0-170.0,,-1.0,308.41,0.0,0.7436654909999999,1.0,0.711182751,1.0,0.41125331,1.0,0.49554405,False,,56afc8219bf45c000d00d499,,2107243,168,,evan-feature22,full_pf_a,,0
142,31813,169,,,,2,2,0.0,0.0,1.0,0.0,,0.0-171.0,,0.0,373.66,1.0,0.731607915,1.0,0.651774583,0.0,0.35688023,0.0,0.45194491600000003,False,,56afc8219bf45c000d00d499,,2117385,169,,evan-feature22,full_pf_a,,0
143,31814,170,,,,2,2,0.0,1.0,0.0,-1.0,,0.0-172.0,,-1.0,334.285,0.0,0.75,1.0,0.75,0.0,0.283145374,1.0,0.528608005,False,,56afc8219bf45c000d00d499,,2127494,170,,evan-feature22,full_pf_a,,0
144,31815,171,,,,2,2,0.0,1.0,1.0,0.0,,0.0-173.0,,0.0,1151.735,1.0,0.7491416890000001,1.0,0.7423785959999999,0.0,0.29135870399999997,1.0,0.498888318,False,,56afc8219bf45c000d00d499,,2138425,171,,evan-feature22,full_pf_a,,0
145,31816,172,,,,1,1,1.0,0.0,0.0,-1.0,,0.0-174.0,,0.0,915.815,1.0,0.708569387,0.0,0.717682277,0.0,0.294421699,1.0,0.493838163,False,,56afc8219bf45c000d00d499,,2149112,172,,evan-feature22,full_pf_a,,1
146,31817,173,,,,1,1,0.0,1.0,1.0,0.0,,0.0-175.0,,0.0,458.99,0.0,0.75,1.0,0.7383382159999999,0.0,0.356098707,0.0,0.442533405,False,,56afc8219bf45c000d00d499,,2159338,173,,evan-feature22,full_pf_a,,0
147,31818,174,,,,1,1,1.0,0.0,1.0,0.0,,0.0-176.0,,1.0,561.7,1.0,0.744527075,0.0,0.75,1.0,0.334127506,0.0,0.393165805,False,,56afc8219bf45c000d00d499,,2169674,174,,evan-feature22,full_pf_a,,0
148,31819,175,,,,1,1,1.0,1.0,1.0,0.0,,0.0-177.0,,1.0,580.5,1.0,0.75,1.0,0.75,1.0,0.33571021799999995,0.0,0.350393962,False,,56afc8219bf45c000d00d499,,2180026,175,,evan-feature22,full_pf_a,,0
149,31820,176,,,,1,1,1.0,1.0,0.0,-1.0,,0.0-178.0,,-1.0,281.8,1.0,0.75,1.0,0.75,0.0,0.313628297,0.0,0.36349657399999996,False,,56afc8219bf45c000d00d499,,2190082,176,,evan-feature22,full_pf_a,,0
150,31821,177,,,,1,1,1.0,1.0,1.0,0.0,,0.0-179.0,,1.0,320.49,1.0,0.75,1.0,0.734284182,0.0,0.262667667,1.0,0.380199119,False,,56afc8219bf45c000d00d499,,2200181,177,,evan-feature22,full_pf_a,,0
151,31822,178,,,,1,1,1.0,1.0,1.0,0.0,,0.0-180.0,,1.0,502.715,1.0,0.75,1.0,0.75,0.0,0.25,0.0,0.394494013,False,,56afc8219bf45c000d00d499,,2210460,178,,evan-feature22,full_pf_a,,0
152,31823,179,,,,1,1,1.0,1.0,1.0,0.0,,0.0-181.0,,1.0,1074.205,1.0,0.722298145,1.0,0.7357822340000001,0.0,0.25,0.0,0.319142121,False,,56afc8219bf45c000d00d499,,2221308,179,,evan-feature22,full_pf_a,,0
153,31824,180,,,,1,1,0.0,1.0,1.0,0.0,,0.0-182.0,,0.0,520.365,0.0,0.73149275,1.0,0.724276446,0.0,0.305856907,0.0,0.281315057,False,,56afc8219bf45c000d00d499,,2231607,180,,evan-feature22,full_pf_a,,0
154,31825,181,,,,SLOW,SLOW,,,1.0,0.0,,0.0-183.0,,-3.0,,0.0,0.7458732690000001,0.0,0.7336382459999999,0.0,0.272571964,0.0,0.266021999,False,,56afc8219bf45c000d00d499,,2237416,181,,evan-feature22,full_pf_a,,1
155,31826,182,,,,1,1,1.0,1.0,0.0,-1.0,,0.0-184.0,,-1.0,459.455,1.0,0.705579037,1.0,0.720778292,0.0,0.320238144,0.0,0.30971744,False,,56afc8219bf45c000d00d499,,2247640,182,,evan-feature22,full_pf_a,,1
156,31827,183,,,,1,1,1.0,1.0,0.0,-1.0,,0.0-185.0,,-1.0,442.975,1.0,0.700425648,1.0,0.7198784009999999,0.0,0.272590393,1.0,0.304182931,False,,56afc8219bf45c000d00d499,,2257869,183,,evan-feature22,full_pf_a,,0
157,31828,184,,,,1,1,1.0,1.0,0.0,-1.0,,0.0-186.0,,-1.0,414.71,1.0,0.735590785,1.0,0.722714973,0.0,0.25,1.0,0.323421091,False,,56afc8219bf45c000d00d499,,2268056,184,,evan-feature22,full_pf_a,,0
158,31829,185,,,,1,1,0.0,0.0,0.0,-1.0,,0.0-187.0,,0.0,456.025,0.0,0.724807662,0.0,0.63146213,0.0,0.36836492600000004,0.0,0.34592153299999995,False,,56afc8219bf45c000d00d499,,2278291,185,,evan-feature22,full_pf_a,,0
159,31830,186,,,,2,2,0.0,0.0,1.0,0.0,,0.0-188.0,,0.0,736.445,0.0,0.7352796909999999,1.0,0.555111392,0.0,0.36003922,0.0,0.31433779999999995,False,,56afc8219bf45c000d00d499,,2288806,186,,evan-feature22,full_pf_a,,1
160,31831,187,notice,,,,,,,,,,0.0-189.0,"{""Q0"":""Not much ""}",,23611.0,,,,,,,,,False,,56afc8219bf45c000d00d499,,2312418,187,Q,survey-text,full_pf_a,,1
161,31832,188,track1,,[1],,,,,,,,0.0-190.0,"{""Q0"":""no""}",,4353.0,,,,,,,,,False,,56afc8219bf45c000d00d499,,2316778,188,Q,evan-quiz,full_pf_a,,1
162,31833,189,track2,,[1],,,,,,,,0.0-191.0,"{""Q0"":""no""}",,9795.0,,,,,,,,,False,,56afc8219bf45c000d00d499,,2326578,189,Q,evan-quiz,full_pf_a,,1
163,31834,190,strat,,,,,,,,,,0.0-192.0,"{""Q0"":""I tried to see if a pattern would emerge""}",,10728.0,,,,,,,,,False,,56afc8219bf45c000d00d499,,2337312,190,Q,survey-text,full_pf_a,,1
