,index,Unnamed: 0,Q_name,button_pressed,choice_idxs,chosen_pos,chosen_state,chosen_state_f_1_outcome,chosen_state_f_2_outcome,f_1_reward,f_2_reward,incor_questions,internal_node_id,responses,reward_received,rt,s_1_f_1_outcome,s_1_f_1_prob,s_1_f_2_outcome,s_1_f_2_prob,s_2_f_1_outcome,s_2_f_1_prob,s_2_f_2_outcome,s_2_f_2_prob,safe_first,stimulus,subjectID,success,time_elapsed,trial_index,trial_num,trial_type,version,view_history,switching
0,4345,25,,,,1,1,1.0,1.0,-1.0,0.0,,0.0-27.0,,-1.0,905.3199999,1.0,0.6,1.0,0.6,0.0,0.4,0.0,0.4,False,,5ec6bb20ce3f410dcd418f20,,718795,25,,evan-feature22,full_pf_b,,0
1,4346,26,,,,1,1,1.0,1.0,-1.0,0.0,,0.0-28.0,,-1.0,1269.42,1.0,0.608053294,1.0,0.63424552,1.0,0.397152172,0.0,0.347069101,False,,5ec6bb20ce3f410dcd418f20,,729888,26,,evan-feature22,full_pf_b,,0
2,4347,27,,,,2,2,0.0,0.0,-1.0,0.0,,0.0-29.0,,0.0,986.5349999,1.0,0.642237155,1.0,0.648566321,0.0,0.389407674,0.0,0.285525717,False,,5ec6bb20ce3f410dcd418f20,,740673,27,,evan-feature22,full_pf_b,,1
3,4348,28,,,,2,2,0.0,1.0,-1.0,0.0,,0.0-30.0,,0.0,605.3150001,1.0,0.661086576,1.0,0.630492543,0.0,0.399058924,1.0,0.25,False,,5ec6bb20ce3f410dcd418f20,,751107,28,,evan-feature22,full_pf_b,,0
4,4349,29,,,,2,2,0.0,0.0,0.0,1.0,,0.0-31.0,,0.0,478.2499999,1.0,0.631324137,1.0,0.6269842929999999,0.0,0.38734784299999997,0.0,0.25,False,,5ec6bb20ce3f410dcd418f20,,761397,29,,evan-feature22,full_pf_b,,0
5,4350,30,,,,1,1,1.0,0.0,0.0,1.0,,0.0-32.0,,0.0,558.585,1.0,0.6381991370000001,0.0,0.68987999,0.0,0.384107265,0.0,0.271332943,False,,5ec6bb20ce3f410dcd418f20,,771764,30,,evan-feature22,full_pf_b,,1
6,4351,31,,,,1,1,0.0,1.0,-1.0,0.0,,0.0-33.0,,0.0,283.09499980000004,0.0,0.66034901,1.0,0.742641349,0.0,0.360225629,1.0,0.25,False,,5ec6bb20ce3f410dcd418f20,,781851,31,,evan-feature22,full_pf_b,,0
7,4352,32,,,,2,2,0.0,0.0,-1.0,0.0,,0.0-34.0,,0.0,962.7650001000001,1.0,0.638612418,1.0,0.75,0.0,0.367273939,0.0,0.25,False,,5ec6bb20ce3f410dcd418f20,,792612,32,,evan-feature22,full_pf_b,,1
8,4353,33,,,,2,2,0.0,0.0,0.0,1.0,,0.0-35.0,,0.0,1074.07,0.0,0.624340629,1.0,0.75,0.0,0.425829545,0.0,0.25,False,,5ec6bb20ce3f410dcd418f20,,803466,33,,evan-feature22,full_pf_b,,0
9,4354,34,,,,1,1,1.0,1.0,0.0,1.0,,0.0-36.0,,1.0,752.4700002000001,1.0,0.621999804,1.0,0.75,1.0,0.368609357,0.0,0.25,False,,5ec6bb20ce3f410dcd418f20,,814019,34,,evan-feature22,full_pf_b,,1
10,4355,35,,,,2,2,0.0,0.0,-1.0,0.0,,0.0-37.0,,0.0,1217.205,1.0,0.62666403,1.0,0.75,0.0,0.311151498,0.0,0.25,False,,5ec6bb20ce3f410dcd418f20,,825060,35,,evan-feature22,full_pf_b,,1
11,4356,36,,,,2,2,0.0,0.0,0.0,1.0,,0.0-38.0,,0.0,851.4,1.0,0.6819650009999999,0.0,0.75,0.0,0.310763048,0.0,0.25,False,,5ec6bb20ce3f410dcd418f20,,835707,36,,evan-feature22,full_pf_b,,0
12,4357,37,,,,2,2,0.0,0.0,-1.0,0.0,,0.0-39.0,,0.0,805.3949999,1.0,0.740626951,0.0,0.75,0.0,0.25,0.0,0.25,False,,5ec6bb20ce3f410dcd418f20,,846329,37,,evan-feature22,full_pf_b,,0
13,4358,38,,,,2,2,0.0,0.0,-1.0,0.0,,0.0-40.0,,0.0,1064.595,1.0,0.739599242,1.0,0.742034978,0.0,0.25397114600000004,0.0,0.25,False,,5ec6bb20ce3f410dcd418f20,,857194,38,,evan-feature22,full_pf_b,,0
14,4359,39,,,,2,2,0.0,0.0,-1.0,0.0,,0.0-41.0,,0.0,1159.635,1.0,0.732341315,1.0,0.72735643,0.0,0.25,0.0,0.25,False,,5ec6bb20ce3f410dcd418f20,,868146,39,,evan-feature22,full_pf_b,,0
15,4360,40,,,,2,2,0.0,1.0,-1.0,0.0,,0.0-42.0,,0.0,904.75,1.0,0.7062287770000001,1.0,0.75,0.0,0.29002151,1.0,0.288256649,False,,5ec6bb20ce3f410dcd418f20,,878872,40,,evan-feature22,full_pf_b,,0
16,4361,41,,,,2,2,0.0,0.0,-1.0,0.0,,0.0-43.0,,0.0,986.2549999,0.0,0.7086029209999999,1.0,0.75,0.0,0.274129113,0.0,0.262851608,False,,5ec6bb20ce3f410dcd418f20,,889648,41,,evan-feature22,full_pf_b,,0
17,4362,42,,,,2,2,0.0,0.0,-1.0,0.0,,0.0-44.0,,0.0,1416.52,0.0,0.669189651,1.0,0.727614338,0.0,0.298444036,0.0,0.296944518,False,,5ec6bb20ce3f410dcd418f20,,900881,42,,evan-feature22,full_pf_b,,0
18,4363,43,,,,2,2,1.0,1.0,-1.0,0.0,,0.0-45.0,,-1.0,1005.355,1.0,0.6819912929999999,1.0,0.7179434290000001,1.0,0.265003961,1.0,0.28157921199999997,False,,5ec6bb20ce3f410dcd418f20,,911703,43,,evan-feature22,full_pf_b,,0
19,4364,44,,,,1,1,1.0,1.0,0.0,1.0,,0.0-46.0,,1.0,1643.865,1.0,0.665275002,1.0,0.723065271,0.0,0.260414971,0.0,0.30973870000000003,False,,5ec6bb20ce3f410dcd418f20,,923169,44,,evan-feature22,full_pf_b,,1
20,4365,45,,,,2,2,0.0,0.0,-1.0,0.0,,0.0-47.0,,0.0,1028.06,1.0,0.6660593260000001,1.0,0.728032907,0.0,0.30922817,0.0,0.338778608,False,,5ec6bb20ce3f410dcd418f20,,934002,45,,evan-feature22,full_pf_b,,1
21,4366,46,,,,2,2,1.0,1.0,-1.0,0.0,,0.0-48.0,,-1.0,1653.315,1.0,0.702068785,1.0,0.6528750879999999,1.0,0.287329608,1.0,0.35789613200000003,False,,5ec6bb20ce3f410dcd418f20,,945496,46,,evan-feature22,full_pf_b,,0
22,4367,47,,,,2,2,0.0,1.0,-1.0,0.0,,0.0-49.0,,0.0,844.6899999,0.0,0.651939787,0.0,0.636725589,0.0,0.284834488,1.0,0.358563756,False,,5ec6bb20ce3f410dcd418f20,,956135,47,,evan-feature22,full_pf_b,,0
23,4368,48,,,,1,1,0.0,0.0,0.0,1.0,,0.0-50.0,,0.0,1391.42,0.0,0.67573929,0.0,0.612550049,0.0,0.37130387600000003,1.0,0.383542402,False,,5ec6bb20ce3f410dcd418f20,,967321,48,,evan-feature22,full_pf_b,,1
24,4369,49,,,,2,2,0.0,1.0,0.0,1.0,,0.0-51.0,,1.0,851.0750001,0.0,0.620753801,0.0,0.60513644,0.0,0.385529434,1.0,0.340361743,False,,5ec6bb20ce3f410dcd418f20,,977979,49,,evan-feature22,full_pf_b,,1
25,4370,50,,,,2,2,0.0,0.0,0.0,1.0,,0.0-52.0,,0.0,1075.62,1.0,0.673564893,0.0,0.672437924,0.0,0.292955382,0.0,0.337633795,False,,5ec6bb20ce3f410dcd418f20,,988847,50,,evan-feature22,full_pf_b,,0
26,4371,51,,,,2,2,0.0,0.0,-1.0,0.0,,0.0-53.0,,0.0,804.0400001,0.0,0.6749427,1.0,0.724197502,0.0,0.32391132100000003,0.0,0.350995264,False,,5ec6bb20ce3f410dcd418f20,,999462,51,,evan-feature22,full_pf_b,,0
27,4372,52,,,,1,1,1.0,0.0,-1.0,0.0,,0.0-54.0,,-1.0,1651.02,1.0,0.6940159379999999,0.0,0.75,0.0,0.31710554399999996,0.0,0.413450341,False,,5ec6bb20ce3f410dcd418f20,,1010921,52,,evan-feature22,full_pf_b,,1
28,4373,53,,,,2,2,0.0,1.0,-1.0,0.0,,0.0-55.0,,0.0,1414.2,0.0,0.6916018270000001,1.0,0.69001187,0.0,0.261817804,1.0,0.40038635,False,,5ec6bb20ce3f410dcd418f20,,1022176,53,,evan-feature22,full_pf_b,,1
29,4374,54,,,,2,2,1.0,1.0,-1.0,0.0,,0.0-56.0,,-1.0,677.415,0.0,0.641061544,1.0,0.71337992,1.0,0.277296461,1.0,0.47372791700000005,False,,5ec6bb20ce3f410dcd418f20,,1032665,54,,evan-feature22,full_pf_b,,0
30,4375,55,,,,1,1,0.0,0.0,-1.0,0.0,,0.0-57.0,,0.0,1435.375,0.0,0.6082438520000001,0.0,0.708471106,1.0,0.28745137,0.0,0.564174476,False,,5ec6bb20ce3f410dcd418f20,,1043900,55,,evan-feature22,full_pf_b,,1
31,4376,56,,,,1,1,0.0,1.0,-1.0,0.0,,0.0-58.0,,0.0,1809.47,0.0,0.6051112120000001,1.0,0.7118147229999999,1.0,0.272390611,1.0,0.5595149939999999,False,,5ec6bb20ce3f410dcd418f20,,1055539,56,,evan-feature22,full_pf_b,,0
32,4377,57,,,,2,2,1.0,1.0,-1.0,0.0,,0.0-59.0,,-1.0,2464.675,1.0,0.582420852,0.0,0.635867583,1.0,0.31089574,1.0,0.5227206520000001,False,,5ec6bb20ce3f410dcd418f20,,1067828,57,,evan-feature22,full_pf_b,,1
33,4378,58,,,,2,2,0.0,1.0,0.0,1.0,,0.0-60.0,,1.0,2410.18,0.0,0.623195575,1.0,0.655026044,0.0,0.25,1.0,0.560387538,False,,5ec6bb20ce3f410dcd418f20,,1080045,58,,evan-feature22,full_pf_b,,0
34,4379,59,,,,2,2,1.0,0.0,-1.0,0.0,,0.0-61.0,,-1.0,1192.935,0.0,0.601889598,1.0,0.678198724,1.0,0.25,0.0,0.559922936,False,,5ec6bb20ce3f410dcd418f20,,1091036,59,,evan-feature22,full_pf_b,,0
35,4380,60,,,,1,1,1.0,1.0,-1.0,0.0,,0.0-62.0,,-1.0,1356.835,1.0,0.601259914,1.0,0.704681482,1.0,0.33908969299999997,1.0,0.505003715,False,,5ec6bb20ce3f410dcd418f20,,1102208,60,,evan-feature22,full_pf_b,,1
36,4381,61,,,,2,2,1.0,1.0,-1.0,0.0,,0.0-63.0,,-1.0,679.4799998999999,0.0,0.59645454,1.0,0.710437172,1.0,0.327441879,1.0,0.391749613,False,,5ec6bb20ce3f410dcd418f20,,1112715,61,,evan-feature22,full_pf_b,,1
37,4382,62,,,,1,1,1.0,0.0,-1.0,0.0,,0.0-64.0,,-1.0,949.4049997999999,1.0,0.529473,0.0,0.636758527,1.0,0.301338063,0.0,0.365661481,False,,5ec6bb20ce3f410dcd418f20,,1123462,62,,evan-feature22,full_pf_b,,1
38,4383,63,,,,2,2,0.0,1.0,0.0,1.0,,0.0-65.0,,1.0,1183.425,0.0,0.541657162,0.0,0.634541962,0.0,0.343535366,1.0,0.371763742,False,,5ec6bb20ce3f410dcd418f20,,1134492,63,,evan-feature22,full_pf_b,,1
39,4384,64,,,,1,1,0.0,1.0,-1.0,0.0,,0.0-66.0,,0.0,1301.045,0.0,0.5707533260000001,1.0,0.589121171,1.0,0.326428396,1.0,0.43961622899999997,False,,5ec6bb20ce3f410dcd418f20,,1145595,64,,evan-feature22,full_pf_b,,1
40,4385,65,,,,2,2,0.0,0.0,-1.0,0.0,,0.0-67.0,,0.0,1053.98,0.0,0.5707533260000001,1.0,0.589121171,0.0,0.326428396,0.0,0.43961622899999997,False,,5ec6bb20ce3f410dcd418f20,,1156449,65,,evan-feature22,full_pf_b,,1
41,4386,66,,,,2,2,0.0,0.0,-1.0,0.0,,0.0-68.0,,0.0,1059.48,0.0,0.506271295,1.0,0.641775594,0.0,0.37149690700000004,0.0,0.404330166,False,,5ec6bb20ce3f410dcd418f20,,1167311,66,,evan-feature22,full_pf_b,,0
42,4387,67,,,,1,1,0.0,0.0,0.0,1.0,,0.0-69.0,,0.0,678.6449999,0.0,0.455642565,0.0,0.623605825,0.0,0.358753011,1.0,0.346174041,False,,5ec6bb20ce3f410dcd418f20,,1177779,67,,evan-feature22,full_pf_b,,1
43,4388,68,,,,2,2,1.0,0.0,0.0,1.0,,0.0-70.0,,0.0,811.86,0.0,0.483677308,1.0,0.5904681070000001,1.0,0.402218411,0.0,0.35344697,False,,5ec6bb20ce3f410dcd418f20,,1188459,68,,evan-feature22,full_pf_b,,1
44,4389,69,,,,2,2,1.0,0.0,0.0,1.0,,0.0-71.0,,0.0,1135.9,1.0,0.394210977,1.0,0.558925494,1.0,0.540052017,0.0,0.35182128700000004,False,,5ec6bb20ce3f410dcd418f20,,1199456,69,,evan-feature22,full_pf_b,,0
45,4390,70,,,,2,2,0.0,1.0,-1.0,0.0,,0.0-72.0,,0.0,696.0700001,0.0,0.382300414,1.0,0.577670603,0.0,0.607608448,1.0,0.378261578,False,,5ec6bb20ce3f410dcd418f20,,1209956,70,,evan-feature22,full_pf_b,,0
46,4391,71,,,,2,2,0.0,1.0,-1.0,0.0,,0.0-73.0,,0.0,1019.76,1.0,0.357596762,1.0,0.5929076529999999,0.0,0.6579790010000001,1.0,0.401326777,False,,5ec6bb20ce3f410dcd418f20,,1220819,71,,evan-feature22,full_pf_b,,0
47,4392,72,,,,2,2,1.0,0.0,-1.0,0.0,,0.0-74.0,,-1.0,1280.03,0.0,0.362033495,1.0,0.582308608,1.0,0.649195052,0.0,0.355158505,False,,5ec6bb20ce3f410dcd418f20,,1231900,72,,evan-feature22,full_pf_b,,0
48,4393,73,,,,2,2,1.0,0.0,-1.0,0.0,,0.0-75.0,,-1.0,877.5449997999999,1.0,0.369620635,1.0,0.669100864,1.0,0.706059111,0.0,0.362516241,False,,5ec6bb20ce3f410dcd418f20,,1242597,73,,evan-feature22,full_pf_b,,0
49,4394,74,,,,1,1,1.0,0.0,-1.0,0.0,,0.0-76.0,,-1.0,716.76,1.0,0.41477751399999996,0.0,0.7284416779999999,0.0,0.7182656940000001,1.0,0.36228040899999997,False,,5ec6bb20ce3f410dcd418f20,,1253111,74,,evan-feature22,full_pf_b,,1
50,4395,75,,,,2,2,1.0,0.0,0.0,1.0,,0.0-77.0,,0.0,729.33,0.0,0.37675460299999997,1.0,0.703250285,1.0,0.75,0.0,0.461979164,False,,5ec6bb20ce3f410dcd418f20,,1263658,75,,evan-feature22,full_pf_b,,1
51,4396,76,,,,1,1,0.0,0.0,0.0,1.0,,0.0-78.0,,0.0,1619.51,0.0,0.398716075,0.0,0.6723864890000001,1.0,0.674153818,0.0,0.519029516,False,,5ec6bb20ce3f410dcd418f20,,1275094,76,,evan-feature22,full_pf_b,,1
52,4397,77,,,,2,2,0.0,0.0,-1.0,0.0,,0.0-79.0,,0.0,1060.025,1.0,0.34677856700000004,0.0,0.69057175,0.0,0.6822438540000001,0.0,0.477292237,False,,5ec6bb20ce3f410dcd418f20,,1285948,77,,evan-feature22,full_pf_b,,1
53,4398,78,,,,1,1,0.0,0.0,0.0,1.0,,0.0-80.0,,0.0,1118.86,0.0,0.28580469199999997,0.0,0.68408818,0.0,0.684207565,0.0,0.49780448299999996,False,,5ec6bb20ce3f410dcd418f20,,1296864,78,,evan-feature22,full_pf_b,,1
54,4400,80,,,,2,2,0.0,0.0,-1.0,0.0,,0.0-82.0,,0.0,2137.1,0.0,0.25,1.0,0.7405808970000001,0.0,0.679614108,0.0,0.436436964,False,,5ec6bb20ce3f410dcd418f20,,1376575,80,,evan-feature22,full_pf_b,,1
55,4401,81,,,,1,1,0.0,1.0,0.0,1.0,,0.0-83.0,,1.0,1837.82,0.0,0.29890393,1.0,0.730505706,1.0,0.7328203320000001,0.0,0.439256938,False,,5ec6bb20ce3f410dcd418f20,,1388256,81,,evan-feature22,full_pf_b,,1
56,4402,82,,,,2,2,1.0,0.0,-1.0,0.0,,0.0-84.0,,-1.0,959.825,1.0,0.326762398,1.0,0.7148059609999999,1.0,0.75,0.0,0.44389608799999997,False,,5ec6bb20ce3f410dcd418f20,,1399029,82,,evan-feature22,full_pf_b,,1
57,4403,83,,,,2,2,1.0,0.0,-1.0,0.0,,0.0-85.0,,-1.0,1396.21,0.0,0.295168515,1.0,0.739760854,1.0,0.719947008,0.0,0.35277284600000003,False,,5ec6bb20ce3f410dcd418f20,,1410214,83,,evan-feature22,full_pf_b,,0
58,4404,84,,,,2,2,1.0,0.0,-1.0,0.0,,0.0-86.0,,-1.0,1457.405,0.0,0.25,1.0,0.70781482,1.0,0.75,0.0,0.286095925,False,,5ec6bb20ce3f410dcd418f20,,1421483,84,,evan-feature22,full_pf_b,,0
59,4405,85,,,,1,1,0.0,1.0,0.0,1.0,,0.0-87.0,,1.0,501.375,0.0,0.25638190899999996,1.0,0.704088163,1.0,0.75,1.0,0.26872601399999996,False,,5ec6bb20ce3f410dcd418f20,,1431790,85,,evan-feature22,full_pf_b,,1
60,4406,86,,,,SLOW,SLOW,,,0.0,1.0,,0.0-88.0,,-3.0,,1.0,0.271581126,1.0,0.669760107,1.0,0.733896663,0.0,0.273244572,False,,5ec6bb20ce3f410dcd418f20,,1437621,86,,evan-feature22,full_pf_b,,1
61,4407,87,,,,1,1,0.0,1.0,0.0,1.0,,0.0-89.0,,1.0,1735.2,0.0,0.257144401,1.0,0.600575706,1.0,0.74488122,1.0,0.25,False,,5ec6bb20ce3f410dcd418f20,,1449172,87,,evan-feature22,full_pf_b,,1
62,4408,88,,,,2,2,1.0,1.0,-1.0,0.0,,0.0-90.0,,-1.0,1.034999965,0.0,0.25,1.0,0.616870026,1.0,0.723610234,1.0,0.25,False,,5ec6bb20ce3f410dcd418f20,,1458983,88,,evan-feature22,full_pf_b,,1
63,4409,89,,,,1,1,0.0,1.0,0.0,1.0,,0.0-91.0,,1.0,2091.37,0.0,0.25,1.0,0.583540187,1.0,0.7041042559999999,0.0,0.285961995,False,,5ec6bb20ce3f410dcd418f20,,1470909,89,,evan-feature22,full_pf_b,,1
64,4410,90,,,,2,2,1.0,0.0,-1.0,0.0,,0.0-92.0,,-1.0,421.6199999,0.0,0.27254536,0.0,0.53875765,1.0,0.693783448,0.0,0.284961652,False,,5ec6bb20ce3f410dcd418f20,,1481131,90,,evan-feature22,full_pf_b,,1
65,4411,91,,,,2,2,1.0,0.0,0.0,1.0,,0.0-93.0,,0.0,430.1499999,1.0,0.25,0.0,0.548431252,1.0,0.734221895,0.0,0.279445214,False,,5ec6bb20ce3f410dcd418f20,,1491390,91,,evan-feature22,full_pf_b,,0
66,4412,92,,,,1,1,0.0,0.0,-1.0,0.0,,0.0-94.0,,0.0,1020.66,0.0,0.258640684,0.0,0.545878066,0.0,0.725245965,1.0,0.31487537,False,,5ec6bb20ce3f410dcd418f20,,1502204,92,,evan-feature22,full_pf_b,,1
67,4413,93,,,,1,1,0.0,1.0,-1.0,0.0,,0.0-95.0,,0.0,2265.46,0.0,0.251103711,1.0,0.5776290629999999,1.0,0.696320133,0.0,0.317831047,False,,5ec6bb20ce3f410dcd418f20,,1514299,93,,evan-feature22,full_pf_b,,0
68,4414,94,,,,2,2,1.0,0.0,-1.0,0.0,,0.0-96.0,,-1.0,471.2749999,0.0,0.276630292,0.0,0.617329858,1.0,0.73838088,0.0,0.261471582,False,,5ec6bb20ce3f410dcd418f20,,1524565,94,,evan-feature22,full_pf_b,,1
69,4415,95,,,,2,2,1.0,0.0,0.0,1.0,,0.0-97.0,,0.0,1154.195,1.0,0.297716424,0.0,0.618863717,1.0,0.7402358259999999,0.0,0.262600834,False,,5ec6bb20ce3f410dcd418f20,,1535527,95,,evan-feature22,full_pf_b,,0
70,4416,96,,,,2,2,1.0,0.0,-1.0,0.0,,0.0-98.0,,-1.0,1136.755,1.0,0.290935512,1.0,0.695370945,1.0,0.706570507,0.0,0.280030553,False,,5ec6bb20ce3f410dcd418f20,,1546469,96,,evan-feature22,full_pf_b,,0
71,4417,97,,,,1,1,0.0,0.0,-1.0,0.0,,0.0-99.0,,0.0,2121.95,0.0,0.25,0.0,0.6465277079999999,0.0,0.67766682,0.0,0.25,False,,5ec6bb20ce3f410dcd418f20,,1558384,97,,evan-feature22,full_pf_b,,1
72,4418,98,,,,2,2,1.0,0.0,-1.0,0.0,,0.0-100.0,,-1.0,2597.78,0.0,0.26463816,1.0,0.636100213,1.0,0.646048507,0.0,0.265607101,False,,5ec6bb20ce3f410dcd418f20,,1570776,98,,evan-feature22,full_pf_b,,1
73,4419,99,,,,2,2,1.0,0.0,-1.0,0.0,,0.0-101.0,,-1.0,317.64,0.0,0.314340707,1.0,0.667795927,1.0,0.613630805,0.0,0.25,False,,5ec6bb20ce3f410dcd418f20,,1580887,99,,evan-feature22,full_pf_b,,0
74,4420,100,,,,1,1,0.0,1.0,-1.0,0.0,,0.0-102.0,,0.0,421.0299999,0.0,0.28685784,1.0,0.6622549529999999,0.0,0.652154117,0.0,0.25,False,,5ec6bb20ce3f410dcd418f20,,1591123,100,,evan-feature22,full_pf_b,,1
75,4421,101,,,,2,2,0.0,0.0,0.0,1.0,,0.0-103.0,,0.0,845.1400001000001,0.0,0.304106554,1.0,0.631289538,0.0,0.707041942,0.0,0.29314237,False,,5ec6bb20ce3f410dcd418f20,,1601746,101,,evan-feature22,full_pf_b,,1
76,4422,102,,,,2,2,1.0,1.0,0.0,1.0,,0.0-104.0,,1.0,854.5499998,0.0,0.304806932,1.0,0.571167718,1.0,0.680472346,1.0,0.25,False,,5ec6bb20ce3f410dcd418f20,,1612411,102,,evan-feature22,full_pf_b,,0
77,4423,103,,,,1,1,0.0,0.0,0.0,1.0,,0.0-105.0,,0.0,639.465,0.0,0.37919861,0.0,0.5724849710000001,1.0,0.705638003,0.0,0.30179300600000003,False,,5ec6bb20ce3f410dcd418f20,,1622858,103,,evan-feature22,full_pf_b,,1
78,4424,104,,,,1,1,0.0,1.0,0.0,1.0,,0.0-106.0,,1.0,1025.77,0.0,0.464277969,1.0,0.554034373,1.0,0.7372627340000001,0.0,0.264699741,False,,5ec6bb20ce3f410dcd418f20,,1633697,104,,evan-feature22,full_pf_b,,0
79,4425,105,,,,2,2,1.0,1.0,-1.0,0.0,,0.0-107.0,,-1.0,920.775,0.0,0.465104323,1.0,0.530793115,1.0,0.75,1.0,0.31683071,False,,5ec6bb20ce3f410dcd418f20,,1644423,105,,evan-feature22,full_pf_b,,1
80,4426,106,,,,1,1,1.0,1.0,0.0,1.0,,0.0-108.0,,1.0,848.0200002,1.0,0.465104323,1.0,0.530793115,1.0,0.75,1.0,0.31683071,False,,5ec6bb20ce3f410dcd418f20,,1655084,106,,evan-feature22,full_pf_b,,1
81,4427,107,,,,1,1,0.0,1.0,0.0,1.0,,0.0-109.0,,1.0,1030.545,0.0,0.46833986,1.0,0.570249239,1.0,0.7244472590000001,0.0,0.364114163,False,,5ec6bb20ce3f410dcd418f20,,1665946,107,,evan-feature22,full_pf_b,,0
82,4428,108,,,,1,1,1.0,1.0,0.0,1.0,,0.0-110.0,,1.0,913.62,1.0,0.445444024,1.0,0.649673355,1.0,0.6845441290000001,0.0,0.300660449,False,,5ec6bb20ce3f410dcd418f20,,1676666,108,,evan-feature22,full_pf_b,,0
83,4429,109,,,,1,1,0.0,1.0,0.0,1.0,,0.0-111.0,,1.0,1464.885,0.0,0.39909721299999995,1.0,0.6715179509999999,0.0,0.742310028,0.0,0.35496088299999995,False,,5ec6bb20ce3f410dcd418f20,,1687934,109,,evan-feature22,full_pf_b,,0
84,4430,110,,,,1,1,1.0,1.0,0.0,1.0,,0.0-112.0,,1.0,809.1600002,1.0,0.37956104799999996,1.0,0.694725302,0.0,0.7181651309999999,1.0,0.38726906299999997,False,,5ec6bb20ce3f410dcd418f20,,1698541,110,,evan-feature22,full_pf_b,,0
85,4431,111,,,,1,1,1.0,1.0,0.0,1.0,,0.0-113.0,,1.0,831.9250001,1.0,0.404995034,1.0,0.724375412,1.0,0.6910946859999999,0.0,0.387187347,False,,5ec6bb20ce3f410dcd418f20,,1709187,111,,evan-feature22,full_pf_b,,0
86,4432,112,,,,1,1,1.0,1.0,0.0,1.0,,0.0-114.0,,1.0,1414.645,1.0,0.461740803,1.0,0.75,0.0,0.75,0.0,0.34872038200000005,False,,5ec6bb20ce3f410dcd418f20,,1720420,112,,evan-feature22,full_pf_b,,0
87,4433,113,,,,2,2,1.0,0.0,-1.0,0.0,,0.0-115.0,,-1.0,756.8650001,0.0,0.43821380600000004,1.0,0.738833273,1.0,0.728286963,0.0,0.399538128,False,,5ec6bb20ce3f410dcd418f20,,1730987,113,,evan-feature22,full_pf_b,,1
88,4434,114,,,,1,1,0.0,0.0,0.0,1.0,,0.0-116.0,,0.0,1540.085,0.0,0.41709882,0.0,0.736666736,1.0,0.75,0.0,0.389095584,False,,5ec6bb20ce3f410dcd418f20,,1742322,114,,evan-feature22,full_pf_b,,1
89,4435,115,,,,2,2,0.0,0.0,0.0,1.0,,0.0-117.0,,0.0,1385.51,0.0,0.39749009799999996,1.0,0.744320029,0.0,0.75,0.0,0.363848678,False,,5ec6bb20ce3f410dcd418f20,,1753495,115,,evan-feature22,full_pf_b,,1
90,4436,116,,,,1,1,0.0,1.0,-1.0,0.0,,0.0-118.0,,0.0,3210.9,0.0,0.392653706,1.0,0.75,1.0,0.75,0.0,0.384386976,False,,5ec6bb20ce3f410dcd418f20,,1766515,116,,evan-feature22,full_pf_b,,1
91,4437,117,,,,2,2,1.0,0.0,-1.0,0.0,,0.0-119.0,,-1.0,367.4550001,0.0,0.31190902600000003,1.0,0.75,1.0,0.732413819,0.0,0.413082932,False,,5ec6bb20ce3f410dcd418f20,,1776708,117,,evan-feature22,full_pf_b,,1
92,4438,118,,,,1,1,1.0,1.0,0.0,1.0,,0.0-120.0,,1.0,1185.69,1.0,0.366917648,1.0,0.740073855,0.0,0.75,0.0,0.352861979,False,,5ec6bb20ce3f410dcd418f20,,1787717,118,,evan-feature22,full_pf_b,,1
93,4439,119,,,,2,2,0.0,0.0,0.0,1.0,,0.0-121.0,,0.0,694.1250002,1.0,0.3645172,1.0,0.721770713,0.0,0.75,0.0,0.404074511,False,,5ec6bb20ce3f410dcd418f20,,1798205,119,,evan-feature22,full_pf_b,,1
94,4440,120,,,,1,1,0.0,0.0,0.0,1.0,,0.0-122.0,,0.0,955.935,0.0,0.35205600299999995,0.0,0.68983859,1.0,0.739735447,0.0,0.366895945,False,,5ec6bb20ce3f410dcd418f20,,1808950,120,,evan-feature22,full_pf_b,,1
95,4441,121,,,,1,1,0.0,0.0,0.0,1.0,,0.0-123.0,,0.0,527.8749999,0.0,0.40998722600000004,0.0,0.720859127,1.0,0.673854955,0.0,0.368528541,False,,5ec6bb20ce3f410dcd418f20,,1819283,121,,evan-feature22,full_pf_b,,0
96,4442,122,,,,2,2,1.0,1.0,-1.0,0.0,,0.0-124.0,,-1.0,1339.2,1.0,0.353625316,1.0,0.75,1.0,0.695605473,1.0,0.38303674200000004,False,,5ec6bb20ce3f410dcd418f20,,1830469,122,,evan-feature22,full_pf_b,,1
97,4443,123,,,,1,1,1.0,0.0,0.0,1.0,,0.0-125.0,,0.0,722.1650002,1.0,0.359216989,0.0,0.75,1.0,0.6987915090000001,0.0,0.35169046200000004,False,,5ec6bb20ce3f410dcd418f20,,1841001,123,,evan-feature22,full_pf_b,,1
98,4444,124,,,,1,1,0.0,0.0,-1.0,0.0,,0.0-126.0,,0.0,643.8249999,0.0,0.35834496899999996,0.0,0.75,1.0,0.707067742,0.0,0.416763636,False,,5ec6bb20ce3f410dcd418f20,,1851423,124,,evan-feature22,full_pf_b,,0
99,4445,125,,,,2,2,0.0,0.0,-1.0,0.0,,0.0-127.0,,0.0,955.665,0.0,0.38741613799999997,0.0,0.7177369570000001,0.0,0.734902455,0.0,0.49438664299999996,False,,5ec6bb20ce3f410dcd418f20,,1862166,125,,evan-feature22,full_pf_b,,1
100,4446,126,,,,1,1,0.0,1.0,0.0,1.0,,0.0-128.0,,1.0,547.5399999,0.0,0.405255252,1.0,0.7300466640000001,1.0,0.7027748070000001,0.0,0.504359668,False,,5ec6bb20ce3f410dcd418f20,,1872518,126,,evan-feature22,full_pf_b,,1
101,4447,127,,,,1,1,0.0,1.0,0.0,1.0,,0.0-129.0,,1.0,560.055,0.0,0.40697073,1.0,0.7260142190000001,1.0,0.724461982,1.0,0.522779179,False,,5ec6bb20ce3f410dcd418f20,,1882883,127,,evan-feature22,full_pf_b,,0
102,4448,128,,,,1,1,1.0,1.0,0.0,1.0,,0.0-130.0,,1.0,3854.57,1.0,0.43906215299999996,1.0,0.7252802340000001,1.0,0.719079934,1.0,0.5712990579999999,False,,5ec6bb20ce3f410dcd418f20,,1896537,128,,evan-feature22,full_pf_b,,0
103,4449,129,,,,2,2,0.0,0.0,0.0,1.0,,0.0-131.0,,0.0,838.8499999,0.0,0.4076705,1.0,0.73280499,0.0,0.681313127,0.0,0.523891346,False,,5ec6bb20ce3f410dcd418f20,,1907170,129,,evan-feature22,full_pf_b,,1
104,4450,130,,,,1,1,0.0,1.0,0.0,1.0,,0.0-132.0,,1.0,882.9000001,0.0,0.399102911,1.0,0.730498344,0.0,0.661080239,1.0,0.46742603,False,,5ec6bb20ce3f410dcd418f20,,1917900,130,,evan-feature22,full_pf_b,,1
105,4451,131,,,,2,2,1.0,1.0,-1.0,0.0,,0.0-133.0,,-1.0,740.28,0.0,0.356477282,0.0,0.712296395,1.0,0.641812684,1.0,0.44868414,False,,5ec6bb20ce3f410dcd418f20,,1928453,131,,evan-feature22,full_pf_b,,1
106,4452,132,,,,1,1,0.0,0.0,0.0,1.0,,0.0-134.0,,0.0,1337.21,0.0,0.462760722,0.0,0.692349322,1.0,0.700947931,0.0,0.394680266,False,,5ec6bb20ce3f410dcd418f20,,1939577,132,,evan-feature22,full_pf_b,,1
107,4453,133,,,,1,1,1.0,1.0,0.0,1.0,,0.0-135.0,,1.0,540.1750002,1.0,0.422306413,1.0,0.718375916,1.0,0.706340917,0.0,0.367787185,False,,5ec6bb20ce3f410dcd418f20,,1949909,133,,evan-feature22,full_pf_b,,0
108,4455,135,,,,1,1,0.0,0.0,0.0,1.0,,0.0-137.0,,0.0,1007.395,0.0,0.4582233,0.0,0.643834117,1.0,0.75,0.0,0.39615823299999997,False,,5ec6bb20ce3f410dcd418f20,,1962277,135,,evan-feature22,full_pf_b,,0
109,4456,136,,,,2,2,1.0,1.0,0.0,1.0,,0.0-138.0,,1.0,1137.69,0.0,0.43813437899999996,0.0,0.651283804,1.0,0.729674191,1.0,0.37711048,False,,5ec6bb20ce3f410dcd418f20,,1973217,136,,evan-feature22,full_pf_b,,1
110,4457,137,,,,1,1,0.0,0.0,0.0,1.0,,0.0-139.0,,0.0,1635.525,0.0,0.471199094,0.0,0.6470010979999999,1.0,0.715008097,0.0,0.410656191,False,,5ec6bb20ce3f410dcd418f20,,1984643,137,,evan-feature22,full_pf_b,,1
111,4458,138,,,,1,1,1.0,1.0,-1.0,0.0,,0.0-140.0,,-1.0,454.07000020000004,1.0,0.42486406,1.0,0.629771829,0.0,0.6550939960000001,1.0,0.459093873,False,,5ec6bb20ce3f410dcd418f20,,1994936,138,,evan-feature22,full_pf_b,,0
112,4459,139,,,,2,2,1.0,0.0,-1.0,0.0,,0.0-141.0,,-1.0,1930.97,0.0,0.4803197,1.0,0.645842715,1.0,0.6421749920000001,0.0,0.443092151,False,,5ec6bb20ce3f410dcd418f20,,2006707,139,,evan-feature22,full_pf_b,,1
113,4460,140,,,,2,2,1.0,1.0,-1.0,0.0,,0.0-142.0,,-1.0,1649.33,0.0,0.521848997,0.0,0.735801074,1.0,0.6691348460000001,1.0,0.45259351600000003,False,,5ec6bb20ce3f410dcd418f20,,2018208,140,,evan-feature22,full_pf_b,,0
114,4461,141,,,,1,1,1.0,1.0,0.0,1.0,,0.0-143.0,,1.0,1102.8,1.0,0.49565621299999996,1.0,0.742400847,1.0,0.661512553,1.0,0.483110831,False,,5ec6bb20ce3f410dcd418f20,,2029149,141,,evan-feature22,full_pf_b,,1
115,4462,142,,,,1,1,1.0,1.0,-1.0,0.0,,0.0-144.0,,-1.0,1566.81,1.0,0.521564361,1.0,0.731078632,0.0,0.6774886809999999,1.0,0.483263956,False,,5ec6bb20ce3f410dcd418f20,,2040558,142,,evan-feature22,full_pf_b,,0
116,4463,143,,,,2,2,1.0,0.0,-1.0,0.0,,0.0-145.0,,-1.0,924.3950001000001,1.0,0.558893102,1.0,0.719810023,1.0,0.67461031,0.0,0.499349834,False,,5ec6bb20ce3f410dcd418f20,,2051298,143,,evan-feature22,full_pf_b,,1
117,4464,144,,,,1,1,1.0,1.0,0.0,1.0,,0.0-146.0,,1.0,878.7149999,1.0,0.611031046,1.0,0.75,1.0,0.688072995,1.0,0.5321422729999999,False,,5ec6bb20ce3f410dcd418f20,,2061983,144,,evan-feature22,full_pf_b,,1
118,4465,145,,,,1,1,0.0,1.0,-1.0,0.0,,0.0-147.0,,0.0,576.8550001,0.0,0.633223941,1.0,0.713567728,1.0,0.75,0.0,0.48185314700000004,False,,5ec6bb20ce3f410dcd418f20,,2072365,145,,evan-feature22,full_pf_b,,0
119,4466,146,,,,2,2,1.0,1.0,-1.0,0.0,,0.0-148.0,,-1.0,643.5,1.0,0.664001694,1.0,0.705509768,1.0,0.75,1.0,0.500211065,False,,5ec6bb20ce3f410dcd418f20,,2082821,146,,evan-feature22,full_pf_b,,1
120,4467,147,,,,1,1,1.0,1.0,0.0,1.0,,0.0-149.0,,1.0,1637.475,1.0,0.664001694,1.0,0.705509768,0.0,0.75,1.0,0.500211065,False,,5ec6bb20ce3f410dcd418f20,,2094298,147,,evan-feature22,full_pf_b,,1
121,4468,148,,,,1,1,0.0,1.0,0.0,1.0,,0.0-150.0,,1.0,1525.46,0.0,0.696508041,1.0,0.71066027,0.0,0.717028709,0.0,0.49792991,False,,5ec6bb20ce3f410dcd418f20,,2105655,148,,evan-feature22,full_pf_b,,0
122,4469,149,,,,1,1,1.0,1.0,-1.0,0.0,,0.0-151.0,,-1.0,48.53000003,1.0,0.699883272,1.0,0.75,0.0,0.713543895,1.0,0.496962643,False,,5ec6bb20ce3f410dcd418f20,,2115523,149,,evan-feature22,full_pf_b,,0
123,4470,150,,,,2,2,0.0,1.0,0.0,1.0,,0.0-152.0,,1.0,809.7550001,1.0,0.741163419,1.0,0.75,0.0,0.64691024,1.0,0.513858197,False,,5ec6bb20ce3f410dcd418f20,,2126124,150,,evan-feature22,full_pf_b,,1
124,4471,151,,,,1,1,1.0,0.0,-1.0,0.0,,0.0-153.0,,-1.0,777.2899999,1.0,0.75,0.0,0.70816558,1.0,0.594499079,0.0,0.48502124,False,,5ec6bb20ce3f410dcd418f20,,2136714,151,,evan-feature22,full_pf_b,,1
125,4472,152,,,,1,1,0.0,1.0,0.0,1.0,,0.0-154.0,,1.0,224.44,0.0,0.75,1.0,0.721848901,0.0,0.62197249,0.0,0.48263586399999997,False,,5ec6bb20ce3f410dcd418f20,,2146744,152,,evan-feature22,full_pf_b,,0
126,4473,153,,,,2,2,1.0,1.0,-1.0,0.0,,0.0-155.0,,-1.0,921.02,1.0,0.75,1.0,0.74813071,1.0,0.584357161,1.0,0.411477782,False,,5ec6bb20ce3f410dcd418f20,,2157495,153,,evan-feature22,full_pf_b,,1
127,4474,154,,,,1,1,1.0,1.0,0.0,1.0,,0.0-156.0,,1.0,351.06,1.0,0.75,1.0,0.75,0.0,0.52287236,0.0,0.488290656,False,,5ec6bb20ce3f410dcd418f20,,2167646,154,,evan-feature22,full_pf_b,,1
128,4475,155,,,,2,2,1.0,0.0,0.0,1.0,,0.0-157.0,,0.0,598.64,0.0,0.75,1.0,0.75,1.0,0.544321581,0.0,0.53143059,False,,5ec6bb20ce3f410dcd418f20,,2178053,155,,evan-feature22,full_pf_b,,1
129,4476,156,,,,1,1,1.0,1.0,0.0,1.0,,0.0-158.0,,1.0,1385.49,1.0,0.726754564,1.0,0.75,0.0,0.5129306370000001,1.0,0.530592445,False,,5ec6bb20ce3f410dcd418f20,,2189251,156,,evan-feature22,full_pf_b,,1
130,4477,157,,,,2,2,0.0,1.0,-1.0,0.0,,0.0-159.0,,0.0,897.96,0.0,0.75,1.0,0.7392590729999999,0.0,0.479875835,1.0,0.547007051,False,,5ec6bb20ce3f410dcd418f20,,2199956,157,,evan-feature22,full_pf_b,,1
131,4478,158,,,,2,2,0.0,0.0,-1.0,0.0,,0.0-160.0,,0.0,1773.33,1.0,0.75,0.0,0.7393376979999999,0.0,0.546045419,0.0,0.541267353,False,,5ec6bb20ce3f410dcd418f20,,2211531,158,,evan-feature22,full_pf_b,,0
132,4479,159,,,,2,2,0.0,1.0,-1.0,0.0,,0.0-161.0,,0.0,725.5150001000001,0.0,0.75,1.0,0.75,0.0,0.485725895,1.0,0.527625395,False,,5ec6bb20ce3f410dcd418f20,,2222066,159,,evan-feature22,full_pf_b,,0
133,4480,160,,,,1,1,0.0,0.0,0.0,1.0,,0.0-162.0,,0.0,809.2799999,0.0,0.75,0.0,0.725087974,1.0,0.488603595,1.0,0.504019206,False,,5ec6bb20ce3f410dcd418f20,,2232674,160,,evan-feature22,full_pf_b,,1
134,4481,161,,,,1,1,1.0,1.0,0.0,1.0,,0.0-163.0,,1.0,1005.935,1.0,0.745504295,1.0,0.75,0.0,0.452379914,1.0,0.50131194,False,,5ec6bb20ce3f410dcd418f20,,2243544,161,,evan-feature22,full_pf_b,,0
135,4482,162,,,,1,1,1.0,1.0,0.0,1.0,,0.0-164.0,,1.0,1011.025,1.0,0.728513874,1.0,0.75,0.0,0.44125567200000004,1.0,0.531454591,False,,5ec6bb20ce3f410dcd418f20,,2254383,162,,evan-feature22,full_pf_b,,0
136,4483,163,,,,2,2,0.0,1.0,-1.0,0.0,,0.0-165.0,,0.0,3536.52,1.0,0.73790804,1.0,0.75,0.0,0.413036656,1.0,0.524619035,False,,5ec6bb20ce3f410dcd418f20,,2267722,163,,evan-feature22,full_pf_b,,1
137,4484,164,,,,2,2,1.0,0.0,0.0,1.0,,0.0-166.0,,0.0,1380.34,1.0,0.7080961309999999,0.0,0.708666865,1.0,0.431915581,0.0,0.481819489,False,,5ec6bb20ce3f410dcd418f20,,2278898,164,,evan-feature22,full_pf_b,,0
138,4485,165,,,,1,1,0.0,1.0,0.0,1.0,,0.0-167.0,,1.0,682.365,0.0,0.721378003,1.0,0.71605913,0.0,0.36642387,0.0,0.5036739929999999,False,,5ec6bb20ce3f410dcd418f20,,2289403,165,,evan-feature22,full_pf_b,,1
139,4486,166,,,,2,2,1.0,1.0,0.0,1.0,,0.0-168.0,,1.0,3781.73,1.0,0.7340618959999999,1.0,0.699323252,1.0,0.35298046299999997,1.0,0.511241692,False,,5ec6bb20ce3f410dcd418f20,,2303026,166,,evan-feature22,full_pf_b,,1
140,4487,167,,,,1,1,1.0,1.0,-1.0,0.0,,0.0-169.0,,-1.0,911.35,1.0,0.75,1.0,0.70412698,0.0,0.380734814,1.0,0.529580116,False,,5ec6bb20ce3f410dcd418f20,,2313811,167,,evan-feature22,full_pf_b,,1
141,4488,168,,,,2,2,1.0,0.0,0.0,1.0,,0.0-170.0,,0.0,466.19499989999997,1.0,0.7436654909999999,0.0,0.711182751,1.0,0.41125331,0.0,0.49554405,False,,5ec6bb20ce3f410dcd418f20,,2324144,168,,evan-feature22,full_pf_b,,1
142,4489,169,,,,1,1,1.0,1.0,0.0,1.0,,0.0-171.0,,1.0,993.7150001,1.0,0.731607915,1.0,0.651774583,1.0,0.35688023,0.0,0.45194491600000003,False,,5ec6bb20ce3f410dcd418f20,,2334928,169,,evan-feature22,full_pf_b,,1
143,4490,170,,,,2,2,1.0,0.0,-1.0,0.0,,0.0-172.0,,-1.0,644.605,1.0,0.75,1.0,0.75,1.0,0.283145374,0.0,0.528608005,False,,5ec6bb20ce3f410dcd418f20,,2345381,170,,evan-feature22,full_pf_b,,1
144,4491,171,,,,2,2,1.0,1.0,-1.0,0.0,,0.0-173.0,,-1.0,811.2050002000001,1.0,0.7491416890000001,1.0,0.7423785959999999,1.0,0.29135870399999997,1.0,0.498888318,False,,5ec6bb20ce3f410dcd418f20,,2355998,171,,evan-feature22,full_pf_b,,0
145,4492,172,,,,2,2,0.0,0.0,-1.0,0.0,,0.0-174.0,,0.0,531.3200001,1.0,0.708569387,1.0,0.717682277,0.0,0.294421699,0.0,0.493838163,False,,5ec6bb20ce3f410dcd418f20,,2366345,172,,evan-feature22,full_pf_b,,0
146,4493,173,,,,2,2,0.0,1.0,0.0,1.0,,0.0-175.0,,1.0,1244.945,0.0,0.75,1.0,0.7383382159999999,0.0,0.356098707,1.0,0.442533405,False,,5ec6bb20ce3f410dcd418f20,,2377456,173,,evan-feature22,full_pf_b,,0
147,4494,174,,,,1,1,1.0,1.0,0.0,1.0,,0.0-176.0,,1.0,925.2499999,1.0,0.744527075,1.0,0.75,0.0,0.334127506,0.0,0.393165805,False,,5ec6bb20ce3f410dcd418f20,,2388181,174,,evan-feature22,full_pf_b,,1
148,4495,175,,,,2,2,0.0,0.0,0.0,1.0,,0.0-177.0,,0.0,1444.98,0.0,0.75,1.0,0.75,0.0,0.33571021799999995,0.0,0.350393962,False,,5ec6bb20ce3f410dcd418f20,,2399414,175,,evan-feature22,full_pf_b,,1
149,4496,176,,,,1,1,1.0,0.0,0.0,1.0,,0.0-178.0,,0.0,1258.615,1.0,0.75,0.0,0.75,1.0,0.313628297,0.0,0.36349657399999996,False,,5ec6bb20ce3f410dcd418f20,,2410482,176,,evan-feature22,full_pf_b,,1
150,4497,177,,,,1,1,0.0,0.0,-1.0,0.0,,0.0-179.0,,0.0,464.26,0.0,0.75,0.0,0.734284182,0.0,0.262667667,0.0,0.380199119,False,,5ec6bb20ce3f410dcd418f20,,2420742,177,,evan-feature22,full_pf_b,,0
151,4498,178,,,,1,1,0.0,1.0,0.0,1.0,,0.0-180.0,,1.0,423.5150001,0.0,0.75,1.0,0.75,1.0,0.25,1.0,0.394494013,False,,5ec6bb20ce3f410dcd418f20,,2430983,178,,evan-feature22,full_pf_b,,0
152,4499,179,,,,2,2,0.0,0.0,-1.0,0.0,,0.0-181.0,,0.0,1885.075,1.0,0.722298145,0.0,0.7357822340000001,0.0,0.25,0.0,0.319142121,False,,5ec6bb20ce3f410dcd418f20,,2442662,179,,evan-feature22,full_pf_b,,1
153,4500,180,,,,2,2,0.0,0.0,-1.0,0.0,,0.0-182.0,,0.0,732.0650001,1.0,0.73149275,1.0,0.724276446,0.0,0.305856907,0.0,0.281315057,False,,5ec6bb20ce3f410dcd418f20,,2453187,180,,evan-feature22,full_pf_b,,0
154,4501,181,,,,1,1,1.0,1.0,0.0,1.0,,0.0-183.0,,1.0,418.88999989999996,1.0,0.7458732690000001,1.0,0.7336382459999999,0.0,0.272571964,0.0,0.266021999,False,,5ec6bb20ce3f410dcd418f20,,2463425,181,,evan-feature22,full_pf_b,,1
155,4502,182,,,,1,1,0.0,1.0,0.0,1.0,,0.0-184.0,,1.0,1099.6,0.0,0.705579037,1.0,0.720778292,1.0,0.320238144,0.0,0.30971744,False,,5ec6bb20ce3f410dcd418f20,,2474327,182,,evan-feature22,full_pf_b,,0
156,4503,183,,,,1,1,1.0,1.0,0.0,1.0,,0.0-185.0,,1.0,724.3049999,1.0,0.700425648,1.0,0.7198784009999999,1.0,0.272590393,0.0,0.304182931,False,,5ec6bb20ce3f410dcd418f20,,2484868,183,,evan-feature22,full_pf_b,,0
157,4504,184,,,,1,1,0.0,0.0,0.0,1.0,,0.0-186.0,,0.0,597.385,0.0,0.735590785,0.0,0.722714973,0.0,0.25,0.0,0.323421091,False,,5ec6bb20ce3f410dcd418f20,,2495259,184,,evan-feature22,full_pf_b,,0
158,4505,185,,,,1,1,1.0,1.0,0.0,1.0,,0.0-187.0,,1.0,770.36,1.0,0.724807662,1.0,0.63146213,1.0,0.36836492600000004,0.0,0.34592153299999995,False,,5ec6bb20ce3f410dcd418f20,,2505835,185,,evan-feature22,full_pf_b,,0
159,4506,186,,,,1,1,1.0,0.0,0.0,1.0,,0.0-188.0,,0.0,559.355,1.0,0.7352796909999999,0.0,0.555111392,0.0,0.36003922,0.0,0.31433779999999995,False,,5ec6bb20ce3f410dcd418f20,,2516187,186,,evan-feature22,full_pf_b,,0
160,4507,187,notice,,,,,,,,,,0.0-189.0,"{""Q0"":""I feel like I gained more points in the second half.""}",,31746.0,,,,,,,,,False,,5ec6bb20ce3f410dcd418f20,,2547962,187,Q,survey-text,full_pf_b,,1
161,4508,188,track1,,[0],,,,,,,,0.0-190.0,"{""Q0"":""yes""}",,6092.0,,,,,,,,,False,,5ec6bb20ce3f410dcd418f20,,2554089,188,Q,evan-quiz,full_pf_b,,1
162,4509,189,track2,,[0],,,,,,,,0.0-191.0,"{""Q0"":""yes""}",,5401.0,,,,,,,,,False,,5ec6bb20ce3f410dcd418f20,,2559502,189,Q,evan-quiz,full_pf_b,,1
163,4510,190,strat,,,,,,,,,,0.0-192.0,"{""Q0"":""""}",,2122.0,,,,,,,,,False,,5ec6bb20ce3f410dcd418f20,,2561635,190,Q,survey-text,full_pf_b,,1
