,index,Unnamed: 0,Q_name,button_pressed,choice_idxs,chosen_pos,chosen_state,chosen_state_f_1_outcome,chosen_state_f_2_outcome,f_1_reward,f_2_reward,incor_questions,internal_node_id,responses,reward_received,rt,s_1_f_1_outcome,s_1_f_1_prob,s_1_f_2_outcome,s_1_f_2_prob,s_2_f_1_outcome,s_2_f_1_prob,s_2_f_2_outcome,s_2_f_2_prob,safe_first,stimulus,subjectID,success,time_elapsed,trial_index,trial_num,trial_type,version,view_history,switching
0,2990,25,,,,1,1,0.0,0.0,0.0,1.0,,0.0-27.0,,0.0,909.655,0.0,0.6,0.0,0.6,0.0,0.4,0.0,0.4,True,,5f11d481902ff50b23166de1,,2835137,25,,evan-feature22,full_rf_b,,0
1,2991,26,,,,1,1,1.0,0.0,0.0,1.0,,0.0-28.0,,0.0,637.905,1.0,0.608053294,0.0,0.63424552,1.0,0.397152172,0.0,0.347069101,True,,5f11d481902ff50b23166de1,,2845540,26,,evan-feature22,full_rf_b,,0
2,2992,27,,,,1,1,1.0,0.0,0.0,1.0,,0.0-29.0,,0.0,480.885,1.0,0.642237155,0.0,0.648566321,1.0,0.389407674,0.0,0.285525717,True,,5f11d481902ff50b23166de1,,2855784,27,,evan-feature22,full_rf_b,,0
3,2993,28,,,,1,1,1.0,1.0,0.0,1.0,,0.0-30.0,,1.0,351.19,1.0,0.661086576,1.0,0.630492543,1.0,0.399058924,1.0,0.25,True,,5f11d481902ff50b23166de1,,2865901,28,,evan-feature22,full_rf_b,,0
4,2994,29,,,,1,1,0.0,1.0,0.0,1.0,,0.0-31.0,,1.0,963.975,0.0,0.631324137,1.0,0.6269842929999999,1.0,0.38734784299999997,1.0,0.25,True,,5f11d481902ff50b23166de1,,2876629,29,,evan-feature22,full_rf_b,,0
5,2995,30,,,,1,1,1.0,1.0,0.0,1.0,,0.0-32.0,,1.0,540.07,1.0,0.6381991370000001,1.0,0.68987999,0.0,0.384107265,0.0,0.271332943,True,,5f11d481902ff50b23166de1,,2886930,30,,evan-feature22,full_rf_b,,0
6,2996,31,,,,1,1,1.0,0.0,0.0,1.0,,0.0-33.0,,0.0,528.19,1.0,0.66034901,0.0,0.742641349,0.0,0.360225629,1.0,0.25,True,,5f11d481902ff50b23166de1,,2897226,31,,evan-feature22,full_rf_b,,0
7,2997,32,,,,2,2,1.0,0.0,-1.0,0.0,,0.0-34.0,,-1.0,1412.705,0.0,0.638612418,1.0,0.75,1.0,0.367273939,0.0,0.25,True,,5f11d481902ff50b23166de1,,2908402,32,,evan-feature22,full_rf_b,,1
8,2998,33,,,,1,1,1.0,0.0,0.0,1.0,,0.0-35.0,,0.0,526.05,1.0,0.624340629,0.0,0.75,0.0,0.425829545,0.0,0.25,True,,5f11d481902ff50b23166de1,,2918691,33,,evan-feature22,full_rf_b,,1
9,2999,34,,,,1,1,1.0,1.0,0.0,1.0,,0.0-36.0,,1.0,746.81,1.0,0.621999804,1.0,0.75,1.0,0.368609357,0.0,0.25,True,,5f11d481902ff50b23166de1,,2929202,34,,evan-feature22,full_rf_b,,0
10,3000,35,,,,2,2,0.0,0.0,-1.0,0.0,,0.0-37.0,,0.0,1120.93,1.0,0.62666403,0.0,0.75,0.0,0.311151498,0.0,0.25,True,,5f11d481902ff50b23166de1,,2940086,35,,evan-feature22,full_rf_b,,1
11,3001,36,,,,2,2,0.0,0.0,-1.0,0.0,,0.0-38.0,,0.0,875.925,1.0,0.6819650009999999,1.0,0.75,0.0,0.310763048,0.0,0.25,True,,5f11d481902ff50b23166de1,,2950723,36,,evan-feature22,full_rf_b,,0
12,3002,37,,,,1,1,0.0,1.0,0.0,1.0,,0.0-39.0,,1.0,1304.825,0.0,0.740626951,1.0,0.75,0.0,0.25,0.0,0.25,True,,5f11d481902ff50b23166de1,,2961790,37,,evan-feature22,full_rf_b,,1
13,3003,38,,,,1,1,1.0,1.0,0.0,1.0,,0.0-40.0,,1.0,581.825,1.0,0.739599242,1.0,0.742034978,0.0,0.25397114600000004,0.0,0.25,True,,5f11d481902ff50b23166de1,,2972134,38,,evan-feature22,full_rf_b,,0
14,3004,39,,,,1,1,0.0,1.0,0.0,1.0,,0.0-41.0,,1.0,739.21,0.0,0.732341315,1.0,0.72735643,0.0,0.25,0.0,0.25,True,,5f11d481902ff50b23166de1,,2982635,39,,evan-feature22,full_rf_b,,0
15,3005,40,,,,1,1,0.0,1.0,0.0,1.0,,0.0-42.0,,1.0,380.57,0.0,0.7062287770000001,1.0,0.75,0.0,0.29002151,0.0,0.288256649,True,,5f11d481902ff50b23166de1,,2992779,40,,evan-feature22,full_rf_b,,0
16,3006,41,,,,1,1,0.0,1.0,-1.0,0.0,,0.0-43.0,,0.0,439.325,0.0,0.7086029209999999,1.0,0.75,0.0,0.274129113,0.0,0.262851608,True,,5f11d481902ff50b23166de1,,3002981,41,,evan-feature22,full_rf_b,,0
17,3007,42,,,,1,1,0.0,1.0,0.0,1.0,,0.0-44.0,,1.0,605.415,0.0,0.669189651,1.0,0.727614338,0.0,0.298444036,0.0,0.296944518,True,,5f11d481902ff50b23166de1,,3013348,42,,evan-feature22,full_rf_b,,0
18,3008,43,,,,1,1,1.0,1.0,-1.0,0.0,,0.0-45.0,,-1.0,1541.1,1.0,0.6819912929999999,1.0,0.7179434290000001,0.0,0.265003961,0.0,0.28157921199999997,True,,5f11d481902ff50b23166de1,,3024656,43,,evan-feature22,full_rf_b,,0
19,3009,44,,,,2,2,0.0,1.0,-1.0,0.0,,0.0-46.0,,0.0,1037.23,0.0,0.665275002,0.0,0.723065271,0.0,0.260414971,1.0,0.30973870000000003,True,,5f11d481902ff50b23166de1,,3035457,44,,evan-feature22,full_rf_b,,1
20,3010,45,,,,1,1,0.0,0.0,0.0,1.0,,0.0-47.0,,0.0,1299.75,0.0,0.6660593260000001,0.0,0.728032907,0.0,0.30922817,0.0,0.338778608,True,,5f11d481902ff50b23166de1,,3046520,45,,evan-feature22,full_rf_b,,1
21,3011,46,,,,1,1,1.0,0.0,0.0,1.0,,0.0-48.0,,0.0,840.165,1.0,0.702068785,0.0,0.6528750879999999,0.0,0.287329608,0.0,0.35789613200000003,True,,5f11d481902ff50b23166de1,,3057123,46,,evan-feature22,full_rf_b,,0
22,3012,47,,,,1,1,0.0,1.0,0.0,1.0,,0.0-49.0,,1.0,907.25,0.0,0.651939787,1.0,0.636725589,0.0,0.284834488,0.0,0.358563756,True,,5f11d481902ff50b23166de1,,3067800,47,,evan-feature22,full_rf_b,,0
23,3013,48,,,,1,1,1.0,1.0,0.0,1.0,,0.0-50.0,,1.0,634.005,1.0,0.67573929,1.0,0.612550049,0.0,0.37130387600000003,1.0,0.383542402,True,,5f11d481902ff50b23166de1,,3078205,48,,evan-feature22,full_rf_b,,0
24,3014,49,,,,1,1,1.0,0.0,0.0,1.0,,0.0-51.0,,0.0,533.92,1.0,0.620753801,0.0,0.60513644,0.0,0.385529434,1.0,0.340361743,True,,5f11d481902ff50b23166de1,,3088507,49,,evan-feature22,full_rf_b,,0
25,3015,50,,,,1,1,1.0,0.0,-1.0,0.0,,0.0-52.0,,-1.0,1688.68,1.0,0.673564893,0.0,0.672437924,1.0,0.292955382,1.0,0.337633795,True,,5f11d481902ff50b23166de1,,3099959,50,,evan-feature22,full_rf_b,,0
26,3016,51,,,,1,1,1.0,1.0,0.0,1.0,,0.0-53.0,,1.0,644.82,1.0,0.6749427,1.0,0.724197502,0.0,0.32391132100000003,0.0,0.350995264,True,,5f11d481902ff50b23166de1,,3110367,51,,evan-feature22,full_rf_b,,0
27,3017,52,,,,1,1,0.0,1.0,0.0,1.0,,0.0-54.0,,1.0,577.915,0.0,0.6940159379999999,1.0,0.75,1.0,0.31710554399999996,1.0,0.413450341,True,,5f11d481902ff50b23166de1,,3120710,52,,evan-feature22,full_rf_b,,0
28,3018,53,,,,1,1,0.0,0.0,0.0,1.0,,0.0-55.0,,0.0,969.6,0.0,0.6916018270000001,0.0,0.69001187,0.0,0.261817804,1.0,0.40038635,True,,5f11d481902ff50b23166de1,,3131447,53,,evan-feature22,full_rf_b,,0
29,3019,54,,,,1,1,1.0,1.0,0.0,1.0,,0.0-56.0,,1.0,1252.495,1.0,0.641061544,1.0,0.71337992,0.0,0.277296461,0.0,0.47372791700000005,True,,5f11d481902ff50b23166de1,,3142460,54,,evan-feature22,full_rf_b,,0
30,3020,55,,,,1,1,0.0,1.0,0.0,1.0,,0.0-57.0,,1.0,862.43,0.0,0.6082438520000001,1.0,0.708471106,0.0,0.28745137,1.0,0.564174476,True,,5f11d481902ff50b23166de1,,3153088,55,,evan-feature22,full_rf_b,,0
31,3021,56,,,,2,2,0.0,0.0,-1.0,0.0,,0.0-58.0,,0.0,981.985,1.0,0.6051112120000001,1.0,0.7118147229999999,0.0,0.272390611,0.0,0.5595149939999999,True,,5f11d481902ff50b23166de1,,3163834,56,,evan-feature22,full_rf_b,,1
32,3022,57,,,,2,2,1.0,1.0,-1.0,0.0,,0.0-59.0,,-1.0,585.215,0.0,0.582420852,0.0,0.635867583,1.0,0.31089574,1.0,0.5227206520000001,True,,5f11d481902ff50b23166de1,,3174190,57,,evan-feature22,full_rf_b,,0
33,3023,58,,,,2,2,0.0,1.0,-1.0,0.0,,0.0-60.0,,0.0,855.15,0.0,0.623195575,0.0,0.655026044,0.0,0.25,1.0,0.560387538,True,,5f11d481902ff50b23166de1,,3184809,58,,evan-feature22,full_rf_b,,0
34,3024,59,,,,1,1,1.0,0.0,0.0,1.0,,0.0-61.0,,0.0,916.38,1.0,0.601889598,0.0,0.678198724,1.0,0.25,1.0,0.559922936,True,,5f11d481902ff50b23166de1,,3195488,59,,evan-feature22,full_rf_b,,1
35,3025,60,,,,2,2,0.0,1.0,-1.0,0.0,,0.0-62.0,,0.0,1025.995,0.0,0.601259914,1.0,0.704681482,0.0,0.33908969299999997,1.0,0.505003715,True,,5f11d481902ff50b23166de1,,3206277,60,,evan-feature22,full_rf_b,,1
36,3026,61,,,,2,2,0.0,0.0,-1.0,0.0,,0.0-63.0,,0.0,1068.555,0.0,0.59645454,1.0,0.710437172,0.0,0.327441879,0.0,0.391749613,True,,5f11d481902ff50b23166de1,,3217106,61,,evan-feature22,full_rf_b,,0
37,3027,62,,,,1,1,0.0,1.0,0.0,1.0,,0.0-64.0,,1.0,445.105,0.0,0.529473,1.0,0.636758527,0.0,0.301338063,0.0,0.365661481,True,,5f11d481902ff50b23166de1,,3227316,62,,evan-feature22,full_rf_b,,1
38,3028,63,,,,2,2,0.0,0.0,-1.0,0.0,,0.0-65.0,,0.0,654.84,1.0,0.541657162,0.0,0.634541962,0.0,0.343535366,0.0,0.371763742,True,,5f11d481902ff50b23166de1,,3237735,63,,evan-feature22,full_rf_b,,1
39,3029,64,,,,2,2,0.0,0.0,-1.0,0.0,,0.0-66.0,,0.0,790.155,1.0,0.5707533260000001,1.0,0.589121171,0.0,0.326428396,0.0,0.43961622899999997,True,,5f11d481902ff50b23166de1,,3248291,64,,evan-feature22,full_rf_b,,0
40,3030,65,,,,1,1,0.0,1.0,0.0,1.0,,0.0-67.0,,1.0,763.08,0.0,0.5707533260000001,1.0,0.589121171,0.0,0.326428396,0.0,0.43961622899999997,True,,5f11d481902ff50b23166de1,,3258817,65,,evan-feature22,full_rf_b,,1
41,3031,66,,,,1,1,0.0,1.0,0.0,1.0,,0.0-68.0,,1.0,468.85,0.0,0.506271295,1.0,0.641775594,1.0,0.37149690700000004,1.0,0.404330166,True,,5f11d481902ff50b23166de1,,3269054,66,,evan-feature22,full_rf_b,,0
42,3032,67,,,,2,2,0.0,1.0,-1.0,0.0,,0.0-69.0,,0.0,707.495,0.0,0.455642565,0.0,0.623605825,0.0,0.358753011,1.0,0.346174041,True,,5f11d481902ff50b23166de1,,3279523,67,,evan-feature22,full_rf_b,,1
43,3033,68,,,,1,1,0.0,1.0,0.0,1.0,,0.0-70.0,,1.0,762.355,0.0,0.483677308,1.0,0.5904681070000001,0.0,0.402218411,0.0,0.35344697,True,,5f11d481902ff50b23166de1,,3290048,68,,evan-feature22,full_rf_b,,1
44,3034,69,,,,2,2,1.0,0.0,-1.0,0.0,,0.0-71.0,,-1.0,629.18,0.0,0.394210977,1.0,0.558925494,1.0,0.540052017,0.0,0.35182128700000004,True,,5f11d481902ff50b23166de1,,3300443,69,,evan-feature22,full_rf_b,,1
45,3035,70,,,,1,1,1.0,0.0,0.0,1.0,,0.0-72.0,,0.0,610.265,1.0,0.382300414,0.0,0.577670603,1.0,0.607608448,0.0,0.378261578,True,,5f11d481902ff50b23166de1,,3310819,70,,evan-feature22,full_rf_b,,1
46,3036,71,,,,2,2,1.0,0.0,-1.0,0.0,,0.0-73.0,,-1.0,643.175,1.0,0.357596762,1.0,0.5929076529999999,1.0,0.6579790010000001,0.0,0.401326777,True,,5f11d481902ff50b23166de1,,3321221,71,,evan-feature22,full_rf_b,,1
47,3037,72,,,,1,1,1.0,0.0,0.0,1.0,,0.0-74.0,,0.0,605.8,1.0,0.362033495,0.0,0.582308608,1.0,0.649195052,0.0,0.355158505,True,,5f11d481902ff50b23166de1,,3331592,72,,evan-feature22,full_rf_b,,1
48,3038,73,,,,1,1,1.0,1.0,0.0,1.0,,0.0-75.0,,1.0,599.62,1.0,0.369620635,1.0,0.669100864,1.0,0.706059111,0.0,0.362516241,True,,5f11d481902ff50b23166de1,,3341961,73,,evan-feature22,full_rf_b,,0
49,3039,74,,,,1,1,1.0,1.0,0.0,1.0,,0.0-76.0,,1.0,2451.48,1.0,0.41477751399999996,1.0,0.7284416779999999,0.0,0.7182656940000001,1.0,0.36228040899999997,True,,5f11d481902ff50b23166de1,,3354177,74,,evan-feature22,full_rf_b,,0
50,3040,75,,,,2,2,1.0,0.0,-1.0,0.0,,0.0-77.0,,-1.0,929.92,0.0,0.37675460299999997,0.0,0.703250285,1.0,0.75,0.0,0.461979164,True,,5f11d481902ff50b23166de1,,3364868,75,,evan-feature22,full_rf_b,,1
51,3041,76,,,,1,1,0.0,1.0,-1.0,0.0,,0.0-78.0,,0.0,1164.675,0.0,0.398716075,1.0,0.6723864890000001,0.0,0.674153818,1.0,0.519029516,True,,5f11d481902ff50b23166de1,,3375800,76,,evan-feature22,full_rf_b,,1
52,3042,77,,,,1,1,1.0,1.0,-1.0,0.0,,0.0-79.0,,-1.0,557.31,1.0,0.34677856700000004,1.0,0.69057175,1.0,0.6822438540000001,1.0,0.477292237,True,,5f11d481902ff50b23166de1,,3386123,77,,evan-feature22,full_rf_b,,0
53,3043,78,,,,1,1,1.0,1.0,0.0,1.0,,0.0-80.0,,1.0,760.49,1.0,0.28580469199999997,1.0,0.68408818,1.0,0.684207565,0.0,0.49780448299999996,True,,5f11d481902ff50b23166de1,,3396644,78,,evan-feature22,full_rf_b,,0
54,3045,80,,,,1,1,0.0,1.0,0.0,1.0,,0.0-82.0,,1.0,1123.86,0.0,0.25,1.0,0.7405808970000001,0.0,0.679614108,0.0,0.436436964,True,,5f11d481902ff50b23166de1,,3414245,80,,evan-feature22,full_rf_b,,0
55,3046,81,,,,1,1,1.0,1.0,0.0,1.0,,0.0-83.0,,1.0,631.68,1.0,0.29890393,1.0,0.730505706,1.0,0.7328203320000001,0.0,0.439256938,True,,5f11d481902ff50b23166de1,,3424642,81,,evan-feature22,full_rf_b,,0
56,3047,82,,,,1,1,0.0,1.0,-1.0,0.0,,0.0-84.0,,0.0,813.73,0.0,0.326762398,1.0,0.7148059609999999,0.0,0.75,0.0,0.44389608799999997,True,,5f11d481902ff50b23166de1,,3435218,82,,evan-feature22,full_rf_b,,0
57,3048,83,,,,1,1,0.0,1.0,0.0,1.0,,0.0-85.0,,1.0,810.065,0.0,0.295168515,1.0,0.739760854,1.0,0.719947008,0.0,0.35277284600000003,True,,5f11d481902ff50b23166de1,,3445792,83,,evan-feature22,full_rf_b,,0
58,3049,84,,,,1,1,1.0,0.0,0.0,1.0,,0.0-86.0,,0.0,706.935,1.0,0.25,0.0,0.70781482,1.0,0.75,0.0,0.286095925,True,,5f11d481902ff50b23166de1,,3456266,84,,evan-feature22,full_rf_b,,0
59,3050,85,,,,1,1,1.0,1.0,0.0,1.0,,0.0-87.0,,1.0,650.26,1.0,0.25638190899999996,1.0,0.704088163,1.0,0.75,0.0,0.26872601399999996,True,,5f11d481902ff50b23166de1,,3466682,85,,evan-feature22,full_rf_b,,0
60,3051,86,,,,2,2,0.0,0.0,-1.0,0.0,,0.0-88.0,,0.0,736.94,0.0,0.271581126,1.0,0.669760107,0.0,0.733896663,0.0,0.273244572,True,,5f11d481902ff50b23166de1,,3477180,86,,evan-feature22,full_rf_b,,1
61,3052,87,,,,1,1,1.0,1.0,0.0,1.0,,0.0-89.0,,1.0,639.83,1.0,0.257144401,1.0,0.600575706,0.0,0.74488122,1.0,0.25,True,,5f11d481902ff50b23166de1,,3487585,87,,evan-feature22,full_rf_b,,1
62,3053,88,,,,1,1,0.0,1.0,0.0,1.0,,0.0-90.0,,1.0,991.725,0.0,0.25,1.0,0.616870026,1.0,0.723610234,0.0,0.25,True,,5f11d481902ff50b23166de1,,3498336,88,,evan-feature22,full_rf_b,,0
63,3054,89,,,,2,2,1.0,0.0,-1.0,0.0,,0.0-91.0,,-1.0,580.7,1.0,0.25,0.0,0.583540187,1.0,0.7041042559999999,0.0,0.285961995,True,,5f11d481902ff50b23166de1,,3508683,89,,evan-feature22,full_rf_b,,1
64,3055,90,,,,2,2,1.0,0.0,-1.0,0.0,,0.0-92.0,,-1.0,675.505,0.0,0.27254536,0.0,0.53875765,1.0,0.693783448,0.0,0.284961652,True,,5f11d481902ff50b23166de1,,3519119,90,,evan-feature22,full_rf_b,,0
65,3056,91,,,,1,1,0.0,0.0,-1.0,0.0,,0.0-93.0,,0.0,759.045,0.0,0.25,0.0,0.548431252,1.0,0.734221895,0.0,0.279445214,True,,5f11d481902ff50b23166de1,,3529643,91,,evan-feature22,full_rf_b,,1
66,3057,92,,,,1,1,0.0,0.0,0.0,1.0,,0.0-94.0,,0.0,461.535,0.0,0.258640684,0.0,0.545878066,1.0,0.725245965,1.0,0.31487537,True,,5f11d481902ff50b23166de1,,3539867,92,,evan-feature22,full_rf_b,,0
67,3058,93,,,,1,1,1.0,1.0,0.0,1.0,,0.0-95.0,,1.0,843.97,1.0,0.251103711,1.0,0.5776290629999999,0.0,0.696320133,0.0,0.317831047,True,,5f11d481902ff50b23166de1,,3550476,93,,evan-feature22,full_rf_b,,0
68,3059,94,,,,1,1,0.0,1.0,0.0,1.0,,0.0-96.0,,1.0,480.415,0.0,0.276630292,1.0,0.617329858,1.0,0.73838088,0.0,0.261471582,True,,5f11d481902ff50b23166de1,,3560721,94,,evan-feature22,full_rf_b,,0
69,3060,95,,,,1,1,0.0,0.0,0.0,1.0,,0.0-97.0,,0.0,910.62,0.0,0.297716424,0.0,0.618863717,1.0,0.7402358259999999,0.0,0.262600834,True,,5f11d481902ff50b23166de1,,3571391,95,,evan-feature22,full_rf_b,,0
70,3061,96,,,,1,1,0.0,1.0,-1.0,0.0,,0.0-98.0,,0.0,1049.68,0.0,0.290935512,1.0,0.695370945,0.0,0.706570507,1.0,0.280030553,True,,5f11d481902ff50b23166de1,,3582204,96,,evan-feature22,full_rf_b,,0
71,3062,97,,,,1,1,0.0,0.0,0.0,1.0,,0.0-99.0,,0.0,1078.37,0.0,0.25,0.0,0.6465277079999999,0.0,0.67766682,0.0,0.25,True,,5f11d481902ff50b23166de1,,3593045,97,,evan-feature22,full_rf_b,,0
72,3063,98,,,,1,1,0.0,1.0,-1.0,0.0,,0.0-100.0,,0.0,883.725,0.0,0.26463816,1.0,0.636100213,1.0,0.646048507,0.0,0.265607101,True,,5f11d481902ff50b23166de1,,3603694,98,,evan-feature22,full_rf_b,,0
73,3064,99,,,,1,1,1.0,1.0,-1.0,0.0,,0.0-101.0,,-1.0,408.2,1.0,0.314340707,1.0,0.667795927,1.0,0.613630805,0.0,0.25,True,,5f11d481902ff50b23166de1,,3613868,99,,evan-feature22,full_rf_b,,0
74,3065,100,,,,1,1,0.0,1.0,0.0,1.0,,0.0-102.0,,1.0,665.34,0.0,0.28685784,1.0,0.6622549529999999,1.0,0.652154117,0.0,0.25,True,,5f11d481902ff50b23166de1,,3624297,100,,evan-feature22,full_rf_b,,0
75,3066,101,,,,1,1,1.0,0.0,0.0,1.0,,0.0-103.0,,0.0,524.885,1.0,0.304106554,0.0,0.631289538,1.0,0.707041942,0.0,0.29314237,True,,5f11d481902ff50b23166de1,,3634583,101,,evan-feature22,full_rf_b,,0
76,3067,102,,,,1,1,0.0,1.0,0.0,1.0,,0.0-104.0,,1.0,1140.875,0.0,0.304806932,1.0,0.571167718,0.0,0.680472346,0.0,0.25,True,,5f11d481902ff50b23166de1,,3645489,102,,evan-feature22,full_rf_b,,0
77,3068,103,,,,1,1,0.0,1.0,0.0,1.0,,0.0-105.0,,1.0,569.22,0.0,0.37919861,1.0,0.5724849710000001,1.0,0.705638003,0.0,0.30179300600000003,True,,5f11d481902ff50b23166de1,,3655822,103,,evan-feature22,full_rf_b,,0
78,3069,104,,,,1,1,0.0,0.0,0.0,1.0,,0.0-106.0,,0.0,1143.515,0.0,0.464277969,0.0,0.554034373,0.0,0.7372627340000001,0.0,0.264699741,True,,5f11d481902ff50b23166de1,,3666726,104,,evan-feature22,full_rf_b,,0
79,3070,105,,,,1,1,1.0,1.0,0.0,1.0,,0.0-107.0,,1.0,534.455,1.0,0.465104323,1.0,0.530793115,1.0,0.75,0.0,0.31683071,True,,5f11d481902ff50b23166de1,,3677025,105,,evan-feature22,full_rf_b,,0
80,3071,106,,,,1,1,0.0,1.0,-1.0,0.0,,0.0-108.0,,0.0,678.33,0.0,0.465104323,1.0,0.530793115,1.0,0.75,1.0,0.31683071,True,,5f11d481902ff50b23166de1,,3687467,106,,evan-feature22,full_rf_b,,0
81,3072,107,,,,2,2,1.0,0.0,-1.0,0.0,,0.0-109.0,,-1.0,1589.77,0.0,0.46833986,1.0,0.570249239,1.0,0.7244472590000001,0.0,0.364114163,True,,5f11d481902ff50b23166de1,,3698821,107,,evan-feature22,full_rf_b,,1
82,3073,108,,,,1,1,0.0,1.0,-1.0,0.0,,0.0-110.0,,0.0,1225.0,0.0,0.445444024,1.0,0.649673355,1.0,0.6845441290000001,0.0,0.300660449,True,,5f11d481902ff50b23166de1,,3709808,108,,evan-feature22,full_rf_b,,1
83,3074,109,,,,1,1,0.0,1.0,-1.0,0.0,,0.0-111.0,,0.0,816.78,0.0,0.39909721299999995,1.0,0.6715179509999999,1.0,0.742310028,0.0,0.35496088299999995,True,,5f11d481902ff50b23166de1,,3720391,109,,evan-feature22,full_rf_b,,0
84,3075,110,,,,1,1,0.0,1.0,0.0,1.0,,0.0-112.0,,1.0,317.975,0.0,0.37956104799999996,1.0,0.694725302,1.0,0.7181651309999999,0.0,0.38726906299999997,True,,5f11d481902ff50b23166de1,,3730475,110,,evan-feature22,full_rf_b,,0
85,3076,111,,,,1,1,0.0,1.0,0.0,1.0,,0.0-113.0,,1.0,476.285,0.0,0.404995034,1.0,0.724375412,1.0,0.6910946859999999,0.0,0.387187347,True,,5f11d481902ff50b23166de1,,3740715,111,,evan-feature22,full_rf_b,,0
86,3077,112,,,,1,1,0.0,0.0,-1.0,0.0,,0.0-114.0,,0.0,918.045,0.0,0.461740803,0.0,0.75,0.0,0.75,1.0,0.34872038200000005,True,,5f11d481902ff50b23166de1,,3751396,112,,evan-feature22,full_rf_b,,0
87,3078,113,,,,1,1,0.0,0.0,-1.0,0.0,,0.0-115.0,,0.0,445.46,0.0,0.43821380600000004,0.0,0.738833273,1.0,0.728286963,0.0,0.399538128,True,,5f11d481902ff50b23166de1,,3761609,113,,evan-feature22,full_rf_b,,0
88,3079,114,,,,1,1,0.0,0.0,0.0,1.0,,0.0-116.0,,0.0,640.82,0.0,0.41709882,0.0,0.736666736,1.0,0.75,0.0,0.389095584,True,,5f11d481902ff50b23166de1,,3772011,114,,evan-feature22,full_rf_b,,0
89,3080,115,,,,1,1,0.0,1.0,0.0,1.0,,0.0-117.0,,1.0,823.02,0.0,0.39749009799999996,1.0,0.744320029,1.0,0.75,1.0,0.363848678,True,,5f11d481902ff50b23166de1,,3782597,115,,evan-feature22,full_rf_b,,0
90,3081,116,,,,1,1,0.0,1.0,-1.0,0.0,,0.0-118.0,,0.0,513.97,0.0,0.392653706,1.0,0.75,0.0,0.75,0.0,0.384386976,True,,5f11d481902ff50b23166de1,,3792874,116,,evan-feature22,full_rf_b,,0
91,3082,117,,,,1,1,0.0,1.0,0.0,1.0,,0.0-119.0,,1.0,375.745,0.0,0.31190902600000003,1.0,0.75,1.0,0.732413819,0.0,0.413082932,True,,5f11d481902ff50b23166de1,,3803015,117,,evan-feature22,full_rf_b,,0
92,3083,118,,,,1,1,1.0,1.0,-1.0,0.0,,0.0-120.0,,-1.0,579.725,1.0,0.366917648,1.0,0.740073855,0.0,0.75,1.0,0.352861979,True,,5f11d481902ff50b23166de1,,3813358,118,,evan-feature22,full_rf_b,,0
93,3084,119,,,,1,1,0.0,0.0,-1.0,0.0,,0.0-121.0,,0.0,506.615,0.0,0.3645172,0.0,0.721770713,0.0,0.75,0.0,0.404074511,True,,5f11d481902ff50b23166de1,,3823626,119,,evan-feature22,full_rf_b,,0
94,3085,120,,,,1,1,1.0,1.0,-1.0,0.0,,0.0-122.0,,-1.0,364.445,1.0,0.35205600299999995,1.0,0.68983859,1.0,0.739735447,1.0,0.366895945,True,,5f11d481902ff50b23166de1,,3833753,120,,evan-feature22,full_rf_b,,0
95,3086,121,,,,SLOW,SLOW,,,-1.0,0.0,,0.0-123.0,,-3.0,,1.0,0.40998722600000004,1.0,0.720859127,1.0,0.673854955,1.0,0.368528541,True,,5f11d481902ff50b23166de1,,3839558,121,,evan-feature22,full_rf_b,,1
96,3087,122,,,,1,1,0.0,1.0,-1.0,0.0,,0.0-124.0,,0.0,542.91,0.0,0.353625316,1.0,0.75,1.0,0.695605473,1.0,0.38303674200000004,True,,5f11d481902ff50b23166de1,,3849864,122,,evan-feature22,full_rf_b,,1
97,3088,123,,,,1,1,1.0,0.0,-1.0,0.0,,0.0-125.0,,-1.0,678.18,1.0,0.359216989,0.0,0.75,1.0,0.6987915090000001,1.0,0.35169046200000004,True,,5f11d481902ff50b23166de1,,3860302,123,,evan-feature22,full_rf_b,,0
98,3089,124,,,,1,1,0.0,1.0,-1.0,0.0,,0.0-126.0,,0.0,752.165,0.0,0.35834496899999996,1.0,0.75,0.0,0.707067742,0.0,0.416763636,True,,5f11d481902ff50b23166de1,,3870817,124,,evan-feature22,full_rf_b,,0
99,3090,125,,,,1,1,0.0,0.0,0.0,1.0,,0.0-127.0,,0.0,318.205,0.0,0.38741613799999997,0.0,0.7177369570000001,1.0,0.734902455,0.0,0.49438664299999996,True,,5f11d481902ff50b23166de1,,3880897,125,,evan-feature22,full_rf_b,,0
100,3091,126,,,,1,1,0.0,1.0,-1.0,0.0,,0.0-128.0,,0.0,670.885,0.0,0.405255252,1.0,0.7300466640000001,1.0,0.7027748070000001,0.0,0.504359668,True,,5f11d481902ff50b23166de1,,3891331,126,,evan-feature22,full_rf_b,,0
101,3092,127,,,,2,2,1.0,1.0,-1.0,0.0,,0.0-129.0,,-1.0,706.08,0.0,0.40697073,1.0,0.7260142190000001,1.0,0.724461982,1.0,0.522779179,True,,5f11d481902ff50b23166de1,,3901807,127,,evan-feature22,full_rf_b,,1
102,3093,128,,,,1,1,0.0,1.0,-1.0,0.0,,0.0-130.0,,0.0,418.865,0.0,0.43906215299999996,1.0,0.7252802340000001,1.0,0.719079934,0.0,0.5712990579999999,True,,5f11d481902ff50b23166de1,,3911989,128,,evan-feature22,full_rf_b,,1
103,3094,129,,,,1,1,1.0,1.0,0.0,1.0,,0.0-131.0,,1.0,367.815,1.0,0.4076705,1.0,0.73280499,1.0,0.681313127,1.0,0.523891346,True,,5f11d481902ff50b23166de1,,3922121,129,,evan-feature22,full_rf_b,,0
104,3095,130,,,,1,1,0.0,1.0,0.0,1.0,,0.0-132.0,,1.0,1181.1,0.0,0.399102911,1.0,0.730498344,1.0,0.661080239,0.0,0.46742603,True,,5f11d481902ff50b23166de1,,3933066,130,,evan-feature22,full_rf_b,,0
105,3096,131,,,,1,1,0.0,1.0,0.0,1.0,,0.0-133.0,,1.0,300.485,0.0,0.356477282,1.0,0.712296395,1.0,0.641812684,0.0,0.44868414,True,,5f11d481902ff50b23166de1,,3943135,131,,evan-feature22,full_rf_b,,0
106,3097,132,,,,1,1,0.0,1.0,-1.0,0.0,,0.0-134.0,,0.0,389.665,0.0,0.462760722,1.0,0.692349322,1.0,0.700947931,0.0,0.394680266,True,,5f11d481902ff50b23166de1,,3953290,132,,evan-feature22,full_rf_b,,0
107,3098,133,,,,1,1,0.0,1.0,-1.0,0.0,,0.0-135.0,,0.0,312.96,0.0,0.422306413,1.0,0.718375916,1.0,0.706340917,1.0,0.367787185,True,,5f11d481902ff50b23166de1,,3963370,133,,evan-feature22,full_rf_b,,0
108,3100,135,,,,2,2,0.0,1.0,-1.0,0.0,,0.0-137.0,,0.0,3259.385,0.0,0.4582233,0.0,0.643834117,0.0,0.75,1.0,0.39615823299999997,True,,5f11d481902ff50b23166de1,,3994896,135,,evan-feature22,full_rf_b,,1
109,3101,136,,,,1,1,0.0,1.0,-1.0,0.0,,0.0-138.0,,0.0,1108.84,0.0,0.43813437899999996,1.0,0.651283804,1.0,0.729674191,0.0,0.37711048,True,,5f11d481902ff50b23166de1,,4005770,136,,evan-feature22,full_rf_b,,1
110,3102,137,,,,1,1,0.0,1.0,-1.0,0.0,,0.0-139.0,,0.0,295.195,0.0,0.471199094,1.0,0.6470010979999999,1.0,0.715008097,0.0,0.410656191,True,,5f11d481902ff50b23166de1,,4015832,137,,evan-feature22,full_rf_b,,0
111,3103,138,,,,1,1,0.0,1.0,-1.0,0.0,,0.0-140.0,,0.0,310.49,0.0,0.42486406,1.0,0.629771829,1.0,0.6550939960000001,1.0,0.459093873,True,,5f11d481902ff50b23166de1,,4025910,138,,evan-feature22,full_rf_b,,0
112,3104,139,,,,1,1,1.0,1.0,-1.0,0.0,,0.0-141.0,,-1.0,716.785,1.0,0.4803197,1.0,0.645842715,1.0,0.6421749920000001,0.0,0.443092151,True,,5f11d481902ff50b23166de1,,4036389,139,,evan-feature22,full_rf_b,,0
113,3105,140,,,,1,1,0.0,1.0,0.0,1.0,,0.0-142.0,,1.0,362.25,0.0,0.521848997,1.0,0.735801074,1.0,0.6691348460000001,0.0,0.45259351600000003,True,,5f11d481902ff50b23166de1,,4046516,140,,evan-feature22,full_rf_b,,0
114,3106,141,,,,1,1,1.0,1.0,-1.0,0.0,,0.0-143.0,,-1.0,1007.01,1.0,0.49565621299999996,1.0,0.742400847,1.0,0.661512553,0.0,0.483110831,True,,5f11d481902ff50b23166de1,,4057293,141,,evan-feature22,full_rf_b,,0
115,3107,142,,,,1,1,0.0,1.0,-1.0,0.0,,0.0-144.0,,0.0,577.96,0.0,0.521564361,1.0,0.731078632,0.0,0.6774886809999999,0.0,0.483263956,True,,5f11d481902ff50b23166de1,,4067635,142,,evan-feature22,full_rf_b,,0
116,3108,143,,,,1,1,0.0,0.0,-1.0,0.0,,0.0-145.0,,0.0,851.115,0.0,0.558893102,0.0,0.719810023,1.0,0.67461031,1.0,0.499349834,True,,5f11d481902ff50b23166de1,,4078245,143,,evan-feature22,full_rf_b,,0
117,3109,144,,,,1,1,0.0,1.0,-1.0,0.0,,0.0-146.0,,0.0,786.02,0.0,0.611031046,1.0,0.75,1.0,0.688072995,0.0,0.5321422729999999,True,,5f11d481902ff50b23166de1,,4088799,144,,evan-feature22,full_rf_b,,0
118,3110,145,,,,1,1,1.0,1.0,0.0,1.0,,0.0-147.0,,1.0,505.085,1.0,0.633223941,1.0,0.713567728,1.0,0.75,0.0,0.48185314700000004,True,,5f11d481902ff50b23166de1,,4099074,145,,evan-feature22,full_rf_b,,0
119,3111,146,,,,1,1,0.0,1.0,-1.0,0.0,,0.0-148.0,,0.0,396.57,0.0,0.664001694,1.0,0.705509768,0.0,0.75,0.0,0.500211065,True,,5f11d481902ff50b23166de1,,4109234,146,,evan-feature22,full_rf_b,,0
120,3112,147,,,,1,1,1.0,1.0,-1.0,0.0,,0.0-149.0,,-1.0,938.03,1.0,0.664001694,1.0,0.705509768,1.0,0.75,0.0,0.500211065,True,,5f11d481902ff50b23166de1,,4119933,147,,evan-feature22,full_rf_b,,0
121,3113,148,,,,1,1,1.0,0.0,-1.0,0.0,,0.0-150.0,,-1.0,493.735,1.0,0.696508041,0.0,0.71066027,1.0,0.717028709,1.0,0.49792991,True,,5f11d481902ff50b23166de1,,4130189,148,,evan-feature22,full_rf_b,,0
122,3114,149,,,,1,1,1.0,1.0,0.0,1.0,,0.0-151.0,,1.0,434.88,1.0,0.699883272,1.0,0.75,0.0,0.713543895,0.0,0.496962643,True,,5f11d481902ff50b23166de1,,4140388,149,,evan-feature22,full_rf_b,,0
123,3115,150,,,,1,1,0.0,1.0,0.0,1.0,,0.0-152.0,,1.0,306.575,0.0,0.741163419,1.0,0.75,1.0,0.64691024,1.0,0.513858197,True,,5f11d481902ff50b23166de1,,4150459,150,,evan-feature22,full_rf_b,,0
124,3116,151,,,,1,1,1.0,1.0,0.0,1.0,,0.0-153.0,,1.0,1154.19,1.0,0.75,1.0,0.70816558,0.0,0.594499079,1.0,0.48502124,True,,5f11d481902ff50b23166de1,,4161380,151,,evan-feature22,full_rf_b,,0
125,3117,152,,,,1,1,0.0,1.0,-1.0,0.0,,0.0-154.0,,0.0,1968.26,0.0,0.75,1.0,0.721848901,0.0,0.62197249,0.0,0.48263586399999997,True,,5f11d481902ff50b23166de1,,4173112,152,,evan-feature22,full_rf_b,,0
126,3118,153,,,,1,1,1.0,1.0,-1.0,0.0,,0.0-155.0,,-1.0,458.06,1.0,0.75,1.0,0.74813071,1.0,0.584357161,1.0,0.411477782,True,,5f11d481902ff50b23166de1,,4183354,153,,evan-feature22,full_rf_b,,0
127,3119,154,,,,1,1,0.0,1.0,-1.0,0.0,,0.0-156.0,,0.0,656.915,0.0,0.75,1.0,0.75,1.0,0.52287236,1.0,0.488290656,True,,5f11d481902ff50b23166de1,,4193774,154,,evan-feature22,full_rf_b,,0
128,3120,155,,,,1,1,0.0,1.0,-1.0,0.0,,0.0-157.0,,0.0,340.0,0.0,0.75,1.0,0.75,1.0,0.544321581,1.0,0.53143059,True,,5f11d481902ff50b23166de1,,4203875,155,,evan-feature22,full_rf_b,,0
129,3121,156,,,,1,1,1.0,1.0,-1.0,0.0,,0.0-158.0,,-1.0,375.265,1.0,0.726754564,1.0,0.75,1.0,0.5129306370000001,1.0,0.530592445,True,,5f11d481902ff50b23166de1,,4214015,156,,evan-feature22,full_rf_b,,0
130,3122,157,,,,1,1,1.0,1.0,0.0,1.0,,0.0-159.0,,1.0,366.4,1.0,0.75,1.0,0.7392590729999999,1.0,0.479875835,1.0,0.547007051,True,,5f11d481902ff50b23166de1,,4224147,157,,evan-feature22,full_rf_b,,0
131,3123,158,,,,1,1,1.0,0.0,0.0,1.0,,0.0-160.0,,0.0,819.305,1.0,0.75,0.0,0.7393376979999999,1.0,0.546045419,0.0,0.541267353,True,,5f11d481902ff50b23166de1,,4234733,158,,evan-feature22,full_rf_b,,0
132,3124,159,,,,1,1,0.0,1.0,-1.0,0.0,,0.0-161.0,,0.0,679.77,0.0,0.75,1.0,0.75,1.0,0.485725895,0.0,0.527625395,True,,5f11d481902ff50b23166de1,,4245174,159,,evan-feature22,full_rf_b,,0
133,3125,160,,,,1,1,1.0,1.0,0.0,1.0,,0.0-162.0,,1.0,524.605,1.0,0.75,1.0,0.725087974,0.0,0.488603595,1.0,0.504019206,True,,5f11d481902ff50b23166de1,,4255464,160,,evan-feature22,full_rf_b,,0
134,3126,161,,,,1,1,1.0,1.0,-1.0,0.0,,0.0-163.0,,-1.0,565.04,1.0,0.745504295,1.0,0.75,0.0,0.452379914,0.0,0.50131194,True,,5f11d481902ff50b23166de1,,4265791,161,,evan-feature22,full_rf_b,,0
135,3127,162,,,,1,1,1.0,1.0,0.0,1.0,,0.0-164.0,,1.0,319.285,1.0,0.728513874,1.0,0.75,0.0,0.44125567200000004,0.0,0.531454591,True,,5f11d481902ff50b23166de1,,4275883,162,,evan-feature22,full_rf_b,,0
136,3128,163,,,,1,1,1.0,1.0,-1.0,0.0,,0.0-165.0,,-1.0,811.2,1.0,0.73790804,1.0,0.75,0.0,0.413036656,1.0,0.524619035,True,,5f11d481902ff50b23166de1,,4286459,163,,evan-feature22,full_rf_b,,0
137,3129,164,,,,SLOW,SLOW,,,-1.0,0.0,,0.0-166.0,,-3.0,,1.0,0.7080961309999999,1.0,0.708666865,0.0,0.431915581,0.0,0.481819489,True,,5f11d481902ff50b23166de1,,4292263,164,,evan-feature22,full_rf_b,,1
138,3130,165,,,,1,1,1.0,1.0,-1.0,0.0,,0.0-167.0,,-1.0,328.33,1.0,0.721378003,1.0,0.71605913,1.0,0.36642387,1.0,0.5036739929999999,True,,5f11d481902ff50b23166de1,,4302357,165,,evan-feature22,full_rf_b,,1
139,3131,166,,,,1,1,1.0,1.0,0.0,1.0,,0.0-168.0,,1.0,314.965,1.0,0.7340618959999999,1.0,0.699323252,0.0,0.35298046299999997,0.0,0.511241692,True,,5f11d481902ff50b23166de1,,4312434,166,,evan-feature22,full_rf_b,,0
140,3132,167,,,,1,1,1.0,1.0,0.0,1.0,,0.0-169.0,,1.0,947.005,1.0,0.75,1.0,0.70412698,0.0,0.380734814,1.0,0.529580116,True,,5f11d481902ff50b23166de1,,4323146,167,,evan-feature22,full_rf_b,,0
141,3133,168,,,,1,1,1.0,1.0,0.0,1.0,,0.0-170.0,,1.0,995.9,1.0,0.7436654909999999,1.0,0.711182751,0.0,0.41125331,1.0,0.49554405,True,,5f11d481902ff50b23166de1,,4333909,168,,evan-feature22,full_rf_b,,0
142,3134,169,,,,1,1,1.0,1.0,-1.0,0.0,,0.0-171.0,,-1.0,365.315,1.0,0.731607915,1.0,0.651774583,0.0,0.35688023,1.0,0.45194491600000003,True,,5f11d481902ff50b23166de1,,4344039,169,,evan-feature22,full_rf_b,,0
143,3135,170,,,,1,1,0.0,0.0,0.0,1.0,,0.0-172.0,,0.0,412.07,0.0,0.75,0.0,0.75,1.0,0.283145374,1.0,0.528608005,True,,5f11d481902ff50b23166de1,,4354209,170,,evan-feature22,full_rf_b,,0
144,3136,171,,,,1,1,1.0,1.0,-1.0,0.0,,0.0-173.0,,-1.0,339.59,1.0,0.7491416890000001,1.0,0.7423785959999999,1.0,0.29135870399999997,1.0,0.498888318,True,,5f11d481902ff50b23166de1,,4364311,171,,evan-feature22,full_rf_b,,0
145,3137,172,,,,2,2,1.0,1.0,0.0,1.0,,0.0-174.0,,1.0,432.77,1.0,0.708569387,1.0,0.717682277,1.0,0.294421699,1.0,0.493838163,True,,5f11d481902ff50b23166de1,,4374513,172,,evan-feature22,full_rf_b,,1
146,3138,173,,,,2,2,1.0,1.0,-1.0,0.0,,0.0-175.0,,-1.0,701.135,0.0,0.75,0.0,0.7383382159999999,1.0,0.356098707,1.0,0.442533405,True,,5f11d481902ff50b23166de1,,4384978,173,,evan-feature22,full_rf_b,,0
147,3139,174,,,,1,1,1.0,1.0,-1.0,0.0,,0.0-176.0,,-1.0,384.89,1.0,0.744527075,1.0,0.75,1.0,0.334127506,0.0,0.393165805,True,,5f11d481902ff50b23166de1,,4395127,174,,evan-feature22,full_rf_b,,1
148,3140,175,,,,1,1,1.0,1.0,-1.0,0.0,,0.0-177.0,,-1.0,988.45,1.0,0.75,1.0,0.75,0.0,0.33571021799999995,1.0,0.350393962,True,,5f11d481902ff50b23166de1,,4405881,175,,evan-feature22,full_rf_b,,0
149,3141,176,,,,1,1,1.0,1.0,0.0,1.0,,0.0-178.0,,1.0,734.79,1.0,0.75,1.0,0.75,0.0,0.313628297,0.0,0.36349657399999996,True,,5f11d481902ff50b23166de1,,4416383,176,,evan-feature22,full_rf_b,,0
150,3142,177,,,,1,1,1.0,1.0,-1.0,0.0,,0.0-179.0,,-1.0,419.78,1.0,0.75,1.0,0.734284182,0.0,0.262667667,0.0,0.380199119,True,,5f11d481902ff50b23166de1,,4426567,177,,evan-feature22,full_rf_b,,0
151,3143,178,,,,1,1,1.0,0.0,-1.0,0.0,,0.0-180.0,,-1.0,680.015,1.0,0.75,0.0,0.75,0.0,0.25,0.0,0.394494013,True,,5f11d481902ff50b23166de1,,4437014,178,,evan-feature22,full_rf_b,,0
152,3144,179,,,,1,1,1.0,0.0,-1.0,0.0,,0.0-181.0,,-1.0,457.11,1.0,0.722298145,0.0,0.7357822340000001,0.0,0.25,1.0,0.319142121,True,,5f11d481902ff50b23166de1,,4447237,179,,evan-feature22,full_rf_b,,0
153,3145,180,,,,1,1,1.0,1.0,-1.0,0.0,,0.0-182.0,,-1.0,415.185,1.0,0.73149275,1.0,0.724276446,1.0,0.305856907,0.0,0.281315057,True,,5f11d481902ff50b23166de1,,4457416,180,,evan-feature22,full_rf_b,,0
154,3146,181,,,,2,2,0.0,0.0,-1.0,0.0,,0.0-183.0,,0.0,651.005,1.0,0.7458732690000001,0.0,0.7336382459999999,0.0,0.272571964,0.0,0.266021999,True,,5f11d481902ff50b23166de1,,4467829,181,,evan-feature22,full_rf_b,,1
155,3147,182,,,,2,2,1.0,1.0,0.0,1.0,,0.0-184.0,,1.0,293.21,1.0,0.705579037,1.0,0.720778292,1.0,0.320238144,1.0,0.30971744,True,,5f11d481902ff50b23166de1,,4477888,182,,evan-feature22,full_rf_b,,0
156,3148,183,,,,2,2,0.0,0.0,0.0,1.0,,0.0-185.0,,0.0,430.14,1.0,0.700425648,1.0,0.7198784009999999,0.0,0.272590393,0.0,0.304182931,True,,5f11d481902ff50b23166de1,,4488083,183,,evan-feature22,full_rf_b,,0
157,3149,184,,,,2,2,0.0,1.0,0.0,1.0,,0.0-186.0,,1.0,523.22,1.0,0.735590785,1.0,0.722714973,0.0,0.25,1.0,0.323421091,True,,5f11d481902ff50b23166de1,,4498368,184,,evan-feature22,full_rf_b,,0
158,3150,185,,,,2,2,0.0,1.0,0.0,1.0,,0.0-187.0,,1.0,660.505,1.0,0.724807662,0.0,0.63146213,0.0,0.36836492600000004,1.0,0.34592153299999995,True,,5f11d481902ff50b23166de1,,4508792,185,,evan-feature22,full_rf_b,,0
159,3151,186,,,,2,2,0.0,1.0,-1.0,0.0,,0.0-188.0,,0.0,343.21,0.0,0.7352796909999999,1.0,0.555111392,0.0,0.36003922,1.0,0.31433779999999995,True,,5f11d481902ff50b23166de1,,4518900,186,,evan-feature22,full_rf_b,,0
160,3152,187,notice,,,,,,,,,,0.0-189.0,"{""Q0"":""The likelihoods of finding a gold alien switched doors.""}",,45797.0,,,,,,,,,True,,5f11d481902ff50b23166de1,,4564699,187,Q,survey-text,full_rf_b,,1
161,3153,188,track1,,[0],,,,,,,,0.0-190.0,"{""Q0"":""yes""}",,4433.0,,,,,,,,,True,,5f11d481902ff50b23166de1,,4569136,188,Q,evan-quiz,full_rf_b,,1
162,3154,189,track2,,[2],,,,,,,,0.0-191.0,"{""Q0"":""N/A""}",,6305.0,,,,,,,,,True,,5f11d481902ff50b23166de1,,4575447,189,Q,evan-quiz,full_rf_b,,1
163,3155,190,strat,,,,,,,,,,0.0-192.0,"{""Q0"":""The left door yielded me the most points for the first half of the study, then the right door for the second half.""}",,38187.0,,,,,,,,,True,,5f11d481902ff50b23166de1,,4613643,190,Q,survey-text,full_rf_b,,1
