,index,Unnamed: 0,Q_name,button_pressed,choice_idxs,chosen_pos,chosen_state,chosen_state_f_1_outcome,chosen_state_f_2_outcome,f_1_reward,f_2_reward,incor_questions,internal_node_id,responses,reward_received,rt,s_1_f_1_outcome,s_1_f_1_prob,s_1_f_2_outcome,s_1_f_2_prob,s_2_f_1_outcome,s_2_f_1_prob,s_2_f_2_outcome,s_2_f_2_prob,safe_first,stimulus,subjectID,success,time_elapsed,trial_index,trial_num,trial_type,version,view_history,switching
0,36612,25,,,,1,1,1.0,0.0,-1.0,0.0,,0.0-27.0,,-1.0,1024.01,1.0,0.6,0.0,0.6,0.0,0.4,0.0,0.4,False,,5ac0eabce1546900019bd744,,681817,25,,evan-feature22,full_pf_b,,0
1,36613,26,,,,2,2,0.0,1.0,-1.0,0.0,,0.0-28.0,,0.0,105.1499997,1.0,0.608053294,1.0,0.63424552,0.0,0.397152172,1.0,0.347069101,False,,5ac0eabce1546900019bd744,,691755,26,,evan-feature22,full_pf_b,,1
2,36614,27,,,,2,2,1.0,1.0,-1.0,0.0,,0.0-29.0,,-1.0,218.6100003,1.0,0.642237155,0.0,0.648566321,1.0,0.389407674,1.0,0.285525717,False,,5ac0eabce1546900019bd744,,701792,27,,evan-feature22,full_pf_b,,0
3,36615,28,,,,1,1,1.0,0.0,-1.0,0.0,,0.0-30.0,,-1.0,503.48500020000006,1.0,0.661086576,0.0,0.630492543,0.0,0.399058924,1.0,0.25,False,,5ac0eabce1546900019bd744,,712143,28,,evan-feature22,full_pf_b,,1
4,36616,29,,,,1,1,0.0,1.0,0.0,1.0,,0.0-31.0,,1.0,136.74499980000002,0.0,0.631324137,1.0,0.6269842929999999,0.0,0.38734784299999997,0.0,0.25,False,,5ac0eabce1546900019bd744,,722130,29,,evan-feature22,full_pf_b,,0
5,36617,30,,,,1,1,1.0,0.0,0.0,1.0,,0.0-32.0,,0.0,486.54500020000006,1.0,0.6381991370000001,0.0,0.68987999,1.0,0.384107265,1.0,0.271332943,False,,5ac0eabce1546900019bd744,,732416,30,,evan-feature22,full_pf_b,,0
6,36618,31,,,,2,2,0.0,1.0,-1.0,0.0,,0.0-33.0,,0.0,696.6050002000001,0.0,0.66034901,1.0,0.742641349,0.0,0.360225629,1.0,0.25,False,,5ac0eabce1546900019bd744,,742943,31,,evan-feature22,full_pf_b,,1
7,36619,32,,,,2,2,0.0,0.0,-1.0,0.0,,0.0-34.0,,0.0,1135.51,0.0,0.638612418,1.0,0.75,0.0,0.367273939,0.0,0.25,False,,5ac0eabce1546900019bd744,,753879,32,,evan-feature22,full_pf_b,,0
8,36620,33,,,,1,1,1.0,0.0,0.0,1.0,,0.0-35.0,,0.0,1616.685,1.0,0.624340629,0.0,0.75,0.0,0.425829545,0.0,0.25,False,,5ac0eabce1546900019bd744,,765313,33,,evan-feature22,full_pf_b,,1
9,36621,34,,,,2,2,0.0,1.0,0.0,1.0,,0.0-36.0,,1.0,790.5700002,1.0,0.621999804,1.0,0.75,0.0,0.368609357,1.0,0.25,False,,5ac0eabce1546900019bd744,,775961,34,,evan-feature22,full_pf_b,,1
10,36622,35,,,,1,1,1.0,1.0,-1.0,0.0,,0.0-37.0,,-1.0,1234.915,1.0,0.62666403,1.0,0.75,0.0,0.311151498,0.0,0.25,False,,5ac0eabce1546900019bd744,,787044,35,,evan-feature22,full_pf_b,,1
11,36623,36,,,,1,1,1.0,1.0,0.0,1.0,,0.0-38.0,,1.0,158.4949996,1.0,0.6819650009999999,1.0,0.75,1.0,0.310763048,0.0,0.25,False,,5ac0eabce1546900019bd744,,797061,36,,evan-feature22,full_pf_b,,0
12,36624,37,,,,2,2,0.0,1.0,-1.0,0.0,,0.0-39.0,,0.0,545.7949997000001,1.0,0.740626951,1.0,0.75,0.0,0.25,1.0,0.25,False,,5ac0eabce1546900019bd744,,807458,37,,evan-feature22,full_pf_b,,1
13,36625,38,,,,1,1,1.0,1.0,-1.0,0.0,,0.0-40.0,,-1.0,606.7500003,1.0,0.739599242,1.0,0.742034978,0.0,0.25397114600000004,0.0,0.25,False,,5ac0eabce1546900019bd744,,817929,38,,evan-feature22,full_pf_b,,1
14,36626,39,,,,1,1,1.0,1.0,-1.0,0.0,,0.0-41.0,,-1.0,890.8200002999998,1.0,0.732341315,1.0,0.72735643,0.0,0.25,0.0,0.25,False,,5ac0eabce1546900019bd744,,828611,39,,evan-feature22,full_pf_b,,0
15,36627,40,,,,1,1,1.0,1.0,-1.0,0.0,,0.0-42.0,,-1.0,1141.145,1.0,0.7062287770000001,1.0,0.75,0.0,0.29002151,0.0,0.288256649,False,,5ac0eabce1546900019bd744,,839573,40,,evan-feature22,full_pf_b,,0
16,36628,41,,,,1,1,0.0,1.0,-1.0,0.0,,0.0-43.0,,0.0,542.7200002999999,0.0,0.7086029209999999,1.0,0.75,0.0,0.274129113,0.0,0.262851608,False,,5ac0eabce1546900019bd744,,849966,41,,evan-feature22,full_pf_b,,0
17,36629,42,,,,1,1,0.0,0.0,-1.0,0.0,,0.0-44.0,,0.0,600.7449999,0.0,0.669189651,0.0,0.727614338,0.0,0.298444036,1.0,0.296944518,False,,5ac0eabce1546900019bd744,,860362,42,,evan-feature22,full_pf_b,,0
18,36630,43,,,,2,2,0.0,1.0,-1.0,0.0,,0.0-45.0,,0.0,1498.92,1.0,0.6819912929999999,1.0,0.7179434290000001,0.0,0.265003961,1.0,0.28157921199999997,False,,5ac0eabce1546900019bd744,,871655,43,,evan-feature22,full_pf_b,,1
19,36631,44,,,,2,2,0.0,0.0,0.0,1.0,,0.0-46.0,,0.0,1152.45,0.0,0.665275002,1.0,0.723065271,0.0,0.260414971,0.0,0.30973870000000003,False,,5ac0eabce1546900019bd744,,882599,44,,evan-feature22,full_pf_b,,0
20,36632,45,,,,2,2,1.0,0.0,-1.0,0.0,,0.0-47.0,,-1.0,3343.07,1.0,0.6660593260000001,1.0,0.728032907,1.0,0.30922817,0.0,0.338778608,False,,5ac0eabce1546900019bd744,,895770,45,,evan-feature22,full_pf_b,,0
21,36633,46,,,,2,2,0.0,0.0,-1.0,0.0,,0.0-48.0,,0.0,524.7750003000001,0.0,0.702068785,0.0,0.6528750879999999,0.0,0.287329608,0.0,0.35789613200000003,False,,5ac0eabce1546900019bd744,,906116,46,,evan-feature22,full_pf_b,,0
22,36634,47,,,,1,1,1.0,1.0,-1.0,0.0,,0.0-49.0,,-1.0,1360.615,1.0,0.651939787,1.0,0.636725589,1.0,0.284834488,1.0,0.358563756,False,,5ac0eabce1546900019bd744,,917280,47,,evan-feature22,full_pf_b,,1
23,36635,48,,,,1,1,1.0,1.0,0.0,1.0,,0.0-50.0,,1.0,532.075,1.0,0.67573929,1.0,0.612550049,0.0,0.37130387600000003,0.0,0.383542402,False,,5ac0eabce1546900019bd744,,927627,48,,evan-feature22,full_pf_b,,0
24,36636,49,,,,1,1,1.0,1.0,0.0,1.0,,0.0-51.0,,1.0,534.06,1.0,0.620753801,1.0,0.60513644,0.0,0.385529434,1.0,0.340361743,False,,5ac0eabce1546900019bd744,,937982,49,,evan-feature22,full_pf_b,,0
25,36637,50,,,,2,2,0.0,0.0,0.0,1.0,,0.0-52.0,,0.0,794.6350002,1.0,0.673564893,1.0,0.672437924,0.0,0.292955382,0.0,0.337633795,False,,5ac0eabce1546900019bd744,,948592,50,,evan-feature22,full_pf_b,,1
26,36638,51,,,,2,2,0.0,0.0,-1.0,0.0,,0.0-53.0,,0.0,1636.165,0.0,0.6749427,0.0,0.724197502,0.0,0.32391132100000003,0.0,0.350995264,False,,5ac0eabce1546900019bd744,,960039,51,,evan-feature22,full_pf_b,,0
27,36639,52,,,,1,1,0.0,1.0,-1.0,0.0,,0.0-54.0,,0.0,1485.865,0.0,0.6940159379999999,1.0,0.75,0.0,0.31710554399999996,0.0,0.413450341,False,,5ac0eabce1546900019bd744,,971345,52,,evan-feature22,full_pf_b,,1
28,36640,53,,,,2,2,1.0,0.0,-1.0,0.0,,0.0-55.0,,-1.0,802.2399996,1.0,0.6916018270000001,1.0,0.69001187,1.0,0.261817804,0.0,0.40038635,False,,5ac0eabce1546900019bd744,,981962,53,,evan-feature22,full_pf_b,,1
29,36641,54,,,,2,2,0.0,1.0,-1.0,0.0,,0.0-56.0,,0.0,1083.15,1.0,0.641061544,1.0,0.71337992,0.0,0.277296461,1.0,0.47372791700000005,False,,5ac0eabce1546900019bd744,,992858,54,,evan-feature22,full_pf_b,,0
30,36642,55,,,,1,1,1.0,1.0,-1.0,0.0,,0.0-57.0,,-1.0,729.4349996000001,1.0,0.6082438520000001,1.0,0.708471106,0.0,0.28745137,1.0,0.564174476,False,,5ac0eabce1546900019bd744,,1003396,55,,evan-feature22,full_pf_b,,1
31,36643,56,,,,1,1,1.0,1.0,-1.0,0.0,,0.0-58.0,,-1.0,455.1499998,1.0,0.6051112120000001,1.0,0.7118147229999999,1.0,0.272390611,0.0,0.5595149939999999,False,,5ac0eabce1546900019bd744,,1013665,56,,evan-feature22,full_pf_b,,0
32,36644,57,,,,1,1,1.0,0.0,-1.0,0.0,,0.0-59.0,,-1.0,1555.64,1.0,0.582420852,0.0,0.635867583,0.0,0.31089574,0.0,0.5227206520000001,False,,5ac0eabce1546900019bd744,,1025036,57,,evan-feature22,full_pf_b,,0
33,36645,58,,,,1,1,0.0,1.0,0.0,1.0,,0.0-60.0,,1.0,679.6499997999999,0.0,0.623195575,1.0,0.655026044,0.0,0.25,0.0,0.560387538,False,,5ac0eabce1546900019bd744,,1035540,58,,evan-feature22,full_pf_b,,0
34,36646,59,,,,1,1,1.0,0.0,-1.0,0.0,,0.0-61.0,,-1.0,1360.35,1.0,0.601889598,0.0,0.678198724,0.0,0.25,1.0,0.559922936,False,,5ac0eabce1546900019bd744,,1046736,59,,evan-feature22,full_pf_b,,0
35,36647,60,,,,2,2,0.0,0.0,-1.0,0.0,,0.0-62.0,,0.0,456.2049997,1.0,0.601259914,1.0,0.704681482,0.0,0.33908969299999997,0.0,0.505003715,False,,5ac0eabce1546900019bd744,,1057005,60,,evan-feature22,full_pf_b,,1
36,36648,61,,,,2,2,1.0,0.0,-1.0,0.0,,0.0-63.0,,-1.0,666.2300001,1.0,0.59645454,1.0,0.710437172,1.0,0.327441879,0.0,0.391749613,False,,5ac0eabce1546900019bd744,,1067481,61,,evan-feature22,full_pf_b,,0
37,36649,62,,,,2,2,1.0,0.0,-1.0,0.0,,0.0-64.0,,-1.0,646.77,0.0,0.529473,0.0,0.636758527,1.0,0.301338063,0.0,0.365661481,False,,5ac0eabce1546900019bd744,,1077938,62,,evan-feature22,full_pf_b,,0
38,36650,63,,,,2,2,0.0,1.0,0.0,1.0,,0.0-65.0,,1.0,564.5600003,1.0,0.541657162,1.0,0.634541962,0.0,0.343535366,1.0,0.371763742,False,,5ac0eabce1546900019bd744,,1088336,63,,evan-feature22,full_pf_b,,0
39,36651,64,,,,1,1,0.0,1.0,-1.0,0.0,,0.0-66.0,,0.0,420.19,0.0,0.5707533260000001,1.0,0.589121171,0.0,0.326428396,0.0,0.43961622899999997,False,,5ac0eabce1546900019bd744,,1098589,64,,evan-feature22,full_pf_b,,1
40,36652,65,,,,2,2,0.0,0.0,-1.0,0.0,,0.0-67.0,,0.0,631.5199997999999,0.0,0.5707533260000001,0.0,0.589121171,0.0,0.326428396,0.0,0.43961622899999997,False,,5ac0eabce1546900019bd744,,1109029,65,,evan-feature22,full_pf_b,,1
41,36653,66,,,,2,2,0.0,0.0,-1.0,0.0,,0.0-68.0,,0.0,940.5350001,1.0,0.506271295,1.0,0.641775594,0.0,0.37149690700000004,0.0,0.404330166,False,,5ac0eabce1546900019bd744,,1119771,66,,evan-feature22,full_pf_b,,0
42,36654,67,,,,2,2,1.0,0.0,0.0,1.0,,0.0-69.0,,0.0,853.4750002000001,1.0,0.455642565,1.0,0.623605825,1.0,0.358753011,0.0,0.346174041,False,,5ac0eabce1546900019bd744,,1130491,67,,evan-feature22,full_pf_b,,0
43,36655,68,,,,2,2,0.0,1.0,0.0,1.0,,0.0-70.0,,1.0,641.965,1.0,0.483677308,0.0,0.5904681070000001,0.0,0.402218411,1.0,0.35344697,False,,5ac0eabce1546900019bd744,,1140939,68,,evan-feature22,full_pf_b,,0
44,36656,69,,,,1,1,0.0,1.0,0.0,1.0,,0.0-71.0,,1.0,810.0399999,0.0,0.394210977,1.0,0.558925494,1.0,0.540052017,0.0,0.35182128700000004,False,,5ac0eabce1546900019bd744,,1151557,69,,evan-feature22,full_pf_b,,1
45,36657,70,,,,1,1,0.0,1.0,-1.0,0.0,,0.0-72.0,,0.0,1201.215,0.0,0.382300414,1.0,0.577670603,1.0,0.607608448,0.0,0.378261578,False,,5ac0eabce1546900019bd744,,1162606,70,,evan-feature22,full_pf_b,,0
46,36658,71,,,,2,2,0.0,1.0,-1.0,0.0,,0.0-73.0,,0.0,770.8199997,0.0,0.357596762,0.0,0.5929076529999999,0.0,0.6579790010000001,1.0,0.401326777,False,,5ac0eabce1546900019bd744,,1173203,71,,evan-feature22,full_pf_b,,1
47,36659,72,,,,1,1,0.0,0.0,-1.0,0.0,,0.0-74.0,,0.0,474.95000020000003,0.0,0.362033495,0.0,0.582308608,1.0,0.649195052,0.0,0.355158505,False,,5ac0eabce1546900019bd744,,1183489,72,,evan-feature22,full_pf_b,,1
48,36660,73,,,,2,2,1.0,1.0,-1.0,0.0,,0.0-75.0,,-1.0,730.67,1.0,0.369620635,1.0,0.669100864,1.0,0.706059111,1.0,0.362516241,False,,5ac0eabce1546900019bd744,,1194026,73,,evan-feature22,full_pf_b,,1
49,36661,74,,,,1,1,0.0,1.0,-1.0,0.0,,0.0-76.0,,0.0,773.6599999,0.0,0.41477751399999996,1.0,0.7284416779999999,1.0,0.7182656940000001,0.0,0.36228040899999997,False,,5ac0eabce1546900019bd744,,1204612,74,,evan-feature22,full_pf_b,,1
50,36662,75,,,,2,2,0.0,0.0,0.0,1.0,,0.0-77.0,,0.0,1130.17,1.0,0.37675460299999997,1.0,0.703250285,0.0,0.75,0.0,0.461979164,False,,5ac0eabce1546900019bd744,,1215539,75,,evan-feature22,full_pf_b,,1
51,36663,76,,,,2,2,1.0,0.0,0.0,1.0,,0.0-78.0,,0.0,763.6850001,1.0,0.398716075,1.0,0.6723864890000001,1.0,0.674153818,0.0,0.519029516,False,,5ac0eabce1546900019bd744,,1226131,76,,evan-feature22,full_pf_b,,0
52,36664,77,,,,2,2,0.0,1.0,-1.0,0.0,,0.0-79.0,,0.0,882.65,0.0,0.34677856700000004,1.0,0.69057175,0.0,0.6822438540000001,1.0,0.477292237,False,,5ac0eabce1546900019bd744,,1236841,77,,evan-feature22,full_pf_b,,0
53,36665,78,,,,2,2,0.0,1.0,0.0,1.0,,0.0-80.0,,1.0,733.2899999,0.0,0.28580469199999997,1.0,0.68408818,0.0,0.684207565,1.0,0.49780448299999996,False,,5ac0eabce1546900019bd744,,1247407,78,,evan-feature22,full_pf_b,,0
54,36667,80,,,,2,2,0.0,1.0,-1.0,0.0,,0.0-82.0,,0.0,963.8099996,1.0,0.25,0.0,0.7405808970000001,0.0,0.679614108,1.0,0.436436964,False,,5ac0eabce1546900019bd744,,1262556,80,,evan-feature22,full_pf_b,,0
55,36668,81,,,,1,1,0.0,1.0,0.0,1.0,,0.0-83.0,,1.0,1592.685,0.0,0.29890393,1.0,0.730505706,1.0,0.7328203320000001,1.0,0.439256938,False,,5ac0eabce1546900019bd744,,1273941,81,,evan-feature22,full_pf_b,,1
56,36669,82,,,,1,1,0.0,1.0,-1.0,0.0,,0.0-84.0,,0.0,369.7800003,0.0,0.326762398,1.0,0.7148059609999999,1.0,0.75,0.0,0.44389608799999997,False,,5ac0eabce1546900019bd744,,1284119,82,,evan-feature22,full_pf_b,,0
57,36670,83,,,,2,2,1.0,0.0,-1.0,0.0,,0.0-85.0,,-1.0,1231.08,1.0,0.295168515,1.0,0.739760854,1.0,0.719947008,0.0,0.35277284600000003,False,,5ac0eabce1546900019bd744,,1295157,83,,evan-feature22,full_pf_b,,1
58,36671,84,,,,1,1,0.0,1.0,-1.0,0.0,,0.0-86.0,,0.0,722.1300001,0.0,0.25,1.0,0.70781482,0.0,0.75,0.0,0.286095925,False,,5ac0eabce1546900019bd744,,1305725,84,,evan-feature22,full_pf_b,,1
59,36672,85,,,,2,2,1.0,0.0,0.0,1.0,,0.0-87.0,,0.0,603.9399998,1.0,0.25638190899999996,1.0,0.704088163,1.0,0.75,0.0,0.26872601399999996,False,,5ac0eabce1546900019bd744,,1316169,85,,evan-feature22,full_pf_b,,1
60,36673,86,,,,2,2,0.0,0.0,0.0,1.0,,0.0-88.0,,0.0,875.9850002999999,0.0,0.271581126,0.0,0.669760107,0.0,0.733896663,0.0,0.273244572,False,,5ac0eabce1546900019bd744,,1326860,86,,evan-feature22,full_pf_b,,0
61,36674,87,,,,2,2,1.0,0.0,0.0,1.0,,0.0-89.0,,0.0,689.245,0.0,0.257144401,1.0,0.600575706,1.0,0.74488122,0.0,0.25,False,,5ac0eabce1546900019bd744,,1337367,87,,evan-feature22,full_pf_b,,0
62,36675,88,,,,2,2,1.0,1.0,-1.0,0.0,,0.0-90.0,,-1.0,958.9300002,1.0,0.25,1.0,0.616870026,1.0,0.723610234,1.0,0.25,False,,5ac0eabce1546900019bd744,,1348138,88,,evan-feature22,full_pf_b,,0
63,36676,89,,,,1,1,0.0,0.0,0.0,1.0,,0.0-91.0,,0.0,503.94999979999994,0.0,0.25,0.0,0.583540187,0.0,0.7041042559999999,0.0,0.285961995,False,,5ac0eabce1546900019bd744,,1358439,89,,evan-feature22,full_pf_b,,1
64,36677,90,,,,1,1,0.0,1.0,-1.0,0.0,,0.0-92.0,,0.0,1100.265,0.0,0.27254536,1.0,0.53875765,1.0,0.693783448,1.0,0.284961652,False,,5ac0eabce1546900019bd744,,1369370,90,,evan-feature22,full_pf_b,,0
65,36678,91,,,,1,1,0.0,1.0,0.0,1.0,,0.0-93.0,,1.0,860.6500002,0.0,0.25,1.0,0.548431252,1.0,0.734221895,0.0,0.279445214,False,,5ac0eabce1546900019bd744,,1380060,91,,evan-feature22,full_pf_b,,0
66,36679,92,,,,1,1,0.0,1.0,-1.0,0.0,,0.0-94.0,,0.0,1385.875,0.0,0.258640684,1.0,0.545878066,1.0,0.725245965,0.0,0.31487537,False,,5ac0eabce1546900019bd744,,1391271,92,,evan-feature22,full_pf_b,,0
67,36680,93,,,,2,2,1.0,1.0,-1.0,0.0,,0.0-95.0,,-1.0,955.0699997000002,1.0,0.251103711,0.0,0.5776290629999999,1.0,0.696320133,1.0,0.317831047,False,,5ac0eabce1546900019bd744,,1402060,93,,evan-feature22,full_pf_b,,1
68,36681,94,,,,1,1,1.0,1.0,-1.0,0.0,,0.0-96.0,,-1.0,649.5300001,1.0,0.276630292,1.0,0.617329858,1.0,0.73838088,0.0,0.261471582,False,,5ac0eabce1546900019bd744,,1412538,94,,evan-feature22,full_pf_b,,1
69,36682,95,,,,1,1,0.0,0.0,0.0,1.0,,0.0-97.0,,0.0,652.0250002,0.0,0.297716424,0.0,0.618863717,1.0,0.7402358259999999,0.0,0.262600834,False,,5ac0eabce1546900019bd744,,1423027,95,,evan-feature22,full_pf_b,,0
70,36683,96,,,,2,2,1.0,0.0,-1.0,0.0,,0.0-98.0,,-1.0,1187.12,0.0,0.290935512,1.0,0.695370945,1.0,0.706570507,0.0,0.280030553,False,,5ac0eabce1546900019bd744,,1434048,96,,evan-feature22,full_pf_b,,1
71,36684,97,,,,2,2,1.0,0.0,-1.0,0.0,,0.0-99.0,,-1.0,468.54000030000003,0.0,0.25,1.0,0.6465277079999999,1.0,0.67766682,0.0,0.25,False,,5ac0eabce1546900019bd744,,1444350,97,,evan-feature22,full_pf_b,,0
72,36685,98,,,,2,2,0.0,0.0,-1.0,0.0,,0.0-100.0,,0.0,678.0949999,0.0,0.26463816,1.0,0.636100213,0.0,0.646048507,0.0,0.265607101,False,,5ac0eabce1546900019bd744,,1454840,98,,evan-feature22,full_pf_b,,0
73,36686,99,,,,1,1,0.0,1.0,-1.0,0.0,,0.0-101.0,,0.0,3052.075,0.0,0.314340707,1.0,0.667795927,1.0,0.613630805,0.0,0.25,False,,5ac0eabce1546900019bd744,,1467701,99,,evan-feature22,full_pf_b,,1
74,36687,100,,,,1,1,0.0,0.0,-1.0,0.0,,0.0-102.0,,0.0,770.9749998,0.0,0.28685784,0.0,0.6622549529999999,0.0,0.652154117,0.0,0.25,False,,5ac0eabce1546900019bd744,,1478282,100,,evan-feature22,full_pf_b,,0
75,36688,101,,,,1,1,1.0,1.0,0.0,1.0,,0.0-103.0,,1.0,1138.915,1.0,0.304106554,1.0,0.631289538,1.0,0.707041942,0.0,0.29314237,False,,5ac0eabce1546900019bd744,,1489228,101,,evan-feature22,full_pf_b,,0
76,36689,102,,,,1,1,1.0,1.0,0.0,1.0,,0.0-104.0,,1.0,471.2,1.0,0.304806932,1.0,0.571167718,1.0,0.680472346,0.0,0.25,False,,5ac0eabce1546900019bd744,,1499528,102,,evan-feature22,full_pf_b,,0
77,36690,103,,,,2,2,0.0,0.0,0.0,1.0,,0.0-105.0,,0.0,590.45,0.0,0.37919861,0.0,0.5724849710000001,0.0,0.705638003,0.0,0.30179300600000003,False,,5ac0eabce1546900019bd744,,1509926,103,,evan-feature22,full_pf_b,,1
78,36691,104,,,,2,2,1.0,0.0,0.0,1.0,,0.0-106.0,,0.0,1472.765,1.0,0.464277969,1.0,0.554034373,1.0,0.7372627340000001,0.0,0.264699741,False,,5ac0eabce1546900019bd744,,1521214,104,,evan-feature22,full_pf_b,,0
79,36692,105,,,,1,1,0.0,0.0,-1.0,0.0,,0.0-107.0,,0.0,821.5699997,0.0,0.465104323,0.0,0.530793115,1.0,0.75,0.0,0.31683071,False,,5ac0eabce1546900019bd744,,1531864,105,,evan-feature22,full_pf_b,,1
80,36693,106,,,,2,2,1.0,0.0,0.0,1.0,,0.0-108.0,,0.0,1018.615,1.0,0.465104323,0.0,0.530793115,1.0,0.75,0.0,0.31683071,False,,5ac0eabce1546900019bd744,,1542713,106,,evan-feature22,full_pf_b,,1
81,36694,107,,,,2,2,0.0,0.0,0.0,1.0,,0.0-109.0,,0.0,779.7849997999999,1.0,0.46833986,1.0,0.570249239,0.0,0.7244472590000001,0.0,0.364114163,False,,5ac0eabce1546900019bd744,,1553330,107,,evan-feature22,full_pf_b,,0
82,36695,108,,,,1,1,0.0,1.0,0.0,1.0,,0.0-110.0,,1.0,773.0,0.0,0.445444024,1.0,0.649673355,1.0,0.6845441290000001,0.0,0.300660449,False,,5ac0eabce1546900019bd744,,1563957,108,,evan-feature22,full_pf_b,,1
83,36696,109,,,,2,2,1.0,1.0,0.0,1.0,,0.0-111.0,,1.0,857.7400004000001,0.0,0.39909721299999995,1.0,0.6715179509999999,1.0,0.742310028,1.0,0.35496088299999995,False,,5ac0eabce1546900019bd744,,1574691,109,,evan-feature22,full_pf_b,,1
84,36697,110,,,,1,1,0.0,0.0,0.0,1.0,,0.0-112.0,,0.0,996.355,0.0,0.37956104799999996,0.0,0.694725302,1.0,0.7181651309999999,0.0,0.38726906299999997,False,,5ac0eabce1546900019bd744,,1585491,110,,evan-feature22,full_pf_b,,1
85,36698,111,,,,2,2,1.0,0.0,0.0,1.0,,0.0-113.0,,0.0,850.445,1.0,0.404995034,1.0,0.724375412,1.0,0.6910946859999999,0.0,0.387187347,False,,5ac0eabce1546900019bd744,,1596174,111,,evan-feature22,full_pf_b,,1
86,36699,112,,,,2,2,1.0,1.0,0.0,1.0,,0.0-114.0,,1.0,921.0800002000001,1.0,0.461740803,0.0,0.75,1.0,0.75,1.0,0.34872038200000005,False,,5ac0eabce1546900019bd744,,1606954,112,,evan-feature22,full_pf_b,,0
87,36700,113,,,,1,1,0.0,1.0,-1.0,0.0,,0.0-115.0,,0.0,1133.305,0.0,0.43821380600000004,1.0,0.738833273,0.0,0.728286963,0.0,0.399538128,False,,5ac0eabce1546900019bd744,,1617915,113,,evan-feature22,full_pf_b,,1
88,36701,114,,,,2,2,1.0,1.0,0.0,1.0,,0.0-116.0,,1.0,636.4199999,0.0,0.41709882,1.0,0.736666736,1.0,0.75,1.0,0.389095584,False,,5ac0eabce1546900019bd744,,1628346,114,,evan-feature22,full_pf_b,,1
89,36702,115,,,,2,2,1.0,1.0,0.0,1.0,,0.0-117.0,,1.0,686.795,1.0,0.39749009799999996,0.0,0.744320029,1.0,0.75,1.0,0.363848678,False,,5ac0eabce1546900019bd744,,1638894,115,,evan-feature22,full_pf_b,,0
90,36703,116,,,,1,1,0.0,1.0,-1.0,0.0,,0.0-118.0,,0.0,648.73,0.0,0.392653706,1.0,0.75,1.0,0.75,0.0,0.384386976,False,,5ac0eabce1546900019bd744,,1649372,116,,evan-feature22,full_pf_b,,1
91,36704,117,,,,2,2,1.0,0.0,-1.0,0.0,,0.0-119.0,,-1.0,1081.85,1.0,0.31190902600000003,1.0,0.75,1.0,0.732413819,0.0,0.413082932,False,,5ac0eabce1546900019bd744,,1660317,117,,evan-feature22,full_pf_b,,1
92,36705,118,,,,2,2,0.0,0.0,0.0,1.0,,0.0-120.0,,0.0,587.0400001,0.0,0.366917648,1.0,0.740073855,0.0,0.75,0.0,0.352861979,False,,5ac0eabce1546900019bd744,,1670710,118,,evan-feature22,full_pf_b,,0
93,36706,119,,,,2,2,0.0,0.0,0.0,1.0,,0.0-121.0,,0.0,1151.425,0.0,0.3645172,1.0,0.721770713,0.0,0.75,0.0,0.404074511,False,,5ac0eabce1546900019bd744,,1681656,119,,evan-feature22,full_pf_b,,0
94,36707,120,,,,2,2,1.0,1.0,0.0,1.0,,0.0-122.0,,1.0,1007.745,0.0,0.35205600299999995,0.0,0.68983859,1.0,0.739735447,1.0,0.366895945,False,,5ac0eabce1546900019bd744,,1692492,120,,evan-feature22,full_pf_b,,0
95,36708,121,,,,1,1,0.0,1.0,0.0,1.0,,0.0-123.0,,1.0,491.0049996999999,0.0,0.40998722600000004,1.0,0.720859127,0.0,0.673854955,0.0,0.368528541,False,,5ac0eabce1546900019bd744,,1702824,121,,evan-feature22,full_pf_b,,1
96,36709,122,,,,1,1,0.0,1.0,-1.0,0.0,,0.0-124.0,,0.0,624.1300004,0.0,0.353625316,1.0,0.75,1.0,0.695605473,1.0,0.38303674200000004,False,,5ac0eabce1546900019bd744,,1713265,122,,evan-feature22,full_pf_b,,0
97,36710,123,,,,2,2,1.0,1.0,0.0,1.0,,0.0-125.0,,1.0,583.0249996,0.0,0.359216989,0.0,0.75,1.0,0.6987915090000001,1.0,0.35169046200000004,False,,5ac0eabce1546900019bd744,,1723711,123,,evan-feature22,full_pf_b,,1
98,36711,124,,,,1,1,1.0,0.0,-1.0,0.0,,0.0-126.0,,-1.0,840.9199999,1.0,0.35834496899999996,0.0,0.75,1.0,0.707067742,0.0,0.416763636,False,,5ac0eabce1546900019bd744,,1734387,124,,evan-feature22,full_pf_b,,1
99,36712,125,,,,1,1,0.0,1.0,-1.0,0.0,,0.0-127.0,,0.0,819.0199997999999,0.0,0.38741613799999997,1.0,0.7177369570000001,1.0,0.734902455,0.0,0.49438664299999996,False,,5ac0eabce1546900019bd744,,1745035,125,,evan-feature22,full_pf_b,,0
100,36713,126,,,,2,2,1.0,1.0,0.0,1.0,,0.0-128.0,,1.0,875.4599998,1.0,0.405255252,1.0,0.7300466640000001,1.0,0.7027748070000001,1.0,0.504359668,False,,5ac0eabce1546900019bd744,,1755714,126,,evan-feature22,full_pf_b,,1
101,36714,127,,,,2,2,1.0,0.0,0.0,1.0,,0.0-129.0,,0.0,614.2449998,0.0,0.40697073,1.0,0.7260142190000001,1.0,0.724461982,0.0,0.522779179,False,,5ac0eabce1546900019bd744,,1766161,127,,evan-feature22,full_pf_b,,0
102,36715,128,,,,2,2,1.0,1.0,0.0,1.0,,0.0-130.0,,1.0,1211.695,0.0,0.43906215299999996,0.0,0.7252802340000001,1.0,0.719079934,1.0,0.5712990579999999,False,,5ac0eabce1546900019bd744,,1777194,128,,evan-feature22,full_pf_b,,0
103,36716,129,,,,1,1,1.0,1.0,0.0,1.0,,0.0-131.0,,1.0,1182.895,1.0,0.4076705,1.0,0.73280499,1.0,0.681313127,1.0,0.523891346,False,,5ac0eabce1546900019bd744,,1788184,129,,evan-feature22,full_pf_b,,1
104,36717,130,,,,1,1,0.0,1.0,0.0,1.0,,0.0-132.0,,1.0,990.2900001,0.0,0.399102911,1.0,0.730498344,1.0,0.661080239,1.0,0.46742603,False,,5ac0eabce1546900019bd744,,1799045,130,,evan-feature22,full_pf_b,,0
105,36718,131,,,,2,2,0.0,0.0,-1.0,0.0,,0.0-133.0,,0.0,1376.515,0.0,0.356477282,0.0,0.712296395,0.0,0.641812684,0.0,0.44868414,False,,5ac0eabce1546900019bd744,,1810217,131,,evan-feature22,full_pf_b,,1
106,36719,132,,,,1,1,1.0,0.0,0.0,1.0,,0.0-134.0,,0.0,947.4099995999999,1.0,0.462760722,0.0,0.692349322,0.0,0.700947931,0.0,0.394680266,False,,5ac0eabce1546900019bd744,,1820989,132,,evan-feature22,full_pf_b,,1
107,36720,133,,,,2,2,1.0,1.0,0.0,1.0,,0.0-135.0,,1.0,954.2450001,0.0,0.422306413,1.0,0.718375916,1.0,0.706340917,1.0,0.367787185,False,,5ac0eabce1546900019bd744,,1831759,133,,evan-feature22,full_pf_b,,1
108,36722,135,,,,2,2,1.0,1.0,0.0,1.0,,0.0-137.0,,1.0,1999.665,1.0,0.4582233,0.0,0.643834117,1.0,0.75,1.0,0.39615823299999997,False,,5ac0eabce1546900019bd744,,1848067,135,,evan-feature22,full_pf_b,,0
109,36723,136,,,,1,1,1.0,1.0,0.0,1.0,,0.0-138.0,,1.0,546.0950001,1.0,0.43813437899999996,1.0,0.651283804,0.0,0.729674191,1.0,0.37711048,False,,5ac0eabce1546900019bd744,,1858432,136,,evan-feature22,full_pf_b,,1
110,36724,137,,,,2,2,1.0,0.0,0.0,1.0,,0.0-139.0,,0.0,725.635,1.0,0.471199094,1.0,0.6470010979999999,1.0,0.715008097,0.0,0.410656191,False,,5ac0eabce1546900019bd744,,1868983,137,,evan-feature22,full_pf_b,,1
111,36725,138,,,,2,2,1.0,1.0,-1.0,0.0,,0.0-140.0,,-1.0,893.47,1.0,0.42486406,0.0,0.629771829,1.0,0.6550939960000001,1.0,0.459093873,False,,5ac0eabce1546900019bd744,,1879741,138,,evan-feature22,full_pf_b,,0
112,36726,139,,,,2,2,1.0,1.0,-1.0,0.0,,0.0-141.0,,-1.0,618.7049998,0.0,0.4803197,0.0,0.645842715,1.0,0.6421749920000001,1.0,0.443092151,False,,5ac0eabce1546900019bd744,,1890185,139,,evan-feature22,full_pf_b,,0
113,36727,140,,,,2,2,1.0,1.0,-1.0,0.0,,0.0-142.0,,-1.0,646.985,1.0,0.521848997,1.0,0.735801074,1.0,0.6691348460000001,1.0,0.45259351600000003,False,,5ac0eabce1546900019bd744,,1900658,140,,evan-feature22,full_pf_b,,0
114,36728,141,,,,2,2,1.0,0.0,0.0,1.0,,0.0-143.0,,0.0,922.0699999,0.0,0.49565621299999996,1.0,0.742400847,1.0,0.661512553,0.0,0.483110831,False,,5ac0eabce1546900019bd744,,1911385,141,,evan-feature22,full_pf_b,,0
115,36729,142,,,,1,1,1.0,1.0,-1.0,0.0,,0.0-144.0,,-1.0,509.3050003000001,1.0,0.521564361,1.0,0.731078632,0.0,0.6774886809999999,0.0,0.483263956,False,,5ac0eabce1546900019bd744,,1921732,142,,evan-feature22,full_pf_b,,1
116,36730,143,,,,2,2,1.0,0.0,-1.0,0.0,,0.0-145.0,,-1.0,483.3399998,1.0,0.558893102,0.0,0.719810023,1.0,0.67461031,0.0,0.499349834,False,,5ac0eabce1546900019bd744,,1932048,143,,evan-feature22,full_pf_b,,1
117,36731,144,,,,1,1,0.0,0.0,0.0,1.0,,0.0-146.0,,0.0,485.0849998,0.0,0.611031046,0.0,0.75,1.0,0.688072995,1.0,0.5321422729999999,False,,5ac0eabce1546900019bd744,,1942340,144,,evan-feature22,full_pf_b,,1
118,36732,145,,,,1,1,0.0,1.0,-1.0,0.0,,0.0-147.0,,0.0,517.8350001,0.0,0.633223941,1.0,0.713567728,1.0,0.75,1.0,0.48185314700000004,False,,5ac0eabce1546900019bd744,,1952687,145,,evan-feature22,full_pf_b,,0
119,36733,146,,,,2,2,1.0,1.0,-1.0,0.0,,0.0-148.0,,-1.0,585.5,1.0,0.664001694,1.0,0.705509768,1.0,0.75,1.0,0.500211065,False,,5ac0eabce1546900019bd744,,1963098,146,,evan-feature22,full_pf_b,,1
120,36734,147,,,,1,1,1.0,1.0,0.0,1.0,,0.0-149.0,,1.0,615.27,1.0,0.664001694,1.0,0.705509768,1.0,0.75,0.0,0.500211065,False,,5ac0eabce1546900019bd744,,1973542,147,,evan-feature22,full_pf_b,,1
121,36735,148,,,,1,1,1.0,1.0,0.0,1.0,,0.0-150.0,,1.0,530.0650001,1.0,0.696508041,1.0,0.71066027,0.0,0.717028709,0.0,0.49792991,False,,5ac0eabce1546900019bd744,,1983936,148,,evan-feature22,full_pf_b,,0
122,36736,149,,,,1,1,0.0,1.0,-1.0,0.0,,0.0-151.0,,0.0,855.1750001,0.0,0.699883272,1.0,0.75,1.0,0.713543895,0.0,0.496962643,False,,5ac0eabce1546900019bd744,,1994601,149,,evan-feature22,full_pf_b,,0
123,36737,150,,,,2,2,1.0,0.0,0.0,1.0,,0.0-152.0,,0.0,783.1699997000001,1.0,0.741163419,1.0,0.75,1.0,0.64691024,0.0,0.513858197,False,,5ac0eabce1546900019bd744,,2005243,150,,evan-feature22,full_pf_b,,1
124,36738,151,,,,2,2,0.0,0.0,-1.0,0.0,,0.0-153.0,,0.0,521.3099996999999,1.0,0.75,0.0,0.70816558,0.0,0.594499079,0.0,0.48502124,False,,5ac0eabce1546900019bd744,,2015579,151,,evan-feature22,full_pf_b,,0
125,36739,152,,,,1,1,0.0,1.0,0.0,1.0,,0.0-154.0,,1.0,1050.33,0.0,0.75,1.0,0.721848901,0.0,0.62197249,1.0,0.48263586399999997,False,,5ac0eabce1546900019bd744,,2026442,152,,evan-feature22,full_pf_b,,1
126,36740,153,,,,1,1,0.0,1.0,-1.0,0.0,,0.0-155.0,,0.0,604.2200001,0.0,0.75,1.0,0.74813071,0.0,0.584357161,1.0,0.411477782,False,,5ac0eabce1546900019bd744,,2036871,153,,evan-feature22,full_pf_b,,0
127,36741,154,,,,2,2,0.0,1.0,0.0,1.0,,0.0-156.0,,1.0,671.6749999,1.0,0.75,1.0,0.75,0.0,0.52287236,1.0,0.488290656,False,,5ac0eabce1546900019bd744,,2047360,154,,evan-feature22,full_pf_b,,1
128,36742,155,,,,2,2,0.0,1.0,0.0,1.0,,0.0-157.0,,1.0,774.915,0.0,0.75,1.0,0.75,0.0,0.544321581,1.0,0.53143059,False,,5ac0eabce1546900019bd744,,2057959,155,,evan-feature22,full_pf_b,,0
129,36743,156,,,,1,1,0.0,1.0,0.0,1.0,,0.0-158.0,,1.0,782.805,0.0,0.726754564,1.0,0.75,0.0,0.5129306370000001,1.0,0.530592445,False,,5ac0eabce1546900019bd744,,2068575,156,,evan-feature22,full_pf_b,,1
130,36744,157,,,,1,1,1.0,1.0,-1.0,0.0,,0.0-159.0,,-1.0,517.705,1.0,0.75,1.0,0.7392590729999999,0.0,0.479875835,1.0,0.547007051,False,,5ac0eabce1546900019bd744,,2078922,157,,evan-feature22,full_pf_b,,0
131,36745,158,,,,2,2,1.0,1.0,-1.0,0.0,,0.0-160.0,,-1.0,563.5600002,1.0,0.75,1.0,0.7393376979999999,1.0,0.546045419,1.0,0.541267353,False,,5ac0eabce1546900019bd744,,2089354,158,,evan-feature22,full_pf_b,,1
132,36746,159,,,,2,2,0.0,1.0,-1.0,0.0,,0.0-161.0,,0.0,574.3299997,1.0,0.75,1.0,0.75,0.0,0.485725895,1.0,0.527625395,False,,5ac0eabce1546900019bd744,,2099812,159,,evan-feature22,full_pf_b,,0
133,36747,160,,,,1,1,1.0,1.0,0.0,1.0,,0.0-162.0,,1.0,514.895,1.0,0.75,1.0,0.725087974,0.0,0.488603595,0.0,0.504019206,False,,5ac0eabce1546900019bd744,,2110162,160,,evan-feature22,full_pf_b,,1
134,36748,161,,,,1,1,1.0,1.0,0.0,1.0,,0.0-163.0,,1.0,543.2949997000001,1.0,0.745504295,1.0,0.75,1.0,0.452379914,1.0,0.50131194,False,,5ac0eabce1546900019bd744,,2120524,161,,evan-feature22,full_pf_b,,0
135,36749,162,,,,2,2,0.0,0.0,0.0,1.0,,0.0-164.0,,0.0,698.7749999,1.0,0.728513874,1.0,0.75,0.0,0.44125567200000004,0.0,0.531454591,False,,5ac0eabce1546900019bd744,,2131030,162,,evan-feature22,full_pf_b,,1
136,36750,163,,,,1,1,0.0,1.0,-1.0,0.0,,0.0-165.0,,0.0,1437.505,0.0,0.73790804,1.0,0.75,1.0,0.413036656,0.0,0.524619035,False,,5ac0eabce1546900019bd744,,2142290,163,,evan-feature22,full_pf_b,,1
137,36751,164,,,,2,2,1.0,0.0,0.0,1.0,,0.0-166.0,,0.0,866.6400001000001,1.0,0.7080961309999999,1.0,0.708666865,1.0,0.431915581,0.0,0.481819489,False,,5ac0eabce1546900019bd744,,2152995,164,,evan-feature22,full_pf_b,,1
138,36752,165,,,,1,1,1.0,1.0,0.0,1.0,,0.0-167.0,,1.0,896.8549998999999,1.0,0.721378003,1.0,0.71605913,1.0,0.36642387,0.0,0.5036739929999999,False,,5ac0eabce1546900019bd744,,2163736,165,,evan-feature22,full_pf_b,,1
139,36753,166,,,,1,1,1.0,1.0,0.0,1.0,,0.0-168.0,,1.0,444.9,1.0,0.7340618959999999,1.0,0.699323252,0.0,0.35298046299999997,0.0,0.511241692,False,,5ac0eabce1546900019bd744,,2173992,166,,evan-feature22,full_pf_b,,0
140,36754,167,,,,2,2,0.0,1.0,-1.0,0.0,,0.0-169.0,,0.0,703.58,1.0,0.75,0.0,0.70412698,0.0,0.380734814,1.0,0.529580116,False,,5ac0eabce1546900019bd744,,2184499,167,,evan-feature22,full_pf_b,,1
141,36755,168,,,,2,2,0.0,1.0,0.0,1.0,,0.0-170.0,,1.0,676.765,1.0,0.7436654909999999,1.0,0.711182751,0.0,0.41125331,1.0,0.49554405,False,,5ac0eabce1546900019bd744,,2195034,168,,evan-feature22,full_pf_b,,0
142,36756,169,,,,1,1,0.0,1.0,0.0,1.0,,0.0-171.0,,1.0,588.4249997000001,0.0,0.731607915,1.0,0.651774583,0.0,0.35688023,1.0,0.45194491600000003,False,,5ac0eabce1546900019bd744,,2205433,169,,evan-feature22,full_pf_b,,1
143,36757,170,,,,1,1,1.0,1.0,-1.0,0.0,,0.0-172.0,,-1.0,551.835,1.0,0.75,1.0,0.75,0.0,0.283145374,0.0,0.528608005,False,,5ac0eabce1546900019bd744,,2215841,170,,evan-feature22,full_pf_b,,0
144,36758,171,,,,2,2,1.0,0.0,-1.0,0.0,,0.0-173.0,,-1.0,516.51,1.0,0.7491416890000001,0.0,0.7423785959999999,1.0,0.29135870399999997,0.0,0.498888318,False,,5ac0eabce1546900019bd744,,2226206,171,,evan-feature22,full_pf_b,,1
145,36759,172,,,,2,2,0.0,1.0,-1.0,0.0,,0.0-174.0,,0.0,615.4799997,0.0,0.708569387,0.0,0.717682277,0.0,0.294421699,1.0,0.493838163,False,,5ac0eabce1546900019bd744,,2236635,172,,evan-feature22,full_pf_b,,0
146,36760,173,,,,1,1,1.0,1.0,0.0,1.0,,0.0-175.0,,1.0,588.2299998999999,1.0,0.75,1.0,0.7383382159999999,1.0,0.356098707,0.0,0.442533405,False,,5ac0eabce1546900019bd744,,2247088,173,,evan-feature22,full_pf_b,,1
147,36761,174,,,,1,1,1.0,1.0,0.0,1.0,,0.0-176.0,,1.0,723.0500001,1.0,0.744527075,1.0,0.75,1.0,0.334127506,0.0,0.393165805,False,,5ac0eabce1546900019bd744,,2257634,174,,evan-feature22,full_pf_b,,0
148,36762,175,,,,2,2,0.0,0.0,0.0,1.0,,0.0-177.0,,0.0,503.74000010000003,0.0,0.75,1.0,0.75,0.0,0.33571021799999995,0.0,0.350393962,False,,5ac0eabce1546900019bd744,,2267996,175,,evan-feature22,full_pf_b,,1
149,36763,176,,,,1,1,1.0,1.0,0.0,1.0,,0.0-178.0,,1.0,1032.5,1.0,0.75,1.0,0.75,1.0,0.313628297,0.0,0.36349657399999996,False,,5ac0eabce1546900019bd744,,2278896,176,,evan-feature22,full_pf_b,,1
150,36764,177,,,,1,1,1.0,1.0,-1.0,0.0,,0.0-179.0,,-1.0,442.6900004,1.0,0.75,1.0,0.734284182,0.0,0.262667667,0.0,0.380199119,False,,5ac0eabce1546900019bd744,,2289195,177,,evan-feature22,full_pf_b,,0
151,36765,178,,,,2,2,0.0,1.0,0.0,1.0,,0.0-180.0,,1.0,586.5549999,1.0,0.75,0.0,0.75,0.0,0.25,1.0,0.394494013,False,,5ac0eabce1546900019bd744,,2299638,178,,evan-feature22,full_pf_b,,1
152,36766,179,,,,1,1,1.0,0.0,-1.0,0.0,,0.0-181.0,,-1.0,800.82,1.0,0.722298145,0.0,0.7357822340000001,0.0,0.25,0.0,0.319142121,False,,5ac0eabce1546900019bd744,,2310283,179,,evan-feature22,full_pf_b,,1
153,36767,180,,,,2,2,1.0,0.0,-1.0,0.0,,0.0-182.0,,-1.0,1051.87,1.0,0.73149275,0.0,0.724276446,1.0,0.305856907,0.0,0.281315057,False,,5ac0eabce1546900019bd744,,2321181,180,,evan-feature22,full_pf_b,,1
154,36768,181,,,,1,1,1.0,0.0,0.0,1.0,,0.0-183.0,,0.0,1833.49,1.0,0.7458732690000001,0.0,0.7336382459999999,1.0,0.272571964,0.0,0.266021999,False,,5ac0eabce1546900019bd744,,2332847,181,,evan-feature22,full_pf_b,,1
155,36769,182,,,,2,2,0.0,0.0,0.0,1.0,,0.0-184.0,,0.0,886.5400002999999,0.0,0.705579037,1.0,0.720778292,0.0,0.320238144,0.0,0.30971744,False,,5ac0eabce1546900019bd744,,2343540,182,,evan-feature22,full_pf_b,,1
156,36770,183,,,,2,2,0.0,0.0,0.0,1.0,,0.0-185.0,,0.0,913.9749999,1.0,0.700425648,1.0,0.7198784009999999,0.0,0.272590393,0.0,0.304182931,False,,5ac0eabce1546900019bd744,,2354251,183,,evan-feature22,full_pf_b,,0
157,36771,184,,,,2,2,0.0,0.0,0.0,1.0,,0.0-186.0,,0.0,651.995,0.0,0.735590785,1.0,0.722714973,0.0,0.25,0.0,0.323421091,False,,5ac0eabce1546900019bd744,,2364707,184,,evan-feature22,full_pf_b,,0
158,36772,185,,,,2,2,1.0,0.0,0.0,1.0,,0.0-187.0,,0.0,737.3199998,0.0,0.724807662,0.0,0.63146213,1.0,0.36836492600000004,0.0,0.34592153299999995,False,,5ac0eabce1546900019bd744,,2375279,185,,evan-feature22,full_pf_b,,0
159,36773,186,,,,2,2,1.0,1.0,0.0,1.0,,0.0-188.0,,1.0,806.0349999,0.0,0.7352796909999999,0.0,0.555111392,1.0,0.36003922,1.0,0.31433779999999995,False,,5ac0eabce1546900019bd744,,2385910,186,,evan-feature22,full_pf_b,,0
160,36774,187,notice,,,,,,,,,,0.0-189.0,"{""Q0"":""No""}",,18707.0,,,,,,,,,False,,5ac0eabce1546900019bd744,,2404620,187,Q,survey-text,full_pf_b,,1
161,36775,188,track1,,[1],,,,,,,,0.0-190.0,"{""Q0"":""no""}",,4179.0,,,,,,,,,False,,5ac0eabce1546900019bd744,,2408806,188,Q,evan-quiz,full_pf_b,,1
162,36776,189,track2,,[0],,,,,,,,0.0-191.0,"{""Q0"":""yes""}",,9601.0,,,,,,,,,False,,5ac0eabce1546900019bd744,,2418413,189,Q,evan-quiz,full_pf_b,,1
163,36777,190,strat,,,,,,,,,,0.0-192.0,"{""Q0"":""I didn't have one I was just guessing""}",,16340.0,,,,,,,,,False,,5ac0eabce1546900019bd744,,2434758,190,Q,survey-text,full_pf_b,,1
