,index,Unnamed: 0,Q_name,button_pressed,choice_idxs,chosen_pos,chosen_state,chosen_state_f_1_outcome,chosen_state_f_2_outcome,f_1_reward,f_2_reward,incor_questions,internal_node_id,responses,reward_received,rt,s_1_f_1_outcome,s_1_f_1_prob,s_1_f_2_outcome,s_1_f_2_prob,s_2_f_1_outcome,s_2_f_1_prob,s_2_f_2_outcome,s_2_f_2_prob,safe_first,stimulus,subjectID,success,time_elapsed,trial_index,trial_num,trial_type,version,view_history,switching
0,32267,25,,,,1,1,1.0,1.0,0.0,-1.0,,0.0-27.0,,-1.0,1540.98,1.0,0.6,1.0,0.6,0.0,0.4,0.0,0.4,False,,5f5f7ca62445b10428933069,,828423,25,,evan-feature22,full_pf_a,,0
1,32268,26,,,,2,2,0.0,0.0,0.0,-1.0,,0.0-28.0,,0.0,1038.36,0.0,0.608053294,1.0,0.63424552,0.0,0.397152172,0.0,0.347069101,False,,5f5f7ca62445b10428933069,,839235,26,,evan-feature22,full_pf_a,,1
2,32269,27,,,,1,1,1.0,0.0,0.0,-1.0,,0.0-29.0,,0.0,495.5950002,1.0,0.642237155,0.0,0.648566321,0.0,0.389407674,1.0,0.285525717,False,,5f5f7ca62445b10428933069,,849509,27,,evan-feature22,full_pf_a,,1
3,32270,28,,,,1,1,1.0,1.0,0.0,-1.0,,0.0-30.0,,-1.0,394.76499989999996,1.0,0.661086576,1.0,0.630492543,1.0,0.399058924,0.0,0.25,False,,5f5f7ca62445b10428933069,,859681,28,,evan-feature22,full_pf_a,,0
4,32271,29,,,,1,1,0.0,0.0,0.0,-1.0,,0.0-31.0,,0.0,1331.265,0.0,0.631324137,0.0,0.6269842929999999,0.0,0.38734784299999997,1.0,0.25,False,,5f5f7ca62445b10428933069,,870795,29,,evan-feature22,full_pf_a,,0
5,32272,30,,,,2,2,0.0,0.0,0.0,-1.0,,0.0-32.0,,0.0,661.0600003,0.0,0.6381991370000001,1.0,0.68987999,0.0,0.384107265,0.0,0.271332943,False,,5f5f7ca62445b10428933069,,881239,30,,evan-feature22,full_pf_a,,1
6,32273,31,,,,2,2,0.0,1.0,0.0,-1.0,,0.0-33.0,,-1.0,981.4849998999999,1.0,0.66034901,1.0,0.742641349,0.0,0.360225629,1.0,0.25,False,,5f5f7ca62445b10428933069,,892023,31,,evan-feature22,full_pf_a,,0
7,32274,32,,,,1,1,0.0,0.0,1.0,0.0,,0.0-34.0,,0.0,703.3500001,0.0,0.638612418,0.0,0.75,0.0,0.367273939,0.0,0.25,False,,5f5f7ca62445b10428933069,,902501,32,,evan-feature22,full_pf_a,,1
8,32275,33,,,,2,2,1.0,0.0,0.0,-1.0,,0.0-35.0,,0.0,1584.735,1.0,0.624340629,1.0,0.75,1.0,0.425829545,0.0,0.25,False,,5f5f7ca62445b10428933069,,913865,33,,evan-feature22,full_pf_a,,1
9,32276,34,,,,1,1,1.0,1.0,0.0,-1.0,,0.0-36.0,,-1.0,2601.375,1.0,0.621999804,1.0,0.75,0.0,0.368609357,0.0,0.25,False,,5f5f7ca62445b10428933069,,926255,34,,evan-feature22,full_pf_a,,1
10,32277,35,,,,1,1,1.0,1.0,1.0,0.0,,0.0-37.0,,1.0,519.0400002,1.0,0.62666403,1.0,0.75,0.0,0.311151498,0.0,0.25,False,,5f5f7ca62445b10428933069,,936561,35,,evan-feature22,full_pf_a,,0
11,32278,36,,,,2,2,1.0,0.0,1.0,0.0,,0.0-38.0,,1.0,791.7999998,0.0,0.6819650009999999,1.0,0.75,1.0,0.310763048,0.0,0.25,False,,5f5f7ca62445b10428933069,,947139,36,,evan-feature22,full_pf_a,,1
12,32279,37,,,,1,1,1.0,1.0,0.0,-1.0,,0.0-39.0,,-1.0,3272.665,1.0,0.740626951,1.0,0.75,0.0,0.25,1.0,0.25,False,,5f5f7ca62445b10428933069,,960200,37,,evan-feature22,full_pf_a,,1
13,32280,38,,,,SLOW,SLOW,,,0.0,-1.0,,0.0-40.0,,-3.0,,1.0,0.739599242,0.0,0.742034978,0.0,0.25397114600000004,0.0,0.25,False,,5f5f7ca62445b10428933069,,966014,38,,evan-feature22,full_pf_a,,1
14,32281,39,,,,2,2,0.0,0.0,0.0,-1.0,,0.0-41.0,,0.0,411.9950002,1.0,0.732341315,0.0,0.72735643,0.0,0.25,0.0,0.25,False,,5f5f7ca62445b10428933069,,976199,39,,evan-feature22,full_pf_a,,1
15,32282,40,,,,1,1,1.0,0.0,0.0,-1.0,,0.0-42.0,,0.0,630.3900001000001,1.0,0.7062287770000001,0.0,0.75,1.0,0.29002151,1.0,0.288256649,False,,5f5f7ca62445b10428933069,,986611,40,,evan-feature22,full_pf_a,,1
16,32283,41,,,,2,2,1.0,1.0,1.0,0.0,,0.0-43.0,,1.0,586.7149998,1.0,0.7086029209999999,1.0,0.75,1.0,0.274129113,1.0,0.262851608,False,,5f5f7ca62445b10428933069,,996980,41,,evan-feature22,full_pf_a,,1
17,32284,42,,,,1,1,0.0,1.0,0.0,-1.0,,0.0-44.0,,-1.0,737.7900002,0.0,0.669189651,1.0,0.727614338,0.0,0.298444036,0.0,0.296944518,False,,5f5f7ca62445b10428933069,,1007504,42,,evan-feature22,full_pf_a,,1
18,32285,43,,,,1,1,1.0,0.0,1.0,0.0,,0.0-45.0,,1.0,519.0850003,1.0,0.6819912929999999,0.0,0.7179434290000001,1.0,0.265003961,1.0,0.28157921199999997,False,,5f5f7ca62445b10428933069,,1017803,43,,evan-feature22,full_pf_a,,0
19,32286,44,,,,2,2,1.0,0.0,1.0,0.0,,0.0-46.0,,1.0,626.9350001,1.0,0.665275002,1.0,0.723065271,1.0,0.260414971,0.0,0.30973870000000003,False,,5f5f7ca62445b10428933069,,1028219,44,,evan-feature22,full_pf_a,,1
20,32287,45,,,,2,2,0.0,1.0,0.0,-1.0,,0.0-47.0,,-1.0,2231.825,1.0,0.6660593260000001,0.0,0.728032907,0.0,0.30922817,1.0,0.338778608,False,,5f5f7ca62445b10428933069,,1040231,45,,evan-feature22,full_pf_a,,0
21,32288,46,,,,2,2,1.0,0.0,0.0,-1.0,,0.0-48.0,,0.0,1415.64,1.0,0.702068785,1.0,0.6528750879999999,1.0,0.287329608,0.0,0.35789613200000003,False,,5f5f7ca62445b10428933069,,1051435,46,,evan-feature22,full_pf_a,,0
22,32289,47,,,,1,1,1.0,0.0,0.0,-1.0,,0.0-49.0,,0.0,638.7800002,1.0,0.651939787,0.0,0.636725589,0.0,0.284834488,0.0,0.358563756,False,,5f5f7ca62445b10428933069,,1061855,47,,evan-feature22,full_pf_a,,1
23,32290,48,,,,2,2,0.0,1.0,0.0,-1.0,,0.0-50.0,,-1.0,1666.265,0.0,0.67573929,0.0,0.612550049,0.0,0.37130387600000003,1.0,0.383542402,False,,5f5f7ca62445b10428933069,,1073312,48,,evan-feature22,full_pf_a,,1
24,32291,49,,,,2,2,0.0,0.0,0.0,-1.0,,0.0-51.0,,0.0,994.6699999,0.0,0.620753801,0.0,0.60513644,0.0,0.385529434,0.0,0.340361743,False,,5f5f7ca62445b10428933069,,1084089,49,,evan-feature22,full_pf_a,,0
25,32292,50,,,,2,2,0.0,0.0,1.0,0.0,,0.0-52.0,,0.0,1952.75,1.0,0.673564893,1.0,0.672437924,0.0,0.292955382,0.0,0.337633795,False,,5f5f7ca62445b10428933069,,1095816,50,,evan-feature22,full_pf_a,,0
26,32293,51,,,,1,1,0.0,0.0,0.0,-1.0,,0.0-53.0,,0.0,754.0799999,0.0,0.6749427,0.0,0.724197502,1.0,0.32391132100000003,0.0,0.350995264,False,,5f5f7ca62445b10428933069,,1106349,51,,evan-feature22,full_pf_a,,1
27,32294,52,,,,2,2,0.0,1.0,0.0,-1.0,,0.0-54.0,,-1.0,799.6550002,1.0,0.6940159379999999,1.0,0.75,0.0,0.31710554399999996,1.0,0.413450341,False,,5f5f7ca62445b10428933069,,1116932,52,,evan-feature22,full_pf_a,,1
28,32295,53,,,,2,2,0.0,1.0,0.0,-1.0,,0.0-55.0,,-1.0,736.9249999,0.0,0.6916018270000001,1.0,0.69001187,0.0,0.261817804,1.0,0.40038635,False,,5f5f7ca62445b10428933069,,1127461,53,,evan-feature22,full_pf_a,,0
29,32296,54,,,,2,2,1.0,0.0,0.0,-1.0,,0.0-56.0,,0.0,622.9150002,0.0,0.641061544,1.0,0.71337992,1.0,0.277296461,0.0,0.47372791700000005,False,,5f5f7ca62445b10428933069,,1137865,54,,evan-feature22,full_pf_a,,0
30,32297,55,,,,1,1,0.0,1.0,0.0,-1.0,,0.0-57.0,,-1.0,295.4100003,0.0,0.6082438520000001,1.0,0.708471106,0.0,0.28745137,0.0,0.564174476,False,,5f5f7ca62445b10428933069,,1147939,55,,evan-feature22,full_pf_a,,1
31,32298,56,,,,2,2,1.0,0.0,1.0,0.0,,0.0-58.0,,1.0,625.9050001,1.0,0.6051112120000001,1.0,0.7118147229999999,1.0,0.272390611,0.0,0.5595149939999999,False,,5f5f7ca62445b10428933069,,1158345,56,,evan-feature22,full_pf_a,,1
32,32299,57,,,,1,1,1.0,1.0,1.0,0.0,,0.0-59.0,,1.0,516.4350001,1.0,0.582420852,1.0,0.635867583,1.0,0.31089574,0.0,0.5227206520000001,False,,5f5f7ca62445b10428933069,,1168641,57,,evan-feature22,full_pf_a,,1
33,32300,58,,,,1,1,1.0,1.0,1.0,0.0,,0.0-60.0,,1.0,537.3849999,1.0,0.623195575,1.0,0.655026044,0.0,0.25,1.0,0.560387538,False,,5f5f7ca62445b10428933069,,1178958,58,,evan-feature22,full_pf_a,,0
34,32301,59,,,,2,2,1.0,0.0,0.0,-1.0,,0.0-61.0,,0.0,351.735,0.0,0.601889598,1.0,0.678198724,1.0,0.25,0.0,0.559922936,False,,5f5f7ca62445b10428933069,,1189094,59,,evan-feature22,full_pf_a,,1
35,32302,60,,,,1,1,0.0,0.0,1.0,0.0,,0.0-62.0,,0.0,3096.53,0.0,0.601259914,0.0,0.704681482,0.0,0.33908969299999997,0.0,0.505003715,False,,5f5f7ca62445b10428933069,,1201963,60,,evan-feature22,full_pf_a,,1
36,32303,61,,,,2,2,0.0,1.0,1.0,0.0,,0.0-63.0,,0.0,834.6449997999999,1.0,0.59645454,1.0,0.710437172,0.0,0.327441879,1.0,0.391749613,False,,5f5f7ca62445b10428933069,,1212584,61,,evan-feature22,full_pf_a,,1
37,32304,62,,,,1,1,1.0,1.0,0.0,-1.0,,0.0-64.0,,-1.0,714.0899999,1.0,0.529473,1.0,0.636758527,1.0,0.301338063,0.0,0.365661481,False,,5f5f7ca62445b10428933069,,1223070,62,,evan-feature22,full_pf_a,,1
38,32305,63,,,,1,1,1.0,1.0,1.0,0.0,,0.0-65.0,,1.0,550.6250001,1.0,0.541657162,1.0,0.634541962,1.0,0.343535366,0.0,0.371763742,False,,5f5f7ca62445b10428933069,,1233397,63,,evan-feature22,full_pf_a,,0
39,32306,64,,,,1,1,1.0,0.0,1.0,0.0,,0.0-66.0,,1.0,805.1049998,1.0,0.5707533260000001,0.0,0.589121171,1.0,0.326428396,1.0,0.43961622899999997,False,,5f5f7ca62445b10428933069,,1243982,64,,evan-feature22,full_pf_a,,0
40,32307,65,,,,2,2,0.0,1.0,0.0,-1.0,,0.0-67.0,,-1.0,961.96,0.0,0.5707533260000001,0.0,0.589121171,0.0,0.326428396,1.0,0.43961622899999997,False,,5f5f7ca62445b10428933069,,1254723,65,,evan-feature22,full_pf_a,,1
41,32308,66,,,,2,2,1.0,1.0,0.0,-1.0,,0.0-68.0,,-1.0,880.6099998999999,0.0,0.506271295,1.0,0.641775594,1.0,0.37149690700000004,1.0,0.404330166,False,,5f5f7ca62445b10428933069,,1265382,66,,evan-feature22,full_pf_a,,0
42,32309,67,,,,2,2,0.0,0.0,1.0,0.0,,0.0-69.0,,0.0,483.6849999,1.0,0.455642565,1.0,0.623605825,0.0,0.358753011,0.0,0.346174041,False,,5f5f7ca62445b10428933069,,1275638,67,,evan-feature22,full_pf_a,,0
43,32310,68,,,,1,1,1.0,1.0,0.0,-1.0,,0.0-70.0,,-1.0,627.9500001,1.0,0.483677308,1.0,0.5904681070000001,0.0,0.402218411,1.0,0.35344697,False,,5f5f7ca62445b10428933069,,1286058,68,,evan-feature22,full_pf_a,,1
44,32311,69,,,,2,2,1.0,0.0,1.0,0.0,,0.0-71.0,,1.0,398.59500019999996,1.0,0.394210977,1.0,0.558925494,1.0,0.540052017,0.0,0.35182128700000004,False,,5f5f7ca62445b10428933069,,1296240,69,,evan-feature22,full_pf_a,,1
45,32312,70,,,,1,1,0.0,1.0,0.0,-1.0,,0.0-72.0,,-1.0,259.4650001,0.0,0.382300414,1.0,0.577670603,1.0,0.607608448,0.0,0.378261578,False,,5f5f7ca62445b10428933069,,1306288,70,,evan-feature22,full_pf_a,,1
46,32313,71,,,,1,1,0.0,0.0,1.0,0.0,,0.0-73.0,,0.0,399.675,0.0,0.357596762,0.0,0.5929076529999999,0.0,0.6579790010000001,0.0,0.401326777,False,,5f5f7ca62445b10428933069,,1316467,71,,evan-feature22,full_pf_a,,0
47,32314,72,,,,2,2,1.0,1.0,0.0,-1.0,,0.0-74.0,,-1.0,539.8200001,1.0,0.362033495,0.0,0.582308608,1.0,0.649195052,1.0,0.355158505,False,,5f5f7ca62445b10428933069,,1326794,72,,evan-feature22,full_pf_a,,1
48,32315,73,,,,2,2,1.0,0.0,0.0,-1.0,,0.0-75.0,,0.0,382.0750001,1.0,0.369620635,1.0,0.669100864,1.0,0.706059111,0.0,0.362516241,False,,5f5f7ca62445b10428933069,,1336961,73,,evan-feature22,full_pf_a,,0
49,32316,74,,,,2,2,1.0,1.0,0.0,-1.0,,0.0-76.0,,-1.0,651.385,0.0,0.41477751399999996,0.0,0.7284416779999999,1.0,0.7182656940000001,1.0,0.36228040899999997,False,,5f5f7ca62445b10428933069,,1347392,74,,evan-feature22,full_pf_a,,0
50,32317,75,,,,2,2,1.0,1.0,1.0,0.0,,0.0-77.0,,1.0,411.2,0.0,0.37675460299999997,0.0,0.703250285,1.0,0.75,1.0,0.461979164,False,,5f5f7ca62445b10428933069,,1357581,75,,evan-feature22,full_pf_a,,0
51,32318,76,,,,2,2,1.0,1.0,1.0,0.0,,0.0-78.0,,1.0,1187.725,0.0,0.398716075,1.0,0.6723864890000001,1.0,0.674153818,1.0,0.519029516,False,,5f5f7ca62445b10428933069,,1368557,76,,evan-feature22,full_pf_a,,0
52,32319,77,,,,1,1,1.0,1.0,1.0,0.0,,0.0-79.0,,1.0,517.465,1.0,0.34677856700000004,1.0,0.69057175,0.0,0.6822438540000001,1.0,0.477292237,False,,5f5f7ca62445b10428933069,,1378871,77,,evan-feature22,full_pf_a,,1
53,32320,78,,,,2,2,1.0,1.0,0.0,-1.0,,0.0-80.0,,-1.0,1620.42,0.0,0.28580469199999997,0.0,0.68408818,1.0,0.684207565,1.0,0.49780448299999996,False,,5f5f7ca62445b10428933069,,1390273,78,,evan-feature22,full_pf_a,,1
54,32322,80,,,,1,1,0.0,1.0,0.0,-1.0,,0.0-82.0,,-1.0,841.12,0.0,0.25,1.0,0.7405808970000001,1.0,0.679614108,1.0,0.436436964,False,,5f5f7ca62445b10428933069,,1411148,80,,evan-feature22,full_pf_a,,1
55,32323,81,,,,2,2,0.0,0.0,0.0,-1.0,,0.0-83.0,,0.0,374.4899998,1.0,0.29890393,0.0,0.730505706,0.0,0.7328203320000001,0.0,0.439256938,False,,5f5f7ca62445b10428933069,,1421298,81,,evan-feature22,full_pf_a,,1
56,32324,82,,,,1,1,0.0,1.0,1.0,0.0,,0.0-84.0,,0.0,706.735,0.0,0.326762398,1.0,0.7148059609999999,1.0,0.75,0.0,0.44389608799999997,False,,5f5f7ca62445b10428933069,,1431785,82,,evan-feature22,full_pf_a,,1
57,32325,83,,,,1,1,0.0,0.0,0.0,-1.0,,0.0-85.0,,0.0,1136.87,0.0,0.295168515,0.0,0.739760854,1.0,0.719947008,0.0,0.35277284600000003,False,,5f5f7ca62445b10428933069,,1442701,83,,evan-feature22,full_pf_a,,0
58,32326,84,,,,2,2,1.0,1.0,0.0,-1.0,,0.0-86.0,,-1.0,1321.555,0.0,0.25,0.0,0.70781482,1.0,0.75,1.0,0.286095925,False,,5f5f7ca62445b10428933069,,1453795,84,,evan-feature22,full_pf_a,,1
59,32327,85,,,,2,2,1.0,0.0,0.0,-1.0,,0.0-87.0,,0.0,1329.85,0.0,0.25638190899999996,1.0,0.704088163,1.0,0.75,0.0,0.26872601399999996,False,,5f5f7ca62445b10428933069,,1464897,85,,evan-feature22,full_pf_a,,0
60,32328,86,,,,1,1,0.0,1.0,1.0,0.0,,0.0-88.0,,0.0,488.895,0.0,0.271581126,1.0,0.669760107,1.0,0.733896663,0.0,0.273244572,False,,5f5f7ca62445b10428933069,,1475163,86,,evan-feature22,full_pf_a,,1
61,32329,87,,,,1,1,0.0,1.0,0.0,-1.0,,0.0-89.0,,-1.0,1312.215,0.0,0.257144401,1.0,0.600575706,0.0,0.74488122,0.0,0.25,False,,5f5f7ca62445b10428933069,,1486253,87,,evan-feature22,full_pf_a,,0
62,32330,88,,,,1,1,0.0,0.0,0.0,-1.0,,0.0-90.0,,0.0,1012.79,0.0,0.25,0.0,0.616870026,1.0,0.723610234,0.0,0.25,False,,5f5f7ca62445b10428933069,,1497049,88,,evan-feature22,full_pf_a,,0
63,32331,89,,,,2,2,0.0,0.0,1.0,0.0,,0.0-91.0,,0.0,672.3549998999999,0.0,0.25,0.0,0.583540187,0.0,0.7041042559999999,0.0,0.285961995,False,,5f5f7ca62445b10428933069,,1507498,89,,evan-feature22,full_pf_a,,1
64,32332,90,,,,1,1,1.0,0.0,1.0,0.0,,0.0-92.0,,1.0,424.42000010000004,1.0,0.27254536,0.0,0.53875765,1.0,0.693783448,1.0,0.284961652,False,,5f5f7ca62445b10428933069,,1517699,90,,evan-feature22,full_pf_a,,1
65,32333,91,,,,1,1,0.0,1.0,1.0,0.0,,0.0-93.0,,0.0,799.3899997999999,0.0,0.25,1.0,0.548431252,1.0,0.734221895,0.0,0.279445214,False,,5f5f7ca62445b10428933069,,1528279,91,,evan-feature22,full_pf_a,,0
66,32334,92,,,,1,1,0.0,0.0,0.0,-1.0,,0.0-94.0,,0.0,476.4,0.0,0.258640684,0.0,0.545878066,1.0,0.725245965,0.0,0.31487537,False,,5f5f7ca62445b10428933069,,1538524,92,,evan-feature22,full_pf_a,,0
67,32335,93,,,,1,1,1.0,0.0,0.0,-1.0,,0.0-95.0,,0.0,740.0449999,1.0,0.251103711,0.0,0.5776290629999999,1.0,0.696320133,0.0,0.317831047,False,,5f5f7ca62445b10428933069,,1549039,93,,evan-feature22,full_pf_a,,0
68,32336,94,,,,2,2,0.0,0.0,0.0,-1.0,,0.0-96.0,,0.0,548.9349999,0.0,0.276630292,0.0,0.617329858,0.0,0.73838088,0.0,0.261471582,False,,5f5f7ca62445b10428933069,,1559363,94,,evan-feature22,full_pf_a,,1
69,32337,95,,,,2,2,1.0,1.0,0.0,-1.0,,0.0-97.0,,-1.0,664.6350003,0.0,0.297716424,0.0,0.618863717,1.0,0.7402358259999999,1.0,0.262600834,False,,5f5f7ca62445b10428933069,,1569805,95,,evan-feature22,full_pf_a,,0
70,32338,96,,,,1,1,0.0,1.0,1.0,0.0,,0.0-98.0,,0.0,530.9199997999999,0.0,0.290935512,1.0,0.695370945,1.0,0.706570507,1.0,0.280030553,False,,5f5f7ca62445b10428933069,,1580105,96,,evan-feature22,full_pf_a,,1
71,32339,97,,,,1,1,0.0,0.0,0.0,-1.0,,0.0-99.0,,0.0,820.5650002,0.0,0.25,0.0,0.6465277079999999,1.0,0.67766682,1.0,0.25,False,,5f5f7ca62445b10428933069,,1590703,97,,evan-feature22,full_pf_a,,0
72,32340,98,,,,2,2,1.0,1.0,1.0,0.0,,0.0-100.0,,1.0,488.66000030000004,0.0,0.26463816,1.0,0.636100213,1.0,0.646048507,1.0,0.265607101,False,,5f5f7ca62445b10428933069,,1600991,98,,evan-feature22,full_pf_a,,1
73,32341,99,,,,1,1,0.0,0.0,1.0,0.0,,0.0-101.0,,0.0,734.53,0.0,0.314340707,0.0,0.667795927,1.0,0.613630805,0.0,0.25,False,,5f5f7ca62445b10428933069,,1611501,99,,evan-feature22,full_pf_a,,1
74,32342,100,,,,2,2,1.0,0.0,0.0,-1.0,,0.0-102.0,,0.0,855.4499997000001,0.0,0.28685784,0.0,0.6622549529999999,1.0,0.652154117,0.0,0.25,False,,5f5f7ca62445b10428933069,,1622141,100,,evan-feature22,full_pf_a,,1
75,32343,101,,,,2,2,1.0,1.0,0.0,-1.0,,0.0-103.0,,-1.0,1033.805,1.0,0.304106554,0.0,0.631289538,1.0,0.707041942,1.0,0.29314237,False,,5f5f7ca62445b10428933069,,1632950,101,,evan-feature22,full_pf_a,,0
76,32344,102,,,,2,2,1.0,0.0,0.0,-1.0,,0.0-104.0,,0.0,401.2500001,0.0,0.304806932,1.0,0.571167718,1.0,0.680472346,0.0,0.25,False,,5f5f7ca62445b10428933069,,1643144,102,,evan-feature22,full_pf_a,,0
77,32345,103,,,,1,1,1.0,0.0,0.0,-1.0,,0.0-105.0,,0.0,1015.875,1.0,0.37919861,0.0,0.5724849710000001,0.0,0.705638003,0.0,0.30179300600000003,False,,5f5f7ca62445b10428933069,,1653940,103,,evan-feature22,full_pf_a,,1
78,32346,104,,,,2,2,1.0,0.0,0.0,-1.0,,0.0-106.0,,0.0,519.0949999,0.0,0.464277969,0.0,0.554034373,1.0,0.7372627340000001,0.0,0.264699741,False,,5f5f7ca62445b10428933069,,1664239,104,,evan-feature22,full_pf_a,,1
79,32347,105,,,,1,1,1.0,1.0,0.0,-1.0,,0.0-107.0,,-1.0,1006.895,1.0,0.465104323,1.0,0.530793115,0.0,0.75,0.0,0.31683071,False,,5f5f7ca62445b10428933069,,1675023,105,,evan-feature22,full_pf_a,,1
80,32348,106,,,,1,1,0.0,0.0,1.0,0.0,,0.0-108.0,,0.0,479.6850001,0.0,0.465104323,0.0,0.530793115,1.0,0.75,0.0,0.31683071,False,,5f5f7ca62445b10428933069,,1685277,106,,evan-feature22,full_pf_a,,0
81,32349,107,,,,2,2,1.0,0.0,1.0,0.0,,0.0-109.0,,1.0,946.5399999,1.0,0.46833986,0.0,0.570249239,1.0,0.7244472590000001,0.0,0.364114163,False,,5f5f7ca62445b10428933069,,1696012,107,,evan-feature22,full_pf_a,,1
82,32350,108,,,,2,2,1.0,0.0,1.0,0.0,,0.0-110.0,,1.0,318.21000019999997,1.0,0.445444024,1.0,0.649673355,1.0,0.6845441290000001,0.0,0.300660449,False,,5f5f7ca62445b10428933069,,1706106,108,,evan-feature22,full_pf_a,,0
83,32351,109,,,,1,1,0.0,1.0,1.0,0.0,,0.0-111.0,,0.0,1125.635,0.0,0.39909721299999995,1.0,0.6715179509999999,1.0,0.742310028,1.0,0.35496088299999995,False,,5f5f7ca62445b10428933069,,1717023,109,,evan-feature22,full_pf_a,,1
84,32352,110,,,,2,2,1.0,1.0,0.0,-1.0,,0.0-112.0,,-1.0,671.6850003999999,0.0,0.37956104799999996,0.0,0.694725302,1.0,0.7181651309999999,1.0,0.38726906299999997,False,,5f5f7ca62445b10428933069,,1727484,110,,evan-feature22,full_pf_a,,1
85,32353,111,,,,1,1,0.0,1.0,0.0,-1.0,,0.0-113.0,,-1.0,786.5200001000001,0.0,0.404995034,1.0,0.724375412,1.0,0.6910946859999999,0.0,0.387187347,False,,5f5f7ca62445b10428933069,,1738052,111,,evan-feature22,full_pf_a,,1
86,32354,112,,,,1,1,0.0,0.0,1.0,0.0,,0.0-114.0,,0.0,1089.865,0.0,0.461740803,0.0,0.75,1.0,0.75,0.0,0.34872038200000005,False,,5f5f7ca62445b10428933069,,1748921,112,,evan-feature22,full_pf_a,,0
87,32355,113,,,,2,2,0.0,0.0,1.0,0.0,,0.0-115.0,,0.0,1815.4,0.0,0.43821380600000004,1.0,0.738833273,0.0,0.728286963,0.0,0.399538128,False,,5f5f7ca62445b10428933069,,1760516,113,,evan-feature22,full_pf_a,,1
88,32356,114,,,,2,2,1.0,1.0,0.0,-1.0,,0.0-116.0,,-1.0,903.9450004,1.0,0.41709882,1.0,0.736666736,1.0,0.75,1.0,0.389095584,False,,5f5f7ca62445b10428933069,,1771196,114,,evan-feature22,full_pf_a,,0
89,32357,115,,,,1,1,0.0,1.0,0.0,-1.0,,0.0-117.0,,-1.0,965.5550001,0.0,0.39749009799999996,1.0,0.744320029,1.0,0.75,1.0,0.363848678,False,,5f5f7ca62445b10428933069,,1781940,115,,evan-feature22,full_pf_a,,1
90,32358,116,,,,2,2,1.0,1.0,1.0,0.0,,0.0-118.0,,1.0,683.2700004,1.0,0.392653706,1.0,0.75,1.0,0.75,1.0,0.384386976,False,,5f5f7ca62445b10428933069,,1792405,116,,evan-feature22,full_pf_a,,1
91,32359,117,,,,1,1,1.0,1.0,0.0,-1.0,,0.0-119.0,,-1.0,794.2749997999999,1.0,0.31190902600000003,1.0,0.75,0.0,0.732413819,0.0,0.413082932,False,,5f5f7ca62445b10428933069,,1802977,117,,evan-feature22,full_pf_a,,1
92,32360,118,,,,2,2,1.0,0.0,1.0,0.0,,0.0-120.0,,1.0,288.5449999,0.0,0.366917648,0.0,0.740073855,1.0,0.75,0.0,0.352861979,False,,5f5f7ca62445b10428933069,,1813055,118,,evan-feature22,full_pf_a,,1
93,32361,119,,,,1,1,0.0,1.0,1.0,0.0,,0.0-121.0,,0.0,613.4299999,0.0,0.3645172,1.0,0.721770713,0.0,0.75,1.0,0.404074511,False,,5f5f7ca62445b10428933069,,1823457,119,,evan-feature22,full_pf_a,,1
94,32362,120,,,,2,2,0.0,0.0,1.0,0.0,,0.0-122.0,,0.0,1167.18,0.0,0.35205600299999995,1.0,0.68983859,0.0,0.739735447,0.0,0.366895945,False,,5f5f7ca62445b10428933069,,1834404,120,,evan-feature22,full_pf_a,,1
95,32363,121,,,,2,2,1.0,1.0,1.0,0.0,,0.0-123.0,,1.0,744.4000002,0.0,0.40998722600000004,0.0,0.720859127,1.0,0.673854955,1.0,0.368528541,False,,5f5f7ca62445b10428933069,,1844923,121,,evan-feature22,full_pf_a,,0
96,32364,122,,,,1,1,0.0,0.0,1.0,0.0,,0.0-124.0,,0.0,763.0850002000001,0.0,0.353625316,0.0,0.75,1.0,0.695605473,1.0,0.38303674200000004,False,,5f5f7ca62445b10428933069,,1855462,122,,evan-feature22,full_pf_a,,1
97,32365,123,,,,1,1,0.0,1.0,1.0,0.0,,0.0-125.0,,0.0,948.5150002999999,0.0,0.359216989,1.0,0.75,0.0,0.6987915090000001,0.0,0.35169046200000004,False,,5f5f7ca62445b10428933069,,1866184,123,,evan-feature22,full_pf_a,,0
98,32366,124,,,,2,2,1.0,0.0,1.0,0.0,,0.0-126.0,,1.0,815.2199998,0.0,0.35834496899999996,1.0,0.75,1.0,0.707067742,0.0,0.416763636,False,,5f5f7ca62445b10428933069,,1876785,124,,evan-feature22,full_pf_a,,1
99,32367,125,,,,1,1,0.0,1.0,0.0,-1.0,,0.0-127.0,,-1.0,1306.595,0.0,0.38741613799999997,1.0,0.7177369570000001,1.0,0.734902455,1.0,0.49438664299999996,False,,5f5f7ca62445b10428933069,,1887874,125,,evan-feature22,full_pf_a,,1
100,32368,126,,,,1,1,0.0,1.0,1.0,0.0,,0.0-128.0,,0.0,1365.515,0.0,0.405255252,1.0,0.7300466640000001,0.0,0.7027748070000001,0.0,0.504359668,False,,5f5f7ca62445b10428933069,,1899028,126,,evan-feature22,full_pf_a,,0
101,32369,127,,,,1,1,0.0,0.0,1.0,0.0,,0.0-129.0,,0.0,881.8650004000001,0.0,0.40697073,0.0,0.7260142190000001,0.0,0.724461982,0.0,0.522779179,False,,5f5f7ca62445b10428933069,,1909687,127,,evan-feature22,full_pf_a,,0
102,32370,128,,,,1,1,1.0,0.0,1.0,0.0,,0.0-130.0,,1.0,1261.435,1.0,0.43906215299999996,0.0,0.7252802340000001,1.0,0.719079934,1.0,0.5712990579999999,False,,5f5f7ca62445b10428933069,,1920734,128,,evan-feature22,full_pf_a,,0
103,32371,129,,,,2,2,0.0,0.0,0.0,-1.0,,0.0-131.0,,0.0,1535.525,0.0,0.4076705,1.0,0.73280499,0.0,0.681313127,0.0,0.523891346,False,,5f5f7ca62445b10428933069,,1932050,129,,evan-feature22,full_pf_a,,1
104,32372,130,,,,1,1,0.0,1.0,0.0,-1.0,,0.0-132.0,,-1.0,2094.115,0.0,0.399102911,1.0,0.730498344,1.0,0.661080239,0.0,0.46742603,False,,5f5f7ca62445b10428933069,,1943925,130,,evan-feature22,full_pf_a,,1
105,32373,131,,,,1,1,0.0,0.0,0.0,-1.0,,0.0-133.0,,0.0,1146.785,0.0,0.356477282,0.0,0.712296395,0.0,0.641812684,1.0,0.44868414,False,,5f5f7ca62445b10428933069,,1954852,131,,evan-feature22,full_pf_a,,0
106,32374,132,,,,2,2,1.0,0.0,1.0,0.0,,0.0-134.0,,1.0,331.98500010000004,0.0,0.462760722,1.0,0.692349322,1.0,0.700947931,0.0,0.394680266,False,,5f5f7ca62445b10428933069,,1964961,132,,evan-feature22,full_pf_a,,1
107,32375,133,,,,1,1,1.0,1.0,1.0,0.0,,0.0-135.0,,1.0,1916.415,1.0,0.422306413,1.0,0.718375916,1.0,0.706340917,1.0,0.367787185,False,,5f5f7ca62445b10428933069,,1976660,133,,evan-feature22,full_pf_a,,1
108,32377,135,,,,2,2,1.0,0.0,1.0,0.0,,0.0-137.0,,1.0,935.5449997999999,0.0,0.4582233,1.0,0.643834117,1.0,0.75,0.0,0.39615823299999997,False,,5f5f7ca62445b10428933069,,1992361,135,,evan-feature22,full_pf_a,,1
109,32378,136,,,,1,1,1.0,1.0,1.0,0.0,,0.0-138.0,,1.0,963.3650002,1.0,0.43813437899999996,1.0,0.651283804,0.0,0.729674191,0.0,0.37711048,False,,5f5f7ca62445b10428933069,,2003106,136,,evan-feature22,full_pf_a,,1
110,32379,137,,,,1,1,1.0,1.0,1.0,0.0,,0.0-139.0,,1.0,962.7550002,1.0,0.471199094,1.0,0.6470010979999999,1.0,0.715008097,0.0,0.410656191,False,,5f5f7ca62445b10428933069,,2013848,137,,evan-feature22,full_pf_a,,0
111,32380,138,,,,2,2,1.0,0.0,1.0,0.0,,0.0-140.0,,1.0,1428.08,1.0,0.42486406,1.0,0.629771829,1.0,0.6550939960000001,0.0,0.459093873,False,,5f5f7ca62445b10428933069,,2025076,138,,evan-feature22,full_pf_a,,1
112,32381,139,,,,1,1,1.0,1.0,1.0,0.0,,0.0-141.0,,1.0,852.2000001,1.0,0.4803197,1.0,0.645842715,1.0,0.6421749920000001,1.0,0.443092151,False,,5f5f7ca62445b10428933069,,2035714,139,,evan-feature22,full_pf_a,,1
113,32382,140,,,,1,1,0.0,1.0,0.0,-1.0,,0.0-142.0,,-1.0,1912.43,0.0,0.521848997,1.0,0.735801074,1.0,0.6691348460000001,1.0,0.45259351600000003,False,,5f5f7ca62445b10428933069,,2047428,140,,evan-feature22,full_pf_a,,0
114,32383,141,,,,2,2,1.0,1.0,1.0,0.0,,0.0-143.0,,1.0,916.7999998,0.0,0.49565621299999996,0.0,0.742400847,1.0,0.661512553,1.0,0.483110831,False,,5f5f7ca62445b10428933069,,2058120,141,,evan-feature22,full_pf_a,,1
115,32384,142,,,,1,1,0.0,0.0,1.0,0.0,,0.0-144.0,,0.0,717.5750001,0.0,0.521564361,0.0,0.731078632,1.0,0.6774886809999999,1.0,0.483263956,False,,5f5f7ca62445b10428933069,,2068616,142,,evan-feature22,full_pf_a,,1
116,32385,143,,,,1,1,0.0,0.0,1.0,0.0,,0.0-145.0,,0.0,464.135,0.0,0.558893102,0.0,0.719810023,1.0,0.67461031,1.0,0.499349834,False,,5f5f7ca62445b10428933069,,2078858,143,,evan-feature22,full_pf_a,,0
117,32386,144,,,,1,1,0.0,0.0,1.0,0.0,,0.0-146.0,,0.0,1180.405,0.0,0.611031046,0.0,0.75,1.0,0.688072995,0.0,0.5321422729999999,False,,5f5f7ca62445b10428933069,,2089814,144,,evan-feature22,full_pf_a,,0
118,32387,145,,,,2,2,1.0,0.0,0.0,-1.0,,0.0-147.0,,0.0,1129.135,0.0,0.633223941,0.0,0.713567728,1.0,0.75,0.0,0.48185314700000004,False,,5f5f7ca62445b10428933069,,2100718,145,,evan-feature22,full_pf_a,,1
119,32388,146,,,,1,1,1.0,1.0,1.0,0.0,,0.0-148.0,,1.0,1223.395,1.0,0.664001694,1.0,0.705509768,1.0,0.75,1.0,0.500211065,False,,5f5f7ca62445b10428933069,,2111728,146,,evan-feature22,full_pf_a,,1
120,32389,147,,,,1,1,1.0,1.0,1.0,0.0,,0.0-149.0,,1.0,955.79,1.0,0.664001694,1.0,0.705509768,1.0,0.75,0.0,0.500211065,False,,5f5f7ca62445b10428933069,,2122468,147,,evan-feature22,full_pf_a,,0
121,32390,148,,,,1,1,1.0,1.0,1.0,0.0,,0.0-150.0,,1.0,473.59999969999996,1.0,0.696508041,1.0,0.71066027,1.0,0.717028709,0.0,0.49792991,False,,5f5f7ca62445b10428933069,,2132737,148,,evan-feature22,full_pf_a,,0
122,32391,149,,,,2,2,0.0,1.0,0.0,-1.0,,0.0-151.0,,-1.0,1515.75,1.0,0.699883272,1.0,0.75,0.0,0.713543895,1.0,0.496962643,False,,5f5f7ca62445b10428933069,,2144033,149,,evan-feature22,full_pf_a,,1
123,32392,150,,,,2,2,1.0,1.0,0.0,-1.0,,0.0-152.0,,-1.0,1202.635,1.0,0.741163419,1.0,0.75,1.0,0.64691024,1.0,0.513858197,False,,5f5f7ca62445b10428933069,,2155019,150,,evan-feature22,full_pf_a,,0
124,32393,151,,,,2,2,1.0,0.0,0.0,-1.0,,0.0-153.0,,0.0,822.6899998,1.0,0.75,0.0,0.70816558,1.0,0.594499079,0.0,0.48502124,False,,5f5f7ca62445b10428933069,,2165628,151,,evan-feature22,full_pf_a,,0
125,32394,152,,,,1,1,0.0,0.0,1.0,0.0,,0.0-154.0,,0.0,995.3899997999999,0.0,0.75,0.0,0.721848901,1.0,0.62197249,0.0,0.48263586399999997,False,,5f5f7ca62445b10428933069,,2176402,152,,evan-feature22,full_pf_a,,1
126,32395,153,,,,2,2,1.0,0.0,1.0,0.0,,0.0-155.0,,1.0,911.1449997999999,0.0,0.75,1.0,0.74813071,1.0,0.584357161,0.0,0.411477782,False,,5f5f7ca62445b10428933069,,2187091,153,,evan-feature22,full_pf_a,,1
127,32396,154,,,,1,1,0.0,1.0,1.0,0.0,,0.0-156.0,,0.0,513.9800003,0.0,0.75,1.0,0.75,1.0,0.52287236,0.0,0.488290656,False,,5f5f7ca62445b10428933069,,2197389,154,,evan-feature22,full_pf_a,,1
128,32397,155,,,,2,2,0.0,1.0,1.0,0.0,,0.0-157.0,,0.0,615.5500002,1.0,0.75,0.0,0.75,0.0,0.544321581,1.0,0.53143059,False,,5f5f7ca62445b10428933069,,2207796,155,,evan-feature22,full_pf_a,,1
129,32398,156,,,,2,2,1.0,0.0,1.0,0.0,,0.0-158.0,,1.0,263.425,0.0,0.726754564,1.0,0.75,1.0,0.5129306370000001,0.0,0.530592445,False,,5f5f7ca62445b10428933069,,2217839,156,,evan-feature22,full_pf_a,,0
130,32399,157,,,,1,1,1.0,1.0,0.0,-1.0,,0.0-159.0,,-1.0,755.6600003,1.0,0.75,1.0,0.7392590729999999,0.0,0.479875835,1.0,0.547007051,False,,5f5f7ca62445b10428933069,,2228376,157,,evan-feature22,full_pf_a,,1
131,32400,158,,,,2,2,0.0,0.0,0.0,-1.0,,0.0-160.0,,0.0,1054.21,1.0,0.75,1.0,0.7393376979999999,0.0,0.546045419,0.0,0.541267353,False,,5f5f7ca62445b10428933069,,2239217,158,,evan-feature22,full_pf_a,,1
132,32401,159,,,,1,1,1.0,1.0,1.0,0.0,,0.0-161.0,,1.0,688.8100002,1.0,0.75,1.0,0.75,0.0,0.485725895,0.0,0.527625395,False,,5f5f7ca62445b10428933069,,2249697,159,,evan-feature22,full_pf_a,,1
133,32402,160,,,,2,2,0.0,0.0,0.0,-1.0,,0.0-162.0,,0.0,529.3050003000001,1.0,0.75,0.0,0.725087974,0.0,0.488603595,0.0,0.504019206,False,,5f5f7ca62445b10428933069,,2260006,160,,evan-feature22,full_pf_a,,1
134,32403,161,,,,1,1,1.0,1.0,1.0,0.0,,0.0-163.0,,1.0,876.9650002999998,1.0,0.745504295,1.0,0.75,1.0,0.452379914,0.0,0.50131194,False,,5f5f7ca62445b10428933069,,2270666,161,,evan-feature22,full_pf_a,,1
135,32404,162,,,,2,2,0.0,1.0,0.0,-1.0,,0.0-164.0,,-1.0,703.975,1.0,0.728513874,1.0,0.75,0.0,0.44125567200000004,1.0,0.531454591,False,,5f5f7ca62445b10428933069,,2281157,162,,evan-feature22,full_pf_a,,1
136,32405,163,,,,1,1,0.0,0.0,1.0,0.0,,0.0-165.0,,0.0,437.9750001,0.0,0.73790804,0.0,0.75,1.0,0.413036656,0.0,0.524619035,False,,5f5f7ca62445b10428933069,,2291378,163,,evan-feature22,full_pf_a,,1
137,32406,164,,,,1,1,1.0,1.0,1.0,0.0,,0.0-166.0,,1.0,1080.28,1.0,0.7080961309999999,1.0,0.708666865,0.0,0.431915581,1.0,0.481819489,False,,5f5f7ca62445b10428933069,,2302243,164,,evan-feature22,full_pf_a,,0
138,32407,165,,,,2,2,0.0,1.0,1.0,0.0,,0.0-167.0,,0.0,1086.005,1.0,0.721378003,1.0,0.71605913,0.0,0.36642387,1.0,0.5036739929999999,False,,5f5f7ca62445b10428933069,,2313123,165,,evan-feature22,full_pf_a,,1
139,32408,166,,,,2,2,0.0,1.0,0.0,-1.0,,0.0-168.0,,-1.0,2759.315,1.0,0.7340618959999999,0.0,0.699323252,0.0,0.35298046299999997,1.0,0.511241692,False,,5f5f7ca62445b10428933069,,2325697,166,,evan-feature22,full_pf_a,,0
140,32409,167,,,,1,1,0.0,0.0,0.0,-1.0,,0.0-169.0,,0.0,465.89499989999996,0.0,0.75,0.0,0.70412698,1.0,0.380734814,1.0,0.529580116,False,,5f5f7ca62445b10428933069,,2335943,167,,evan-feature22,full_pf_a,,1
141,32410,168,,,,2,2,1.0,1.0,0.0,-1.0,,0.0-170.0,,-1.0,585.4100003,0.0,0.7436654909999999,1.0,0.711182751,1.0,0.41125331,1.0,0.49554405,False,,5f5f7ca62445b10428933069,,2346317,168,,evan-feature22,full_pf_a,,1
142,32411,169,,,,1,1,1.0,1.0,1.0,0.0,,0.0-171.0,,1.0,443.7199999,1.0,0.731607915,1.0,0.651774583,1.0,0.35688023,1.0,0.45194491600000003,False,,5f5f7ca62445b10428933069,,2356538,169,,evan-feature22,full_pf_a,,1
143,32412,170,,,,2,2,0.0,0.0,0.0,-1.0,,0.0-172.0,,0.0,521.7800001,1.0,0.75,1.0,0.75,0.0,0.283145374,0.0,0.528608005,False,,5f5f7ca62445b10428933069,,2366839,170,,evan-feature22,full_pf_a,,1
144,32413,171,,,,1,1,1.0,1.0,1.0,0.0,,0.0-173.0,,1.0,504.1550002,1.0,0.7491416890000001,1.0,0.7423785959999999,0.0,0.29135870399999997,0.0,0.498888318,False,,5f5f7ca62445b10428933069,,2377128,171,,evan-feature22,full_pf_a,,1
145,32414,172,,,,2,2,0.0,1.0,0.0,-1.0,,0.0-174.0,,-1.0,777.5300001,0.0,0.708569387,1.0,0.717682277,0.0,0.294421699,1.0,0.493838163,False,,5f5f7ca62445b10428933069,,2387689,172,,evan-feature22,full_pf_a,,1
146,32415,173,,,,1,1,1.0,1.0,1.0,0.0,,0.0-175.0,,1.0,645.645,1.0,0.75,1.0,0.7383382159999999,1.0,0.356098707,0.0,0.442533405,False,,5f5f7ca62445b10428933069,,2398129,173,,evan-feature22,full_pf_a,,1
147,32416,174,,,,2,2,0.0,0.0,1.0,0.0,,0.0-176.0,,0.0,550.2149998,1.0,0.744527075,0.0,0.75,0.0,0.334127506,0.0,0.393165805,False,,5f5f7ca62445b10428933069,,2408462,174,,evan-feature22,full_pf_a,,1
148,32417,175,,,,2,2,1.0,0.0,1.0,0.0,,0.0-177.0,,1.0,855.1099998999999,1.0,0.75,1.0,0.75,1.0,0.33571021799999995,0.0,0.350393962,False,,5f5f7ca62445b10428933069,,2419102,175,,evan-feature22,full_pf_a,,0
149,32418,176,,,,1,1,1.0,1.0,0.0,-1.0,,0.0-178.0,,-1.0,698.3150002,1.0,0.75,1.0,0.75,0.0,0.313628297,0.0,0.36349657399999996,False,,5f5f7ca62445b10428933069,,2429582,176,,evan-feature22,full_pf_a,,1
150,32419,177,,,,2,2,1.0,0.0,1.0,0.0,,0.0-179.0,,1.0,1196.695,0.0,0.75,1.0,0.734284182,1.0,0.262667667,0.0,0.380199119,False,,5f5f7ca62445b10428933069,,2440563,177,,evan-feature22,full_pf_a,,1
151,32420,178,,,,1,1,1.0,0.0,1.0,0.0,,0.0-180.0,,1.0,651.24,1.0,0.75,0.0,0.75,0.0,0.25,1.0,0.394494013,False,,5f5f7ca62445b10428933069,,2451005,178,,evan-feature22,full_pf_a,,1
152,32421,179,,,,2,2,0.0,0.0,1.0,0.0,,0.0-181.0,,0.0,519.8899996,1.0,0.722298145,1.0,0.7357822340000001,0.0,0.25,0.0,0.319142121,False,,5f5f7ca62445b10428933069,,2461303,179,,evan-feature22,full_pf_a,,1
153,32422,180,,,,1,1,1.0,1.0,1.0,0.0,,0.0-182.0,,1.0,533.1999999,1.0,0.73149275,1.0,0.724276446,0.0,0.305856907,0.0,0.281315057,False,,5f5f7ca62445b10428933069,,2471610,180,,evan-feature22,full_pf_a,,1
154,32423,181,,,,2,2,0.0,0.0,1.0,0.0,,0.0-183.0,,0.0,490.3850001,1.0,0.7458732690000001,1.0,0.7336382459999999,0.0,0.272571964,0.0,0.266021999,False,,5f5f7ca62445b10428933069,,2481876,181,,evan-feature22,full_pf_a,,1
155,32424,182,,,,2,2,0.0,0.0,0.0,-1.0,,0.0-184.0,,0.0,873.78,1.0,0.705579037,1.0,0.720778292,0.0,0.320238144,0.0,0.30971744,False,,5f5f7ca62445b10428933069,,2492531,182,,evan-feature22,full_pf_a,,0
156,32425,183,,,,2,2,0.0,0.0,0.0,-1.0,,0.0-185.0,,0.0,3528.98,1.0,0.700425648,1.0,0.7198784009999999,0.0,0.272590393,0.0,0.304182931,False,,5f5f7ca62445b10428933069,,2505836,183,,evan-feature22,full_pf_a,,0
157,32426,184,,,,2,2,0.0,0.0,0.0,-1.0,,0.0-186.0,,0.0,797.0199999,1.0,0.735590785,1.0,0.722714973,0.0,0.25,0.0,0.323421091,False,,5f5f7ca62445b10428933069,,2516418,184,,evan-feature22,full_pf_a,,0
158,32427,185,,,,2,2,0.0,0.0,0.0,-1.0,,0.0-187.0,,0.0,300.4350001,0.0,0.724807662,0.0,0.63146213,0.0,0.36836492600000004,0.0,0.34592153299999995,False,,5f5f7ca62445b10428933069,,2526496,185,,evan-feature22,full_pf_a,,0
159,32428,186,,,,1,1,1.0,1.0,1.0,0.0,,0.0-188.0,,1.0,460.0800001,1.0,0.7352796909999999,1.0,0.555111392,1.0,0.36003922,1.0,0.31433779999999995,False,,5f5f7ca62445b10428933069,,2536744,186,,evan-feature22,full_pf_a,,1
160,32429,187,notice,,,,,,,,,,0.0-189.0,"{""Q0"":""Positive sums for yellow more common?""}",,27731.0,,,,,,,,,False,,5f5f7ca62445b10428933069,,2564480,187,Q,survey-text,full_pf_a,,1
161,32430,188,track1,,[1],,,,,,,,0.0-190.0,"{""Q0"":""no""}",,3050.0,,,,,,,,,False,,5f5f7ca62445b10428933069,,2567536,188,Q,evan-quiz,full_pf_a,,1
162,32431,189,track2,,[2],,,,,,,,0.0-191.0,"{""Q0"":""N/A""}",,4987.0,,,,,,,,,False,,5f5f7ca62445b10428933069,,2572534,189,Q,evan-quiz,full_pf_a,,1
163,32432,190,strat,,,,,,,,,,0.0-192.0,"{""Q0"":""If an alien appeared on one door, I assumed they'd appear on the  other next round.""}",,19829.0,,,,,,,,,False,,5f5f7ca62445b10428933069,,2592374,190,Q,survey-text,full_pf_a,,1
