,index,Unnamed: 0,Q_name,button_pressed,choice_idxs,chosen_pos,chosen_state,chosen_state_f_1_outcome,chosen_state_f_2_outcome,f_1_reward,f_2_reward,incor_questions,internal_node_id,responses,reward_received,rt,s_1_f_1_outcome,s_1_f_1_prob,s_1_f_2_outcome,s_1_f_2_prob,s_2_f_1_outcome,s_2_f_1_prob,s_2_f_2_outcome,s_2_f_2_prob,safe_first,stimulus,subjectID,success,time_elapsed,trial_index,trial_num,trial_type,version,view_history,switching
0,30702,30,,,,1,1,0.0,1.0,-1.0,0.0,,0.0-27.0,,0.0,755.945,0.0,0.6,1.0,0.6,0.0,0.4,0.0,0.4,False,,5cc6f89fee8e8d0001bc6822,,764461,30,,evan-feature22,full_pf_b,,0
1,30703,31,,,,2,2,0.0,0.0,-1.0,0.0,,0.0-28.0,,0.0,344.94,1.0,0.608053294,0.0,0.63424552,0.0,0.397152172,0.0,0.347069101,False,,5cc6f89fee8e8d0001bc6822,,774647,31,,evan-feature22,full_pf_b,,1
2,30704,32,,,,2,2,1.0,1.0,-1.0,0.0,,0.0-29.0,,-1.0,1294.37,0.0,0.642237155,1.0,0.648566321,1.0,0.389407674,1.0,0.285525717,False,,5cc6f89fee8e8d0001bc6822,,785782,32,,evan-feature22,full_pf_b,,0
3,30705,33,,,,1,1,1.0,1.0,-1.0,0.0,,0.0-30.0,,-1.0,3901.29,1.0,0.661086576,1.0,0.630492543,0.0,0.399058924,0.0,0.25,False,,5cc6f89fee8e8d0001bc6822,,799504,33,,evan-feature22,full_pf_b,,1
4,30706,34,,,,1,1,1.0,1.0,0.0,1.0,,0.0-31.0,,1.0,931.67,1.0,0.631324137,1.0,0.6269842929999999,0.0,0.38734784299999997,1.0,0.25,False,,5cc6f89fee8e8d0001bc6822,,810263,34,,evan-feature22,full_pf_b,,0
5,30707,35,,,,1,1,1.0,0.0,0.0,1.0,,0.0-32.0,,0.0,423.24,1.0,0.6381991370000001,0.0,0.68987999,0.0,0.384107265,0.0,0.271332943,False,,5cc6f89fee8e8d0001bc6822,,820538,35,,evan-feature22,full_pf_b,,0
6,30708,36,,,,1,1,1.0,1.0,-1.0,0.0,,0.0-33.0,,-1.0,633.615,1.0,0.66034901,1.0,0.742641349,0.0,0.360225629,0.0,0.25,False,,5cc6f89fee8e8d0001bc6822,,830990,36,,evan-feature22,full_pf_b,,0
7,30709,37,,,,1,1,1.0,1.0,-1.0,0.0,,0.0-34.0,,-1.0,1886.81,1.0,0.638612418,1.0,0.75,0.0,0.367273939,0.0,0.25,False,,5cc6f89fee8e8d0001bc6822,,842685,37,,evan-feature22,full_pf_b,,0
8,30710,38,,,,2,2,1.0,0.0,0.0,1.0,,0.0-35.0,,0.0,729.225,0.0,0.624340629,0.0,0.75,1.0,0.425829545,0.0,0.25,False,,5cc6f89fee8e8d0001bc6822,,853219,38,,evan-feature22,full_pf_b,,1
9,30711,39,,,,2,2,0.0,0.0,0.0,1.0,,0.0-36.0,,0.0,519.615,1.0,0.621999804,1.0,0.75,0.0,0.368609357,0.0,0.25,False,,5cc6f89fee8e8d0001bc6822,,863541,39,,evan-feature22,full_pf_b,,0
10,30712,40,,,,2,2,0.0,0.0,-1.0,0.0,,0.0-37.0,,0.0,1922.945,0.0,0.62666403,1.0,0.75,0.0,0.311151498,0.0,0.25,False,,5cc6f89fee8e8d0001bc6822,,875294,40,,evan-feature22,full_pf_b,,0
11,30713,41,,,,2,2,0.0,0.0,0.0,1.0,,0.0-38.0,,0.0,23.445,1.0,0.6819650009999999,0.0,0.75,0.0,0.310763048,0.0,0.25,False,,5cc6f89fee8e8d0001bc6822,,885122,41,,evan-feature22,full_pf_b,,0
12,30714,42,,,,1,1,1.0,1.0,-1.0,0.0,,0.0-39.0,,-1.0,224.655,1.0,0.740626951,1.0,0.75,0.0,0.25,0.0,0.25,False,,5cc6f89fee8e8d0001bc6822,,895187,42,,evan-feature22,full_pf_b,,1
13,30715,43,,,,1,1,1.0,1.0,-1.0,0.0,,0.0-40.0,,-1.0,174.035,1.0,0.739599242,1.0,0.742034978,1.0,0.25397114600000004,1.0,0.25,False,,5cc6f89fee8e8d0001bc6822,,905183,43,,evan-feature22,full_pf_b,,0
14,30716,44,,,,1,1,0.0,1.0,-1.0,0.0,,0.0-41.0,,0.0,949.025,0.0,0.732341315,1.0,0.72735643,0.0,0.25,1.0,0.25,False,,5cc6f89fee8e8d0001bc6822,,915979,44,,evan-feature22,full_pf_b,,0
15,30717,45,,,,2,2,0.0,0.0,-1.0,0.0,,0.0-42.0,,0.0,906.8,1.0,0.7062287770000001,0.0,0.75,0.0,0.29002151,0.0,0.288256649,False,,5cc6f89fee8e8d0001bc6822,,926674,45,,evan-feature22,full_pf_b,,1
16,30718,46,,,,2,2,0.0,0.0,-1.0,0.0,,0.0-43.0,,0.0,1025.54,1.0,0.7086029209999999,0.0,0.75,0.0,0.274129113,0.0,0.262851608,False,,5cc6f89fee8e8d0001bc6822,,937515,46,,evan-feature22,full_pf_b,,0
17,30719,47,,,,1,1,1.0,1.0,-1.0,0.0,,0.0-44.0,,-1.0,114.705,1.0,0.669189651,1.0,0.727614338,0.0,0.298444036,1.0,0.296944518,False,,5cc6f89fee8e8d0001bc6822,,947464,47,,evan-feature22,full_pf_b,,1
18,30720,48,,,,1,1,1.0,1.0,-1.0,0.0,,0.0-45.0,,-1.0,754.185,1.0,0.6819912929999999,1.0,0.7179434290000001,1.0,0.265003961,0.0,0.28157921199999997,False,,5cc6f89fee8e8d0001bc6822,,958032,48,,evan-feature22,full_pf_b,,0
19,30721,49,,,,2,2,0.0,1.0,0.0,1.0,,0.0-46.0,,1.0,945.845,1.0,0.665275002,1.0,0.723065271,0.0,0.260414971,1.0,0.30973870000000003,False,,5cc6f89fee8e8d0001bc6822,,968804,49,,evan-feature22,full_pf_b,,1
20,30722,50,,,,2,2,0.0,1.0,-1.0,0.0,,0.0-47.0,,0.0,685.565,1.0,0.6660593260000001,1.0,0.728032907,0.0,0.30922817,1.0,0.338778608,False,,5cc6f89fee8e8d0001bc6822,,979337,50,,evan-feature22,full_pf_b,,0
21,30723,51,,,,2,2,1.0,1.0,-1.0,0.0,,0.0-48.0,,-1.0,814.335,1.0,0.702068785,1.0,0.6528750879999999,1.0,0.287329608,1.0,0.35789613200000003,False,,5cc6f89fee8e8d0001bc6822,,989974,51,,evan-feature22,full_pf_b,,0
22,30724,52,,,,2,2,0.0,0.0,-1.0,0.0,,0.0-49.0,,0.0,3607.435,1.0,0.651939787,0.0,0.636725589,0.0,0.284834488,0.0,0.358563756,False,,5cc6f89fee8e8d0001bc6822,,1003393,52,,evan-feature22,full_pf_b,,0
23,30725,53,,,,2,2,1.0,0.0,0.0,1.0,,0.0-50.0,,0.0,1234.465,1.0,0.67573929,1.0,0.612550049,1.0,0.37130387600000003,0.0,0.383542402,False,,5cc6f89fee8e8d0001bc6822,,1014439,53,,evan-feature22,full_pf_b,,0
24,30726,54,,,,1,1,1.0,0.0,0.0,1.0,,0.0-51.0,,0.0,327.095,1.0,0.620753801,0.0,0.60513644,1.0,0.385529434,0.0,0.340361743,False,,5cc6f89fee8e8d0001bc6822,,1024579,54,,evan-feature22,full_pf_b,,1
25,30727,55,,,,1,1,1.0,1.0,0.0,1.0,,0.0-52.0,,1.0,610.6,1.0,0.673564893,1.0,0.672437924,1.0,0.292955382,0.0,0.337633795,False,,5cc6f89fee8e8d0001bc6822,,1034975,55,,evan-feature22,full_pf_b,,0
26,30728,56,,,,2,2,0.0,0.0,-1.0,0.0,,0.0-53.0,,0.0,570.385,1.0,0.6749427,0.0,0.724197502,0.0,0.32391132100000003,0.0,0.350995264,False,,5cc6f89fee8e8d0001bc6822,,1045340,56,,evan-feature22,full_pf_b,,1
27,30729,57,,,,2,2,0.0,1.0,-1.0,0.0,,0.0-54.0,,0.0,1514.03,0.0,0.6940159379999999,0.0,0.75,0.0,0.31710554399999996,1.0,0.413450341,False,,5cc6f89fee8e8d0001bc6822,,1056683,57,,evan-feature22,full_pf_b,,0
28,30730,58,,,,2,2,0.0,0.0,-1.0,0.0,,0.0-55.0,,0.0,1780.815,0.0,0.6916018270000001,0.0,0.69001187,0.0,0.261817804,0.0,0.40038635,False,,5cc6f89fee8e8d0001bc6822,,1068267,58,,evan-feature22,full_pf_b,,0
29,30731,59,,,,1,1,0.0,0.0,-1.0,0.0,,0.0-56.0,,0.0,2883.855,0.0,0.641061544,0.0,0.71337992,0.0,0.277296461,1.0,0.47372791700000005,False,,5cc6f89fee8e8d0001bc6822,,1080962,59,,evan-feature22,full_pf_b,,1
30,30732,60,,,,SLOW,SLOW,,,-1.0,0.0,,0.0-57.0,,-3.0,,1.0,0.6082438520000001,1.0,0.708471106,0.0,0.28745137,1.0,0.564174476,False,,5cc6f89fee8e8d0001bc6822,,1086779,60,,evan-feature22,full_pf_b,,1
31,30733,61,,,,1,1,0.0,1.0,-1.0,0.0,,0.0-58.0,,0.0,1279.695,0.0,0.6051112120000001,1.0,0.7118147229999999,1.0,0.272390611,1.0,0.5595149939999999,False,,5cc6f89fee8e8d0001bc6822,,1097885,61,,evan-feature22,full_pf_b,,1
32,30734,62,,,,1,1,1.0,0.0,-1.0,0.0,,0.0-59.0,,-1.0,1000.34,1.0,0.582420852,0.0,0.635867583,1.0,0.31089574,1.0,0.5227206520000001,False,,5cc6f89fee8e8d0001bc6822,,1108717,62,,evan-feature22,full_pf_b,,0
33,30735,63,,,,2,2,0.0,1.0,0.0,1.0,,0.0-60.0,,1.0,648.545,1.0,0.623195575,0.0,0.655026044,0.0,0.25,1.0,0.560387538,False,,5cc6f89fee8e8d0001bc6822,,1119165,63,,evan-feature22,full_pf_b,,1
34,30736,64,,,,2,2,0.0,1.0,-1.0,0.0,,0.0-61.0,,0.0,3228.765,0.0,0.601889598,0.0,0.678198724,0.0,0.25,1.0,0.559922936,False,,5cc6f89fee8e8d0001bc6822,,1132205,64,,evan-feature22,full_pf_b,,0
35,30737,65,,,,2,2,1.0,1.0,-1.0,0.0,,0.0-62.0,,-1.0,1978.76,0.0,0.601259914,0.0,0.704681482,1.0,0.33908969299999997,1.0,0.505003715,False,,5cc6f89fee8e8d0001bc6822,,1143992,65,,evan-feature22,full_pf_b,,0
36,30738,66,,,,2,2,0.0,0.0,-1.0,0.0,,0.0-63.0,,0.0,623.555,1.0,0.59645454,1.0,0.710437172,0.0,0.327441879,0.0,0.391749613,False,,5cc6f89fee8e8d0001bc6822,,1154414,66,,evan-feature22,full_pf_b,,0
37,30739,67,,,,2,2,0.0,1.0,-1.0,0.0,,0.0-64.0,,0.0,627.35,0.0,0.529473,0.0,0.636758527,0.0,0.301338063,1.0,0.365661481,False,,5cc6f89fee8e8d0001bc6822,,1164864,67,,evan-feature22,full_pf_b,,0
38,30740,68,,,,1,1,1.0,1.0,0.0,1.0,,0.0-65.0,,1.0,543.835,1.0,0.541657162,1.0,0.634541962,1.0,0.343535366,0.0,0.371763742,False,,5cc6f89fee8e8d0001bc6822,,1175220,68,,evan-feature22,full_pf_b,,1
39,30741,69,,,,1,1,0.0,1.0,-1.0,0.0,,0.0-66.0,,0.0,913.875,0.0,0.5707533260000001,1.0,0.589121171,1.0,0.326428396,0.0,0.43961622899999997,False,,5cc6f89fee8e8d0001bc6822,,1185972,69,,evan-feature22,full_pf_b,,0
40,30742,70,,,,2,2,0.0,1.0,-1.0,0.0,,0.0-67.0,,0.0,682.885,1.0,0.5707533260000001,0.0,0.589121171,0.0,0.326428396,1.0,0.43961622899999997,False,,5cc6f89fee8e8d0001bc6822,,1196489,70,,evan-feature22,full_pf_b,,1
41,30743,71,,,,2,2,0.0,1.0,-1.0,0.0,,0.0-68.0,,0.0,725.98,1.0,0.506271295,0.0,0.641775594,0.0,0.37149690700000004,1.0,0.404330166,False,,5cc6f89fee8e8d0001bc6822,,1207034,71,,evan-feature22,full_pf_b,,0
42,30744,72,,,,2,2,1.0,1.0,0.0,1.0,,0.0-69.0,,1.0,1091.96,0.0,0.455642565,1.0,0.623605825,1.0,0.358753011,1.0,0.346174041,False,,5cc6f89fee8e8d0001bc6822,,1217945,72,,evan-feature22,full_pf_b,,0
43,30745,73,,,,1,1,0.0,0.0,0.0,1.0,,0.0-70.0,,0.0,666.135,0.0,0.483677308,0.0,0.5904681070000001,1.0,0.402218411,0.0,0.35344697,False,,5cc6f89fee8e8d0001bc6822,,1228422,73,,evan-feature22,full_pf_b,,1
44,30746,74,,,,1,1,0.0,0.0,0.0,1.0,,0.0-71.0,,0.0,912.78,0.0,0.394210977,0.0,0.558925494,0.0,0.540052017,0.0,0.35182128700000004,False,,5cc6f89fee8e8d0001bc6822,,1239133,74,,evan-feature22,full_pf_b,,0
45,30747,75,,,,1,1,1.0,1.0,-1.0,0.0,,0.0-72.0,,-1.0,765.855,1.0,0.382300414,1.0,0.577670603,0.0,0.607608448,0.0,0.378261578,False,,5cc6f89fee8e8d0001bc6822,,1249731,75,,evan-feature22,full_pf_b,,0
46,30748,76,,,,2,2,1.0,0.0,-1.0,0.0,,0.0-73.0,,-1.0,1856.86,0.0,0.357596762,0.0,0.5929076529999999,1.0,0.6579790010000001,0.0,0.401326777,False,,5cc6f89fee8e8d0001bc6822,,1261387,76,,evan-feature22,full_pf_b,,1
47,30749,77,,,,2,2,1.0,0.0,-1.0,0.0,,0.0-74.0,,-1.0,455.72,1.0,0.362033495,1.0,0.582308608,1.0,0.649195052,0.0,0.355158505,False,,5cc6f89fee8e8d0001bc6822,,1271658,77,,evan-feature22,full_pf_b,,0
48,30750,78,,,,2,2,1.0,1.0,-1.0,0.0,,0.0-75.0,,-1.0,504.45,0.0,0.369620635,0.0,0.669100864,1.0,0.706059111,1.0,0.362516241,False,,5cc6f89fee8e8d0001bc6822,,1281975,78,,evan-feature22,full_pf_b,,0
49,30751,79,,,,2,2,1.0,0.0,-1.0,0.0,,0.0-76.0,,-1.0,528.79,0.0,0.41477751399999996,0.0,0.7284416779999999,1.0,0.7182656940000001,0.0,0.36228040899999997,False,,5cc6f89fee8e8d0001bc6822,,1292333,79,,evan-feature22,full_pf_b,,0
50,30752,80,,,,2,2,1.0,1.0,0.0,1.0,,0.0-77.0,,1.0,1134.375,0.0,0.37675460299999997,1.0,0.703250285,1.0,0.75,1.0,0.461979164,False,,5cc6f89fee8e8d0001bc6822,,1303323,80,,evan-feature22,full_pf_b,,0
51,30753,81,,,,1,1,1.0,1.0,0.0,1.0,,0.0-78.0,,1.0,463.89,1.0,0.398716075,1.0,0.6723864890000001,1.0,0.674153818,0.0,0.519029516,False,,5cc6f89fee8e8d0001bc6822,,1313650,81,,evan-feature22,full_pf_b,,1
52,30754,82,,,,1,1,1.0,0.0,-1.0,0.0,,0.0-79.0,,-1.0,757.025,1.0,0.34677856700000004,0.0,0.69057175,1.0,0.6822438540000001,1.0,0.477292237,False,,5cc6f89fee8e8d0001bc6822,,1324206,82,,evan-feature22,full_pf_b,,0
53,30755,83,,,,2,2,0.0,0.0,0.0,1.0,,0.0-80.0,,0.0,878.545,0.0,0.28580469199999997,0.0,0.68408818,0.0,0.684207565,0.0,0.49780448299999996,False,,5cc6f89fee8e8d0001bc6822,,1334912,83,,evan-feature22,full_pf_b,,1
54,30757,85,,,,2,2,0.0,1.0,-1.0,0.0,,0.0-82.0,,0.0,1362.66,1.0,0.25,1.0,0.7405808970000001,0.0,0.679614108,1.0,0.436436964,False,,5cc6f89fee8e8d0001bc6822,,1348955,85,,evan-feature22,full_pf_b,,0
55,30758,86,,,,2,2,1.0,0.0,0.0,1.0,,0.0-83.0,,0.0,1490.495,0.0,0.29890393,1.0,0.730505706,1.0,0.7328203320000001,0.0,0.439256938,False,,5cc6f89fee8e8d0001bc6822,,1360291,86,,evan-feature22,full_pf_b,,0
56,30759,87,,,,2,2,0.0,1.0,-1.0,0.0,,0.0-84.0,,0.0,544.165,0.0,0.326762398,1.0,0.7148059609999999,0.0,0.75,1.0,0.44389608799999997,False,,5cc6f89fee8e8d0001bc6822,,1370653,87,,evan-feature22,full_pf_b,,0
57,30760,88,,,,1,1,0.0,1.0,-1.0,0.0,,0.0-85.0,,0.0,354.12,0.0,0.295168515,1.0,0.739760854,0.0,0.719947008,1.0,0.35277284600000003,False,,5cc6f89fee8e8d0001bc6822,,1380823,88,,evan-feature22,full_pf_b,,1
58,30761,89,,,,1,1,0.0,0.0,-1.0,0.0,,0.0-86.0,,0.0,992.07,0.0,0.25,0.0,0.70781482,0.0,0.75,1.0,0.286095925,False,,5cc6f89fee8e8d0001bc6822,,1391636,89,,evan-feature22,full_pf_b,,0
59,30762,90,,,,1,1,1.0,1.0,0.0,1.0,,0.0-87.0,,1.0,1030.56,1.0,0.25638190899999996,1.0,0.704088163,1.0,0.75,1.0,0.26872601399999996,False,,5cc6f89fee8e8d0001bc6822,,1402507,90,,evan-feature22,full_pf_b,,0
60,30763,91,,,,2,2,1.0,0.0,0.0,1.0,,0.0-88.0,,0.0,721.66,0.0,0.271581126,0.0,0.669760107,1.0,0.733896663,0.0,0.273244572,False,,5cc6f89fee8e8d0001bc6822,,1413026,91,,evan-feature22,full_pf_b,,1
61,30764,92,,,,2,2,1.0,0.0,0.0,1.0,,0.0-89.0,,0.0,3274.665,1.0,0.257144401,1.0,0.600575706,1.0,0.74488122,0.0,0.25,False,,5cc6f89fee8e8d0001bc6822,,1426100,92,,evan-feature22,full_pf_b,,0
62,30765,93,,,,2,2,1.0,0.0,-1.0,0.0,,0.0-90.0,,-1.0,2774.37,1.0,0.25,1.0,0.616870026,1.0,0.723610234,0.0,0.25,False,,5cc6f89fee8e8d0001bc6822,,1438686,93,,evan-feature22,full_pf_b,,0
63,30766,94,,,,2,2,1.0,0.0,0.0,1.0,,0.0-91.0,,0.0,748.915,1.0,0.25,1.0,0.583540187,1.0,0.7041042559999999,0.0,0.285961995,False,,5cc6f89fee8e8d0001bc6822,,1449254,94,,evan-feature22,full_pf_b,,0
64,30767,95,,,,2,2,1.0,0.0,-1.0,0.0,,0.0-92.0,,-1.0,737.775,0.0,0.27254536,1.0,0.53875765,1.0,0.693783448,0.0,0.284961652,False,,5cc6f89fee8e8d0001bc6822,,1459810,95,,evan-feature22,full_pf_b,,0
65,30768,96,,,,2,2,1.0,1.0,0.0,1.0,,0.0-93.0,,1.0,939.975,0.0,0.25,0.0,0.548431252,1.0,0.734221895,1.0,0.279445214,False,,5cc6f89fee8e8d0001bc6822,,1470575,96,,evan-feature22,full_pf_b,,0
66,30769,97,,,,1,1,0.0,1.0,-1.0,0.0,,0.0-94.0,,0.0,2008.735,0.0,0.258640684,1.0,0.545878066,1.0,0.725245965,0.0,0.31487537,False,,5cc6f89fee8e8d0001bc6822,,1482407,97,,evan-feature22,full_pf_b,,1
67,30770,98,,,,1,1,0.0,1.0,-1.0,0.0,,0.0-95.0,,0.0,3017.33,0.0,0.251103711,1.0,0.5776290629999999,0.0,0.696320133,1.0,0.317831047,False,,5cc6f89fee8e8d0001bc6822,,1495258,98,,evan-feature22,full_pf_b,,0
68,30771,99,,,,1,1,1.0,1.0,-1.0,0.0,,0.0-96.0,,-1.0,3591.66,1.0,0.276630292,1.0,0.617329858,0.0,0.73838088,0.0,0.261471582,False,,5cc6f89fee8e8d0001bc6822,,1508682,99,,evan-feature22,full_pf_b,,0
69,30772,100,,,,2,2,1.0,0.0,0.0,1.0,,0.0-97.0,,0.0,671.74,0.0,0.297716424,0.0,0.618863717,1.0,0.7402358259999999,0.0,0.262600834,False,,5cc6f89fee8e8d0001bc6822,,1519156,100,,evan-feature22,full_pf_b,,1
70,30773,101,,,,2,2,1.0,1.0,-1.0,0.0,,0.0-98.0,,-1.0,58.295,1.0,0.290935512,1.0,0.695370945,1.0,0.706570507,1.0,0.280030553,False,,5cc6f89fee8e8d0001bc6822,,1529041,101,,evan-feature22,full_pf_b,,0
71,30774,102,,,,2,2,1.0,0.0,-1.0,0.0,,0.0-99.0,,-1.0,1312.635,0.0,0.25,1.0,0.6465277079999999,1.0,0.67766682,0.0,0.25,False,,5cc6f89fee8e8d0001bc6822,,1540188,102,,evan-feature22,full_pf_b,,0
72,30775,103,,,,2,2,0.0,0.0,-1.0,0.0,,0.0-100.0,,0.0,3143.565,0.0,0.26463816,1.0,0.636100213,0.0,0.646048507,0.0,0.265607101,False,,5cc6f89fee8e8d0001bc6822,,1553154,103,,evan-feature22,full_pf_b,,0
73,30776,104,,,,2,2,1.0,0.0,-1.0,0.0,,0.0-101.0,,-1.0,2719.715,0.0,0.314340707,1.0,0.667795927,1.0,0.613630805,0.0,0.25,False,,5cc6f89fee8e8d0001bc6822,,1565686,104,,evan-feature22,full_pf_b,,0
74,30777,105,,,,1,1,1.0,1.0,-1.0,0.0,,0.0-102.0,,-1.0,670.27,1.0,0.28685784,1.0,0.6622549529999999,0.0,0.652154117,1.0,0.25,False,,5cc6f89fee8e8d0001bc6822,,1576190,105,,evan-feature22,full_pf_b,,1
75,30778,106,,,,1,1,0.0,1.0,0.0,1.0,,0.0-103.0,,1.0,895.35,0.0,0.304106554,1.0,0.631289538,1.0,0.707041942,0.0,0.29314237,False,,5cc6f89fee8e8d0001bc6822,,1586923,106,,evan-feature22,full_pf_b,,0
76,30779,107,,,,2,2,1.0,0.0,0.0,1.0,,0.0-104.0,,0.0,479.23,0.0,0.304806932,1.0,0.571167718,1.0,0.680472346,0.0,0.25,False,,5cc6f89fee8e8d0001bc6822,,1597240,107,,evan-feature22,full_pf_b,,1
77,30780,108,,,,SLOW,SLOW,,,0.0,1.0,,0.0-105.0,,-3.0,,1.0,0.37919861,0.0,0.5724849710000001,1.0,0.705638003,1.0,0.30179300600000003,False,,5cc6f89fee8e8d0001bc6822,,1603073,108,,evan-feature22,full_pf_b,,1
78,30781,109,,,,2,2,0.0,1.0,0.0,1.0,,0.0-106.0,,1.0,78.725,1.0,0.464277969,1.0,0.554034373,0.0,0.7372627340000001,1.0,0.264699741,False,,5cc6f89fee8e8d0001bc6822,,1612969,109,,evan-feature22,full_pf_b,,1
79,30782,110,,,,1,1,1.0,0.0,-1.0,0.0,,0.0-107.0,,-1.0,696.95,1.0,0.465104323,0.0,0.530793115,1.0,0.75,1.0,0.31683071,False,,5cc6f89fee8e8d0001bc6822,,1623478,110,,evan-feature22,full_pf_b,,1
80,30783,111,,,,1,1,1.0,1.0,0.0,1.0,,0.0-108.0,,1.0,470.84,1.0,0.465104323,1.0,0.530793115,0.0,0.75,1.0,0.31683071,False,,5cc6f89fee8e8d0001bc6822,,1633770,111,,evan-feature22,full_pf_b,,0
81,30784,112,,,,1,1,1.0,0.0,0.0,1.0,,0.0-109.0,,0.0,607.885,1.0,0.46833986,0.0,0.570249239,1.0,0.7244472590000001,0.0,0.364114163,False,,5cc6f89fee8e8d0001bc6822,,1644196,112,,evan-feature22,full_pf_b,,0
82,30785,113,,,,1,1,0.0,1.0,0.0,1.0,,0.0-110.0,,1.0,689.79,0.0,0.445444024,1.0,0.649673355,0.0,0.6845441290000001,1.0,0.300660449,False,,5cc6f89fee8e8d0001bc6822,,1654690,113,,evan-feature22,full_pf_b,,0
83,30786,114,,,,2,2,1.0,1.0,0.0,1.0,,0.0-111.0,,1.0,584.605,1.0,0.39909721299999995,0.0,0.6715179509999999,1.0,0.742310028,1.0,0.35496088299999995,False,,5cc6f89fee8e8d0001bc6822,,1665085,114,,evan-feature22,full_pf_b,,1
84,30787,115,,,,2,2,1.0,0.0,0.0,1.0,,0.0-112.0,,0.0,477.8,0.0,0.37956104799999996,1.0,0.694725302,1.0,0.7181651309999999,0.0,0.38726906299999997,False,,5cc6f89fee8e8d0001bc6822,,1675397,115,,evan-feature22,full_pf_b,,0
85,30788,116,,,,2,2,1.0,1.0,0.0,1.0,,0.0-113.0,,1.0,1210.32,0.0,0.404995034,1.0,0.724375412,1.0,0.6910946859999999,1.0,0.387187347,False,,5cc6f89fee8e8d0001bc6822,,1686420,116,,evan-feature22,full_pf_b,,0
86,30789,117,,,,1,1,1.0,0.0,0.0,1.0,,0.0-114.0,,0.0,1040.955,1.0,0.461740803,0.0,0.75,1.0,0.75,0.0,0.34872038200000005,False,,5cc6f89fee8e8d0001bc6822,,1697312,117,,evan-feature22,full_pf_b,,1
87,30790,118,,,,1,1,1.0,1.0,-1.0,0.0,,0.0-115.0,,-1.0,844.68,1.0,0.43821380600000004,1.0,0.738833273,1.0,0.728286963,0.0,0.399538128,False,,5cc6f89fee8e8d0001bc6822,,1707992,118,,evan-feature22,full_pf_b,,0
88,30791,119,,,,1,1,0.0,1.0,0.0,1.0,,0.0-116.0,,1.0,179.76,0.0,0.41709882,1.0,0.736666736,0.0,0.75,0.0,0.389095584,False,,5cc6f89fee8e8d0001bc6822,,1718007,119,,evan-feature22,full_pf_b,,0
89,30792,120,,,,2,2,1.0,1.0,0.0,1.0,,0.0-117.0,,1.0,1012.185,0.0,0.39749009799999996,1.0,0.744320029,1.0,0.75,1.0,0.363848678,False,,5cc6f89fee8e8d0001bc6822,,1728845,120,,evan-feature22,full_pf_b,,1
90,30793,121,,,,2,2,1.0,0.0,-1.0,0.0,,0.0-118.0,,-1.0,308.455,1.0,0.392653706,1.0,0.75,1.0,0.75,0.0,0.384386976,False,,5cc6f89fee8e8d0001bc6822,,1738983,121,,evan-feature22,full_pf_b,,0
91,30794,122,,,,SLOW,SLOW,,,-1.0,0.0,,0.0-119.0,,-3.0,,0.0,0.31190902600000003,1.0,0.75,1.0,0.732413819,0.0,0.413082932,False,,5cc6f89fee8e8d0001bc6822,,1744809,122,,evan-feature22,full_pf_b,,1
92,30795,123,,,,2,2,1.0,1.0,0.0,1.0,,0.0-120.0,,1.0,752.575,0.0,0.366917648,1.0,0.740073855,1.0,0.75,1.0,0.352861979,False,,5cc6f89fee8e8d0001bc6822,,1755389,123,,evan-feature22,full_pf_b,,1
93,30796,124,,,,1,1,0.0,1.0,0.0,1.0,,0.0-121.0,,1.0,463.01,0.0,0.3645172,1.0,0.721770713,1.0,0.75,1.0,0.404074511,False,,5cc6f89fee8e8d0001bc6822,,1765697,124,,evan-feature22,full_pf_b,,1
94,30797,125,,,,2,2,1.0,0.0,0.0,1.0,,0.0-122.0,,0.0,570.18,1.0,0.35205600299999995,1.0,0.68983859,1.0,0.739735447,0.0,0.366895945,False,,5cc6f89fee8e8d0001bc6822,,1776103,125,,evan-feature22,full_pf_b,,1
95,30798,126,,,,2,2,0.0,1.0,0.0,1.0,,0.0-123.0,,1.0,1324.57,1.0,0.40998722600000004,1.0,0.720859127,0.0,0.673854955,1.0,0.368528541,False,,5cc6f89fee8e8d0001bc6822,,1787261,126,,evan-feature22,full_pf_b,,0
96,30799,127,,,,1,1,0.0,1.0,-1.0,0.0,,0.0-124.0,,0.0,328.865,0.0,0.353625316,1.0,0.75,0.0,0.695605473,0.0,0.38303674200000004,False,,5cc6f89fee8e8d0001bc6822,,1797414,127,,evan-feature22,full_pf_b,,1
97,30800,128,,,,1,1,0.0,1.0,0.0,1.0,,0.0-125.0,,1.0,1085.31,0.0,0.359216989,1.0,0.75,1.0,0.6987915090000001,1.0,0.35169046200000004,False,,5cc6f89fee8e8d0001bc6822,,1808333,128,,evan-feature22,full_pf_b,,0
98,30801,129,,,,2,2,1.0,0.0,-1.0,0.0,,0.0-126.0,,-1.0,327.915,1.0,0.35834496899999996,1.0,0.75,1.0,0.707067742,0.0,0.416763636,False,,5cc6f89fee8e8d0001bc6822,,1818490,129,,evan-feature22,full_pf_b,,1
99,30802,130,,,,2,2,0.0,1.0,-1.0,0.0,,0.0-127.0,,0.0,728.705,0.0,0.38741613799999997,0.0,0.7177369570000001,0.0,0.734902455,1.0,0.49438664299999996,False,,5cc6f89fee8e8d0001bc6822,,1829044,130,,evan-feature22,full_pf_b,,0
100,30803,131,,,,2,2,0.0,1.0,0.0,1.0,,0.0-128.0,,1.0,2914.275,0.0,0.405255252,0.0,0.7300466640000001,0.0,0.7027748070000001,1.0,0.504359668,False,,5cc6f89fee8e8d0001bc6822,,1841774,131,,evan-feature22,full_pf_b,,0
101,30804,132,,,,1,1,0.0,1.0,0.0,1.0,,0.0-129.0,,1.0,711.38,0.0,0.40697073,1.0,0.7260142190000001,1.0,0.724461982,1.0,0.522779179,False,,5cc6f89fee8e8d0001bc6822,,1852318,132,,evan-feature22,full_pf_b,,1
102,30805,133,,,,2,2,1.0,1.0,0.0,1.0,,0.0-130.0,,1.0,545.895,0.0,0.43906215299999996,0.0,0.7252802340000001,1.0,0.719079934,1.0,0.5712990579999999,False,,5cc6f89fee8e8d0001bc6822,,1862701,133,,evan-feature22,full_pf_b,,1
103,30806,134,,,,1,1,0.0,0.0,0.0,1.0,,0.0-131.0,,0.0,1315.55,0.0,0.4076705,0.0,0.73280499,1.0,0.681313127,0.0,0.523891346,False,,5cc6f89fee8e8d0001bc6822,,1873823,134,,evan-feature22,full_pf_b,,1
104,30807,135,,,,1,1,0.0,1.0,0.0,1.0,,0.0-132.0,,1.0,604.905,0.0,0.399102911,1.0,0.730498344,1.0,0.661080239,1.0,0.46742603,False,,5cc6f89fee8e8d0001bc6822,,1884239,135,,evan-feature22,full_pf_b,,0
105,30808,136,,,,2,2,1.0,0.0,-1.0,0.0,,0.0-133.0,,-1.0,1657.58,0.0,0.356477282,0.0,0.712296395,1.0,0.641812684,0.0,0.44868414,False,,5cc6f89fee8e8d0001bc6822,,1895726,136,,evan-feature22,full_pf_b,,1
106,30809,137,,,,2,2,0.0,1.0,0.0,1.0,,0.0-134.0,,1.0,31.91,1.0,0.462760722,1.0,0.692349322,0.0,0.700947931,1.0,0.394680266,False,,5cc6f89fee8e8d0001bc6822,,1905576,137,,evan-feature22,full_pf_b,,0
107,30810,138,,,,2,2,1.0,0.0,0.0,1.0,,0.0-135.0,,0.0,1294.87,1.0,0.422306413,1.0,0.718375916,1.0,0.706340917,0.0,0.367787185,False,,5cc6f89fee8e8d0001bc6822,,1916691,138,,evan-feature22,full_pf_b,,0
108,30812,140,,,,1,1,0.0,1.0,0.0,1.0,,0.0-137.0,,1.0,1093.47,0.0,0.4582233,1.0,0.643834117,1.0,0.75,0.0,0.39615823299999997,False,,5cc6f89fee8e8d0001bc6822,,1929496,140,,evan-feature22,full_pf_b,,1
109,30813,141,,,,1,1,1.0,1.0,0.0,1.0,,0.0-138.0,,1.0,718.16,1.0,0.43813437899999996,1.0,0.651283804,0.0,0.729674191,0.0,0.37711048,False,,5cc6f89fee8e8d0001bc6822,,1940026,141,,evan-feature22,full_pf_b,,0
110,30814,142,,,,SLOW,SLOW,,,0.0,1.0,,0.0-139.0,,-3.0,,0.0,0.471199094,1.0,0.6470010979999999,1.0,0.715008097,0.0,0.410656191,False,,5cc6f89fee8e8d0001bc6822,,1945845,142,,evan-feature22,full_pf_b,,1
111,30815,143,,,,1,1,0.0,1.0,-1.0,0.0,,0.0-140.0,,0.0,408.35,0.0,0.42486406,1.0,0.629771829,1.0,0.6550939960000001,1.0,0.459093873,False,,5cc6f89fee8e8d0001bc6822,,1956084,143,,evan-feature22,full_pf_b,,1
112,30816,144,,,,2,2,1.0,0.0,-1.0,0.0,,0.0-141.0,,-1.0,518.485,0.0,0.4803197,1.0,0.645842715,1.0,0.6421749920000001,0.0,0.443092151,False,,5cc6f89fee8e8d0001bc6822,,1966401,144,,evan-feature22,full_pf_b,,1
113,30817,145,,,,2,2,0.0,0.0,-1.0,0.0,,0.0-142.0,,0.0,701.05,0.0,0.521848997,0.0,0.735801074,0.0,0.6691348460000001,0.0,0.45259351600000003,False,,5cc6f89fee8e8d0001bc6822,,1976902,145,,evan-feature22,full_pf_b,,0
114,30818,146,,,,2,2,0.0,1.0,0.0,1.0,,0.0-143.0,,1.0,974.2,0.0,0.49565621299999996,1.0,0.742400847,0.0,0.661512553,1.0,0.483110831,False,,5cc6f89fee8e8d0001bc6822,,1987721,146,,evan-feature22,full_pf_b,,0
115,30819,147,,,,1,1,0.0,1.0,-1.0,0.0,,0.0-144.0,,0.0,364.695,0.0,0.521564361,1.0,0.731078632,1.0,0.6774886809999999,0.0,0.483263956,False,,5cc6f89fee8e8d0001bc6822,,1997895,147,,evan-feature22,full_pf_b,,1
116,30820,148,,,,1,1,1.0,1.0,-1.0,0.0,,0.0-145.0,,-1.0,656.5,1.0,0.558893102,1.0,0.719810023,1.0,0.67461031,1.0,0.499349834,False,,5cc6f89fee8e8d0001bc6822,,2008355,148,,evan-feature22,full_pf_b,,0
117,30821,149,,,,1,1,1.0,1.0,0.0,1.0,,0.0-146.0,,1.0,613.44,1.0,0.611031046,1.0,0.75,1.0,0.688072995,0.0,0.5321422729999999,False,,5cc6f89fee8e8d0001bc6822,,2018798,149,,evan-feature22,full_pf_b,,0
118,30822,150,,,,2,2,1.0,1.0,-1.0,0.0,,0.0-147.0,,-1.0,195.49,1.0,0.633223941,1.0,0.713567728,1.0,0.75,1.0,0.48185314700000004,False,,5cc6f89fee8e8d0001bc6822,,2028807,150,,evan-feature22,full_pf_b,,1
119,30823,151,,,,2,2,0.0,0.0,-1.0,0.0,,0.0-148.0,,0.0,1789.77,0.0,0.664001694,0.0,0.705509768,0.0,0.75,0.0,0.500211065,False,,5cc6f89fee8e8d0001bc6822,,2040399,151,,evan-feature22,full_pf_b,,0
120,30824,152,,,,2,2,1.0,1.0,0.0,1.0,,0.0-149.0,,1.0,931.85,1.0,0.664001694,0.0,0.705509768,1.0,0.75,1.0,0.500211065,False,,5cc6f89fee8e8d0001bc6822,,2051143,152,,evan-feature22,full_pf_b,,0
121,30825,153,,,,1,1,0.0,1.0,0.0,1.0,,0.0-150.0,,1.0,824.445,0.0,0.696508041,1.0,0.71066027,1.0,0.717028709,0.0,0.49792991,False,,5cc6f89fee8e8d0001bc6822,,2061788,153,,evan-feature22,full_pf_b,,1
122,30826,154,,,,SLOW,SLOW,,,-1.0,0.0,,0.0-151.0,,-3.0,,1.0,0.699883272,0.0,0.75,1.0,0.713543895,0.0,0.496962643,False,,5cc6f89fee8e8d0001bc6822,,2067612,154,,evan-feature22,full_pf_b,,1
123,30827,155,,,,1,1,1.0,1.0,0.0,1.0,,0.0-152.0,,1.0,92.48,1.0,0.741163419,1.0,0.75,0.0,0.64691024,0.0,0.513858197,False,,5cc6f89fee8e8d0001bc6822,,2077546,155,,evan-feature22,full_pf_b,,1
124,30828,156,,,,2,2,0.0,1.0,-1.0,0.0,,0.0-153.0,,0.0,214.73,1.0,0.75,1.0,0.70816558,0.0,0.594499079,1.0,0.48502124,False,,5cc6f89fee8e8d0001bc6822,,2087593,156,,evan-feature22,full_pf_b,,1
125,30829,157,,,,2,2,1.0,0.0,0.0,1.0,,0.0-154.0,,0.0,754.4,1.0,0.75,1.0,0.721848901,1.0,0.62197249,0.0,0.48263586399999997,False,,5cc6f89fee8e8d0001bc6822,,2098174,157,,evan-feature22,full_pf_b,,0
126,30830,158,,,,2,2,1.0,0.0,-1.0,0.0,,0.0-155.0,,-1.0,568.66,1.0,0.75,1.0,0.74813071,1.0,0.584357161,0.0,0.411477782,False,,5cc6f89fee8e8d0001bc6822,,2108555,158,,evan-feature22,full_pf_b,,0
127,30831,159,,,,2,2,0.0,1.0,0.0,1.0,,0.0-156.0,,1.0,704.735,0.0,0.75,1.0,0.75,0.0,0.52287236,1.0,0.488290656,False,,5cc6f89fee8e8d0001bc6822,,2119098,159,,evan-feature22,full_pf_b,,0
128,30832,160,,,,1,1,1.0,0.0,0.0,1.0,,0.0-157.0,,0.0,621.065,1.0,0.75,0.0,0.75,1.0,0.544321581,0.0,0.53143059,False,,5cc6f89fee8e8d0001bc6822,,2129565,160,,evan-feature22,full_pf_b,,1
129,30833,161,,,,1,1,1.0,0.0,0.0,1.0,,0.0-158.0,,0.0,146.425,1.0,0.726754564,0.0,0.75,1.0,0.5129306370000001,1.0,0.530592445,False,,5cc6f89fee8e8d0001bc6822,,2139549,161,,evan-feature22,full_pf_b,,0
130,30834,162,,,,2,2,1.0,0.0,-1.0,0.0,,0.0-159.0,,-1.0,486.36,0.0,0.75,0.0,0.7392590729999999,1.0,0.479875835,0.0,0.547007051,False,,5cc6f89fee8e8d0001bc6822,,2149846,162,,evan-feature22,full_pf_b,,1
131,30835,163,,,,1,1,1.0,1.0,-1.0,0.0,,0.0-160.0,,-1.0,414.89,1.0,0.75,1.0,0.7393376979999999,1.0,0.546045419,1.0,0.541267353,False,,5cc6f89fee8e8d0001bc6822,,2160108,163,,evan-feature22,full_pf_b,,1
132,30836,164,,,,1,1,0.0,0.0,-1.0,0.0,,0.0-161.0,,0.0,504.06,0.0,0.75,0.0,0.75,1.0,0.485725895,1.0,0.527625395,False,,5cc6f89fee8e8d0001bc6822,,2170435,164,,evan-feature22,full_pf_b,,0
133,30837,165,,,,2,2,1.0,0.0,0.0,1.0,,0.0-162.0,,0.0,1116.075,1.0,0.75,1.0,0.725087974,1.0,0.488603595,0.0,0.504019206,False,,5cc6f89fee8e8d0001bc6822,,2181369,165,,evan-feature22,full_pf_b,,1
134,30838,166,,,,1,1,1.0,1.0,0.0,1.0,,0.0-163.0,,1.0,948.75,1.0,0.745504295,1.0,0.75,0.0,0.452379914,1.0,0.50131194,False,,5cc6f89fee8e8d0001bc6822,,2192150,166,,evan-feature22,full_pf_b,,1
135,30839,167,,,,1,1,1.0,0.0,0.0,1.0,,0.0-164.0,,0.0,1244.4,1.0,0.728513874,0.0,0.75,1.0,0.44125567200000004,1.0,0.531454591,False,,5cc6f89fee8e8d0001bc6822,,2203226,167,,evan-feature22,full_pf_b,,0
136,30840,168,,,,1,1,1.0,1.0,-1.0,0.0,,0.0-165.0,,-1.0,721.65,1.0,0.73790804,1.0,0.75,1.0,0.413036656,0.0,0.524619035,False,,5cc6f89fee8e8d0001bc6822,,2213764,168,,evan-feature22,full_pf_b,,0
137,30841,169,,,,2,2,1.0,0.0,0.0,1.0,,0.0-166.0,,0.0,556.555,1.0,0.7080961309999999,0.0,0.708666865,1.0,0.431915581,0.0,0.481819489,False,,5cc6f89fee8e8d0001bc6822,,2224159,169,,evan-feature22,full_pf_b,,1
138,30842,170,,,,2,2,1.0,0.0,0.0,1.0,,0.0-167.0,,0.0,584.55,1.0,0.721378003,1.0,0.71605913,1.0,0.36642387,0.0,0.5036739929999999,False,,5cc6f89fee8e8d0001bc6822,,2234554,170,,evan-feature22,full_pf_b,,0
139,30843,171,,,,2,2,0.0,1.0,0.0,1.0,,0.0-168.0,,1.0,174.72,0.0,0.7340618959999999,1.0,0.699323252,0.0,0.35298046299999997,1.0,0.511241692,False,,5cc6f89fee8e8d0001bc6822,,2244552,171,,evan-feature22,full_pf_b,,0
140,30844,172,,,,1,1,1.0,1.0,-1.0,0.0,,0.0-169.0,,-1.0,1082.7,1.0,0.75,1.0,0.70412698,0.0,0.380734814,1.0,0.529580116,False,,5cc6f89fee8e8d0001bc6822,,2255456,172,,evan-feature22,full_pf_b,,1
141,30845,173,,,,1,1,1.0,1.0,0.0,1.0,,0.0-170.0,,1.0,350.415,1.0,0.7436654909999999,1.0,0.711182751,0.0,0.41125331,0.0,0.49554405,False,,5cc6f89fee8e8d0001bc6822,,2265647,173,,evan-feature22,full_pf_b,,0
142,30846,174,,,,1,1,0.0,1.0,0.0,1.0,,0.0-171.0,,1.0,735.095,0.0,0.731607915,1.0,0.651774583,1.0,0.35688023,1.0,0.45194491600000003,False,,5cc6f89fee8e8d0001bc6822,,2276204,174,,evan-feature22,full_pf_b,,0
143,30847,175,,,,2,2,1.0,0.0,-1.0,0.0,,0.0-172.0,,-1.0,1059.995,1.0,0.75,1.0,0.75,1.0,0.283145374,0.0,0.528608005,False,,5cc6f89fee8e8d0001bc6822,,2287069,175,,evan-feature22,full_pf_b,,1
144,30848,176,,,,2,2,0.0,1.0,-1.0,0.0,,0.0-173.0,,0.0,421.59,1.0,0.7491416890000001,1.0,0.7423785959999999,0.0,0.29135870399999997,1.0,0.498888318,False,,5cc6f89fee8e8d0001bc6822,,2297328,176,,evan-feature22,full_pf_b,,0
145,30849,177,,,,1,1,0.0,0.0,-1.0,0.0,,0.0-174.0,,0.0,1818.435,0.0,0.708569387,0.0,0.717682277,1.0,0.294421699,1.0,0.493838163,False,,5cc6f89fee8e8d0001bc6822,,2308943,177,,evan-feature22,full_pf_b,,1
146,30850,178,,,,1,1,1.0,1.0,0.0,1.0,,0.0-175.0,,1.0,911.465,1.0,0.75,1.0,0.7383382159999999,0.0,0.356098707,1.0,0.442533405,False,,5cc6f89fee8e8d0001bc6822,,2319645,178,,evan-feature22,full_pf_b,,0
147,30851,179,,,,1,1,1.0,1.0,0.0,1.0,,0.0-176.0,,1.0,854.18,1.0,0.744527075,1.0,0.75,0.0,0.334127506,0.0,0.393165805,False,,5cc6f89fee8e8d0001bc6822,,2330341,179,,evan-feature22,full_pf_b,,0
148,30852,180,,,,2,2,0.0,0.0,0.0,1.0,,0.0-177.0,,0.0,390.585,1.0,0.75,1.0,0.75,0.0,0.33571021799999995,0.0,0.350393962,False,,5cc6f89fee8e8d0001bc6822,,2340531,180,,evan-feature22,full_pf_b,,1
149,30853,181,,,,2,2,0.0,0.0,0.0,1.0,,0.0-178.0,,0.0,860.32,1.0,0.75,1.0,0.75,0.0,0.313628297,0.0,0.36349657399999996,False,,5cc6f89fee8e8d0001bc6822,,2351197,181,,evan-feature22,full_pf_b,,0
150,30854,182,,,,2,2,0.0,1.0,-1.0,0.0,,0.0-179.0,,0.0,1007.285,0.0,0.75,1.0,0.734284182,0.0,0.262667667,1.0,0.380199119,False,,5cc6f89fee8e8d0001bc6822,,2362027,182,,evan-feature22,full_pf_b,,0
