,index,Unnamed: 0,Q_name,button_pressed,choice_idxs,chosen_pos,chosen_state,chosen_state_f_1_outcome,chosen_state_f_2_outcome,f_1_reward,f_2_reward,incor_questions,internal_node_id,responses,reward_received,rt,s_1_f_1_outcome,s_1_f_1_prob,s_1_f_2_outcome,s_1_f_2_prob,s_2_f_1_outcome,s_2_f_1_prob,s_2_f_2_outcome,s_2_f_2_prob,safe_first,stimulus,subjectID,success,time_elapsed,trial_index,trial_num,trial_type,version,view_history,switching
0,39542,30,,,,2,2,1.0,0.0,0.0,-1.0,,0.0-27.0,,0.0,2231.0,1.0,0.6,1.0,0.6,1.0,0.4,0.0,0.4,False,,5c31167d1a964b0001ffcce5,,1011472,30,,evan-feature22,full_pf_a,,0
1,39543,31,,,,2,2,0.0,1.0,0.0,-1.0,,0.0-28.0,,-1.0,1918.0,0.0,0.608053294,1.0,0.63424552,0.0,0.397152172,1.0,0.347069101,False,,5c31167d1a964b0001ffcce5,,1023221,31,,evan-feature22,full_pf_a,,0
2,39544,32,,,,2,2,1.0,0.0,0.0,-1.0,,0.0-29.0,,0.0,1495.0,0.0,0.642237155,1.0,0.648566321,1.0,0.389407674,0.0,0.285525717,False,,5c31167d1a964b0001ffcce5,,1034581,32,,evan-feature22,full_pf_a,,0
3,39545,33,,,,2,2,0.0,0.0,0.0,-1.0,,0.0-30.0,,0.0,1020.0,1.0,0.661086576,1.0,0.630492543,0.0,0.399058924,0.0,0.25,False,,5c31167d1a964b0001ffcce5,,1045441,33,,evan-feature22,full_pf_a,,0
4,39546,34,,,,1,1,0.0,1.0,0.0,-1.0,,0.0-31.0,,-1.0,1052.0,0.0,0.631324137,1.0,0.6269842929999999,0.0,0.38734784299999997,0.0,0.25,False,,5c31167d1a964b0001ffcce5,,1056361,34,,evan-feature22,full_pf_a,,1
5,39547,35,,,,2,2,1.0,1.0,0.0,-1.0,,0.0-32.0,,-1.0,1125.0,1.0,0.6381991370000001,0.0,0.68987999,1.0,0.384107265,1.0,0.271332943,False,,5c31167d1a964b0001ffcce5,,1067332,35,,evan-feature22,full_pf_a,,1
6,39548,36,,,,2,2,1.0,0.0,0.0,-1.0,,0.0-33.0,,0.0,649.0,1.0,0.66034901,1.0,0.742641349,1.0,0.360225629,0.0,0.25,False,,5c31167d1a964b0001ffcce5,,1077852,36,,evan-feature22,full_pf_a,,0
7,39549,37,,,,2,2,0.0,0.0,1.0,0.0,,0.0-34.0,,0.0,2658.0,1.0,0.638612418,1.0,0.75,0.0,0.367273939,0.0,0.25,False,,5c31167d1a964b0001ffcce5,,1090351,37,,evan-feature22,full_pf_a,,0
8,39550,38,,,,1,1,0.0,0.0,0.0,-1.0,,0.0-35.0,,0.0,3135.0,0.0,0.624340629,0.0,0.75,1.0,0.425829545,0.0,0.25,False,,5c31167d1a964b0001ffcce5,,1103351,38,,evan-feature22,full_pf_a,,1
9,39551,39,,,,1,1,0.0,1.0,0.0,-1.0,,0.0-36.0,,-1.0,2038.0,0.0,0.621999804,1.0,0.75,0.0,0.368609357,0.0,0.25,False,,5c31167d1a964b0001ffcce5,,1115232,39,,evan-feature22,full_pf_a,,0
10,39552,40,,,,2,2,1.0,0.0,1.0,0.0,,0.0-37.0,,1.0,607.0,0.0,0.62666403,1.0,0.75,1.0,0.311151498,0.0,0.25,False,,5c31167d1a964b0001ffcce5,,1125672,40,,evan-feature22,full_pf_a,,1
11,39553,41,,,,2,2,0.0,1.0,1.0,0.0,,0.0-38.0,,0.0,1000.0,0.0,0.6819650009999999,1.0,0.75,0.0,0.310763048,1.0,0.25,False,,5c31167d1a964b0001ffcce5,,1136521,41,,evan-feature22,full_pf_a,,0
12,39554,42,,,,SLOW,SLOW,,,0.0,-1.0,,0.0-39.0,,-3.0,,1.0,0.740626951,1.0,0.75,0.0,0.25,0.0,0.25,False,,5c31167d1a964b0001ffcce5,,1142381,42,,evan-feature22,full_pf_a,,1
13,39555,43,,,,2,2,0.0,0.0,0.0,-1.0,,0.0-40.0,,0.0,1387.0,0.0,0.739599242,1.0,0.742034978,0.0,0.25397114600000004,0.0,0.25,False,,5c31167d1a964b0001ffcce5,,1153621,43,,evan-feature22,full_pf_a,,1
14,39556,44,,,,1,1,1.0,1.0,0.0,-1.0,,0.0-41.0,,-1.0,1320.0,1.0,0.732341315,1.0,0.72735643,0.0,0.25,0.0,0.25,False,,5c31167d1a964b0001ffcce5,,1164772,44,,evan-feature22,full_pf_a,,1
15,39557,45,,,,1,1,1.0,0.0,0.0,-1.0,,0.0-42.0,,0.0,2874.0,1.0,0.7062287770000001,0.0,0.75,0.0,0.29002151,0.0,0.288256649,False,,5c31167d1a964b0001ffcce5,,1177492,45,,evan-feature22,full_pf_a,,0
16,39558,46,,,,2,2,1.0,1.0,1.0,0.0,,0.0-43.0,,1.0,1322.0,0.0,0.7086029209999999,0.0,0.75,1.0,0.274129113,1.0,0.262851608,False,,5c31167d1a964b0001ffcce5,,1188672,46,,evan-feature22,full_pf_a,,1
17,39559,47,,,,1,1,0.0,0.0,0.0,-1.0,,0.0-44.0,,0.0,2177.0,0.0,0.669189651,0.0,0.727614338,0.0,0.298444036,1.0,0.296944518,False,,5c31167d1a964b0001ffcce5,,1200712,47,,evan-feature22,full_pf_a,,1
18,39560,48,,,,2,2,0.0,1.0,1.0,0.0,,0.0-45.0,,0.0,1216.0,0.0,0.6819912929999999,0.0,0.7179434290000001,0.0,0.265003961,1.0,0.28157921199999997,False,,5c31167d1a964b0001ffcce5,,1211772,48,,evan-feature22,full_pf_a,,1
19,39561,49,,,,2,2,1.0,0.0,1.0,0.0,,0.0-46.0,,1.0,754.0,1.0,0.665275002,1.0,0.723065271,1.0,0.260414971,0.0,0.30973870000000003,False,,5c31167d1a964b0001ffcce5,,1222372,49,,evan-feature22,full_pf_a,,0
20,39562,50,,,,1,1,1.0,1.0,0.0,-1.0,,0.0-47.0,,-1.0,1850.0,1.0,0.6660593260000001,1.0,0.728032907,1.0,0.30922817,0.0,0.338778608,False,,5c31167d1a964b0001ffcce5,,1234072,50,,evan-feature22,full_pf_a,,1
21,39563,51,,,,2,2,0.0,1.0,0.0,-1.0,,0.0-48.0,,-1.0,2024.0,1.0,0.702068785,0.0,0.6528750879999999,0.0,0.287329608,1.0,0.35789613200000003,False,,5c31167d1a964b0001ffcce5,,1245951,51,,evan-feature22,full_pf_a,,1
22,39564,52,,,,2,2,0.0,0.0,0.0,-1.0,,0.0-49.0,,0.0,2014.0,1.0,0.651939787,0.0,0.636725589,0.0,0.284834488,0.0,0.358563756,False,,5c31167d1a964b0001ffcce5,,1257806,52,,evan-feature22,full_pf_a,,0
23,39565,53,,,,2,2,1.0,0.0,0.0,-1.0,,0.0-50.0,,0.0,2746.0,1.0,0.67573929,0.0,0.612550049,1.0,0.37130387600000003,0.0,0.383542402,False,,5c31167d1a964b0001ffcce5,,1270421,53,,evan-feature22,full_pf_a,,0
24,39566,54,,,,2,2,0.0,0.0,0.0,-1.0,,0.0-51.0,,0.0,1240.0,0.0,0.620753801,1.0,0.60513644,0.0,0.385529434,0.0,0.340361743,False,,5c31167d1a964b0001ffcce5,,1281492,54,,evan-feature22,full_pf_a,,0
25,39567,55,,,,2,2,1.0,1.0,1.0,0.0,,0.0-52.0,,1.0,1420.0,1.0,0.673564893,1.0,0.672437924,1.0,0.292955382,1.0,0.337633795,False,,5c31167d1a964b0001ffcce5,,1292772,55,,evan-feature22,full_pf_a,,0
26,39568,56,,,,2,2,1.0,0.0,0.0,-1.0,,0.0-53.0,,0.0,1595.0,1.0,0.6749427,1.0,0.724197502,1.0,0.32391132100000003,0.0,0.350995264,False,,5c31167d1a964b0001ffcce5,,1304212,56,,evan-feature22,full_pf_a,,0
27,39569,57,,,,1,1,1.0,1.0,0.0,-1.0,,0.0-54.0,,-1.0,1338.0,1.0,0.6940159379999999,1.0,0.75,0.0,0.31710554399999996,0.0,0.413450341,False,,5c31167d1a964b0001ffcce5,,1315401,57,,evan-feature22,full_pf_a,,1
28,39570,58,,,,1,1,1.0,1.0,0.0,-1.0,,0.0-55.0,,-1.0,1124.0,1.0,0.6916018270000001,1.0,0.69001187,0.0,0.261817804,0.0,0.40038635,False,,5c31167d1a964b0001ffcce5,,1326401,58,,evan-feature22,full_pf_a,,0
29,39571,59,,,,1,1,1.0,1.0,0.0,-1.0,,0.0-56.0,,-1.0,1052.0,1.0,0.641061544,1.0,0.71337992,1.0,0.277296461,0.0,0.47372791700000005,False,,5c31167d1a964b0001ffcce5,,1337308,59,,evan-feature22,full_pf_a,,0
30,39572,60,,,,1,1,1.0,1.0,0.0,-1.0,,0.0-57.0,,-1.0,803.0,1.0,0.6082438520000001,1.0,0.708471106,0.0,0.28745137,0.0,0.564174476,False,,5c31167d1a964b0001ffcce5,,1347932,60,,evan-feature22,full_pf_a,,0
31,39573,61,,,,1,1,1.0,1.0,1.0,0.0,,0.0-58.0,,1.0,1474.0,1.0,0.6051112120000001,1.0,0.7118147229999999,0.0,0.272390611,1.0,0.5595149939999999,False,,5c31167d1a964b0001ffcce5,,1359272,61,,evan-feature22,full_pf_a,,0
32,39574,62,,,,1,1,1.0,0.0,1.0,0.0,,0.0-59.0,,1.0,1303.0,1.0,0.582420852,0.0,0.635867583,0.0,0.31089574,1.0,0.5227206520000001,False,,5c31167d1a964b0001ffcce5,,1370441,62,,evan-feature22,full_pf_a,,0
33,39575,63,,,,1,1,1.0,1.0,1.0,0.0,,0.0-60.0,,1.0,1055.0,1.0,0.623195575,1.0,0.655026044,1.0,0.25,0.0,0.560387538,False,,5c31167d1a964b0001ffcce5,,1381351,63,,evan-feature22,full_pf_a,,0
34,39576,64,,,,2,2,0.0,1.0,0.0,-1.0,,0.0-61.0,,-1.0,1783.0,1.0,0.601889598,1.0,0.678198724,0.0,0.25,1.0,0.559922936,False,,5c31167d1a964b0001ffcce5,,1392992,64,,evan-feature22,full_pf_a,,1
35,39577,65,,,,1,1,1.0,1.0,1.0,0.0,,0.0-62.0,,1.0,3266.0,1.0,0.601259914,1.0,0.704681482,0.0,0.33908969299999997,0.0,0.505003715,False,,5c31167d1a964b0001ffcce5,,1406112,65,,evan-feature22,full_pf_a,,1
36,39578,66,,,,1,1,1.0,1.0,1.0,0.0,,0.0-63.0,,1.0,1327.0,1.0,0.59645454,1.0,0.710437172,0.0,0.327441879,1.0,0.391749613,False,,5c31167d1a964b0001ffcce5,,1417301,66,,evan-feature22,full_pf_a,,0
37,39579,67,,,,1,1,0.0,1.0,0.0,-1.0,,0.0-64.0,,-1.0,2074.0,0.0,0.529473,1.0,0.636758527,0.0,0.301338063,1.0,0.365661481,False,,5c31167d1a964b0001ffcce5,,1429257,67,,evan-feature22,full_pf_a,,0
38,39580,68,,,,2,2,1.0,1.0,1.0,0.0,,0.0-65.0,,1.0,2299.0,1.0,0.541657162,0.0,0.634541962,1.0,0.343535366,1.0,0.371763742,False,,5c31167d1a964b0001ffcce5,,1441401,68,,evan-feature22,full_pf_a,,1
39,39581,69,,,,2,2,0.0,0.0,1.0,0.0,,0.0-66.0,,0.0,1056.0,0.0,0.5707533260000001,0.0,0.589121171,0.0,0.326428396,0.0,0.43961622899999997,False,,5c31167d1a964b0001ffcce5,,1452291,69,,evan-feature22,full_pf_a,,0
40,39582,70,,,,1,1,1.0,1.0,0.0,-1.0,,0.0-67.0,,-1.0,2522.0,1.0,0.5707533260000001,1.0,0.589121171,1.0,0.326428396,1.0,0.43961622899999997,False,,5c31167d1a964b0001ffcce5,,1464682,70,,evan-feature22,full_pf_a,,1
41,39583,71,,,,1,1,1.0,0.0,0.0,-1.0,,0.0-68.0,,0.0,2068.0,1.0,0.506271295,0.0,0.641775594,0.0,0.37149690700000004,1.0,0.404330166,False,,5c31167d1a964b0001ffcce5,,1476601,71,,evan-feature22,full_pf_a,,0
42,39584,72,,,,2,2,0.0,1.0,1.0,0.0,,0.0-69.0,,0.0,1061.0,1.0,0.455642565,1.0,0.623605825,0.0,0.358753011,1.0,0.346174041,False,,5c31167d1a964b0001ffcce5,,1487522,72,,evan-feature22,full_pf_a,,1
43,39585,73,,,,2,2,0.0,0.0,0.0,-1.0,,0.0-70.0,,0.0,2028.0,1.0,0.483677308,1.0,0.5904681070000001,0.0,0.402218411,0.0,0.35344697,False,,5c31167d1a964b0001ffcce5,,1499412,73,,evan-feature22,full_pf_a,,0
44,39586,74,,,,1,1,0.0,1.0,1.0,0.0,,0.0-71.0,,0.0,1989.0,0.0,0.394210977,1.0,0.558925494,0.0,0.540052017,1.0,0.35182128700000004,False,,5c31167d1a964b0001ffcce5,,1511221,74,,evan-feature22,full_pf_a,,1
45,39587,75,,,,2,2,0.0,0.0,0.0,-1.0,,0.0-72.0,,0.0,1561.0,0.0,0.382300414,1.0,0.577670603,0.0,0.607608448,0.0,0.378261578,False,,5c31167d1a964b0001ffcce5,,1522612,75,,evan-feature22,full_pf_a,,1
46,39588,76,,,,2,2,1.0,0.0,1.0,0.0,,0.0-73.0,,1.0,1498.0,0.0,0.357596762,0.0,0.5929076529999999,1.0,0.6579790010000001,0.0,0.401326777,False,,5c31167d1a964b0001ffcce5,,1533951,76,,evan-feature22,full_pf_a,,0
47,39589,77,,,,1,1,0.0,0.0,0.0,-1.0,,0.0-74.0,,0.0,2750.0,0.0,0.362033495,0.0,0.582308608,0.0,0.649195052,1.0,0.355158505,False,,5c31167d1a964b0001ffcce5,,1546552,77,,evan-feature22,full_pf_a,,1
48,39590,78,,,,1,1,1.0,1.0,0.0,-1.0,,0.0-75.0,,-1.0,3175.0,1.0,0.369620635,1.0,0.669100864,1.0,0.706059111,1.0,0.362516241,False,,5c31167d1a964b0001ffcce5,,1559602,78,,evan-feature22,full_pf_a,,0
49,39591,79,,,,1,1,1.0,0.0,0.0,-1.0,,0.0-76.0,,0.0,638.0,1.0,0.41477751399999996,0.0,0.7284416779999999,1.0,0.7182656940000001,0.0,0.36228040899999997,False,,5c31167d1a964b0001ffcce5,,1570042,79,,evan-feature22,full_pf_a,,0
50,39592,80,,,,2,2,1.0,1.0,1.0,0.0,,0.0-77.0,,1.0,821.0,1.0,0.37675460299999997,1.0,0.703250285,1.0,0.75,1.0,0.461979164,False,,5c31167d1a964b0001ffcce5,,1580711,80,,evan-feature22,full_pf_a,,1
51,39593,81,,,,2,2,1.0,0.0,1.0,0.0,,0.0-78.0,,1.0,567.0,1.0,0.398716075,0.0,0.6723864890000001,1.0,0.674153818,0.0,0.519029516,False,,5c31167d1a964b0001ffcce5,,1591091,81,,evan-feature22,full_pf_a,,0
52,39594,82,,,,1,1,1.0,1.0,1.0,0.0,,0.0-79.0,,1.0,955.0,1.0,0.34677856700000004,1.0,0.69057175,1.0,0.6822438540000001,0.0,0.477292237,False,,5c31167d1a964b0001ffcce5,,1601912,82,,evan-feature22,full_pf_a,,1
53,39595,83,,,,1,1,0.0,0.0,0.0,-1.0,,0.0-80.0,,0.0,2102.0,0.0,0.28580469199999997,0.0,0.68408818,0.0,0.684207565,0.0,0.49780448299999996,False,,5c31167d1a964b0001ffcce5,,1613862,83,,evan-feature22,full_pf_a,,0
54,39597,85,,,,2,2,1.0,1.0,0.0,-1.0,,0.0-82.0,,-1.0,1835.0,0.0,0.25,1.0,0.7405808970000001,1.0,0.679614108,1.0,0.436436964,False,,5c31167d1a964b0001ffcce5,,1630722,85,,evan-feature22,full_pf_a,,1
55,39598,86,,,,2,2,0.0,0.0,0.0,-1.0,,0.0-83.0,,0.0,1101.0,1.0,0.29890393,1.0,0.730505706,0.0,0.7328203320000001,0.0,0.439256938,False,,5c31167d1a964b0001ffcce5,,1641640,86,,evan-feature22,full_pf_a,,0
56,39599,87,,,,2,2,1.0,0.0,1.0,0.0,,0.0-84.0,,1.0,1594.0,0.0,0.326762398,0.0,0.7148059609999999,1.0,0.75,0.0,0.44389608799999997,False,,5c31167d1a964b0001ffcce5,,1653072,87,,evan-feature22,full_pf_a,,0
57,39600,88,,,,2,2,1.0,0.0,0.0,-1.0,,0.0-85.0,,0.0,2591.0,0.0,0.295168515,1.0,0.739760854,1.0,0.719947008,0.0,0.35277284600000003,False,,5c31167d1a964b0001ffcce5,,1665491,88,,evan-feature22,full_pf_a,,0
58,39601,89,,,,1,1,0.0,0.0,0.0,-1.0,,0.0-86.0,,0.0,1690.0,0.0,0.25,0.0,0.70781482,1.0,0.75,0.0,0.286095925,False,,5c31167d1a964b0001ffcce5,,1677061,89,,evan-feature22,full_pf_a,,1
59,39602,90,,,,2,2,1.0,0.0,0.0,-1.0,,0.0-87.0,,0.0,1192.0,0.0,0.25638190899999996,0.0,0.704088163,1.0,0.75,0.0,0.26872601399999996,False,,5c31167d1a964b0001ffcce5,,1688082,90,,evan-feature22,full_pf_a,,1
60,39603,91,,,,2,2,0.0,1.0,1.0,0.0,,0.0-88.0,,0.0,1421.0,0.0,0.271581126,1.0,0.669760107,0.0,0.733896663,1.0,0.273244572,False,,5c31167d1a964b0001ffcce5,,1699362,91,,evan-feature22,full_pf_a,,0
61,39604,92,,,,2,2,0.0,0.0,0.0,-1.0,,0.0-89.0,,0.0,2653.0,0.0,0.257144401,1.0,0.600575706,0.0,0.74488122,0.0,0.25,False,,5c31167d1a964b0001ffcce5,,1711841,92,,evan-feature22,full_pf_a,,0
62,39605,93,,,,1,1,0.0,0.0,0.0,-1.0,,0.0-90.0,,0.0,1821.0,0.0,0.25,0.0,0.616870026,1.0,0.723610234,0.0,0.25,False,,5c31167d1a964b0001ffcce5,,1723542,93,,evan-feature22,full_pf_a,,1
63,39606,94,,,,2,2,1.0,0.0,1.0,0.0,,0.0-91.0,,1.0,1081.0,0.0,0.25,0.0,0.583540187,1.0,0.7041042559999999,0.0,0.285961995,False,,5c31167d1a964b0001ffcce5,,1734452,94,,evan-feature22,full_pf_a,,1
64,39607,95,,,,2,2,1.0,0.0,1.0,0.0,,0.0-92.0,,1.0,1738.0,1.0,0.27254536,0.0,0.53875765,1.0,0.693783448,0.0,0.284961652,False,,5c31167d1a964b0001ffcce5,,1746052,95,,evan-feature22,full_pf_a,,0
65,39608,96,,,,1,1,0.0,0.0,1.0,0.0,,0.0-93.0,,0.0,1290.0,0.0,0.25,0.0,0.548431252,1.0,0.734221895,0.0,0.279445214,False,,5c31167d1a964b0001ffcce5,,1757212,96,,evan-feature22,full_pf_a,,1
66,39609,97,,,,SLOW,SLOW,,,0.0,-1.0,,0.0-94.0,,-3.0,,0.0,0.258640684,1.0,0.545878066,1.0,0.725245965,0.0,0.31487537,False,,5c31167d1a964b0001ffcce5,,1763072,97,,evan-feature22,full_pf_a,,1
67,39610,98,,,,1,1,1.0,0.0,0.0,-1.0,,0.0-95.0,,0.0,751.0,1.0,0.251103711,0.0,0.5776290629999999,1.0,0.696320133,0.0,0.317831047,False,,5c31167d1a964b0001ffcce5,,1773692,98,,evan-feature22,full_pf_a,,1
68,39611,99,,,,2,2,1.0,1.0,0.0,-1.0,,0.0-96.0,,-1.0,675.0,0.0,0.276630292,1.0,0.617329858,1.0,0.73838088,1.0,0.261471582,False,,5c31167d1a964b0001ffcce5,,1784211,99,,evan-feature22,full_pf_a,,1
69,39612,100,,,,2,2,1.0,0.0,0.0,-1.0,,0.0-97.0,,0.0,538.0,1.0,0.297716424,0.0,0.618863717,1.0,0.7402358259999999,0.0,0.262600834,False,,5c31167d1a964b0001ffcce5,,1794591,100,,evan-feature22,full_pf_a,,0
70,39613,101,,,,1,1,0.0,1.0,1.0,0.0,,0.0-98.0,,0.0,622.0,0.0,0.290935512,1.0,0.695370945,1.0,0.706570507,0.0,0.280030553,False,,5c31167d1a964b0001ffcce5,,1805052,101,,evan-feature22,full_pf_a,,1
71,39614,102,,,,2,2,0.0,0.0,0.0,-1.0,,0.0-99.0,,0.0,595.0,0.0,0.25,1.0,0.6465277079999999,0.0,0.67766682,0.0,0.25,False,,5c31167d1a964b0001ffcce5,,1815521,102,,evan-feature22,full_pf_a,,1
72,39615,103,,,,1,1,0.0,1.0,1.0,0.0,,0.0-100.0,,0.0,749.0,0.0,0.26463816,1.0,0.636100213,1.0,0.646048507,0.0,0.265607101,False,,5c31167d1a964b0001ffcce5,,1826152,103,,evan-feature22,full_pf_a,,1
73,39616,104,,,,2,2,0.0,0.0,1.0,0.0,,0.0-101.0,,0.0,662.0,1.0,0.314340707,1.0,0.667795927,0.0,0.613630805,0.0,0.25,False,,5c31167d1a964b0001ffcce5,,1836613,104,,evan-feature22,full_pf_a,,1
74,39617,105,,,,2,2,0.0,0.0,0.0,-1.0,,0.0-102.0,,0.0,1046.0,0.0,0.28685784,0.0,0.6622549529999999,0.0,0.652154117,0.0,0.25,False,,5c31167d1a964b0001ffcce5,,1847512,105,,evan-feature22,full_pf_a,,0
75,39618,106,,,,1,1,0.0,1.0,0.0,-1.0,,0.0-103.0,,-1.0,853.0,0.0,0.304106554,1.0,0.631289538,1.0,0.707041942,0.0,0.29314237,False,,5c31167d1a964b0001ffcce5,,1858231,106,,evan-feature22,full_pf_a,,1
76,39619,107,,,,1,1,0.0,1.0,0.0,-1.0,,0.0-104.0,,-1.0,1415.0,0.0,0.304806932,1.0,0.571167718,1.0,0.680472346,1.0,0.25,False,,5c31167d1a964b0001ffcce5,,1869492,107,,evan-feature22,full_pf_a,,0
77,39620,108,,,,1,1,0.0,1.0,0.0,-1.0,,0.0-105.0,,-1.0,1499.0,0.0,0.37919861,1.0,0.5724849710000001,1.0,0.705638003,0.0,0.30179300600000003,False,,5c31167d1a964b0001ffcce5,,1880812,108,,evan-feature22,full_pf_a,,0
78,39621,109,,,,1,1,1.0,0.0,0.0,-1.0,,0.0-106.0,,0.0,979.0,1.0,0.464277969,0.0,0.554034373,0.0,0.7372627340000001,0.0,0.264699741,False,,5c31167d1a964b0001ffcce5,,1891642,109,,evan-feature22,full_pf_a,,0
79,39622,110,,,,1,1,0.0,1.0,0.0,-1.0,,0.0-107.0,,-1.0,420.0,0.0,0.465104323,1.0,0.530793115,1.0,0.75,1.0,0.31683071,False,,5c31167d1a964b0001ffcce5,,1901911,110,,evan-feature22,full_pf_a,,0
80,39623,111,,,,1,1,0.0,1.0,1.0,0.0,,0.0-108.0,,0.0,1590.0,0.0,0.465104323,1.0,0.530793115,1.0,0.75,1.0,0.31683071,False,,5c31167d1a964b0001ffcce5,,1913352,111,,evan-feature22,full_pf_a,,0
81,39624,112,,,,2,2,0.0,1.0,1.0,0.0,,0.0-109.0,,0.0,775.0,1.0,0.46833986,1.0,0.570249239,0.0,0.7244472590000001,1.0,0.364114163,False,,5c31167d1a964b0001ffcce5,,1923972,112,,evan-feature22,full_pf_a,,1
82,39625,113,,,,2,2,0.0,1.0,1.0,0.0,,0.0-110.0,,0.0,875.0,0.0,0.445444024,0.0,0.649673355,0.0,0.6845441290000001,1.0,0.300660449,False,,5c31167d1a964b0001ffcce5,,1934692,113,,evan-feature22,full_pf_a,,0
83,39626,114,,,,2,2,1.0,0.0,1.0,0.0,,0.0-111.0,,1.0,1197.0,1.0,0.39909721299999995,1.0,0.6715179509999999,1.0,0.742310028,0.0,0.35496088299999995,False,,5c31167d1a964b0001ffcce5,,1945752,114,,evan-feature22,full_pf_a,,0
84,39627,115,,,,1,1,0.0,1.0,0.0,-1.0,,0.0-112.0,,-1.0,455.0,0.0,0.37956104799999996,1.0,0.694725302,0.0,0.7181651309999999,0.0,0.38726906299999997,False,,5c31167d1a964b0001ffcce5,,1956062,115,,evan-feature22,full_pf_a,,1
85,39628,116,,,,2,2,1.0,0.0,0.0,-1.0,,0.0-113.0,,0.0,849.0,1.0,0.404995034,1.0,0.724375412,1.0,0.6910946859999999,0.0,0.387187347,False,,5c31167d1a964b0001ffcce5,,1966762,116,,evan-feature22,full_pf_a,,1
86,39629,117,,,,2,2,1.0,1.0,1.0,0.0,,0.0-114.0,,1.0,900.0,1.0,0.461740803,0.0,0.75,1.0,0.75,1.0,0.34872038200000005,False,,5c31167d1a964b0001ffcce5,,1977542,117,,evan-feature22,full_pf_a,,0
87,39630,118,,,,1,1,0.0,1.0,1.0,0.0,,0.0-115.0,,0.0,1528.0,0.0,0.43821380600000004,1.0,0.738833273,1.0,0.728286963,1.0,0.399538128,False,,5c31167d1a964b0001ffcce5,,1988941,118,,evan-feature22,full_pf_a,,1
88,39631,119,,,,2,2,0.0,0.0,0.0,-1.0,,0.0-116.0,,0.0,1345.0,0.0,0.41709882,1.0,0.736666736,0.0,0.75,0.0,0.389095584,False,,5c31167d1a964b0001ffcce5,,2000092,119,,evan-feature22,full_pf_a,,1
89,39632,120,,,,2,2,0.0,0.0,0.0,-1.0,,0.0-117.0,,0.0,2851.0,0.0,0.39749009799999996,1.0,0.744320029,0.0,0.75,0.0,0.363848678,False,,5c31167d1a964b0001ffcce5,,2012781,120,,evan-feature22,full_pf_a,,0
90,39633,121,,,,1,1,1.0,1.0,1.0,0.0,,0.0-118.0,,1.0,913.0,1.0,0.392653706,1.0,0.75,1.0,0.75,1.0,0.384386976,False,,5c31167d1a964b0001ffcce5,,2023562,121,,evan-feature22,full_pf_a,,1
91,39634,122,,,,2,2,1.0,0.0,0.0,-1.0,,0.0-119.0,,0.0,1189.0,0.0,0.31190902600000003,1.0,0.75,1.0,0.732413819,0.0,0.413082932,False,,5c31167d1a964b0001ffcce5,,2034602,122,,evan-feature22,full_pf_a,,1
92,39635,123,,,,2,2,1.0,0.0,1.0,0.0,,0.0-120.0,,1.0,1791.0,0.0,0.366917648,1.0,0.740073855,1.0,0.75,0.0,0.352861979,False,,5c31167d1a964b0001ffcce5,,2046221,123,,evan-feature22,full_pf_a,,0
93,39636,124,,,,2,2,1.0,0.0,1.0,0.0,,0.0-121.0,,1.0,1471.0,0.0,0.3645172,1.0,0.721770713,1.0,0.75,0.0,0.404074511,False,,5c31167d1a964b0001ffcce5,,2057562,124,,evan-feature22,full_pf_a,,0
94,39637,125,,,,1,1,1.0,1.0,1.0,0.0,,0.0-122.0,,1.0,1637.0,1.0,0.35205600299999995,1.0,0.68983859,1.0,0.739735447,0.0,0.366895945,False,,5c31167d1a964b0001ffcce5,,2069032,125,,evan-feature22,full_pf_a,,1
95,39638,126,,,,1,1,1.0,0.0,1.0,0.0,,0.0-123.0,,1.0,1479.0,1.0,0.40998722600000004,0.0,0.720859127,1.0,0.673854955,0.0,0.368528541,False,,5c31167d1a964b0001ffcce5,,2080392,126,,evan-feature22,full_pf_a,,0
96,39639,127,,,,2,2,0.0,1.0,1.0,0.0,,0.0-124.0,,0.0,950.0,0.0,0.353625316,1.0,0.75,0.0,0.695605473,1.0,0.38303674200000004,False,,5c31167d1a964b0001ffcce5,,2091232,127,,evan-feature22,full_pf_a,,1
97,39640,128,,,,1,1,1.0,1.0,1.0,0.0,,0.0-125.0,,1.0,1710.0,1.0,0.359216989,1.0,0.75,0.0,0.6987915090000001,0.0,0.35169046200000004,False,,5c31167d1a964b0001ffcce5,,2102802,128,,evan-feature22,full_pf_a,,1
98,39641,129,,,,2,2,1.0,1.0,1.0,0.0,,0.0-126.0,,1.0,524.0,0.0,0.35834496899999996,0.0,0.75,1.0,0.707067742,1.0,0.416763636,False,,5c31167d1a964b0001ffcce5,,2113171,129,,evan-feature22,full_pf_a,,1
99,39642,130,,,,1,1,0.0,1.0,0.0,-1.0,,0.0-127.0,,-1.0,1189.0,0.0,0.38741613799999997,1.0,0.7177369570000001,1.0,0.734902455,0.0,0.49438664299999996,False,,5c31167d1a964b0001ffcce5,,2124202,130,,evan-feature22,full_pf_a,,1
100,39643,131,,,,1,1,1.0,1.0,1.0,0.0,,0.0-128.0,,1.0,1413.0,1.0,0.405255252,1.0,0.7300466640000001,0.0,0.7027748070000001,1.0,0.504359668,False,,5c31167d1a964b0001ffcce5,,2135492,131,,evan-feature22,full_pf_a,,0
101,39644,132,,,,2,2,1.0,0.0,1.0,0.0,,0.0-129.0,,1.0,762.0,0.0,0.40697073,1.0,0.7260142190000001,1.0,0.724461982,0.0,0.522779179,False,,5c31167d1a964b0001ffcce5,,2146083,132,,evan-feature22,full_pf_a,,1
102,39645,133,,,,2,2,0.0,0.0,1.0,0.0,,0.0-130.0,,0.0,1453.0,0.0,0.43906215299999996,1.0,0.7252802340000001,0.0,0.719079934,0.0,0.5712990579999999,False,,5c31167d1a964b0001ffcce5,,2157402,133,,evan-feature22,full_pf_a,,0
103,39646,134,,,,1,1,0.0,0.0,0.0,-1.0,,0.0-131.0,,0.0,1734.0,0.0,0.4076705,0.0,0.73280499,1.0,0.681313127,1.0,0.523891346,False,,5c31167d1a964b0001ffcce5,,2169002,134,,evan-feature22,full_pf_a,,1
104,39647,135,,,,1,1,0.0,1.0,0.0,-1.0,,0.0-132.0,,-1.0,1326.0,0.0,0.399102911,1.0,0.730498344,0.0,0.661080239,0.0,0.46742603,False,,5c31167d1a964b0001ffcce5,,2180171,135,,evan-feature22,full_pf_a,,0
105,39648,136,,,,1,1,1.0,1.0,0.0,-1.0,,0.0-133.0,,-1.0,1315.0,1.0,0.356477282,1.0,0.712296395,1.0,0.641812684,0.0,0.44868414,False,,5c31167d1a964b0001ffcce5,,2191322,136,,evan-feature22,full_pf_a,,0
106,39649,137,,,,2,2,0.0,0.0,1.0,0.0,,0.0-134.0,,0.0,2069.0,1.0,0.462760722,1.0,0.692349322,0.0,0.700947931,0.0,0.394680266,False,,5c31167d1a964b0001ffcce5,,2203251,137,,evan-feature22,full_pf_a,,1
107,39650,138,,,,2,2,1.0,0.0,1.0,0.0,,0.0-135.0,,1.0,891.0,0.0,0.422306413,1.0,0.718375916,1.0,0.706340917,0.0,0.367787185,False,,5c31167d1a964b0001ffcce5,,2213982,138,,evan-feature22,full_pf_a,,0
108,39652,140,,,,1,1,1.0,1.0,1.0,0.0,,0.0-137.0,,1.0,1262.0,1.0,0.4582233,1.0,0.643834117,1.0,0.75,1.0,0.39615823299999997,False,,5c31167d1a964b0001ffcce5,,2230641,140,,evan-feature22,full_pf_a,,1
109,39653,141,,,,1,1,0.0,1.0,1.0,0.0,,0.0-138.0,,0.0,989.0,0.0,0.43813437899999996,1.0,0.651283804,1.0,0.729674191,0.0,0.37711048,False,,5c31167d1a964b0001ffcce5,,2241482,141,,evan-feature22,full_pf_a,,0
110,39654,142,,,,1,1,0.0,1.0,1.0,0.0,,0.0-139.0,,0.0,1477.0,0.0,0.471199094,1.0,0.6470010979999999,1.0,0.715008097,0.0,0.410656191,False,,5c31167d1a964b0001ffcce5,,2252793,142,,evan-feature22,full_pf_a,,0
111,39655,143,,,,1,1,1.0,1.0,1.0,0.0,,0.0-140.0,,1.0,1089.0,1.0,0.42486406,1.0,0.629771829,1.0,0.6550939960000001,0.0,0.459093873,False,,5c31167d1a964b0001ffcce5,,2263712,143,,evan-feature22,full_pf_a,,0
112,39656,144,,,,1,1,0.0,1.0,1.0,0.0,,0.0-141.0,,0.0,1519.0,0.0,0.4803197,1.0,0.645842715,0.0,0.6421749920000001,0.0,0.443092151,False,,5c31167d1a964b0001ffcce5,,2275032,144,,evan-feature22,full_pf_a,,0
113,39657,145,,,,2,2,1.0,1.0,0.0,-1.0,,0.0-142.0,,-1.0,1671.0,1.0,0.521848997,1.0,0.735801074,1.0,0.6691348460000001,1.0,0.45259351600000003,False,,5c31167d1a964b0001ffcce5,,2286582,145,,evan-feature22,full_pf_a,,1
114,39658,146,,,,2,2,1.0,1.0,1.0,0.0,,0.0-143.0,,1.0,1465.0,0.0,0.49565621299999996,1.0,0.742400847,1.0,0.661512553,1.0,0.483110831,False,,5c31167d1a964b0001ffcce5,,2297912,146,,evan-feature22,full_pf_a,,0
115,39659,147,,,,1,1,0.0,1.0,1.0,0.0,,0.0-144.0,,0.0,1334.0,0.0,0.521564361,1.0,0.731078632,1.0,0.6774886809999999,0.0,0.483263956,False,,5c31167d1a964b0001ffcce5,,2309081,147,,evan-feature22,full_pf_a,,1
116,39660,148,,,,2,2,0.0,0.0,1.0,0.0,,0.0-145.0,,0.0,1172.0,1.0,0.558893102,1.0,0.719810023,0.0,0.67461031,0.0,0.499349834,False,,5c31167d1a964b0001ffcce5,,2320107,148,,evan-feature22,full_pf_a,,1
117,39661,149,,,,2,2,0.0,1.0,1.0,0.0,,0.0-146.0,,0.0,1158.0,0.0,0.611031046,1.0,0.75,0.0,0.688072995,1.0,0.5321422729999999,False,,5c31167d1a964b0001ffcce5,,2331092,149,,evan-feature22,full_pf_a,,0
118,39662,150,,,,1,1,1.0,1.0,0.0,-1.0,,0.0-147.0,,-1.0,1321.0,1.0,0.633223941,1.0,0.713567728,1.0,0.75,1.0,0.48185314700000004,False,,5c31167d1a964b0001ffcce5,,2342272,150,,evan-feature22,full_pf_a,,1
119,39663,151,,,,2,2,1.0,0.0,1.0,0.0,,0.0-148.0,,1.0,1422.0,1.0,0.664001694,0.0,0.705509768,1.0,0.75,0.0,0.500211065,False,,5c31167d1a964b0001ffcce5,,2353552,151,,evan-feature22,full_pf_a,,1
120,39664,152,,,,1,1,0.0,1.0,1.0,0.0,,0.0-149.0,,0.0,1102.0,0.0,0.664001694,1.0,0.705509768,1.0,0.75,0.0,0.500211065,False,,5c31167d1a964b0001ffcce5,,2364472,152,,evan-feature22,full_pf_a,,1
121,39665,153,,,,2,2,0.0,1.0,1.0,0.0,,0.0-150.0,,0.0,1138.0,0.0,0.696508041,0.0,0.71066027,0.0,0.717028709,1.0,0.49792991,False,,5c31167d1a964b0001ffcce5,,2375462,153,,evan-feature22,full_pf_a,,1
122,39666,154,,,,2,2,1.0,0.0,0.0,-1.0,,0.0-151.0,,0.0,2583.0,1.0,0.699883272,0.0,0.75,1.0,0.713543895,0.0,0.496962643,False,,5c31167d1a964b0001ffcce5,,2387892,154,,evan-feature22,full_pf_a,,0
123,39667,155,,,,1,1,0.0,0.0,0.0,-1.0,,0.0-152.0,,0.0,891.0,0.0,0.741163419,0.0,0.75,0.0,0.64691024,0.0,0.513858197,False,,5c31167d1a964b0001ffcce5,,2398672,155,,evan-feature22,full_pf_a,,1
124,39668,156,,,,2,2,1.0,0.0,0.0,-1.0,,0.0-153.0,,0.0,1087.0,1.0,0.75,1.0,0.70816558,1.0,0.594499079,0.0,0.48502124,False,,5c31167d1a964b0001ffcce5,,2409612,156,,evan-feature22,full_pf_a,,1
125,39669,157,,,,2,2,1.0,0.0,1.0,0.0,,0.0-154.0,,1.0,1746.0,0.0,0.75,1.0,0.721848901,1.0,0.62197249,0.0,0.48263586399999997,False,,5c31167d1a964b0001ffcce5,,2421222,157,,evan-feature22,full_pf_a,,0
126,39670,158,,,,1,1,0.0,1.0,1.0,0.0,,0.0-155.0,,0.0,791.0,0.0,0.75,1.0,0.74813071,0.0,0.584357161,0.0,0.411477782,False,,5c31167d1a964b0001ffcce5,,2431832,158,,evan-feature22,full_pf_a,,1
127,39671,159,,,,1,1,0.0,0.0,1.0,0.0,,0.0-156.0,,0.0,550.0,0.0,0.75,0.0,0.75,1.0,0.52287236,1.0,0.488290656,False,,5c31167d1a964b0001ffcce5,,2442239,159,,evan-feature22,full_pf_a,,0
128,39672,160,,,,1,1,1.0,1.0,1.0,0.0,,0.0-157.0,,1.0,1106.0,1.0,0.75,1.0,0.75,0.0,0.544321581,1.0,0.53143059,False,,5c31167d1a964b0001ffcce5,,2453182,160,,evan-feature22,full_pf_a,,0
129,39673,161,,,,2,2,1.0,1.0,1.0,0.0,,0.0-158.0,,1.0,801.0,1.0,0.726754564,1.0,0.75,1.0,0.5129306370000001,1.0,0.530592445,False,,5c31167d1a964b0001ffcce5,,2463837,161,,evan-feature22,full_pf_a,,1
130,39674,162,,,,2,2,1.0,0.0,0.0,-1.0,,0.0-159.0,,0.0,1607.0,1.0,0.75,0.0,0.7392590729999999,1.0,0.479875835,0.0,0.547007051,False,,5c31167d1a964b0001ffcce5,,2475271,162,,evan-feature22,full_pf_a,,0
131,39675,163,,,,1,1,1.0,0.0,0.0,-1.0,,0.0-160.0,,0.0,791.0,1.0,0.75,0.0,0.7393376979999999,1.0,0.546045419,0.0,0.541267353,False,,5c31167d1a964b0001ffcce5,,2485912,163,,evan-feature22,full_pf_a,,1
132,39676,164,,,,2,2,0.0,0.0,1.0,0.0,,0.0-161.0,,0.0,998.0,1.0,0.75,0.0,0.75,0.0,0.485725895,0.0,0.527625395,False,,5c31167d1a964b0001ffcce5,,2496732,164,,evan-feature22,full_pf_a,,1
133,39677,165,,,,2,2,1.0,1.0,0.0,-1.0,,0.0-162.0,,-1.0,1091.0,1.0,0.75,1.0,0.725087974,1.0,0.488603595,1.0,0.504019206,False,,5c31167d1a964b0001ffcce5,,2507682,165,,evan-feature22,full_pf_a,,0
134,39678,166,,,,1,1,1.0,1.0,1.0,0.0,,0.0-163.0,,1.0,1164.0,1.0,0.745504295,1.0,0.75,0.0,0.452379914,0.0,0.50131194,False,,5c31167d1a964b0001ffcce5,,2518693,166,,evan-feature22,full_pf_a,,1
135,39679,167,,,,2,2,0.0,1.0,0.0,-1.0,,0.0-164.0,,-1.0,692.0,0.0,0.728513874,1.0,0.75,0.0,0.44125567200000004,1.0,0.531454591,False,,5c31167d1a964b0001ffcce5,,2529212,167,,evan-feature22,full_pf_a,,1
136,39680,168,,,,2,2,1.0,0.0,1.0,0.0,,0.0-165.0,,1.0,1410.0,1.0,0.73790804,0.0,0.75,1.0,0.413036656,0.0,0.524619035,False,,5c31167d1a964b0001ffcce5,,2540463,168,,evan-feature22,full_pf_a,,0
137,39681,169,,,,1,1,0.0,0.0,1.0,0.0,,0.0-166.0,,0.0,944.0,0.0,0.7080961309999999,0.0,0.708666865,0.0,0.431915581,1.0,0.481819489,False,,5c31167d1a964b0001ffcce5,,2551272,169,,evan-feature22,full_pf_a,,1
138,39682,170,,,,1,1,0.0,0.0,1.0,0.0,,0.0-167.0,,0.0,1176.0,0.0,0.721378003,0.0,0.71605913,1.0,0.36642387,1.0,0.5036739929999999,False,,5c31167d1a964b0001ffcce5,,2562317,170,,evan-feature22,full_pf_a,,0
139,39683,171,,,,2,2,0.0,0.0,0.0,-1.0,,0.0-168.0,,0.0,1523.0,1.0,0.7340618959999999,1.0,0.699323252,0.0,0.35298046299999997,0.0,0.511241692,False,,5c31167d1a964b0001ffcce5,,2573692,171,,evan-feature22,full_pf_a,,1
140,39684,172,,,,1,1,1.0,0.0,0.0,-1.0,,0.0-169.0,,0.0,1219.0,1.0,0.75,0.0,0.70412698,1.0,0.380734814,1.0,0.529580116,False,,5c31167d1a964b0001ffcce5,,2584753,172,,evan-feature22,full_pf_a,,1
141,39685,173,,,,2,2,1.0,0.0,0.0,-1.0,,0.0-170.0,,0.0,1247.0,1.0,0.7436654909999999,1.0,0.711182751,1.0,0.41125331,0.0,0.49554405,False,,5c31167d1a964b0001ffcce5,,2595823,173,,evan-feature22,full_pf_a,,1
142,39686,174,,,,1,1,1.0,1.0,1.0,0.0,,0.0-171.0,,1.0,1584.0,1.0,0.731607915,1.0,0.651774583,0.0,0.35688023,1.0,0.45194491600000003,False,,5c31167d1a964b0001ffcce5,,2607282,174,,evan-feature22,full_pf_a,,1
143,39687,175,,,,1,1,0.0,0.0,0.0,-1.0,,0.0-172.0,,0.0,652.0,0.0,0.75,0.0,0.75,0.0,0.283145374,1.0,0.528608005,False,,5c31167d1a964b0001ffcce5,,2617783,175,,evan-feature22,full_pf_a,,0
144,39688,176,,,,2,2,0.0,0.0,1.0,0.0,,0.0-173.0,,0.0,1431.0,1.0,0.7491416890000001,1.0,0.7423785959999999,0.0,0.29135870399999997,0.0,0.498888318,False,,5c31167d1a964b0001ffcce5,,2629043,176,,evan-feature22,full_pf_a,,1
145,39689,177,,,,2,2,1.0,0.0,0.0,-1.0,,0.0-174.0,,0.0,1468.0,1.0,0.708569387,1.0,0.717682277,1.0,0.294421699,0.0,0.493838163,False,,5c31167d1a964b0001ffcce5,,2640322,177,,evan-feature22,full_pf_a,,0
146,39690,178,,,,1,1,1.0,1.0,1.0,0.0,,0.0-175.0,,1.0,1101.0,1.0,0.75,1.0,0.7383382159999999,1.0,0.356098707,1.0,0.442533405,False,,5c31167d1a964b0001ffcce5,,2651272,178,,evan-feature22,full_pf_a,,1
147,39691,179,,,,2,2,0.0,1.0,1.0,0.0,,0.0-176.0,,0.0,999.0,1.0,0.744527075,0.0,0.75,0.0,0.334127506,1.0,0.393165805,False,,5c31167d1a964b0001ffcce5,,2662122,179,,evan-feature22,full_pf_a,,1
148,39692,180,,,,2,2,1.0,1.0,1.0,0.0,,0.0-177.0,,1.0,1364.0,0.0,0.75,1.0,0.75,1.0,0.33571021799999995,1.0,0.350393962,False,,5c31167d1a964b0001ffcce5,,2673322,180,,evan-feature22,full_pf_a,,0
149,39693,181,,,,1,1,0.0,1.0,0.0,-1.0,,0.0-178.0,,-1.0,1140.0,0.0,0.75,1.0,0.75,0.0,0.313628297,0.0,0.36349657399999996,False,,5c31167d1a964b0001ffcce5,,2684302,181,,evan-feature22,full_pf_a,,1
150,39694,182,,,,2,2,0.0,1.0,1.0,0.0,,0.0-179.0,,0.0,897.0,0.0,0.75,1.0,0.734284182,0.0,0.262667667,1.0,0.380199119,False,,5c31167d1a964b0001ffcce5,,2695002,182,,evan-feature22,full_pf_a,,1
151,39695,183,,,,2,2,0.0,1.0,1.0,0.0,,0.0-180.0,,0.0,1573.0,0.0,0.75,1.0,0.75,0.0,0.25,1.0,0.394494013,False,,5c31167d1a964b0001ffcce5,,2706452,183,,evan-feature22,full_pf_a,,0
152,39696,184,,,,1,1,1.0,1.0,1.0,0.0,,0.0-181.0,,1.0,635.0,1.0,0.722298145,1.0,0.7357822340000001,0.0,0.25,1.0,0.319142121,False,,5c31167d1a964b0001ffcce5,,2716952,184,,evan-feature22,full_pf_a,,1
153,39697,185,,,,2,2,0.0,0.0,1.0,0.0,,0.0-182.0,,0.0,887.0,1.0,0.73149275,1.0,0.724276446,0.0,0.305856907,0.0,0.281315057,False,,5c31167d1a964b0001ffcce5,,2727682,185,,evan-feature22,full_pf_a,,1
154,39698,186,,,,2,2,0.0,0.0,1.0,0.0,,0.0-183.0,,0.0,1451.0,1.0,0.7458732690000001,1.0,0.7336382459999999,0.0,0.272571964,0.0,0.266021999,False,,5c31167d1a964b0001ffcce5,,2739002,186,,evan-feature22,full_pf_a,,0
155,39699,187,,,,1,1,1.0,1.0,0.0,-1.0,,0.0-184.0,,-1.0,1076.0,1.0,0.705579037,1.0,0.720778292,0.0,0.320238144,1.0,0.30971744,False,,5c31167d1a964b0001ffcce5,,2749913,187,,evan-feature22,full_pf_a,,1
156,39700,188,,,,1,1,1.0,1.0,0.0,-1.0,,0.0-185.0,,-1.0,615.0,1.0,0.700425648,1.0,0.7198784009999999,0.0,0.272590393,1.0,0.304182931,False,,5c31167d1a964b0001ffcce5,,2760352,188,,evan-feature22,full_pf_a,,0
157,39701,189,,,,2,2,1.0,1.0,0.0,-1.0,,0.0-186.0,,-1.0,1038.0,0.0,0.735590785,0.0,0.722714973,1.0,0.25,1.0,0.323421091,False,,5c31167d1a964b0001ffcce5,,2771252,189,,evan-feature22,full_pf_a,,1
158,39702,190,,,,2,2,0.0,1.0,0.0,-1.0,,0.0-187.0,,-1.0,379.0,0.0,0.724807662,0.0,0.63146213,0.0,0.36836492600000004,1.0,0.34592153299999995,False,,5c31167d1a964b0001ffcce5,,2781482,190,,evan-feature22,full_pf_a,,0
159,39703,191,,,,2,2,0.0,0.0,1.0,0.0,,0.0-188.0,,0.0,950.0,0.0,0.7352796909999999,1.0,0.555111392,0.0,0.36003922,0.0,0.31433779999999995,False,,5c31167d1a964b0001ffcce5,,2792262,191,,evan-feature22,full_pf_a,,0
160,39704,192,notice,,,,,,,,,,0.0-189.0,"{""Q0"":""Second half seemed more random""}",,32725.0,,,,,,,,,False,,5c31167d1a964b0001ffcce5,,2824988,192,Q,survey-text,full_pf_a,,1
161,39705,193,track1,,[1],,,,,,,,0.0-190.0,"{""Q0"":""no""}",,5939.0,,,,,,,,,False,,5c31167d1a964b0001ffcce5,,2830930,193,Q,evan-quiz,full_pf_a,,1
162,39706,194,track2,,[0],,,,,,,,0.0-191.0,"{""Q0"":""yes""}",,11884.0,,,,,,,,,False,,5c31167d1a964b0001ffcce5,,2842814,194,Q,evan-quiz,full_pf_a,,1
163,39707,195,strat,,,,,,,,,,0.0-192.0,"{""Q0"":""N/A""}",,12866.0,,,,,,,,,False,,5c31167d1a964b0001ffcce5,,2855683,195,Q,survey-text,full_pf_a,,1
