,Unnamed: 0,button_pressed,choice_idxs,chosen_pos,chosen_state,chosen_state_f_1_outcome,chosen_state_f_2_outcome,chosen_state_f_3_outcome,f_1_reward,f_2_reward,f_3_reward,incor_questions,internal_node_id,responses,reward_received,rt,s_1_f_1_outcome,s_1_f_1_prob,s_1_f_2_outcome,s_1_f_2_prob,s_1_f_3_outcome,s_1_f_3_prob,s_2_f_1_outcome,s_2_f_1_prob,s_2_f_2_outcome,s_2_f_2_prob,s_2_f_3_outcome,s_2_f_3_prob,s_3_f_1_outcome,s_3_f_1_prob,s_3_f_2_outcome,s_3_f_2_prob,s_3_f_3_outcome,s_3_f_3_prob,safe_first,stimulus,subjectID,success,time_elapsed,trial_index,trial_type,view_history
36,36,,,3.0,3.0,1.0,0.0,0.0,3.0,0.0,0.0,,0.0-18.0,,3.0,1834.6349999992526,1.0,0.3924096496726558,0.0,0.5527330480197997,1.0,0.519910321069063,1.0,0.24227704258686544,1.0,0.5564534930940909,1.0,0.4759998575539273,1.0,0.7351585826571231,0.0,0.26096980294355177,0.0,0.6405336115972565,False,,5d52e92220d410001799d261,,484281,36,evan-feature33,
37,37,,,2.0,2.0,0.0,0.0,1.0,0.0,0.0,-3.0,,0.0-19.0,,-3.0,2126.8350000027567,0.0,0.4110424770561947,0.0,0.574886298365063,0.0,0.5516889095938963,0.0,0.2410637945703963,0.0,0.5065016280008237,1.0,0.4713871722865253,1.0,0.7719886245714399,0.0,0.23685642714539115,1.0,0.6200151029718415,False,,5d52e92220d410001799d261,,491920,37,evan-feature33,
38,38,,,1.0,1.0,1.0,0.0,1.0,0.0,0.0,-3.0,,0.0-20.0,,-3.0,3967.1950000011134,1.0,0.39016331915449465,0.0,0.5561859262316111,1.0,0.5325605042938446,0.0,0.23744378152676646,1.0,0.5632161271264384,1.0,0.5062416954668169,1.0,0.7724968520209506,0.0,0.2865050298831403,0.0,0.6554906696109224,False,,5d52e92220d410001799d261,,501400,38,evan-feature33,
39,39,,,3.0,3.0,1.0,0.0,0.0,0.0,0.0,-3.0,,0.0-21.0,,0.0,1812.375000001397,0.0,0.4409703487461915,1.0,0.5552129103489927,1.0,0.5069815708205558,1.0,0.264746148610696,1.0,0.5793950485460951,1.0,0.4823004312433029,1.0,0.759533607084813,0.0,0.27343845686916485,0.0,0.6947110494432843,False,,5d52e92220d410001799d261,,508725,39,evan-feature33,
40,40,,,1.0,1.0,1.0,1.0,0.0,0.0,1.0,0.0,,0.0-22.0,,1.0,2862.7549999983753,1.0,0.4543431900522422,1.0,0.5375072474757513,0.0,0.4547769844385975,0.0,0.22603466925526186,0.0,0.571632233605524,1.0,0.4801255130536376,1.0,0.7637528248236637,0.0,0.2838430048647725,0.0,0.6586406974851965,False,,5d52e92220d410001799d261,,517100,40,evan-feature33,
41,41,,,,,,,,0.0,0.0,-3.0,,0.0-23.0,,,,1.0,0.4397388986646049,0.0,0.5309424603469712,0.0,0.4586568293415803,0.0,0.22945721502941874,0.0,0.5548086492730907,1.0,0.5032293000776538,1.0,0.7469005034009559,0.0,0.2978484346553583,0.0,0.6641776037132455,False,,5d52e92220d410001799d261,,522657,41,evan-feature33,
42,42,,,3.0,3.0,1.0,0.0,1.0,0.0,1.0,0.0,,0.0-24.0,,0.0,3376.080000001821,1.0,0.4270231333232515,0.0,0.5142636834031374,1.0,0.4283785621038821,0.0,0.22465727758941173,0.0,0.5379130419176764,1.0,0.4928391817399228,1.0,0.7412204456819141,0.0,0.24355519397713585,1.0,0.7153836635204055,False,,5d52e92220d410001799d261,,531546,42,evan-feature33,
43,43,,,1.0,1.0,0.0,1.0,0.0,0.0,1.0,0.0,,0.0-25.0,,1.0,2625.050000002375,0.0,0.4918984071451314,1.0,0.5162461375332454,0.0,0.366322449599804,0.0,0.2327836296553312,0.0,0.5672296701548162,0.0,0.4965901241011391,0.0,0.7048363813340995,0.0,0.2,1.0,0.7219895627416483,False,,5d52e92220d410001799d261,,539682,43,evan-feature33,
44,44,,,1.0,1.0,0.0,0.0,1.0,0.0,0.0,-3.0,,0.0-26.0,,-3.0,2509.40500000061,0.0,0.5648282616698048,0.0,0.4795702082741863,1.0,0.41854690791158056,0.0,0.2331185785931583,1.0,0.5854190029803813,0.0,0.4870845777408255,1.0,0.725760963705121,0.0,0.21635341823374196,1.0,0.7188113492433647,False,,5d52e92220d410001799d261,,547701,44,evan-feature33,
45,45,,,3.0,3.0,0.0,1.0,1.0,3.0,0.0,0.0,,0.0-27.0,,0.0,1793.4999999997672,0.0,0.5533083303313518,0.0,0.4675689741952482,0.0,0.4661739460290583,0.0,0.27641516764281404,1.0,0.5886631301906964,1.0,0.4923511866904805,0.0,0.7258138624598217,1.0,0.2,1.0,0.7220421379998626,False,,5d52e92220d410001799d261,,555006,45,evan-feature33,
46,46,,,3.0,3.0,1.0,0.0,1.0,3.0,0.0,0.0,,0.0-28.0,,3.0,1211.2850000011967,1.0,0.5184745831066917,0.0,0.44593477914000706,1.0,0.4842266755702079,0.0,0.27313246688542864,1.0,0.6022113188075412,1.0,0.5049893280452487,1.0,0.6992070401839012,0.0,0.2,1.0,0.7512225822986851,False,,5d52e92220d410001799d261,,561729,46,evan-feature33,
47,47,,,2.0,2.0,0.0,1.0,0.0,0.0,0.0,-3.0,,0.0-29.0,,0.0,1724.0799999999579,1.0,0.5314632476613289,0.0,0.4642898608249196,0.0,0.4658312532299229,0.0,0.2895848765544893,1.0,0.6598476501183389,0.0,0.4895278886937797,0.0,0.6677407532459868,0.0,0.2,0.0,0.8,False,,5d52e92220d410001799d261,,568966,47,evan-feature33,
48,48,,,3.0,3.0,1.0,0.0,1.0,0.0,0.0,-3.0,,0.0-30.0,,-3.0,1924.1499999989755,0.0,0.5779744201034239,0.0,0.4543557752338741,1.0,0.4611343603474431,0.0,0.3279223556359549,1.0,0.6441421964583111,1.0,0.4228188116507352,1.0,0.7524748235705241,0.0,0.2,1.0,0.7807150372880397,False,,5d52e92220d410001799d261,,576403,48,evan-feature33,
49,49,,,2.0,2.0,0.0,1.0,1.0,0.0,0.0,-3.0,,0.0-31.0,,-3.0,1742.6500000001395,0.0,0.5920518749631309,0.0,0.4418595755828088,1.0,0.3863044318043564,0.0,0.295724266694287,1.0,0.6674117883976911,1.0,0.4343940922408691,1.0,0.6991581355613226,1.0,0.21745322068511985,1.0,0.8,False,,5d52e92220d410001799d261,,583658,49,evan-feature33,
50,50,,,1.0,1.0,1.0,1.0,0.0,0.0,0.0,-3.0,,0.0-32.0,,0.0,1872.4250000013271,1.0,0.6577760587756704,1.0,0.470416263176238,0.0,0.3701888013519709,0.0,0.3069151486620779,1.0,0.6620233630055603,1.0,0.4483006621130968,1.0,0.6641897270706846,0.0,0.2,1.0,0.8,False,,5d52e92220d410001799d261,,591043,50,evan-feature33,
51,51,,,3.0,3.0,1.0,0.0,1.0,3.0,0.0,0.0,,0.0-33.0,,3.0,3658.879999999073,1.0,0.6640636439884947,1.0,0.5546989796523255,0.0,0.3721073742346397,0.0,0.2828755376691326,1.0,0.6750739557554398,1.0,0.452437561848127,1.0,0.6476559008037855,0.0,0.2,1.0,0.8,False,,5d52e92220d410001799d261,,600214,51,evan-feature33,
52,52,,,3.0,3.0,1.0,0.0,0.0,0.0,0.0,-3.0,,0.0-34.0,,0.0,1308.5250000003725,1.0,0.6562039556672242,1.0,0.5592278465405724,1.0,0.3576313674700272,0.0,0.2506603806538853,1.0,0.662186567497955,1.0,0.4732458188564524,1.0,0.6696536629212239,0.0,0.20219988897169333,0.0,0.7819186146379995,False,,5d52e92220d410001799d261,,607035,52,evan-feature33,
53,53,,,1.0,1.0,1.0,0.0,1.0,0.0,1.0,0.0,,0.0-35.0,,0.0,2183.124999999535,1.0,0.6963309952244634,0.0,0.5278719273652851,1.0,0.4058743685481601,0.0,0.22404201006689625,1.0,0.6764574172305569,0.0,0.4767326878479447,1.0,0.6409184873244232,1.0,0.21214226291706556,1.0,0.7575592618200989,False,,5d52e92220d410001799d261,,614730,53,evan-feature33,
54,54,,,3.0,3.0,1.0,0.0,0.0,0.0,0.0,-3.0,,0.0-36.0,,0.0,1509.8400000024121,1.0,0.7248912162349734,1.0,0.5689891901577323,0.0,0.3632356510545226,0.0,0.22779734000348464,0.0,0.6750895906231329,1.0,0.4914048042857106,1.0,0.6251795446630913,0.0,0.2363083723127571,0.0,0.7973524762395692,False,,5d52e92220d410001799d261,,621751,54,evan-feature33,
55,55,,,1.0,1.0,0.0,0.0,0.0,0.0,0.0,-3.0,,0.0-37.0,,0.0,2977.435000000638,0.0,0.7148442583644491,0.0,0.5888563616410335,0.0,0.3249006478377093,1.0,0.2870670985114049,1.0,0.682791798241267,1.0,0.4235516408061923,1.0,0.6346092414382151,1.0,0.2,0.0,0.7306756386436137,False,,5d52e92220d410001799d261,,630238,55,evan-feature33,
56,56,,,2.0,2.0,0.0,1.0,1.0,0.0,0.0,-3.0,,0.0-38.0,,-3.0,921.9850000008008,1.0,0.7078518741642484,1.0,0.623564361798275,1.0,0.3240357785885068,0.0,0.2584625947707592,1.0,0.6869394111101667,1.0,0.43850692811937103,1.0,0.6583142860850373,0.0,0.20238948079916408,0.0,0.6981605726898138,False,,5d52e92220d410001799d261,,636672,56,evan-feature33,
57,57,,,3.0,3.0,0.0,0.0,1.0,3.0,0.0,0.0,,0.0-39.0,,0.0,1305.325000001234,0.0,0.7279986103867159,1.0,0.5842828890141898,0.0,0.3381358256497989,0.0,0.25692878444178,1.0,0.6711283822913605,0.0,0.4547516947551058,0.0,0.6451574988384903,0.0,0.22348926915861236,1.0,0.6950415732154936,False,,5d52e92220d410001799d261,,643488,57,evan-feature33,
58,58,,,3.0,3.0,1.0,1.0,0.0,0.0,0.0,-3.0,,0.0-40.0,,0.0,835.4849999996367,1.0,0.7388546233352159,0.0,0.6126932196143929,0.0,0.30208307866963285,1.0,0.2072940176314544,0.0,0.6423394340843759,1.0,0.4840636658239415,1.0,0.6236873476165582,1.0,0.24302102019969726,0.0,0.7034918077914761,False,,5d52e92220d410001799d261,,649838,58,evan-feature33,
59,59,,,3.0,3.0,1.0,0.0,1.0,0.0,0.0,-3.0,,0.0-41.0,,-3.0,743.7099999987987,0.0,0.7662619843630543,0.0,0.6895665307837062,0.0,0.35335142309607137,0.0,0.2381981370219393,1.0,0.6703664443589646,0.0,0.4683289323419907,1.0,0.6444425839450596,0.0,0.2412903431884963,1.0,0.7176566534986941,False,,5d52e92220d410001799d261,,656094,59,evan-feature33,
60,60,,,3.0,3.0,1.0,1.0,0.0,3.0,0.0,0.0,,0.0-42.0,,3.0,949.4899999990595,1.0,0.7365196902052719,0.0,0.7006311167704389,0.0,0.3549483030824861,0.0,0.28326099398330884,0.0,0.7349573045461455,0.0,0.4754826145126076,1.0,0.64067943877301,1.0,0.2,0.0,0.7483965701493656,False,,5d52e92220d410001799d261,,662555,60,evan-feature33,
61,61,,,1.0,1.0,1.0,0.0,0.0,0.0,0.0,-3.0,,0.0-43.0,,0.0,854.6800000002839,1.0,0.7149100250745645,0.0,0.7444474401937131,0.0,0.3653766036773399,0.0,0.2853645422554075,1.0,0.778999179831988,0.0,0.493666420613749,1.0,0.6412835175148004,0.0,0.2,1.0,0.6694695398810474,False,,5d52e92220d410001799d261,,668921,61,evan-feature33,
62,62,,,3.0,3.0,1.0,0.0,0.0,3.0,0.0,0.0,,0.0-44.0,,3.0,984.3499999988126,1.0,0.7424440148128506,0.0,0.7887695366241358,1.0,0.3777700388190994,1.0,0.2322812910115595,1.0,0.8,1.0,0.45225410388388204,1.0,0.6948777065936735,0.0,0.2,0.0,0.6682054603268796,False,,5d52e92220d410001799d261,,675417,62,evan-feature33,
63,63,,,1.0,1.0,1.0,1.0,0.0,0.0,1.0,0.0,,0.0-45.0,,1.0,1426.2350000025474,1.0,0.7698065680765286,1.0,0.7602360939491543,0.0,0.3555053784105281,0.0,0.2089548869673631,0.0,0.8,1.0,0.4752616803140115,0.0,0.623553133178808,0.0,0.2,0.0,0.7181563253385429,False,,5d52e92220d410001799d261,,682355,63,evan-feature33,
64,64,,,1.0,1.0,1.0,1.0,0.0,0.0,1.0,0.0,,0.0-46.0,,1.0,1156.1099999998696,1.0,0.7422471248736916,1.0,0.7549123897021532,0.0,0.4422928792988953,1.0,0.2289911236500548,1.0,0.7744773734612627,0.0,0.5276604901114234,1.0,0.6617188778507657,0.0,0.2,1.0,0.6929200620318486,False,,5d52e92220d410001799d261,,689023,64,evan-feature33,
65,65,,,3.0,3.0,1.0,0.0,1.0,3.0,0.0,0.0,,0.0-47.0,,3.0,917.190000000177,1.0,0.7605040952201411,1.0,0.7577694429005148,0.0,0.4309628119565796,0.0,0.2288038286049748,1.0,0.7535073191943658,0.0,0.4997497909955708,1.0,0.7118668472450473,0.0,0.21359288646790506,1.0,0.6339926247807564,False,,5d52e92220d410001799d261,,695452,65,evan-feature33,
66,66,,,3.0,3.0,0.0,0.0,1.0,0.0,0.0,-3.0,,0.0-48.0,,-3.0,1764.6349999995434,1.0,0.7672542779458322,1.0,0.7821339881001084,0.0,0.45809628831442295,1.0,0.2508787814241015,1.0,0.7329975947455926,1.0,0.513378656656035,0.0,0.6810980894244781,0.0,0.21593100422341868,1.0,0.6290658917318743,False,,5d52e92220d410001799d261,,702731,66,evan-feature33,
67,67,,,1.0,1.0,1.0,1.0,1.0,0.0,0.0,-3.0,,0.0-49.0,,-3.0,812.0350000025937,1.0,0.7440129047778832,1.0,0.7343232786228545,1.0,0.4782820814380757,0.0,0.2635552178048305,1.0,0.7278988669220867,0.0,0.4977072039015902,1.0,0.6874495783658059,0.0,0.2522530057090093,0.0,0.5995034937998164,False,,5d52e92220d410001799d261,,709055,67,evan-feature33,
68,68,,,3.0,3.0,1.0,0.0,1.0,3.0,0.0,0.0,,0.0-50.0,,3.0,866.2949999998091,1.0,0.7579712674432819,1.0,0.6655384240436439,1.0,0.4995786456977123,0.0,0.2646038641639681,0.0,0.7222362040021445,1.0,0.5397107973909747,1.0,0.7069868340728054,0.0,0.24846889634968924,1.0,0.5922698763134331,False,,5d52e92220d410001799d261,,715433,68,evan-feature33,
69,69,,,3.0,3.0,1.0,0.0,1.0,3.0,0.0,0.0,,0.0-51.0,,3.0,928.3549999999814,1.0,0.7863740354186569,0.0,0.6576926484470081,1.0,0.4911521657898938,0.0,0.31218099965789964,1.0,0.7346862990068114,1.0,0.534158459176866,1.0,0.7276723408858793,0.0,0.27671355003648296,1.0,0.5804928307718641,False,,5d52e92220d410001799d261,,721874,69,evan-feature33,
70,70,,,3.0,3.0,1.0,1.0,1.0,0.0,0.0,-3.0,,0.0-52.0,,-3.0,1073.645000000368,0.0,0.7614930779099678,0.0,0.665898439458353,0.0,0.4318944142232508,0.0,0.2673350376234608,0.0,0.718832899984718,1.0,0.5469468595972073,1.0,0.7839841679468464,1.0,0.242598425386338,1.0,0.5596550574216433,False,,5d52e92220d410001799d261,,728462,70,evan-feature33,
71,71,,,1.0,1.0,0.0,1.0,1.0,0.0,0.0,-3.0,,0.0-53.0,,-3.0,764.8300000000745,0.0,0.7601107310538365,1.0,0.6571081349690087,1.0,0.4858199217972105,0.0,0.25515001979250623,1.0,0.7112418140863888,0.0,0.5001379788163096,0.0,0.7974974251692338,0.0,0.2056980922626694,0.0,0.5338331442326386,False,,5d52e92220d410001799d261,,734738,71,evan-feature33,
72,72,,,1.0,1.0,1.0,0.0,1.0,0.0,1.0,0.0,,0.0-54.0,,0.0,1025.040000000503,1.0,0.8,0.0,0.6705028271756505,1.0,0.5262143951186637,1.0,0.2746188925341325,0.0,0.6592851765232931,1.0,0.4979499469077882,1.0,0.7991076249231612,1.0,0.2364244163995849,1.0,0.5078577552303987,False,,5d52e92220d410001799d261,,741276,72,evan-feature33,
73,73,,,3.0,3.0,1.0,0.0,1.0,0.0,0.0,-3.0,,0.0-55.0,,-3.0,1178.8699999997625,1.0,0.8,1.0,0.6962656845113909,1.0,0.5384086195320146,0.0,0.3208157360025526,1.0,0.6765523598113059,0.0,0.499896757999184,1.0,0.7942811510789787,0.0,0.2434616775221345,1.0,0.5085370196068354,False,,5d52e92220d410001799d261,,747968,73,evan-feature33,
74,74,,,3.0,3.0,1.0,0.0,1.0,3.0,0.0,0.0,,0.0-56.0,,3.0,1562.2199999998556,1.0,0.7726202497144916,1.0,0.7327121016675642,0.0,0.5624875196436052,1.0,0.3137694404381837,1.0,0.6639308471751791,0.0,0.5124673362967467,1.0,0.7527189595590232,0.0,0.2607542039328882,1.0,0.5292937464360656,False,,5d52e92220d410001799d261,,755043,74,evan-feature33,
75,75,,,1.0,1.0,1.0,1.0,0.0,0.0,1.0,0.0,,0.0-57.0,,1.0,1624.5799999997253,1.0,0.7742670432959877,1.0,0.7368951910766284,0.0,0.5824228396364501,1.0,0.2973101081848642,0.0,0.6923076939694565,1.0,0.4539372152865888,0.0,0.7297475599991388,0.0,0.2,0.0,0.5615078191708903,False,,5d52e92220d410001799d261,,762179,75,evan-feature33,
76,76,,,1.0,1.0,0.0,1.0,1.0,0.0,1.0,0.0,,0.0-58.0,,1.0,1218.4500000003027,0.0,0.7092916977623636,1.0,0.8,1.0,0.5931837622573333,0.0,0.27660451925096585,1.0,0.6438202029373444,1.0,0.4596889039928077,1.0,0.7353433380932292,0.0,0.2,1.0,0.5517353699644042,False,,5d52e92220d410001799d261,,768910,76,evan-feature33,
77,77,,,2.0,2.0,0.0,1.0,1.0,0.0,0.0,-3.0,,0.0-59.0,,-3.0,1156.7050000012387,0.0,0.6864836431173106,1.0,0.8,1.0,0.5287816947167561,0.0,0.2881873023196497,1.0,0.6788608476510433,1.0,0.45917767624603995,1.0,0.6634792875690696,0.0,0.2,1.0,0.5466821926852056,False,,5d52e92220d410001799d261,,775579,77,evan-feature33,
78,78,,,2.0,2.0,0.0,0.0,0.0,0.0,0.0,-3.0,,0.0-60.0,,0.0,1347.4300000015644,1.0,0.7047496844108779,0.0,0.7776808917728412,1.0,0.5840353544254681,0.0,0.28145068682055513,0.0,0.6809016063400386,0.0,0.42934167086906605,0.0,0.6522270389925218,0.0,0.2,0.0,0.5270786447254489,False,,5d52e92220d410001799d261,,782434,78,evan-feature33,
79,79,,,3.0,3.0,0.0,0.0,1.0,3.0,0.0,0.0,,0.0-61.0,,0.0,1040.2050000011222,1.0,0.7200570299159988,1.0,0.7666936761241416,1.0,0.6043145893463197,0.0,0.32402962225581483,0.0,0.6927787542968188,0.0,0.4522029188847502,0.0,0.6624921252643111,0.0,0.2269197339709563,1.0,0.5115582935143644,False,,5d52e92220d410001799d261,,788984,79,evan-feature33,
80,80,,,1.0,1.0,1.0,0.0,0.0,0.0,1.0,0.0,,0.0-62.0,,0.0,1345.0100000008242,1.0,0.7254477403062491,0.0,0.8,0.0,0.6099989242171536,0.0,0.3755696738355522,0.0,0.7156526794108478,1.0,0.4092498323071628,0.0,0.6425979283176484,1.0,0.2697699496771519,1.0,0.4217458424363286,False,,5d52e92220d410001799d261,,795840,80,evan-feature33,
81,81,,,2.0,2.0,0.0,1.0,1.0,0.0,0.0,-3.0,,0.0-63.0,,-3.0,1122.0350000002654,0.0,0.6713823528222174,0.0,0.7801913907467314,0.0,0.6407604443331774,0.0,0.37719853504012735,1.0,0.7176010191989382,1.0,0.4435369681240224,1.0,0.6338477429983194,0.0,0.20786953214913445,0.0,0.4299231489880017,False,,5d52e92220d410001799d261,,802473,81,evan-feature33,
82,82,,,3.0,3.0,0.0,0.0,1.0,3.0,0.0,0.0,,0.0-64.0,,0.0,1032.3950000019977,1.0,0.6679551968901625,0.0,0.8,0.0,0.6186072062752549,1.0,0.3321649969288705,1.0,0.7267550740715362,1.0,0.4220555659338998,0.0,0.6175316033305999,0.0,0.20398773649386914,1.0,0.4193912463119417,False,,5d52e92220d410001799d261,,809017,82,evan-feature33,
83,83,,,2.0,2.0,0.0,0.0,0.0,0.0,0.0,-3.0,,0.0-65.0,,0.0,1539.0450000013227,1.0,0.6496426210749764,1.0,0.7737792370301524,1.0,0.6526533240478111,0.0,0.31260970615450423,0.0,0.7411326982654058,0.0,0.4277606155012336,0.0,0.6513711047922406,0.0,0.22178273752170408,1.0,0.410296851582016,False,,5d52e92220d410001799d261,,816065,83,evan-feature33,
84,84,,,1.0,1.0,1.0,1.0,1.0,3.0,0.0,0.0,,0.0-66.0,,3.0,412.4850000006845,1.0,0.6655983266517849,1.0,0.7819289106634757,1.0,0.6282711133884887,0.0,0.32993656808868643,0.0,0.7325411354100919,0.0,0.4634219939536226,1.0,0.6505657009778139,0.0,0.23029988941515414,0.0,0.40347115107163417,False,,5d52e92220d410001799d261,,821991,84,evan-feature33,
85,85,,,1.0,1.0,1.0,1.0,1.0,3.0,0.0,0.0,,0.0-67.0,,3.0,562.6750000010943,1.0,0.6490647806121371,1.0,0.8,1.0,0.620006984976563,0.0,0.4054562434282825,1.0,0.7503070727408588,1.0,0.4757921648688622,1.0,0.6628722329717495,0.0,0.2274174658112268,1.0,0.3644168130371008,False,,5d52e92220d410001799d261,,828066,85,evan-feature33,
86,86,,,2.0,2.0,0.0,0.0,1.0,0.0,0.0,-3.0,,0.0-68.0,,-3.0,785.4899999983609,0.0,0.6528475554520393,1.0,0.7972932172863334,1.0,0.6283193197974893,0.0,0.37453142185274985,0.0,0.7231514266874599,1.0,0.4546587669701609,0.0,0.6487767905819809,0.0,0.22489132041678744,0.0,0.3598634504490462,False,,5d52e92220d410001799d261,,834363,86,evan-feature33,
87,87,,,1.0,1.0,0.0,1.0,0.0,3.0,0.0,0.0,,0.0-69.0,,0.0,686.540000002482,0.0,0.6160328742413163,1.0,0.7945303610560992,0.0,0.6328662040985167,0.0,0.4466225280927548,1.0,0.7122717919812999,1.0,0.4761345323372617,1.0,0.6751028764082623,0.0,0.2,0.0,0.3436597075862837,False,,5d52e92220d410001799d261,,840561,87,evan-feature33,
88,88,,,3.0,3.0,1.0,0.0,1.0,0.0,0.0,-3.0,,0.0-70.0,,-3.0,1318.9799999999816,0.0,0.5789592872423649,1.0,0.7472130173542307,1.0,0.6423510551567915,0.0,0.3990876905745247,1.0,0.7126768478237766,1.0,0.5037633650290242,1.0,0.6411848309474285,0.0,0.2,1.0,0.4147466149347111,False,,5d52e92220d410001799d261,,847392,88,evan-feature33,
89,89,,,3.0,3.0,0.0,0.0,0.0,0.0,0.0,-3.0,,0.0-71.0,,0.0,1168.0100000011735,1.0,0.586686090337837,1.0,0.7301604487180183,0.0,0.6032340641540095,0.0,0.40616872749594585,1.0,0.7614308546277728,1.0,0.5136537085534132,0.0,0.6092658480041354,0.0,0.2,0.0,0.4585947745936233,False,,5d52e92220d410001799d261,,854071,89,evan-feature33,
90,90,,,3.0,3.0,1.0,0.0,1.0,0.0,0.0,-3.0,,0.0-72.0,,-3.0,1069.9749999984633,0.0,0.5945151878652076,1.0,0.7593300236559692,1.0,0.5507561920677304,1.0,0.4525753832948114,1.0,0.7259553070536409,1.0,0.5343468676970783,1.0,0.6291067107746577,0.0,0.25922029977867644,1.0,0.4735816522518964,False,,5d52e92220d410001799d261,,860652,90,evan-feature33,
91,91,,,3.0,3.0,1.0,0.0,0.0,0.0,0.0,-3.0,,0.0-73.0,,0.0,1089.7799999985143,1.0,0.6276564009961503,1.0,0.790460410453443,1.0,0.4959399422992419,0.0,0.4438194086696918,0.0,0.7096115825160282,0.0,0.48951230700583204,1.0,0.6795752696939579,0.0,0.2,0.0,0.5219674416747861,False,,5d52e92220d410001799d261,,867251,91,evan-feature33,
92,92,,,3.0,3.0,1.0,0.0,0.0,3.0,0.0,0.0,,0.0-74.0,,3.0,1107.2449999991804,1.0,0.6069156532085627,1.0,0.7429632058817582,1.0,0.4944824000822941,0.0,0.4216703737926815,1.0,0.7680959988975813,1.0,0.4612341920269867,1.0,0.6645506681260489,0.0,0.2,0.0,0.5051493408026809,False,,5d52e92220d410001799d261,,873870,92,evan-feature33,
93,93,,,2.0,2.0,0.0,0.0,0.0,0.0,0.0,-3.0,,0.0-75.0,,0.0,809.1849999983096,1.0,0.5773813015594765,0.0,0.7042282291388049,1.0,0.4854622414398137,0.0,0.4009432080297931,0.0,0.7519734331220993,0.0,0.4608235046274716,0.0,0.7098901665363417,0.0,0.2,1.0,0.5508984421062808,False,,5d52e92220d410001799d261,,880187,93,evan-feature33,
94,94,,,3.0,3.0,1.0,1.0,0.0,3.0,0.0,0.0,,0.0-76.0,,3.0,736.8249999999533,1.0,0.5887922777248424,0.0,0.6689755017648138,1.0,0.4822386333517715,0.0,0.3488234937287504,0.0,0.7408077424420215,0.0,0.4438844156839128,1.0,0.7446939443128175,1.0,0.2145721898088982,0.0,0.5772380678685162,False,,5d52e92220d410001799d261,,886436,94,evan-feature33,
95,95,,,2.0,2.0,0.0,1.0,0.0,0.0,0.0,-3.0,,0.0-77.0,,0.0,851.0700000006473,1.0,0.5942798456651304,0.0,0.6966141155238392,0.0,0.4419706157410134,0.0,0.3141447154483084,1.0,0.7412738509725185,0.0,0.4414162236413358,1.0,0.7149267265616714,0.0,0.2098354207084897,0.0,0.559865714679376,False,,5d52e92220d410001799d261,,892803,95,evan-feature33,
96,96,,,1.0,1.0,1.0,0.0,0.0,0.0,1.0,0.0,,0.0-78.0,,0.0,1055.8200000013458,1.0,0.5557780869428482,0.0,0.6725003437022729,0.0,0.4241133045742078,0.0,0.3095191523256162,1.0,0.8,0.0,0.4269172047996966,1.0,0.7111597257752701,0.0,0.2597438496713935,0.0,0.5502596411901421,False,,5d52e92220d410001799d261,,899370,96,evan-feature33,
97,97,,,2.0,2.0,0.0,1.0,0.0,0.0,0.0,-3.0,,0.0-79.0,,0.0,1305.0249999978114,0.0,0.5343161450765522,1.0,0.6972552869183344,1.0,0.4736568445149933,0.0,0.2695622940384751,1.0,0.7811488761364948,0.0,0.3909543706311446,1.0,0.7067208875397193,0.0,0.2,0.0,0.5732859049907565,False,,5d52e92220d410001799d261,,906186,97,evan-feature33,
98,98,,,2.0,2.0,1.0,1.0,0.0,0.0,0.0,-3.0,,0.0-80.0,,0.0,1127.4900000025518,1.0,0.5303090878342495,1.0,0.6646978280162267,1.0,0.5065473237393213,1.0,0.27686736926427896,1.0,0.7946215341212068,0.0,0.4175628725187674,1.0,0.7346766109228181,0.0,0.2,1.0,0.4970416769121861,False,,5d52e92220d410001799d261,,912827,98,evan-feature33,
99,99,,,3.0,3.0,1.0,0.0,0.0,3.0,0.0,0.0,,0.0-81.0,,3.0,753.9299999990035,1.0,0.4985999044153572,0.0,0.6693722883375679,0.0,0.4754501904472489,1.0,0.28338603202074536,1.0,0.7458857616543371,0.0,0.4133134300367604,1.0,0.7321146652814358,0.0,0.2,0.0,0.5294872953342113,False,,5d52e92220d410001799d261,,919092,99,evan-feature33,
100,100,,,3.0,3.0,0.0,0.0,1.0,3.0,0.0,0.0,,0.0-82.0,,0.0,664.4149999993388,1.0,0.4998839938373292,0.0,0.6445974181982007,0.0,0.5208072335766175,0.0,0.3323546751356921,1.0,0.7041859775235684,0.0,0.4410842033537187,0.0,0.6888852556889665,0.0,0.2,1.0,0.5509875586856559,False,,5d52e92220d410001799d261,,925267,100,evan-feature33,
101,101,,,2.0,2.0,1.0,0.0,0.0,0.0,0.0,-3.0,,0.0-83.0,,0.0,678.2899999998044,0.0,0.5469775612121989,1.0,0.6551756982815308,1.0,0.5337291921320435,1.0,0.3622419557351326,0.0,0.7091349516578462,0.0,0.4368040715978232,1.0,0.6629884384966351,0.0,0.2,0.0,0.5554190729600564,False,,5d52e92220d410001799d261,,931455,101,evan-feature33,
102,102,,,1.0,1.0,0.0,1.0,1.0,3.0,0.0,0.0,,0.0-84.0,,0.0,982.224999999744,0.0,0.5894464587507315,1.0,0.6484977346187976,1.0,0.5192124669151607,0.0,0.3994339752913619,1.0,0.6943272018173082,1.0,0.42514365362485024,1.0,0.6714284506803235,0.0,0.2,0.0,0.5704142513345379,False,,5d52e92220d410001799d261,,937950,102,evan-feature33,
103,103,,,1.0,1.0,1.0,1.0,1.0,0.0,1.0,0.0,,0.0-85.0,,1.0,1079.3850000008242,1.0,0.5669622102014881,1.0,0.6111667102642118,1.0,0.5217138430549907,0.0,0.3880234582927683,1.0,0.7119599561682644,0.0,0.4494959955428817,1.0,0.6367976028388425,0.0,0.20515916966637945,0.0,0.5635598809733591,False,,5d52e92220d410001799d261,,944542,103,evan-feature33,
104,104,,,3.0,3.0,1.0,0.0,1.0,0.0,1.0,0.0,,0.0-86.0,,0.0,2002.5999999998605,1.0,0.5936010593814285,1.0,0.5751092984726077,0.0,0.5611439757539536,1.0,0.3807736526149868,0.0,0.6903454725616989,0.0,0.4654375869032697,1.0,0.6306148879042617,0.0,0.2442221614102538,1.0,0.6133438547866091,False,,5d52e92220d410001799d261,,952056,104,evan-feature33,
105,105,,,2.0,2.0,0.0,1.0,0.0,0.0,0.0,-3.0,,0.0-87.0,,0.0,1022.1650000021327,0.0,0.6389162734506695,1.0,0.6132952687122509,1.0,0.549744279409543,0.0,0.41230763189900493,1.0,0.6871612985234022,0.0,0.4923528615220483,1.0,0.5983286452126539,0.0,0.2061820324477683,1.0,0.6210359037621043,False,,5d52e92220d410001799d261,,958589,105,evan-feature33,
106,106,,,2.0,2.0,0.0,1.0,1.0,0.0,0.0,-3.0,,0.0-88.0,,-3.0,1086.4500000025146,0.0,0.5956263662376339,1.0,0.6272793324507125,1.0,0.550094896396601,0.0,0.38862603820932495,1.0,0.635433666508728,1.0,0.5086211801547486,0.0,0.6034638074192157,0.0,0.2,1.0,0.6651126352710766,False,,5d52e92220d410001799d261,,965187,106,evan-feature33,
107,107,,,3.0,3.0,0.0,1.0,0.0,3.0,0.0,0.0,,0.0-89.0,,0.0,970.1150000001072,1.0,0.5853232169434728,0.0,0.5988879237339034,1.0,0.593682933736103,0.0,0.3581333641547514,1.0,0.6260462003692211,1.0,0.4508296491665239,0.0,0.5892289670389446,1.0,0.20620394871689865,0.0,0.6643463362352017,False,,5d52e92220d410001799d261,,971667,107,evan-feature33,
108,108,,,1.0,1.0,0.0,1.0,1.0,3.0,0.0,0.0,,0.0-90.0,,0.0,543.9949999999953,0.0,0.5654645716841554,1.0,0.6037645534520659,1.0,0.5952929013253588,0.0,0.3343388085286244,1.0,0.6163668275547365,0.0,0.4162833661125151,0.0,0.5955581924839272,0.0,0.22490252171733116,1.0,0.6905590503601897,False,,5d52e92220d410001799d261,,977723,108,evan-feature33,
109,109,,,2.0,2.0,0.0,1.0,0.0,0.0,0.0,-3.0,,0.0-91.0,,0.0,486.32999999972526,1.0,0.5678841556499703,0.0,0.6130001931176561,1.0,0.6028125512664015,0.0,0.3640706605378525,1.0,0.6120309202080227,0.0,0.407198588404512,0.0,0.5764335237300452,0.0,0.22002596020495666,0.0,0.6729873441128021,False,,5d52e92220d410001799d261,,983720,109,evan-feature33,
110,110,,,3.0,3.0,1.0,0.0,1.0,0.0,1.0,0.0,,0.0-92.0,,0.0,1242.6100000011502,1.0,0.6109666428223989,1.0,0.6035711092981192,0.0,0.6169158216378221,0.0,0.3777050179674665,0.0,0.6377960708930093,0.0,0.4109744438566663,1.0,0.5939509746872612,0.0,0.20124666145576764,1.0,0.6763148658572739,False,,5d52e92220d410001799d261,,990474,110,evan-feature33,
111,111,,,2.0,2.0,0.0,0.0,1.0,0.0,0.0,-3.0,,0.0-93.0,,-3.0,812.1550000031713,1.0,0.6137115975246912,1.0,0.5626720434958303,1.0,0.6625516718139239,0.0,0.4394172013711069,0.0,0.6794933665677034,1.0,0.409547878056433,1.0,0.585470447728832,0.0,0.2285094966771413,1.0,0.6966848372554337,False,,5d52e92220d410001799d261,,996798,111,evan-feature33,
112,112,,,1.0,1.0,1.0,1.0,0.0,0.0,1.0,0.0,,0.0-94.0,,1.0,976.4399999985473,1.0,0.6002967801457563,1.0,0.5607094047179437,0.0,0.6623073347736546,1.0,0.4871900088056844,1.0,0.7278076135439185,0.0,0.3700773278191463,0.0,0.6016337633721449,1.0,0.28133445360837683,1.0,0.6354609373146192,False,,5d52e92220d410001799d261,,1003286,112,evan-feature33,
113,113,,,2.0,2.0,1.0,1.0,0.0,0.0,0.0,-3.0,,0.0-95.0,,0.0,1032.8099999969127,1.0,0.6534690706182172,1.0,0.5458287414658687,1.0,0.6759849847834122,1.0,0.4880714595192289,1.0,0.7503610770840475,0.0,0.3959101266965797,0.0,0.6351867074413585,0.0,0.29602705435301085,0.0,0.6660333223523891,False,,5d52e92220d410001799d261,,1009831,113,evan-feature33,
114,114,,,3.0,3.0,1.0,0.0,0.0,3.0,0.0,0.0,,0.0-96.0,,3.0,952.3749999970897,0.0,0.6614840944948268,0.0,0.5267350002291008,1.0,0.6996015185391798,0.0,0.4390197925499998,0.0,0.7090208017685562,1.0,0.4175888344347852,1.0,0.6459060103045547,0.0,0.2720113977201422,0.0,0.6599198403963507,False,,5d52e92220d410001799d261,,1016292,114,evan-feature33,
115,115,,,1.0,1.0,0.0,0.0,0.0,0.0,1.0,0.0,,0.0-97.0,,0.0,1240.5450000005076,0.0,0.6787087582866942,0.0,0.4988361396349681,0.0,0.7265062790393276,0.0,0.4298532528815681,1.0,0.7477725753372538,0.0,0.4118478230438071,1.0,0.5821768507380084,1.0,0.2540097321066813,0.0,0.6243422278315296,False,,5d52e92220d410001799d261,,1023041,115,evan-feature33,
116,116,,,2.0,2.0,1.0,0.0,1.0,0.0,0.0,-3.0,,0.0-98.0,,-3.0,1052.639999998035,1.0,0.7062878016614694,1.0,0.4801533385855063,1.0,0.7377253784886978,1.0,0.4600841707481767,0.0,0.7768397906704458,1.0,0.44605721526669295,0.0,0.5542095924185628,0.0,0.21542499382157512,1.0,0.7075829424768737,False,,5d52e92220d410001799d261,,1029605,116,evan-feature33,
117,117,,,1.0,1.0,1.0,0.0,0.0,3.0,0.0,0.0,,0.0-99.0,,3.0,856.4450000012292,1.0,0.6760760132676632,0.0,0.4399901550679683,0.0,0.703185768379667,0.0,0.4420154572656368,1.0,0.8,1.0,0.4160509992011959,1.0,0.530539444098626,0.0,0.21619022264577387,1.0,0.7117011181549648,False,,5d52e92220d410001799d261,,1035972,117,evan-feature33,
118,118,,,3.0,3.0,1.0,1.0,1.0,3.0,0.0,0.0,,0.0-100.0,,3.0,1099.6649999979418,1.0,0.6703519599357634,0.0,0.4973140700844664,1.0,0.7425096159412253,0.0,0.3840039573288471,0.0,0.8,1.0,0.4043807529095002,1.0,0.5148093299656221,1.0,0.24067146875248785,1.0,0.6921534665075465,False,,5d52e92220d410001799d261,,1042584,118,evan-feature33,
119,119,,,3.0,3.0,1.0,0.0,0.0,0.0,1.0,0.0,,0.0-101.0,,0.0,1733.4150000023653,0.0,0.6787168151082986,0.0,0.5374132422318112,1.0,0.7617423554515806,1.0,0.3487320363013974,1.0,0.8,1.0,0.4212724325145981,1.0,0.5392086338179918,0.0,0.22547252316969546,0.0,0.6579666536150827,False,,5d52e92220d410001799d261,,1049827,119,evan-feature33,
120,120,,,2.0,2.0,0.0,1.0,0.0,0.0,0.0,-3.0,,0.0-102.0,,0.0,1005.345000001369,1.0,0.6438623904043491,1.0,0.5224645646971371,1.0,0.8,0.0,0.29990795680126564,1.0,0.7919518413517537,0.0,0.3969220123996727,1.0,0.5249092541513031,0.0,0.28512231444970704,1.0,0.6570359773860991,False,,5d52e92220d410001799d261,,1056344,120,evan-feature33,
121,121,,,3.0,3.0,0.0,0.0,1.0,3.0,0.0,0.0,,0.0-103.0,,0.0,1089.4100000006147,1.0,0.6440383347444496,0.0,0.5548712913961915,0.0,0.7798197830096883,0.0,0.34865521762996643,0.0,0.7731087783337462,0.0,0.3913815026054655,0.0,0.5261071527061558,0.0,0.2929240034157557,1.0,0.6364316915513972,False,,5d52e92220d410001799d261,,1062944,121,evan-feature33,
122,122,,,1.0,1.0,1.0,1.0,0.0,0.0,1.0,0.0,,0.0-104.0,,1.0,2269.335000000894,1.0,0.633442711634112,1.0,0.533589454131242,0.0,0.7467927832566152,0.0,0.37545729061883054,1.0,0.7404196156901145,0.0,0.3961681103560593,0.0,0.5152468038017329,0.0,0.26739573352977386,1.0,0.6190098113627296,False,,5d52e92220d410001799d261,,1070725,122,evan-feature33,
123,123,,,1.0,1.0,1.0,1.0,0.0,3.0,0.0,0.0,,0.0-105.0,,3.0,1830.7349999996368,1.0,0.6258020924815635,1.0,0.551067164699399,0.0,0.6456765366116136,1.0,0.3622401375293224,1.0,0.7462715957839083,1.0,0.4712202742981961,0.0,0.5599096543137616,0.0,0.2670398692938571,0.0,0.5892321940706932,False,,5d52e92220d410001799d261,,1078067,123,evan-feature33,
124,124,,,3.0,3.0,0.0,0.0,1.0,3.0,0.0,0.0,,0.0-106.0,,0.0,2811.900000000605,1.0,0.5632741738351693,0.0,0.5651497065173967,0.0,0.6388929028084777,0.0,0.3524376293776918,0.0,0.7173138131765376,0.0,0.4447420684558517,0.0,0.5138490567784376,0.0,0.2851808747665849,1.0,0.6247362919522349,False,,5d52e92220d410001799d261,,1086388,124,evan-feature33,
125,125,,,1.0,1.0,1.0,1.0,0.0,3.0,0.0,0.0,,0.0-107.0,,3.0,1225.3600000003353,1.0,0.5037018584870193,1.0,0.5893735768956506,0.0,0.6277779211715183,1.0,0.3492521720674786,1.0,0.7399209958570199,1.0,0.4186800253263915,0.0,0.5379436442123732,1.0,0.2693096180068112,1.0,0.5941143136457597,False,,5d52e92220d410001799d261,,1093125,125,evan-feature33,
126,126,,,1.0,1.0,1.0,0.0,1.0,3.0,0.0,0.0,,0.0-108.0,,3.0,923.9850000012666,1.0,0.5282821931798861,0.0,0.5976186348238295,1.0,0.6060354037235918,0.0,0.2811027048668117,1.0,0.7802234047238791,1.0,0.43424740801872025,1.0,0.5662418424190437,0.0,0.2533726865050705,1.0,0.626287330382768,False,,5d52e92220d410001799d261,,1099563,126,evan-feature33,
127,127,,,1.0,1.0,1.0,0.0,0.0,0.0,1.0,0.0,,0.0-109.0,,0.0,1125.4450000014622,1.0,0.5958218118444287,0.0,0.5929488049468402,0.0,0.6072493379307635,1.0,0.2785330090503838,1.0,0.7716724506044644,1.0,0.4334234581960682,0.0,0.5981147909636906,0.0,0.20899933598081816,1.0,0.6060068749121666,False,,5d52e92220d410001799d261,,1106199,127,evan-feature33,
128,128,,,2.0,2.0,1.0,1.0,0.0,0.0,0.0,-3.0,,0.0-110.0,,0.0,1157.3549999995155,0.0,0.5715503653757799,0.0,0.5686811435031967,0.0,0.6344116695782833,1.0,0.26166254218989377,1.0,0.7970668872821179,0.0,0.4409201611510463,1.0,0.6457207676627745,1.0,0.2254460664178493,0.0,0.5991624114332839,False,,5d52e92220d410001799d261,,1112869,128,evan-feature33,
129,129,,,2.0,2.0,0.0,0.0,0.0,0.0,0.0,-3.0,,0.0-111.0,,0.0,832.5249999980443,0.0,0.5993772334917543,0.0,0.577539333107377,0.0,0.6474800980512807,0.0,0.243812900307346,0.0,0.7920276938088459,0.0,0.496152105145767,1.0,0.6257489463438353,0.0,0.2,1.0,0.6156833781621498,False,,5d52e92220d410001799d261,,1119210,129,evan-feature33,
131,131,,,2.0,2.0,0.0,0.0,0.0,0.0,0.0,-3.0,,0.0-113.0,,0.0,3069.0050000012848,1.0,0.5694667316673865,0.0,0.5898298145366441,0.0,0.6620295527525117,0.0,0.21273336654631309,0.0,0.7476719887794553,0.0,0.5113196000573307,1.0,0.6287414987512348,0.0,0.2,1.0,0.6410321595922756,False,,5d52e92220d410001799d261,,1140058,131,evan-feature33,
132,132,,,2.0,2.0,0.0,1.0,1.0,0.0,0.0,-3.0,,0.0-114.0,,-3.0,729.6050000004469,0.0,0.5259344919999416,0.0,0.5939071455174649,1.0,0.6721196346250771,0.0,0.2345384212304064,1.0,0.7953021234960409,1.0,0.4788198225031347,0.0,0.6299891774671735,0.0,0.21797419034628351,1.0,0.634876992582696,False,,5d52e92220d410001799d261,,1146299,132,evan-feature33,
133,133,,,2.0,2.0,0.0,0.0,0.0,0.0,0.0,-3.0,,0.0-115.0,,0.0,698.9249999970198,1.0,0.5754389430609539,1.0,0.5804683556790419,1.0,0.6634323331497559,0.0,0.2,0.0,0.7714901718902132,0.0,0.4840903898469125,1.0,0.6592414766210141,0.0,0.24111072837261774,0.0,0.6326544508552063,False,,5d52e92220d410001799d261,,1152507,133,evan-feature33,
134,134,,,2.0,2.0,1.0,1.0,0.0,0.0,0.0,-3.0,,0.0-116.0,,0.0,692.7949999989943,0.0,0.5570238479533519,1.0,0.6140583227612246,1.0,0.6815794721036885,1.0,0.2,1.0,0.8,0.0,0.4777722022447151,1.0,0.6464570287980345,0.0,0.23660551910343705,1.0,0.6810178145438395,False,,5d52e92220d410001799d261,,1158711,134,evan-feature33,
135,135,,,3.0,3.0,1.0,0.0,0.0,3.0,0.0,0.0,,0.0-117.0,,3.0,1482.8749999979043,1.0,0.4883671328114573,0.0,0.5704268810225998,0.0,0.7377928533175369,1.0,0.24508966856524864,1.0,0.8,1.0,0.4738993557708987,1.0,0.6570224498352629,0.0,0.2764262342282055,0.0,0.7071537646418593,False,,5d52e92220d410001799d261,,1165705,135,evan-feature33,
136,136,,,2.0,2.0,0.0,1.0,0.0,0.0,0.0,-3.0,,0.0-118.0,,0.0,1028.5849999999627,1.0,0.4534607286804234,1.0,0.6004962086411101,0.0,0.7863606078220476,0.0,0.25014946913816416,1.0,0.7898489985135068,0.0,0.5250662795629877,1.0,0.6014682600687429,0.0,0.2620663159030575,1.0,0.6528818895776168,False,,5d52e92220d410001799d261,,1172245,136,evan-feature33,
137,137,,,2.0,2.0,0.0,1.0,1.0,3.0,0.0,0.0,,0.0-119.0,,0.0,639.1550000009593,0.0,0.4784011735699799,1.0,0.5830039235085721,1.0,0.7547125633732298,0.0,0.2317126544739756,1.0,0.7415684693010748,1.0,0.5158259606465384,1.0,0.6088212747208269,0.0,0.2840093146640256,1.0,0.6517910758433119,False,,5d52e92220d410001799d261,,1178396,137,evan-feature33,
138,138,,,2.0,2.0,0.0,1.0,0.0,0.0,1.0,0.0,,0.0-120.0,,1.0,1736.5950000020675,0.0,0.5204701454509011,0.0,0.5453921472259795,1.0,0.6830304599433754,0.0,0.2,1.0,0.7561944467929517,0.0,0.5030046420994453,1.0,0.6253853691076547,0.0,0.3406131101609988,1.0,0.6194597631531193,False,,5d52e92220d410001799d261,,1185644,138,evan-feature33,
139,139,,,2.0,2.0,0.0,1.0,0.0,0.0,0.0,-3.0,,0.0-121.0,,0.0,1051.929999997839,0.0,0.5661520529672958,0.0,0.4949132476936154,0.0,0.6421358268893224,0.0,0.2,1.0,0.786741583013232,0.0,0.4987654888765542,1.0,0.6428193136985351,0.0,0.38558932152853004,1.0,0.6258129288040722,False,,5d52e92220d410001799d261,,1192207,139,evan-feature33,
140,140,,,3.0,3.0,1.0,0.0,0.0,3.0,0.0,0.0,,0.0-122.0,,3.0,1331.7299999981187,1.0,0.5962379244179441,0.0,0.5342573544032888,0.0,0.6362468698404031,1.0,0.2,1.0,0.8,1.0,0.5051916986458361,1.0,0.6732967609539783,0.0,0.4057350435822644,0.0,0.641641018680691,False,,5d52e92220d410001799d261,,1199051,140,evan-feature33,
141,141,,,2.0,2.0,0.0,1.0,1.0,0.0,1.0,0.0,,0.0-123.0,,1.0,1144.375,1.0,0.5848136852331578,1.0,0.5518034760159506,1.0,0.6656591956222605,0.0,0.20819801072865807,1.0,0.8,1.0,0.5164419456415917,1.0,0.6774536023664038,1.0,0.4176280351898967,0.0,0.6746766433576482,False,,5d52e92220d410001799d261,,1205708,141,evan-feature33,
142,142,,,2.0,2.0,1.0,1.0,0.0,0.0,0.0,-3.0,,0.0-124.0,,0.0,580.7999999995808,1.0,0.59729071715279,1.0,0.5687704903437893,1.0,0.6852408427494643,1.0,0.2443824382898728,1.0,0.8,0.0,0.4657210275331598,1.0,0.7126556488668367,0.0,0.33949880818517203,1.0,0.6424544997829394,False,,5d52e92220d410001799d261,,1211800,142,evan-feature33,
143,143,,,3.0,3.0,1.0,1.0,0.0,3.0,0.0,0.0,,0.0-125.0,,3.0,1008.3049999994693,1.0,0.5995489046137829,0.0,0.5446738259044165,1.0,0.6467645273274822,0.0,0.2630446764772709,1.0,0.7956440047302894,0.0,0.5424166108091231,1.0,0.7368194101903568,1.0,0.3816245991673931,0.0,0.5982895595749068,False,,5d52e92220d410001799d261,,1218320,143,evan-feature33,
144,144,,,2.0,2.0,0.0,0.0,1.0,0.0,1.0,0.0,,0.0-126.0,,0.0,1094.7799999995623,1.0,0.5982229452790521,0.0,0.5308761821400877,1.0,0.621226820574184,0.0,0.3063635826551704,0.0,0.7970093879469721,1.0,0.5452119514472754,0.0,0.7255084765897066,1.0,0.4253254884846013,1.0,0.5976046888719719,False,,5d52e92220d410001799d261,,1224924,144,evan-feature33,
145,145,,,2.0,2.0,1.0,1.0,0.0,0.0,0.0,-3.0,,0.0-127.0,,0.0,834.3349999994971,1.0,0.6036987437926341,0.0,0.5811476067335248,0.0,0.6235238093917068,1.0,0.2980777912374073,1.0,0.8,0.0,0.533858909009676,1.0,0.7203081560928314,0.0,0.3969605492235235,1.0,0.6103862493727961,False,,5d52e92220d410001799d261,,1231270,145,evan-feature33,
146,146,,,3.0,3.0,1.0,0.0,0.0,3.0,0.0,0.0,,0.0-128.0,,3.0,1196.6450000000184,1.0,0.6294061318795466,1.0,0.5854139549418642,1.0,0.6668578129049084,0.0,0.3218725521171488,1.0,0.8,0.0,0.4723241930629136,1.0,0.7500747683678994,0.0,0.38508945963776825,0.0,0.5951820369080474,False,,5d52e92220d410001799d261,,1237978,146,evan-feature33,
147,147,,,2.0,2.0,0.0,0.0,0.0,0.0,0.0,-3.0,,0.0-129.0,,0.0,922.2850000003817,1.0,0.6610009693800812,0.0,0.5485751758865075,1.0,0.640414396784999,0.0,0.3953177771192353,0.0,0.8,0.0,0.4322051605904127,1.0,0.7940799423359861,0.0,0.4445145827053107,0.0,0.5386796287152111,False,,5d52e92220d410001799d261,,1244408,147,evan-feature33,
148,148,,,2.0,2.0,1.0,1.0,1.0,0.0,0.0,-3.0,,0.0-130.0,,-3.0,985.0049999987241,1.0,0.629334159881106,0.0,0.5232228332542223,1.0,0.6721479520435786,1.0,0.3551672336535517,1.0,0.7591377218546637,1.0,0.4655456075588138,0.0,0.772030709512638,1.0,0.4589397443894986,1.0,0.5601895598441039,False,,5d52e92220d410001799d261,,1250907,148,evan-feature33,
149,149,,,3.0,3.0,1.0,1.0,0.0,3.0,0.0,0.0,,0.0-131.0,,3.0,1013.944999998901,1.0,0.6127609715683724,1.0,0.4886110969863413,1.0,0.6300364743562479,1.0,0.3411595610700421,0.0,0.7587261847525405,0.0,0.4507545545961625,1.0,0.7893813586277997,1.0,0.4740459335106522,0.0,0.5104217598039161,False,,5d52e92220d410001799d261,,1257433,149,evan-feature33,
150,150,,,2.0,2.0,1.0,1.0,0.0,0.0,0.0,-3.0,,0.0-132.0,,0.0,878.715000002645,1.0,0.6193814122046091,0.0,0.4520655290509552,0.0,0.5700066987838979,1.0,0.35780479564240963,1.0,0.7443650665220033,0.0,0.4587499503702244,1.0,0.7973383834499109,1.0,0.4576474503095126,1.0,0.4951205712964041,False,,5d52e92220d410001799d261,,1263823,150,evan-feature33,
151,151,,,2.0,2.0,0.0,1.0,1.0,0.0,1.0,0.0,,0.0-133.0,,1.0,1174.9749999982305,1.0,0.6194836795881796,0.0,0.4410981840554741,0.0,0.5507023151605562,0.0,0.3375033032542392,1.0,0.7489290422953218,1.0,0.5147764157392156,1.0,0.8,1.0,0.4671456931312093,1.0,0.4433845298374165,False,,5d52e92220d410001799d261,,1270510,151,evan-feature33,
152,152,,,2.0,2.0,0.0,1.0,1.0,0.0,0.0,-3.0,,0.0-134.0,,-3.0,822.7200000002049,0.0,0.6291250142404661,0.0,0.4520306441195365,1.0,0.5498319773155317,0.0,0.3556437180650678,1.0,0.7266667379426295,1.0,0.5053286495881246,1.0,0.8,1.0,0.4632223066436817,1.0,0.3717935869808695,False,,5d52e92220d410001799d261,,1276845,152,evan-feature33,
153,153,,,2.0,2.0,0.0,1.0,1.0,0.0,0.0,-3.0,,0.0-135.0,,-3.0,926.5699999995996,1.0,0.5763063453808405,0.0,0.4213432379560689,0.0,0.5278469451914857,0.0,0.3420896565930352,1.0,0.6794580547774947,1.0,0.5073469138760978,1.0,0.7521985044899671,0.0,0.4366546037986099,0.0,0.36305661645444015,False,,5d52e92220d410001799d261,,1283285,153,evan-feature33,
154,154,,,2.0,2.0,0.0,1.0,0.0,0.0,0.0,-3.0,,0.0-136.0,,0.0,813.1649999995717,0.0,0.6465283104177373,1.0,0.3981149185470922,0.0,0.5196763832022854,0.0,0.2773580594936767,1.0,0.6902761866726868,0.0,0.5596718871590929,1.0,0.8,1.0,0.4325255743319533,0.0,0.3669212047890058,False,,5d52e92220d410001799d261,,1289609,154,evan-feature33,
155,155,,,2.0,2.0,1.0,0.0,0.0,0.0,1.0,0.0,,0.0-137.0,,0.0,734.2800000004936,0.0,0.6180269636844404,1.0,0.43469862804079373,0.0,0.4975781018506618,1.0,0.261126461808646,0.0,0.7492791154973231,0.0,0.5870745036090059,0.0,0.7821021100593564,1.0,0.4100679894636768,0.0,0.3897959426399438,False,,5d52e92220d410001799d261,,1295854,155,evan-feature33,
156,156,,,2.0,2.0,1.0,1.0,1.0,0.0,1.0,0.0,,0.0-138.0,,1.0,802.2499999969733,1.0,0.6025962173243451,0.0,0.4687925535563229,1.0,0.5065807915689776,1.0,0.2782981841065857,1.0,0.7702567072269552,1.0,0.5390932447856489,1.0,0.7856919154035593,0.0,0.4259254548667637,1.0,0.394110802042834,False,,5d52e92220d410001799d261,,1302168,156,evan-feature33,
157,157,,,2.0,2.0,0.0,0.0,0.0,0.0,0.0,-3.0,,0.0-139.0,,0.0,1040.9049999979325,1.0,0.613843832646949,1.0,0.484679377600725,0.0,0.5492315313207372,0.0,0.2940418385713477,0.0,0.8,0.0,0.531103799487884,1.0,0.7480926462111117,0.0,0.4232683901910028,1.0,0.4505099041598826,False,,5d52e92220d410001799d261,,1308718,157,evan-feature33,
158,158,,,2.0,2.0,0.0,1.0,1.0,0.0,0.0,-3.0,,0.0-140.0,,-3.0,794.8300000024028,1.0,0.5867941849109607,1.0,0.4964440592759325,0.0,0.5321186669651664,0.0,0.2830824665013477,1.0,0.8,1.0,0.5363020884158183,0.0,0.7101758802722092,1.0,0.3957110824414939,0.0,0.42121867588002176,False,,5d52e92220d410001799d261,,1315024,158,evan-feature33,
159,159,,,1.0,1.0,0.0,1.0,1.0,3.0,0.0,0.0,,0.0-141.0,,0.0,1792.6149999985935,0.0,0.6127355502941156,1.0,0.5038643874653209,1.0,0.5046027346448039,0.0,0.3004235491254244,1.0,0.8,1.0,0.5538163771094676,1.0,0.6943205985429062,1.0,0.364726816858392,0.0,0.3796681403337913,False,,5d52e92220d410001799d261,,1322329,159,evan-feature33,
160,160,,,3.0,3.0,1.0,0.0,0.0,3.0,0.0,0.0,,0.0-142.0,,3.0,715.0849999997299,1.0,0.6168664370282855,1.0,0.4668141468762553,1.0,0.4914346925491543,1.0,0.26851528683240783,0.0,0.7779284485065563,0.0,0.5630312574883083,1.0,0.6774904177387844,0.0,0.40072854111531786,0.0,0.3675264425253135,False,,5d52e92220d410001799d261,,1328555,160,evan-feature33,
161,161,,,2.0,2.0,0.0,1.0,0.0,0.0,0.0,-3.0,,0.0-143.0,,0.0,1247.9600000006612,1.0,0.6099470404588029,1.0,0.4304637896716421,0.0,0.5201256460713465,0.0,0.299597819837529,1.0,0.8,0.0,0.5919030563089354,1.0,0.678923299137011,1.0,0.3941848013087788,1.0,0.3753571474122476,False,,5d52e92220d410001799d261,,1335313,161,evan-feature33,
162,162,,,2.0,2.0,1.0,1.0,0.0,0.0,0.0,-3.0,,0.0-144.0,,0.0,768.9299999985377,0.0,0.6235712776133511,1.0,0.3974469099975492,1.0,0.5103241438162199,1.0,0.3479463280704941,1.0,0.8,0.0,0.5926743327213972,0.0,0.6624227811833913,0.0,0.414293654945712,1.0,0.3769599817285528,False,,5d52e92220d410001799d261,,1341594,162,evan-feature33,
163,163,,,2.0,2.0,1.0,0.0,1.0,0.0,1.0,0.0,,0.0-145.0,,0.0,760.8799999980257,0.0,0.6365702895597344,0.0,0.3977606036985893,1.0,0.4611609226101419,1.0,0.3496943888780905,0.0,0.7962948864007519,1.0,0.6019225190193829,0.0,0.6739772053315943,0.0,0.4681307322708888,0.0,0.32465251090644065,False,,5d52e92220d410001799d261,,1347867,163,evan-feature33,
164,164,,,3.0,3.0,1.0,0.0,0.0,3.0,0.0,0.0,,0.0-146.0,,3.0,1480.8650000013877,0.0,0.6499177720068331,1.0,0.3686772348883394,0.0,0.4617871101913704,1.0,0.3891019132603854,1.0,0.7453635438538616,1.0,0.6164000949231856,1.0,0.6796934969423188,0.0,0.4394045828167988,0.0,0.3116816123914389,False,,5d52e92220d410001799d261,,1354857,164,evan-feature33,
165,165,,,2.0,2.0,0.0,1.0,1.0,0.0,0.0,-3.0,,0.0-147.0,,-3.0,884.7400000011548,0.0,0.6473231843623145,0.0,0.3832755129383093,0.0,0.4316311027518864,0.0,0.3662597257861493,1.0,0.7524703382057069,1.0,0.6361280773191027,1.0,0.7187356629034903,0.0,0.4814442927853618,0.0,0.3156461444158952,False,,5d52e92220d410001799d261,,1361253,165,evan-feature33,
166,166,,,2.0,2.0,0.0,1.0,1.0,0.0,1.0,0.0,,0.0-148.0,,1.0,892.01999999932,1.0,0.6231462023175467,1.0,0.4146472144005301,0.0,0.419157009264896,0.0,0.35544032340138504,1.0,0.7626918503456779,1.0,0.5970381019002403,1.0,0.6974928461996306,1.0,0.4937992511136696,0.0,0.3068585706492136,False,,5d52e92220d410001799d261,,1367657,166,evan-feature33,
167,167,,,2.0,2.0,0.0,0.0,1.0,0.0,0.0,-3.0,,0.0-149.0,,-3.0,584.5149999987334,0.0,0.5910969581605598,1.0,0.4405424969147052,0.0,0.40893352681035533,0.0,0.3458935911348198,0.0,0.7985466141560932,1.0,0.5474726482829286,1.0,0.6641576377599725,1.0,0.4765148433936608,1.0,0.33081816301777245,False,,5d52e92220d410001799d261,,1373752,167,evan-feature33,
168,168,,,1.0,1.0,0.0,1.0,1.0,0.0,0.0,-3.0,,0.0-150.0,,-3.0,1181.834999999497,0.0,0.5673719009921698,1.0,0.4752829618047859,1.0,0.4516016437859398,0.0,0.3725588595424731,1.0,0.787339496784365,0.0,0.5609984011191723,0.0,0.6599340325266956,1.0,0.5133413497817113,0.0,0.31968307483069963,False,,5d52e92220d410001799d261,,1380445,168,evan-feature33,
169,169,,,2.0,2.0,0.0,1.0,0.0,0.0,0.0,-3.0,,0.0-151.0,,0.0,683.3399999996183,0.0,0.6269707974793586,1.0,0.40232093379131706,1.0,0.4318549426237265,0.0,0.4130974792131447,1.0,0.797165476033386,0.0,0.5806850209415073,1.0,0.6749728842791545,1.0,0.498932451708005,0.0,0.3488054209368497,False,,5d52e92220d410001799d261,,1386639,169,evan-feature33,
170,170,,,2.0,2.0,1.0,1.0,0.0,0.0,0.0,-3.0,,0.0-152.0,,0.0,651.0949999974109,1.0,0.6179466106113147,1.0,0.4098251112423813,0.0,0.4473287895014987,1.0,0.4129034148260104,1.0,0.7927898634513063,0.0,0.6118224271367418,1.0,0.6466520427633794,1.0,0.4733150100143784,1.0,0.3066977766565181,False,,5d52e92220d410001799d261,,1392802,170,evan-feature33,
171,171,,,2.0,2.0,1.0,1.0,1.0,0.0,0.0,-3.0,,0.0-153.0,,-3.0,2516.0649999997117,0.0,0.6402907889203361,0.0,0.40618180400496295,1.0,0.4200738689660127,1.0,0.3795880436687338,1.0,0.7724238767580943,1.0,0.5475874553555391,0.0,0.628149002748421,1.0,0.5174395593951339,1.0,0.31819441664276604,False,,5d52e92220d410001799d261,,1400830,171,evan-feature33,
172,172,,,3.0,3.0,1.0,1.0,0.0,3.0,0.0,0.0,,0.0-154.0,,3.0,1743.4900000006894,1.0,0.6360718667213158,1.0,0.39514661351258507,1.0,0.3755214096268576,0.0,0.36737085289159693,0.0,0.7403319483032553,1.0,0.5259800050402907,1.0,0.6187904001702376,1.0,0.5062515646269505,0.0,0.31158438565616964,False,,5d52e92220d410001799d261,,1408085,172,evan-feature33,
173,173,,,2.0,2.0,0.0,1.0,0.0,0.0,0.0,-3.0,,0.0-155.0,,0.0,853.0099999988452,0.0,0.5957667973525356,0.0,0.3954331289806557,0.0,0.38261951117385423,0.0,0.3685330947609723,1.0,0.7275062897993628,0.0,0.5313091249734804,0.0,0.5988063361779088,1.0,0.5240412624412167,0.0,0.3676841773605909,False,,5d52e92220d410001799d261,,1414449,173,evan-feature33,
174,174,,,2.0,2.0,0.0,1.0,1.0,0.0,0.0,-3.0,,0.0-156.0,,-3.0,753.2499999981374,1.0,0.6597836373867152,0.0,0.43472464306432695,1.0,0.36470181011909614,0.0,0.3943210815953337,1.0,0.6775643538300234,1.0,0.5139750687871566,1.0,0.5925548395798305,0.0,0.5041970221550064,0.0,0.4044160990180217,False,,5d52e92220d410001799d261,,1420714,174,evan-feature33,
175,175,,,2.0,2.0,1.0,0.0,1.0,0.0,1.0,0.0,,0.0-157.0,,0.0,877.0349999978207,0.0,0.6641845336923391,1.0,0.459527692138082,0.0,0.3896104556920875,1.0,0.4140332560127517,0.0,0.6525729703554292,1.0,0.5083492182073058,0.0,0.6211173788282252,1.0,0.5426048215527832,0.0,0.38766506864871936,False,,5d52e92220d410001799d261,,1427103,175,evan-feature33,
176,176,,,3.0,3.0,1.0,1.0,0.0,3.0,0.0,0.0,,0.0-158.0,,3.0,1027.8050000015646,0.0,0.6,0.0,0.5,1.0,0.4,0.0,0.4,0.0,0.6,1.0,0.5,1.0,0.6,1.0,0.5,0.0,0.4,False,,5d52e92220d410001799d261,,1433642,176,evan-feature33,
177,177,,,2.0,2.0,1.0,0.0,1.0,0.0,0.0,-3.0,,0.0-159.0,,-3.0,663.6099999996368,1.0,0.4902335135069851,0.0,0.5169062693828821,1.0,0.5033890447950237,1.0,0.7512597376629422,0.0,0.696183251319026,1.0,0.4747566674553394,1.0,0.8,0.0,0.3054325620110572,1.0,0.3393089376161452,False,,5d52e92220d410001799d261,,1439818,177,evan-feature33,
178,178,,,3.0,3.0,1.0,0.0,0.0,3.0,0.0,0.0,,0.0-160.0,,3.0,764.5200000007171,0.0,0.5082229871181898,1.0,0.472471877170311,1.0,0.457142516544111,1.0,0.7221950937675203,1.0,0.7039885111194287,1.0,0.4504100700822307,1.0,0.7756551307086645,0.0,0.3075417885163859,0.0,0.3181415618882507,False,,5d52e92220d410001799d261,,1446098,178,evan-feature33,
179,179,,,3.0,3.0,1.0,0.0,0.0,3.0,0.0,0.0,,0.0-161.0,,3.0,1181.174999997951,0.0,0.5001692209922948,0.0,0.4939370054111803,1.0,0.4588735831699442,0.0,0.7390656241685442,0.0,0.7232709012361449,0.0,0.4370896375359553,1.0,0.7376158198897073,0.0,0.3128373481027521,0.0,0.3660435335611325,False,,5d52e92220d410001799d261,,1452788,179,evan-feature33,
180,180,,,1.0,1.0,1.0,0.0,1.0,0.0,1.0,0.0,,0.0-162.0,,0.0,1414.585000002058,1.0,0.4724163779888285,0.0,0.4748479485322562,1.0,0.49272810441511,0.0,0.7733400601718899,0.0,0.7446673084124159,1.0,0.40366864389206775,1.0,0.7465542031873313,0.0,0.3104964443871796,0.0,0.3442400445546641,False,,5d52e92220d410001799d261,,1459714,180,evan-feature33,
181,181,,,2.0,2.0,1.0,1.0,1.0,0.0,0.0,-3.0,,0.0-163.0,,-3.0,1227.1199999994133,0.0,0.4467974340393058,1.0,0.4455298278832776,0.0,0.4723736762637053,1.0,0.7355861907455804,1.0,0.7046694113049096,1.0,0.3554531298426843,1.0,0.7347951863144786,0.0,0.3342740837926847,0.0,0.3563864203427071,False,,5d52e92220d410001799d261,,1466453,181,evan-feature33,
182,182,,,3.0,3.0,0.0,0.0,0.0,3.0,0.0,0.0,,0.0-164.0,,0.0,1105.455000000773,0.0,0.364216274793969,0.0,0.4123539659346272,0.0,0.4959421889955184,1.0,0.7654077042984958,0.0,0.738780742290441,0.0,0.3855254914101784,0.0,0.748271109224894,0.0,0.32136476096837113,0.0,0.37978086181337983,False,,5d52e92220d410001799d261,,1473066,182,evan-feature33,
183,183,,,1.0,1.0,1.0,0.0,0.0,0.0,0.0,-3.0,,0.0-165.0,,0.0,1704.5299999990964,1.0,0.3282214853730085,0.0,0.4332252371321091,0.0,0.4953899500908167,0.0,0.7520207076527401,1.0,0.78271723202207,0.0,0.36560218630737534,1.0,0.6947852807327467,0.0,0.3269773054103198,1.0,0.3604608217575653,False,,5d52e92220d410001799d261,,1480280,183,evan-feature33,
184,184,,,1.0,1.0,0.0,0.0,0.0,0.0,1.0,0.0,,0.0-166.0,,0.0,1411.635000000242,0.0,0.2869899365289098,0.0,0.4670007254214435,0.0,0.5003419060312233,1.0,0.8,1.0,0.7858623661272677,0.0,0.3954552308289264,1.0,0.7229547237587758,0.0,0.3090157010584574,0.0,0.36344062002703575,False,,5d52e92220d410001799d261,,1487199,184,evan-feature33,
185,185,,,3.0,3.0,1.0,0.0,1.0,3.0,0.0,0.0,,0.0-167.0,,3.0,1111.2050000012387,0.0,0.2820186353577358,0.0,0.4909361219492577,1.0,0.5413096684732813,1.0,0.8,1.0,0.8,1.0,0.4042447588181157,1.0,0.7588424522152786,0.0,0.2929881961190227,1.0,0.3914828813839236,False,,5d52e92220d410001799d261,,1493823,185,evan-feature33,
186,186,,,3.0,3.0,0.0,0.0,1.0,3.0,0.0,0.0,,0.0-168.0,,0.0,1131.8449999999718,0.0,0.335293265145006,1.0,0.4973682464837907,0.0,0.5417360167628078,1.0,0.8,0.0,0.7712116714674767,0.0,0.3226790040166956,0.0,0.7313398420827231,0.0,0.23326580077986964,1.0,0.41482158568067706,False,,5d52e92220d410001799d261,,1500467,186,evan-feature33,
187,187,,,2.0,2.0,1.0,1.0,1.0,0.0,1.0,0.0,,0.0-169.0,,1.0,1609.8500000005588,0.0,0.3368440672083943,1.0,0.4583880124508953,1.0,0.538046318695428,1.0,0.7940870647539037,1.0,0.7511026667625038,1.0,0.3170289910385111,1.0,0.7345634448622622,0.0,0.21893975416302305,0.0,0.4666360774346798,False,,5d52e92220d410001799d261,,1507589,187,evan-feature33,
188,188,,,3.0,3.0,1.0,1.0,0.0,3.0,0.0,0.0,,0.0-170.0,,3.0,970.4650000021793,0.0,0.3488936263576143,1.0,0.4801413570666848,0.0,0.5915579355390309,1.0,0.8,1.0,0.7379278000665779,0.0,0.30057944358767485,1.0,0.7507210079061312,1.0,0.2486032177756585,0.0,0.4765381644648815,False,,5d52e92220d410001799d261,,1514070,188,evan-feature33,
189,189,,,2.0,2.0,0.0,1.0,0.0,0.0,0.0,-3.0,,0.0-171.0,,0.0,582.9150000028312,1.0,0.3656529400203942,0.0,0.4562498817497682,1.0,0.5942807395000571,0.0,0.7963070288691244,1.0,0.8,0.0,0.288056888428648,1.0,0.7789414562184965,0.0,0.2395983515158024,0.0,0.4452206987031641,False,,5d52e92220d410001799d261,,1520162,189,evan-feature33,
190,190,,,2.0,2.0,1.0,1.0,0.0,0.0,0.0,-3.0,,0.0-172.0,,0.0,968.174999998184,1.0,0.3659293817058228,1.0,0.468147651575068,1.0,0.5827600868388046,1.0,0.7899815683315499,1.0,0.735724856647824,0.0,0.3169536120317658,0.0,0.7575697765013023,0.0,0.2265060296557676,0.0,0.39376615427624,False,,5d52e92220d410001799d261,,1526642,190,evan-feature33,
191,191,,,2.0,2.0,1.0,1.0,0.0,0.0,0.0,-3.0,,0.0-173.0,,0.0,838.8200000009965,1.0,0.3682095446088992,0.0,0.4840529064838068,1.0,0.6040077969075717,1.0,0.7615139441246928,1.0,0.7773830914706951,0.0,0.32739951961102465,1.0,0.8,0.0,0.22331192518208212,0.0,0.4057848012425117,False,,5d52e92220d410001799d261,,1532993,191,evan-feature33,
192,192,,,3.0,3.0,1.0,0.0,1.0,3.0,0.0,0.0,,0.0-174.0,,3.0,1019.2400000013877,1.0,0.3583647499273841,0.0,0.5212686323273926,1.0,0.6295739483784396,1.0,0.7520994101047367,1.0,0.7320431639843433,1.0,0.3163060346419401,1.0,0.7780464119260431,0.0,0.23274621649357674,1.0,0.4232076122403476,False,,5d52e92220d410001799d261,,1539524,192,evan-feature33,
193,193,,,3.0,3.0,0.0,0.0,0.0,3.0,0.0,0.0,,0.0-175.0,,0.0,828.5450000001582,0.0,0.3837902603965845,1.0,0.5517042659618356,0.0,0.6591787742700146,1.0,0.7826732898533413,1.0,0.7197487446411608,1.0,0.3252052538998835,0.0,0.7504769453837352,0.0,0.2,0.0,0.4140077792208717,False,,5d52e92220d410001799d261,,1545861,193,evan-feature33,
194,194,,,3.0,3.0,1.0,0.0,0.0,3.0,0.0,0.0,,0.0-176.0,,3.0,1462.049999998184,0.0,0.3837882349314414,0.0,0.5458115637596588,1.0,0.6343349903973668,1.0,0.7765556411487342,1.0,0.7089625819062523,1.0,0.3560110046014229,1.0,0.7019031836976519,0.0,0.201015206105782,0.0,0.4565872116030871,False,,5d52e92220d410001799d261,,1552834,194,evan-feature33,
195,195,,,3.0,3.0,1.0,1.0,0.0,3.0,0.0,0.0,,0.0-177.0,,3.0,1382.7249999993946,1.0,0.4040477800994367,0.0,0.5600415149421664,1.0,0.6138749922382503,1.0,0.7696672863800129,1.0,0.7399246340389842,0.0,0.3101873618132714,1.0,0.7321531888055464,1.0,0.2,0.0,0.4097552058023963,False,,5d52e92220d410001799d261,,1559729,195,evan-feature33,
196,196,,,2.0,2.0,1.0,1.0,0.0,0.0,1.0,0.0,,0.0-178.0,,1.0,1989.649999999674,0.0,0.4043183095555342,1.0,0.5927454589074214,1.0,0.6082592421929862,1.0,0.8,1.0,0.7269424743758112,0.0,0.3150783741310396,1.0,0.7411990453028782,0.0,0.2,0.0,0.4312749521900195,False,,5d52e92220d410001799d261,,1567230,196,evan-feature33,
197,197,,,3.0,3.0,1.0,0.0,1.0,3.0,0.0,0.0,,0.0-179.0,,3.0,842.2900000005029,0.0,0.4520056889986687,1.0,0.6262629758150509,0.0,0.5621666310841671,1.0,0.7526461319568071,1.0,0.7241101663798672,1.0,0.321954117089933,1.0,0.7241538386952151,0.0,0.2,1.0,0.456694937336302,False,,5d52e92220d410001799d261,,1573584,197,evan-feature33,
198,198,,,2.0,2.0,1.0,1.0,0.0,0.0,1.0,0.0,,0.0-180.0,,1.0,971.6100000005679,0.0,0.4683850610567357,1.0,0.6654600477315535,1.0,0.5527560023765898,1.0,0.7334148550860667,1.0,0.7020799809030562,0.0,0.3140040660908064,1.0,0.703862703732011,0.0,0.2,1.0,0.4672046001763728,False,,5d52e92220d410001799d261,,1580070,198,evan-feature33,
199,199,,,3.0,3.0,1.0,0.0,1.0,3.0,0.0,0.0,,0.0-181.0,,3.0,1046.180000001099,1.0,0.4429170699964574,1.0,0.703592171604943,0.0,0.4817730041784154,1.0,0.6839395121023507,0.0,0.6658622793612156,1.0,0.32648024926637365,1.0,0.7347479760491545,0.0,0.2,1.0,0.4529807362870922,False,,5d52e92220d410001799d261,,1586629,199,evan-feature33,
200,200,,,2.0,2.0,1.0,1.0,0.0,0.0,0.0,-3.0,,0.0-182.0,,0.0,1410.3350000004284,1.0,0.4188760447654041,1.0,0.7599371011500964,1.0,0.4918651706408906,1.0,0.6442556694659145,1.0,0.6534264083917221,0.0,0.3604052172117295,0.0,0.6894298386978119,0.0,0.2,0.0,0.4734490452093977,False,,5d52e92220d410001799d261,,1593551,200,evan-feature33,
201,201,,,2.0,2.0,0.0,1.0,0.0,0.0,0.0,-3.0,,0.0-183.0,,0.0,665.1950000014623,1.0,0.4351740733754047,0.0,0.7559323534111104,0.0,0.459746599668009,0.0,0.6492904544485856,1.0,0.6061316453306921,0.0,0.3457719373297702,1.0,0.6418433978387791,0.0,0.21258323353429034,1.0,0.44745305838745786,False,,5d52e92220d410001799d261,,1599725,201,evan-feature33,
202,202,,,1.0,1.0,1.0,0.0,0.0,0.0,1.0,0.0,,0.0-184.0,,0.0,1774.940000002971,1.0,0.43415589610091776,0.0,0.7174741272721368,0.0,0.5209401383489709,0.0,0.5945894556570019,0.0,0.5923831928274933,1.0,0.30407059840492784,1.0,0.6367952728390254,0.0,0.20491467673358035,0.0,0.4707841542017798,False,,5d52e92220d410001799d261,,1607010,202,evan-feature33,
203,203,,,2.0,2.0,1.0,0.0,0.0,0.0,0.0,-3.0,,0.0-185.0,,0.0,1064.070000000298,0.0,0.4045559269826428,1.0,0.6921611268671677,0.0,0.557115687836875,1.0,0.6093480030827675,0.0,0.6155246619679292,0.0,0.3071714192560162,1.0,0.6450272051531397,0.0,0.2005451365116392,1.0,0.4998427631293345,False,,5d52e92220d410001799d261,,1613584,203,evan-feature33,
204,204,,,3.0,3.0,1.0,1.0,0.0,3.0,0.0,0.0,,0.0-186.0,,3.0,854.5549999980722,0.0,0.4736134330523695,0.0,0.6710353708561022,1.0,0.6310656865896336,0.0,0.5859363449418861,1.0,0.6249367105030355,0.0,0.329593068339436,1.0,0.6531970718285554,1.0,0.2,0.0,0.4850051789303558,False,,5d52e92220d410001799d261,,1619950,204,evan-feature33,
205,205,,,3.0,3.0,0.0,0.0,1.0,3.0,0.0,0.0,,0.0-187.0,,0.0,1833.8499999989292,1.0,0.4610888992634588,1.0,0.663059232467857,0.0,0.6188829716618702,1.0,0.5972412636072836,1.0,0.6087520088813608,0.0,0.3456611532766203,0.0,0.6611040830615346,0.0,0.2,1.0,0.4601764478046466,False,,5d52e92220d410001799d261,,1627293,205,evan-feature33,
206,206,,,3.0,3.0,1.0,0.0,0.0,3.0,0.0,0.0,,0.0-188.0,,3.0,769.5050000001212,0.0,0.4534115680690838,1.0,0.6632841562758571,1.0,0.6013400271261994,0.0,0.5834597810511792,1.0,0.5701737678792945,0.0,0.3100618035449709,1.0,0.6883378298285955,0.0,0.2,0.0,0.4549474339635989,False,,5d52e92220d410001799d261,,1633571,206,evan-feature33,
207,207,,,3.0,3.0,1.0,0.0,1.0,3.0,0.0,0.0,,0.0-189.0,,3.0,751.1500000001398,0.0,0.4368878468916324,0.0,0.5947618134294894,1.0,0.6127510143816625,1.0,0.585293363789218,1.0,0.5612671292464506,0.0,0.31751436263514515,1.0,0.6962784077986461,0.0,0.2,1.0,0.457967541793933,False,,5d52e92220d410001799d261,,1639834,207,evan-feature33,
208,208,,,2.0,2.0,1.0,0.0,0.0,0.0,0.0,-3.0,,0.0-190.0,,0.0,1286.209999998333,0.0,0.44100875148139257,1.0,0.6033623517910436,1.0,0.6006486253105459,1.0,0.5970418162846322,0.0,0.5702815934047643,0.0,0.2520383498565845,1.0,0.7232282235388481,0.0,0.2,0.0,0.4227787400734492,False,,5d52e92220d410001799d261,,1646629,208,evan-feature33,
209,209,,,3.0,3.0,0.0,0.0,1.0,3.0,0.0,0.0,,0.0-191.0,,0.0,1670.5200000032785,0.0,0.4053783217629531,1.0,0.5935915196974653,1.0,0.5691777303048784,1.0,0.5758353743066446,0.0,0.5607984821826253,0.0,0.2663898320675719,0.0,0.7236256385110069,0.0,0.2,1.0,0.4102252987112461,False,,5d52e92220d410001799d261,,1653811,209,evan-feature33,
210,210,,,3.0,3.0,1.0,0.0,1.0,3.0,0.0,0.0,,0.0-192.0,,3.0,903.6750000014437,0.0,0.4440218983956264,1.0,0.6075676826064221,1.0,0.6155760918742151,1.0,0.6156371783436528,1.0,0.5410829461301967,1.0,0.2344042476727323,1.0,0.7701131760198451,0.0,0.2277453625174992,1.0,0.4424832026797912,False,,5d52e92220d410001799d261,,1660229,210,evan-feature33,
211,211,,,3.0,3.0,1.0,1.0,0.0,3.0,0.0,0.0,,0.0-193.0,,3.0,1085.6600000006147,1.0,0.3996918536491992,1.0,0.6014617041701411,1.0,0.6069626528543165,0.0,0.6231367037587522,1.0,0.5202622241237674,0.0,0.2,1.0,0.7792669371545846,1.0,0.2144634551041177,0.0,0.4613417801699839,False,,5d52e92220d410001799d261,,1666826,211,evan-feature33,
212,212,,,2.0,2.0,1.0,1.0,0.0,0.0,0.0,-3.0,,0.0-194.0,,0.0,854.9249999995808,1.0,0.363360880430038,1.0,0.5778896378539404,0.0,0.6248572328991006,1.0,0.6303135422766089,1.0,0.5207214277044226,0.0,0.2,1.0,0.8,0.0,0.2069490496978977,0.0,0.470049421494364,False,,5d52e92220d410001799d261,,1673192,212,evan-feature33,
213,213,,,2.0,2.0,1.0,0.0,0.0,0.0,0.0,-3.0,,0.0-195.0,,0.0,2147.495000001043,0.0,0.30632588135448696,1.0,0.6030980676448647,1.0,0.6012297469900698,1.0,0.5991348744738695,0.0,0.5075382631821443,0.0,0.2541466362171537,0.0,0.8,0.0,0.21320468892152689,1.0,0.4330459151266577,False,,5d52e92220d410001799d261,,1680852,213,evan-feature33,
214,214,,,3.0,3.0,1.0,0.0,1.0,3.0,0.0,0.0,,0.0-196.0,,3.0,495.36999999708496,0.0,0.3143400898014105,0.0,0.5721574465565914,0.0,0.6195557070081841,1.0,0.6145771578050673,1.0,0.5206479058892678,1.0,0.2270135444855456,1.0,0.8,0.0,0.2,1.0,0.4343620297926221,False,,5d52e92220d410001799d261,,1686858,214,evan-feature33,
215,215,,,3.0,3.0,0.0,1.0,0.0,3.0,0.0,0.0,,0.0-197.0,,0.0,701.1149999997579,0.0,0.3319384277953588,1.0,0.5972603071608371,0.0,0.6232555848457937,0.0,0.5842639209845099,1.0,0.5368925314445644,0.0,0.256174157342169,0.0,0.7666246877957892,1.0,0.2,0.0,0.4365682078049384,False,,5d52e92220d410001799d261,,1693071,215,evan-feature33,
216,216,,,3.0,3.0,1.0,1.0,0.0,3.0,0.0,0.0,,0.0-198.0,,3.0,691.4800000013784,0.0,0.3266556895808231,1.0,0.594803030602722,0.0,0.6069586154590195,1.0,0.5841362356734573,1.0,0.5413945659352034,0.0,0.2,1.0,0.7998807180203317,1.0,0.25366170716967085,0.0,0.4684637849041104,False,,5d52e92220d410001799d261,,1699275,216,evan-feature33,
217,217,,,1.0,1.0,1.0,1.0,1.0,0.0,1.0,0.0,,0.0-199.0,,1.0,1013.3100000021514,1.0,0.3313267366021824,1.0,0.6345333476090212,1.0,0.6032705376365469,1.0,0.5706636952421981,1.0,0.4924080716943272,1.0,0.2462031327793537,1.0,0.8,1.0,0.23444521478343186,0.0,0.4828093079126733,False,,5d52e92220d410001799d261,,1705801,217,evan-feature33,
218,218,,,3.0,3.0,1.0,0.0,0.0,3.0,0.0,0.0,,0.0-200.0,,3.0,760.0599999967963,0.0,0.3419728046342909,0.0,0.6101630017596275,0.0,0.5855296783765043,0.0,0.5216883255685288,0.0,0.4885545322968522,1.0,0.2745881261127848,1.0,0.7728710538847289,0.0,0.2457946178413157,0.0,0.49579955175731505,False,,5d52e92220d410001799d261,,1712073,218,evan-feature33,
219,219,,,2.0,2.0,1.0,1.0,1.0,0.0,0.0,-3.0,,0.0-201.0,,-3.0,1273.280000001192,1.0,0.3297276876949621,0.0,0.6072271945914812,1.0,0.6256660367260158,1.0,0.5364972405204994,1.0,0.504037354974765,1.0,0.20698067044103394,1.0,0.7609369255008361,0.0,0.21655023666686732,1.0,0.5067265862899033,False,,5d52e92220d410001799d261,,1718859,219,evan-feature33,
220,220,,,3.0,3.0,1.0,0.0,1.0,3.0,0.0,0.0,,0.0-202.0,,3.0,1910.909999998752,1.0,0.3295244022610514,0.0,0.6131500252233607,1.0,0.6016493433349372,0.0,0.487524138591086,0.0,0.4564946946938385,1.0,0.2,1.0,0.7627048881197058,0.0,0.2,1.0,0.4892163813764582,False,,5d52e92220d410001799d261,,1726281,220,evan-feature33,
221,221,,,2.0,2.0,0.0,1.0,1.0,0.0,0.0,-3.0,,0.0-203.0,,-3.0,1209.8299999998414,0.0,0.379783878224214,1.0,0.6244957672721602,1.0,0.5872665646123583,0.0,0.4533935326380243,1.0,0.4948172019522021,1.0,0.2,1.0,0.7002811622234294,0.0,0.2436249904293832,1.0,0.4506349770640874,False,,5d52e92220d410001799d261,,1733003,221,evan-feature33,
222,222,,,3.0,3.0,1.0,0.0,1.0,3.0,0.0,0.0,,0.0-204.0,,3.0,1557.004999998724,0.0,0.3907734460936349,1.0,0.614187580417482,0.0,0.6118729403966997,0.0,0.4524377972390677,1.0,0.4987775685746136,0.0,0.20984567907894267,1.0,0.6680583982202384,0.0,0.26182064092418234,1.0,0.44910084176029774,False,,5d52e92220d410001799d261,,1740072,222,evan-feature33,
223,223,,,1.0,1.0,1.0,0.0,1.0,0.0,1.0,0.0,,0.0-205.0,,0.0,1469.3399999996182,1.0,0.3730565425253272,0.0,0.5824831974219644,1.0,0.6128814954017976,0.0,0.4611543899753344,0.0,0.4688431283232606,0.0,0.2,0.0,0.691420975591648,0.0,0.20068650387042544,0.0,0.42411755040942345,False,,5d52e92220d410001799d261,,1747052,223,evan-feature33,
224,224,,,3.0,3.0,1.0,0.0,0.0,3.0,0.0,0.0,,0.0-206.0,,3.0,883.7999999995808,1.0,0.3755324859711793,1.0,0.555772362550809,1.0,0.6105040811910281,0.0,0.4337168896303949,0.0,0.4979710000904102,0.0,0.20977755904334694,1.0,0.6794927454085783,0.0,0.2,0.0,0.4385875551721111,False,,5d52e92220d410001799d261,,1753447,224,evan-feature33,
226,226,,,2.0,2.0,0.0,1.0,0.0,0.0,1.0,0.0,,0.0-208.0,,1.0,2541.90000000014,1.0,0.3726639016289326,1.0,0.5783355629272915,1.0,0.6274035047999106,0.0,0.4466695792145392,1.0,0.5241144913313648,0.0,0.232715356621858,1.0,0.6706534602265919,0.0,0.2,0.0,0.4615764292480132,False,,5d52e92220d410001799d261,,1763147,226,evan-feature33,
227,227,,,2.0,2.0,1.0,0.0,0.0,0.0,0.0,-3.0,,0.0-209.0,,0.0,1267.7199999997392,0.0,0.4006167833944929,0.0,0.5787400198204962,1.0,0.6690137533757642,1.0,0.4735464355777445,0.0,0.5218435886940753,0.0,0.2086172441936936,1.0,0.6775751356615762,1.0,0.21917030915408814,1.0,0.4228813962982123,False,,5d52e92220d410001799d261,,1769924,227,evan-feature33,
228,228,,,2.0,2.0,1.0,1.0,0.0,0.0,0.0,-3.0,,0.0-210.0,,0.0,1265.3449999997392,0.0,0.3689910165833843,1.0,0.5766872219696753,1.0,0.6152374219002462,1.0,0.4567251502374926,1.0,0.5181574876214622,0.0,0.2447117071800728,1.0,0.6671133169135179,1.0,0.2197570209359977,0.0,0.4088853922557827,False,,5d52e92220d410001799d261,,1776701,228,evan-feature33,
229,229,,,3.0,3.0,0.0,0.0,0.0,3.0,0.0,0.0,,0.0-211.0,,0.0,1489.3550000013786,0.0,0.35089039886704565,1.0,0.650798276254497,0.0,0.6100348991057233,1.0,0.4273267796406625,0.0,0.5630470994636558,0.0,0.2,0.0,0.6454265249120771,0.0,0.2,0.0,0.3481812432527725,False,,5d52e92220d410001799d261,,1783698,229,evan-feature33,
230,230,,,3.0,3.0,1.0,0.0,1.0,3.0,0.0,0.0,,0.0-212.0,,3.0,1572.034999997355,1.0,0.3467113180398375,1.0,0.6738365790244926,0.0,0.6178805472727136,0.0,0.40492734276590003,1.0,0.5333560392096663,0.0,0.2,1.0,0.6487519437289125,0.0,0.2,1.0,0.3035222020473597,False,,5d52e92220d410001799d261,,1790782,230,evan-feature33,
231,231,,,3.0,3.0,0.0,0.0,0.0,3.0,0.0,0.0,,0.0-213.0,,0.0,665.7450000019744,0.0,0.3645191606435764,1.0,0.6620295373585008,1.0,0.6508630665191023,0.0,0.4157389154007639,1.0,0.5421512103624085,0.0,0.20640030898770434,0.0,0.6659591822682254,0.0,0.2,0.0,0.2854936401443485,False,,5d52e92220d410001799d261,,1796956,231,evan-feature33,
232,232,,,2.0,2.0,1.0,1.0,0.0,0.0,0.0,-3.0,,0.0-214.0,,0.0,1113.399999998277,1.0,0.3555120373252224,0.0,0.6075705961843191,1.0,0.664060259803351,1.0,0.39391342638092974,1.0,0.5019052193049083,0.0,0.2680574884671021,0.0,0.6219746128874928,0.0,0.2,0.0,0.2877735906741289,False,,5d52e92220d410001799d261,,1803581,232,evan-feature33,
233,233,,,3.0,3.0,1.0,1.0,0.0,3.0,0.0,0.0,,0.0-215.0,,3.0,818.5049999991897,1.0,0.4161479187091975,0.0,0.6355770329532686,0.0,0.6877902859091409,1.0,0.3472316001236538,0.0,0.4919585287351262,0.0,0.3011004084199582,1.0,0.6544833188105447,1.0,0.2,0.0,0.2823060473744953,False,,5d52e92220d410001799d261,,1809911,233,evan-feature33,
234,234,,,2.0,2.0,0.0,1.0,0.0,0.0,1.0,0.0,,0.0-216.0,,1.0,1471.9999999979043,1.0,0.4488779480856328,1.0,0.6324800976394956,1.0,0.7079159870704257,0.0,0.3167723905956237,1.0,0.4845924576932618,0.0,0.2781045762995317,1.0,0.6517399794683693,0.0,0.2126269098006152,0.0,0.2846843362407013,False,,5d52e92220d410001799d261,,1816892,234,evan-feature33,
235,235,,,3.0,3.0,1.0,1.0,0.0,3.0,0.0,0.0,,0.0-217.0,,3.0,806.9749999993946,0.0,0.4149711598359091,0.0,0.6784377481481262,1.0,0.6741875759631804,1.0,0.32425352624040343,1.0,0.4511370978169402,0.0,0.23931684311457174,1.0,0.6949367199735698,1.0,0.2,0.0,0.3188131710232905,False,,5d52e92220d410001799d261,,1823210,235,evan-feature33,
236,236,,,2.0,2.0,0.0,1.0,0.0,0.0,0.0,-3.0,,0.0-218.0,,0.0,973.9950000003447,0.0,0.4376061640916411,0.0,0.6419942351649461,1.0,0.6928401014925112,0.0,0.31218462387244783,1.0,0.5170394698152805,0.0,0.30091966856137503,1.0,0.6636770349477018,0.0,0.2,0.0,0.309845606961295,False,,5d52e92220d410001799d261,,1829695,236,evan-feature33,
237,237,,,2.0,2.0,0.0,1.0,1.0,0.0,1.0,0.0,,0.0-219.0,,1.0,988.2350000005679,0.0,0.4402550710096511,1.0,0.6395987797925964,0.0,0.7466426852631056,0.0,0.28319933346546805,1.0,0.4776093314981958,1.0,0.27323518692421417,0.0,0.6999710790506436,0.0,0.2109813757738036,0.0,0.3005560062285045,False,,5d52e92220d410001799d261,,1836195,237,evan-feature33,
238,238,,,2.0,2.0,0.0,1.0,1.0,0.0,0.0,-3.0,,0.0-220.0,,-3.0,1244.9599999999627,0.0,0.4626812807759983,1.0,0.5962043239367231,0.0,0.710267583918615,0.0,0.28248856325684274,1.0,0.3779846946743503,1.0,0.2649470567141315,1.0,0.697098793743249,0.0,0.21712717189735156,1.0,0.31392443006079834,False,,5d52e92220d410001799d261,,1842951,238,evan-feature33,
239,239,,,2.0,2.0,0.0,0.0,0.0,0.0,1.0,0.0,,0.0-221.0,,0.0,984.1849999974949,0.0,0.4828834985050172,1.0,0.5960373896981145,1.0,0.7199711724344765,0.0,0.29804152207292345,0.0,0.3460134198610609,0.0,0.2858921221537224,1.0,0.7473558711943832,0.0,0.2388043172884639,0.0,0.3259840912301488,False,,5d52e92220d410001799d261,,1849444,239,evan-feature33,
240,240,,,3.0,3.0,0.0,1.0,0.0,3.0,0.0,0.0,,0.0-222.0,,0.0,837.455000000773,1.0,0.4658512038916005,0.0,0.5816698208082489,1.0,0.6971622501287468,0.0,0.3477310855895531,0.0,0.33627414888822665,0.0,0.3446417046134506,0.0,0.7904407585715735,1.0,0.28900057586716243,0.0,0.3396486214738455,False,,5d52e92220d410001799d261,,1855790,240,evan-feature33,
241,241,,,2.0,2.0,1.0,0.0,0.0,0.0,0.0,-3.0,,0.0-223.0,,0.0,1079.630000000121,1.0,0.4778453489091498,0.0,0.5480674358122196,0.0,0.6452468829015897,1.0,0.33038358207978097,0.0,0.36751643617655055,0.0,0.3270181109782832,1.0,0.8,0.0,0.3726837883376492,0.0,0.32370981798498905,False,,5d52e92220d410001799d261,,1862381,241,evan-feature33,
242,242,,,2.0,2.0,0.0,1.0,0.0,0.0,0.0,-3.0,,0.0-224.0,,0.0,940.8700000019743,0.0,0.4550487562548826,1.0,0.5461138309776771,1.0,0.6335984352496687,0.0,0.29984658493972804,1.0,0.3474127243577899,0.0,0.3212805427243997,1.0,0.7355839853207153,1.0,0.36648387901453794,0.0,0.34256474510331325,False,,5d52e92220d410001799d261,,1868831,242,evan-feature33,
243,243,,,3.0,3.0,1.0,0.0,0.0,3.0,0.0,0.0,,0.0-225.0,,3.0,522.9500000022817,1.0,0.4476124133219483,0.0,0.5137863335685116,1.0,0.6493604402943944,0.0,0.27632663085819564,0.0,0.33318183673262675,0.0,0.3526295768065739,1.0,0.7302262510947158,0.0,0.35209093504062305,0.0,0.37588261474714907,False,,5d52e92220d410001799d261,,1874864,243,evan-feature33,
244,244,,,3.0,3.0,0.0,1.0,1.0,3.0,0.0,0.0,,0.0-226.0,,0.0,677.4199999999255,1.0,0.4560522682680214,1.0,0.5104692757863671,0.0,0.6168452458550711,1.0,0.31647063824789384,0.0,0.2725327005387625,0.0,0.3040797805299676,0.0,0.7106742887172647,1.0,0.33766748662357554,1.0,0.4132953552567232,False,,5d52e92220d410001799d261,,1881053,244,evan-feature33,
245,245,,,3.0,3.0,0.0,0.0,1.0,3.0,0.0,0.0,,0.0-227.0,,0.0,719.1500000008383,0.0,0.4400187595765515,0.0,0.4733838986165204,1.0,0.6338431594644552,0.0,0.3355448089428918,0.0,0.323222507087893,0.0,0.3193494634572538,0.0,0.7037883683288255,0.0,0.3331264269312308,1.0,0.4423091447313623,False,,5d52e92220d410001799d261,,1887284,245,evan-feature33,
246,246,,,2.0,2.0,0.0,0.0,0.0,0.0,0.0,-3.0,,0.0-228.0,,0.0,1089.6900000006426,1.0,0.4766724878868534,1.0,0.481029635899755,0.0,0.6283855795186508,0.0,0.2862389857627803,0.0,0.3126200564228573,0.0,0.3171020301451961,0.0,0.6759278077751321,1.0,0.3329886149648117,0.0,0.4328470737724314,False,,5d52e92220d410001799d261,,1893882,246,evan-feature33,
247,247,,,2.0,2.0,0.0,0.0,0.0,0.0,0.0,-3.0,,0.0-229.0,,0.0,1012.014999996638,1.0,0.4444084126423875,0.0,0.4670453759763469,1.0,0.6171785484285449,0.0,0.20747338644382826,0.0,0.3085285700794519,0.0,0.3315768229285814,1.0,0.6731092473707407,1.0,0.3505490036557506,0.0,0.42001045859730535,False,,5d52e92220d410001799d261,,1900402,247,evan-feature33,
248,248,,,2.0,2.0,1.0,1.0,0.0,0.0,1.0,0.0,,0.0-230.0,,1.0,1111.6949999995995,0.0,0.4369887928562627,0.0,0.4880529983547763,1.0,0.6189603394585464,1.0,0.2415934865226612,1.0,0.3744131512549748,0.0,0.33614142195817354,1.0,0.6512982250228292,0.0,0.3455780876843706,1.0,0.4994749382556861,False,,5d52e92220d410001799d261,,1907026,248,evan-feature33,
249,249,,,2.0,2.0,0.0,1.0,1.0,0.0,1.0,0.0,,0.0-231.0,,1.0,741.8150000013411,0.0,0.4033842213371537,0.0,0.4911445515597982,0.0,0.6407923113846531,0.0,0.2808566292492418,1.0,0.4422811868029885,1.0,0.4066830369122776,1.0,0.6289720003502034,1.0,0.3647709824363964,0.0,0.4810247927064246,False,,5d52e92220d410001799d261,,1913281,249,evan-feature33,
250,250,,,3.0,3.0,0.0,0.0,0.0,3.0,0.0,0.0,,0.0-232.0,,0.0,532.2049999996088,1.0,0.3786135577674711,0.0,0.5711298511283347,0.0,0.6478185991669747,0.0,0.2618658733593355,0.0,0.4516451056744136,0.0,0.4182567513927217,0.0,0.5762238114194638,0.0,0.3914656206812128,0.0,0.4916078138707723,False,,5d52e92220d410001799d261,,1919321,250,evan-feature33,
251,251,,,2.0,2.0,1.0,1.0,1.0,0.0,1.0,0.0,,0.0-233.0,,1.0,1448.5349999994503,1.0,0.3714037573060303,0.0,0.5999348083352032,0.0,0.6119114272855597,1.0,0.2857781979942577,1.0,0.5338546087305638,1.0,0.3761929238920271,1.0,0.5432664929374478,0.0,0.3773888642067281,0.0,0.4470494379131447,False,,5d52e92220d410001799d261,,1926282,251,evan-feature33,
252,252,,,2.0,2.0,0.0,1.0,0.0,0.0,1.0,0.0,,0.0-234.0,,1.0,1002.3399999991524,0.0,0.397192278818308,1.0,0.6147134551681125,1.0,0.6229931671293433,0.0,0.3027621712409929,1.0,0.4852177191670851,0.0,0.3945783665700168,0.0,0.5362278233944247,0.0,0.4245302634841109,0.0,0.4833425642437597,False,,5d52e92220d410001799d261,,1932794,252,evan-feature33,
253,253,,,3.0,3.0,1.0,0.0,0.0,3.0,0.0,0.0,,0.0-235.0,,3.0,853.5750000008848,1.0,0.4193685837974911,0.0,0.6306891408950209,1.0,0.6169063938550664,0.0,0.3114762896709859,0.0,0.4312669366316332,1.0,0.41879437842247613,1.0,0.5433838302751399,0.0,0.4080207751670032,0.0,0.488889814389263,False,,5d52e92220d410001799d261,,1939159,253,evan-feature33,
254,254,,,3.0,3.0,0.0,0.0,1.0,3.0,0.0,0.0,,0.0-236.0,,0.0,893.7999999979511,1.0,0.37742328199495373,1.0,0.6256494922289016,1.0,0.5271275529555014,0.0,0.34474951579517105,0.0,0.4358906528948397,1.0,0.40443858776800906,0.0,0.5312247541799652,0.0,0.423012378583181,1.0,0.4753369409914423,False,,5d52e92220d410001799d261,,1945562,254,evan-feature33,
255,255,,,2.0,2.0,0.0,0.0,0.0,0.0,1.0,0.0,,0.0-237.0,,0.0,896.9249999972526,1.0,0.3591636062531486,0.0,0.5990115679338722,1.0,0.5651487394593511,0.0,0.3283216434876046,0.0,0.4744375463418331,0.0,0.4010226729222456,0.0,0.5216675884818593,1.0,0.3956305526847976,1.0,0.4819656499282498,False,,5d52e92220d410001799d261,,1951967,255,evan-feature33,
256,256,,,2.0,2.0,0.0,0.0,0.0,0.0,1.0,0.0,,0.0-238.0,,0.0,896.7050000028685,1.0,0.3832563500677492,1.0,0.5691987392351522,1.0,0.5902676747857581,0.0,0.34127811551162296,0.0,0.43067197565884896,0.0,0.3808217516365872,1.0,0.4567955931624707,1.0,0.3801109898982206,1.0,0.493391876799395,False,,5d52e92220d410001799d261,,1958373,256,evan-feature33,
257,257,,,3.0,3.0,0.0,1.0,0.0,3.0,0.0,0.0,,0.0-239.0,,0.0,1056.309999999823,0.0,0.4059760408465734,0.0,0.5569772793853205,1.0,0.6110953419598568,0.0,0.39109012968992296,1.0,0.39063887515025386,1.0,0.3722326153620424,0.0,0.4392970217505103,1.0,0.37332730753252297,0.0,0.5038803670657918,False,,5d52e92220d410001799d261,,1964940,257,evan-feature33,
258,258,,,2.0,2.0,1.0,0.0,1.0,0.0,0.0,-3.0,,0.0-240.0,,-3.0,1276.9599999992645,0.0,0.3734856457863963,1.0,0.5717691127967262,0.0,0.6158179172357947,1.0,0.41188509814432106,0.0,0.3790625238126786,1.0,0.39341268244402017,1.0,0.4273529318107937,0.0,0.4085262933903472,1.0,0.5606678495264431,False,,5d52e92220d410001799d261,,1971730,258,evan-feature33,
259,259,,,2.0,2.0,0.0,0.0,0.0,0.0,1.0,0.0,,0.0-241.0,,0.0,1018.2500000009312,0.0,0.2948446971769267,1.0,0.5528593643944194,0.0,0.5942896094252076,0.0,0.3881195070475712,0.0,0.3803403591561206,0.0,0.4230827540677909,0.0,0.4243936136316761,1.0,0.33840693907847824,0.0,0.5526831275798796,False,,5d52e92220d410001799d261,,1978257,259,evan-feature33,
260,260,,,2.0,2.0,0.0,0.0,0.0,0.0,0.0,-3.0,,0.0-242.0,,0.0,1296.7299999983513,0.0,0.2993488753194677,0.0,0.5574420793226409,0.0,0.5787425321315345,0.0,0.3906855554951589,0.0,0.4014480903449571,0.0,0.3658201834582754,1.0,0.3657671436855716,1.0,0.3333971891010246,1.0,0.6001199941335201,False,,5d52e92220d410001799d261,,1985062,260,evan-feature33,
261,261,,,3.0,3.0,0.0,0.0,1.0,3.0,0.0,0.0,,0.0-243.0,,0.0,843.3850000002421,0.0,0.28888160406168545,1.0,0.5648175901789801,1.0,0.5965386228333376,1.0,0.4376392582231361,0.0,0.4086185218467997,1.0,0.35394306701568257,0.0,0.3704772543516065,0.0,0.3468946534570261,1.0,0.6523513109235781,False,,5d52e92220d410001799d261,,1989441,261,evan-feature33,
262,262,,,1.0,1.0,0.0,1.0,1.0,0.0,1.0,0.0,,0.0-244.0,,1.0,1172.9049999995625,0.0,0.3326477812561857,1.0,0.5438290236680664,1.0,0.5919096610966283,0.0,0.4477472146834157,1.0,0.4041823677944725,0.0,0.2999295067975427,0.0,0.3618685887588202,1.0,0.426658250175038,1.0,0.5992610954327813,False,,5d52e92220d410001799d261,,1996126,262,evan-feature33,
263,263,,,2.0,2.0,0.0,1.0,0.0,3.0,0.0,0.0,,0.0-245.0,,0.0,553.739999999525,0.0,0.31739855588697835,1.0,0.5462178440604971,0.0,0.5847216558440672,0.0,0.431580022268304,1.0,0.3744611927675882,0.0,0.3172707616961365,0.0,0.3596479593547319,0.0,0.4069936499991901,1.0,0.5329684517525685,False,,5d52e92220d410001799d261,,2002191,263,evan-feature33,
264,264,,,2.0,2.0,1.0,0.0,0.0,3.0,0.0,0.0,,0.0-246.0,,3.0,691.2199999969451,0.0,0.311874287920442,0.0,0.5004888405290416,1.0,0.5809788451057822,1.0,0.4387632152969445,0.0,0.3671753959656232,0.0,0.3051560259354462,0.0,0.3581328486527348,0.0,0.44602886156913096,0.0,0.5611282164011366,False,,5d52e92220d410001799d261,,2008393,264,evan-feature33,
265,265,,,1.0,1.0,0.0,1.0,1.0,0.0,0.0,-3.0,,0.0-247.0,,-3.0,686.3850000009406,0.0,0.3198553715655794,1.0,0.4990269622253325,1.0,0.5771067841812746,1.0,0.4339790983290581,1.0,0.3691360757846816,0.0,0.2885421068923315,0.0,0.2999674932825,0.0,0.4726399116780052,0.0,0.5067623269456145,False,,5d52e92220d410001799d261,,2014591,265,evan-feature33,
266,266,,,3.0,3.0,1.0,0.0,0.0,3.0,0.0,0.0,,0.0-248.0,,3.0,826.2600000016391,0.0,0.3408255562714844,1.0,0.4281540629535864,1.0,0.598258556264944,0.0,0.4195350541059255,0.0,0.3798060294786279,0.0,0.2495809136502153,1.0,0.3347069428991773,0.0,0.4508643364473307,0.0,0.4865124479426451,False,,5d52e92220d410001799d261,,2020927,266,evan-feature33,
267,267,,,2.0,2.0,0.0,1.0,0.0,0.0,0.0,-3.0,,0.0-249.0,,0.0,862.41999999783,0.0,0.3130194594773847,0.0,0.4600410071323986,1.0,0.5846946163216551,0.0,0.4576688150157377,1.0,0.4037040574640341,0.0,0.2495020636642144,0.0,0.3299502024455558,0.0,0.4421291562740509,1.0,0.5181813091920492,False,,5d52e92220d410001799d261,,2027299,267,evan-feature33,
268,268,,,2.0,2.0,0.0,0.0,0.0,0.0,0.0,-3.0,,0.0-250.0,,0.0,711.029999998631,1.0,0.28109037654141306,1.0,0.5217652554299598,0.0,0.6284258311775205,0.0,0.4662121498451406,0.0,0.3895102645143669,0.0,0.2924523152110936,0.0,0.35706351182719664,0.0,0.4075657467357608,0.0,0.5390624557300933,False,,5d52e92220d410001799d261,,2033519,268,evan-feature33,
269,269,,,2.0,2.0,0.0,1.0,0.0,3.0,0.0,0.0,,0.0-251.0,,0.0,1469.8600000010335,0.0,0.2,1.0,0.5718782790706182,1.0,0.6202890315929644,0.0,0.4891163383020714,1.0,0.4150691790121007,0.0,0.28113394991035856,1.0,0.3799145343394468,1.0,0.4210188962758203,0.0,0.5333602178434379,False,,5d52e92220d410001799d261,,2040498,269,evan-feature33,
270,270,,,2.0,2.0,1.0,0.0,0.0,0.0,0.0,-3.0,,0.0-252.0,,0.0,1321.155000001425,1.0,0.22832970268476785,1.0,0.6195154895707986,0.0,0.6194506989176715,1.0,0.5178207565286961,0.0,0.4034758146408231,0.0,0.2466619862996581,0.0,0.3904233210597707,1.0,0.36853534640038266,1.0,0.5506582650981929,False,,5d52e92220d410001799d261,,2047330,270,evan-feature33,
271,271,,,2.0,2.0,1.0,1.0,0.0,0.0,0.0,-3.0,,0.0-253.0,,0.0,795.2700000023468,0.0,0.2300591538652462,1.0,0.6209972315212994,1.0,0.6364886227786243,1.0,0.512073361438466,1.0,0.4363918597135583,0.0,0.22251684359036025,0.0,0.37895097077145395,0.0,0.37549558549129824,1.0,0.6075525300611511,False,,5d52e92220d410001799d261,,2053636,271,evan-feature33,
272,272,,,2.0,2.0,0.0,1.0,0.0,0.0,0.0,-3.0,,0.0-254.0,,0.0,730.10999999661,1.0,0.23264178797897805,1.0,0.6181377482442884,1.0,0.6253829913439927,0.0,0.5180023549028651,1.0,0.4502453867572537,0.0,0.29227533131380723,0.0,0.4212089714858812,0.0,0.35547404166752794,1.0,0.6978882001272965,False,,5d52e92220d410001799d261,,2059877,272,evan-feature33,
273,273,,,2.0,2.0,1.0,1.0,0.0,3.0,0.0,0.0,,0.0-255.0,,3.0,1246.4099999996836,0.0,0.2364893506599413,1.0,0.6565489996103133,0.0,0.6920126209696476,1.0,0.4952778940706264,1.0,0.5042264381716179,0.0,0.2926149110691576,1.0,0.4332229041457459,1.0,0.3169813696721001,1.0,0.7270565244560341,False,,5d52e92220d410001799d261,,2066635,273,evan-feature33,
274,274,,,2.0,2.0,0.0,0.0,0.0,0.0,0.0,-3.0,,0.0-256.0,,0.0,760.1350000007077,0.0,0.2856069240200376,0.0,0.6409848278339734,1.0,0.6738528678097891,0.0,0.4864380539922225,0.0,0.5687469729548282,0.0,0.27382609571393823,0.0,0.4698108483524323,1.0,0.30014297725937383,0.0,0.7816595150218463,False,,5d52e92220d410001799d261,,2072903,274,evan-feature33,
275,275,,,3.0,3.0,0.0,0.0,1.0,3.0,0.0,0.0,,0.0-257.0,,0.0,1362.1899999994785,1.0,0.3295565831036011,1.0,0.6223071315959765,1.0,0.6778926886516521,1.0,0.5335297875587965,1.0,0.5953288868651025,0.0,0.2805517029797843,0.0,0.4681269474250673,0.0,0.29667661788082444,1.0,0.8,False,,5d52e92220d410001799d261,,2079774,275,evan-feature33,
276,276,,,2.0,2.0,1.0,1.0,0.0,3.0,0.0,0.0,,0.0-258.0,,3.0,742.4649999993852,1.0,0.33505036657320764,1.0,0.6675905913525739,1.0,0.6743881194470265,1.0,0.5247771394597263,1.0,0.6443221141944786,0.0,0.2788684194416022,0.0,0.4278407222242886,0.0,0.2447492108735292,1.0,0.8,False,,5d52e92220d410001799d261,,2086028,276,evan-feature33,
277,277,,,2.0,2.0,1.0,1.0,0.0,3.0,0.0,0.0,,0.0-259.0,,3.0,808.1749999984168,1.0,0.3397683916795939,0.0,0.6472315966121138,1.0,0.6733367908823331,1.0,0.4947429317859352,1.0,0.6556367041313165,0.0,0.3344791737193538,0.0,0.4580246579709926,0.0,0.24345934670077876,1.0,0.7898469264652347,False,,5d52e92220d410001799d261,,2092348,277,evan-feature33,
278,278,,,2.0,2.0,1.0,1.0,1.0,3.0,0.0,0.0,,0.0-260.0,,3.0,621.8000000007452,0.0,0.35332514581661245,1.0,0.6483959636446018,0.0,0.6688645810296237,1.0,0.4717850692654327,1.0,0.622832244027126,1.0,0.3341284775068268,1.0,0.4215106137928052,0.0,0.2493327721834581,1.0,0.8,False,,5d52e92220d410001799d261,,2098482,278,evan-feature33,
279,279,,,1.0,1.0,0.0,0.0,1.0,0.0,1.0,0.0,,0.0-261.0,,0.0,1944.5550000015646,0.0,0.3522408425673669,0.0,0.6507032190415563,1.0,0.6637980808093638,1.0,0.4961139165984959,1.0,0.6120153302500261,1.0,0.27960739602196977,1.0,0.4770347728742935,0.0,0.2253190576847595,1.0,0.7924952314425349,False,,5d52e92220d410001799d261,,2105937,279,evan-feature33,
280,280,,,2.0,2.0,0.0,0.0,0.0,3.0,0.0,0.0,,0.0-262.0,,0.0,737.9199999994597,0.0,0.34224332618499304,0.0,0.6416858968844259,1.0,0.6077404048364229,0.0,0.4334183101871528,0.0,0.6485179502820331,0.0,0.2399066559859829,0.0,0.4552034432923378,0.0,0.2,0.0,0.7985847686235983,False,,5d52e92220d410001799d261,,2112183,280,evan-feature33,
281,281,,,2.0,2.0,1.0,1.0,1.0,0.0,0.0,-3.0,,0.0-263.0,,-3.0,1013.1900000013412,0.0,0.3534369474246527,1.0,0.646880822406376,0.0,0.5453124435223451,1.0,0.4445711553027368,1.0,0.7052733688500892,1.0,0.2969301766694162,1.0,0.4963183842274267,0.0,0.2,1.0,0.8,False,,5d52e92220d410001799d261,,2118709,281,evan-feature33,
282,282,,,2.0,2.0,1.0,0.0,0.0,3.0,0.0,0.0,,0.0-264.0,,3.0,727.2300000004469,0.0,0.3431299178515768,1.0,0.659051909605975,1.0,0.5633875286310983,1.0,0.4350659341488271,0.0,0.6613788822298308,0.0,0.24245554668071675,0.0,0.4825430169035929,0.0,0.2236655372216252,0.0,0.7977457725753732,False,,5d52e92220d410001799d261,,2124947,282,evan-feature33,
283,283,,,2.0,2.0,1.0,0.0,1.0,3.0,0.0,0.0,,0.0-265.0,,3.0,874.3450000002049,0.0,0.3684222690834165,1.0,0.6434137541015122,1.0,0.5513082124232056,1.0,0.3782640214958545,0.0,0.6901691014435736,1.0,0.24029194069346746,0.0,0.4572606464256604,0.0,0.2306558822548147,1.0,0.8,False,,5d52e92220d410001799d261,,2131333,283,evan-feature33,
284,284,,,2.0,2.0,0.0,1.0,0.0,3.0,0.0,0.0,,0.0-266.0,,0.0,678.8849999974483,0.0,0.3528922913774345,0.0,0.5956874534132034,1.0,0.5570688855862941,0.0,0.3700978996992057,1.0,0.7125633324512091,0.0,0.2464622575888838,0.0,0.4525836164956055,1.0,0.20474230928440731,1.0,0.7792439035844866,False,,5d52e92220d410001799d261,,2137524,284,evan-feature33,
285,285,,,2.0,2.0,0.0,1.0,1.0,3.0,0.0,0.0,,0.0-267.0,,0.0,828.215000001248,0.0,0.3495527905602289,1.0,0.6314548793082452,0.0,0.5719067929927303,0.0,0.3734706475873715,1.0,0.6966974686261284,1.0,0.2473437403849311,0.0,0.5017861439628688,1.0,0.2861978228681686,1.0,0.7856455559967237,False,,5d52e92220d410001799d261,,2143864,285,evan-feature33,
286,286,,,2.0,2.0,1.0,0.0,0.0,3.0,0.0,0.0,,0.0-268.0,,3.0,634.8350000008941,0.0,0.34952166157661896,1.0,0.6719022017938865,0.0,0.5818853912528636,1.0,0.3799651581270251,0.0,0.7238026613636019,0.0,0.2350827694643363,1.0,0.5031251156223393,0.0,0.314132685827313,1.0,0.7103943037572834,False,,5d52e92220d410001799d261,,2150010,286,evan-feature33,
287,287,,,2.0,2.0,1.0,1.0,1.0,3.0,0.0,0.0,,0.0-269.0,,3.0,711.8349999981001,0.0,0.3243639039422877,1.0,0.6680509551324596,0.0,0.5933142864161309,1.0,0.39056718563134935,1.0,0.7018226231692066,1.0,0.2350469199692255,0.0,0.4924861801479246,1.0,0.3473020768372559,0.0,0.6766371342004388,False,,5d52e92220d410001799d261,,2156234,287,evan-feature33,
288,288,,,1.0,1.0,0.0,0.0,1.0,0.0,1.0,0.0,,0.0-270.0,,0.0,1269.1199999973178,0.0,0.34515321810296795,0.0,0.6823691065693013,1.0,0.6395264194993485,0.0,0.3889092798818017,1.0,0.7284787402716151,1.0,0.216570356491446,1.0,0.4977852487266922,0.0,0.2824776411958636,1.0,0.6712659335503921,False,,5d52e92220d410001799d261,,2163012,288,evan-feature33,
289,289,,,2.0,2.0,0.0,1.0,0.0,3.0,0.0,0.0,,0.0-271.0,,0.0,537.3499999986961,0.0,0.37464533265911865,1.0,0.6499253176268038,1.0,0.6242686273352807,0.0,0.3720026562647855,1.0,0.7390210887003716,0.0,0.22054047620963652,0.0,0.5082267740284594,0.0,0.2820364672510369,1.0,0.6510273793396443,False,,5d52e92220d410001799d261,,2169057,289,evan-feature33,
290,290,,,2.0,2.0,0.0,0.0,0.0,0.0,0.0,-3.0,,0.0-272.0,,0.0,882.5200000028127,1.0,0.4248478488284221,1.0,0.5880302473462473,1.0,0.6265525233214522,0.0,0.3960993876286771,0.0,0.7952020506799283,0.0,0.22658200321444585,0.0,0.492149250011792,0.0,0.3385756985233164,1.0,0.6470771372581138,False,,5d52e92220d410001799d261,,2175448,290,evan-feature33,
291,291,,,2.0,2.0,0.0,1.0,0.0,0.0,0.0,-3.0,,0.0-273.0,,0.0,703.4750000024214,1.0,0.4191619128591681,0.0,0.6072640602523498,1.0,0.6064161864891036,0.0,0.3492299921075734,1.0,0.7543959736572874,0.0,0.2498236211729725,0.0,0.4789863940117191,0.0,0.3301711339746945,1.0,0.6547889005941239,False,,5d52e92220d410001799d261,,2181664,291,evan-feature33,
292,292,,,2.0,2.0,0.0,0.0,1.0,0.0,1.0,0.0,,0.0-274.0,,0.0,630.6600000024773,1.0,0.4066396743093477,1.0,0.6140067412683221,1.0,0.6247769727064417,0.0,0.3615646694684972,0.0,0.7377913126579742,1.0,0.20698291997816784,0.0,0.4721324546953042,0.0,0.3253297860339753,0.0,0.6349198995782768,False,,5d52e92220d410001799d261,,2187804,292,evan-feature33,
293,293,,,3.0,3.0,1.0,0.0,1.0,3.0,0.0,0.0,,0.0-275.0,,3.0,1181.4750000014901,1.0,0.4645485842189097,1.0,0.6612172540985279,0.0,0.5965157201282285,0.0,0.30559087371771343,1.0,0.7359142620234822,0.0,0.2,1.0,0.4356240630391996,0.0,0.3136600945031017,1.0,0.5933265422865632,False,,5d52e92220d410001799d261,,2194497,293,evan-feature33,
294,294,,,2.0,2.0,1.0,1.0,0.0,0.0,0.0,-3.0,,0.0-276.0,,0.0,861.1500000003724,0.0,0.4400222017513139,1.0,0.6692558405375801,0.0,0.5878856589717814,1.0,0.3066983054060441,1.0,0.7802426937600416,0.0,0.2,0.0,0.4477056466960857,0.0,0.35680697110582105,0.0,0.5980422730610443,False,,5d52e92220d410001799d261,,2200869,294,evan-feature33,
295,295,,,2.0,2.0,1.0,0.0,0.0,0.0,1.0,0.0,,0.0-277.0,,0.0,1270.840000001248,1.0,0.43450193550325855,1.0,0.6494139252142322,0.0,0.534202855905566,1.0,0.28670929190982525,0.0,0.7766107095207312,0.0,0.2,0.0,0.4475614289757519,1.0,0.35180891890497723,0.0,0.6279566733521701,False,,5d52e92220d410001799d261,,2207648,295,evan-feature33,
296,296,,,3.0,3.0,0.0,0.0,0.0,3.0,0.0,0.0,,0.0-278.0,,0.0,477.6349999993108,1.0,0.456339347033309,1.0,0.6174675912348537,1.0,0.5519845690571945,0.0,0.23334481987416164,0.0,0.7704506355504843,0.0,0.20049057276133148,0.0,0.43009061354267386,0.0,0.3105193156922708,0.0,0.6445598503580113,False,,5d52e92220d410001799d261,,2213634,296,evan-feature33,
297,297,,,2.0,2.0,0.0,1.0,1.0,0.0,0.0,-3.0,,0.0-279.0,,-3.0,686.3999999989755,1.0,0.4261448591031017,0.0,0.5889492618280349,1.0,0.4892715260775583,0.0,0.2381815524474862,1.0,0.7807327863112777,1.0,0.2,0.0,0.450845457111327,0.0,0.31677806128187,1.0,0.6412815253129587,False,,5d52e92220d410001799d261,,2219832,297,evan-feature33,
298,298,,,3.0,3.0,1.0,0.0,1.0,3.0,0.0,0.0,,0.0-280.0,,3.0,1086.4849999998696,1.0,0.4054296372118909,1.0,0.5486337754426038,0.0,0.5358388772802765,1.0,0.2551961621601672,1.0,0.7837943417943409,0.0,0.2,1.0,0.4358748074261896,0.0,0.30310775592030514,1.0,0.6568893845795031,False,,5d52e92220d410001799d261,,2226430,298,evan-feature33,
299,299,,,2.0,2.0,0.0,0.0,1.0,3.0,0.0,0.0,,0.0-281.0,,0.0,735.3599999989383,0.0,0.4042199780553941,0.0,0.5321181639348785,0.0,0.5260146558601686,0.0,0.284330972787516,0.0,0.8,1.0,0.2,0.0,0.4062278210175928,0.0,0.2976204582402431,1.0,0.6851664600475722,False,,5d52e92220d410001799d261,,2232673,299,evan-feature33,
300,300,,,2.0,2.0,0.0,1.0,0.0,0.0,0.0,-3.0,,0.0-282.0,,0.0,916.4950000010432,0.0,0.4547491859338089,1.0,0.5257232287936022,1.0,0.5429789181238979,0.0,0.31029549219010105,1.0,0.8,0.0,0.2,1.0,0.4261484548972989,1.0,0.3393281047420701,0.0,0.6722623249860088,False,,5d52e92220d410001799d261,,2239099,300,evan-feature33,
301,301,,,1.0,1.0,1.0,1.0,1.0,0.0,1.0,0.0,,0.0-283.0,,1.0,2001.284999998752,1.0,0.4615014804438538,1.0,0.5401559885026274,1.0,0.5105983773646258,0.0,0.2879073946070773,1.0,0.8,0.0,0.2089066183366988,1.0,0.4502105430684961,0.0,0.3622634093114542,0.0,0.6660584332161833,False,,5d52e92220d410001799d261,,2246612,301,evan-feature33,
302,302,,,2.0,2.0,1.0,1.0,0.0,0.0,0.0,-3.0,,0.0-284.0,,0.0,881.9450000007637,0.0,0.4287217740074681,0.0,0.5101030766255589,0.0,0.5714990927449495,1.0,0.2559867605785157,1.0,0.8,0.0,0.2,0.0,0.4501412408410399,1.0,0.38237333042714267,1.0,0.6595434163177966,False,,5d52e92220d410001799d261,,2253008,302,evan-feature33,
303,303,,,2.0,2.0,0.0,1.0,1.0,0.0,1.0,0.0,,0.0-285.0,,1.0,1294.820000003092,0.0,0.4298879049066199,0.0,0.5349731293127289,0.0,0.5539815835311955,0.0,0.2488588052885348,1.0,0.7674908518657553,1.0,0.20606152371681996,1.0,0.4995226454357464,0.0,0.3961430984536968,0.0,0.6596266642649588,False,,5d52e92220d410001799d261,,2259814,303,evan-feature33,
304,304,,,3.0,3.0,1.0,0.0,1.0,3.0,0.0,0.0,,0.0-286.0,,3.0,557.2649999991992,1.0,0.452403042445814,1.0,0.5580455680641121,1.0,0.5310677466020828,0.0,0.28401519342875864,1.0,0.7534739773206742,0.0,0.2,1.0,0.5446425384245753,0.0,0.4082791675658925,1.0,0.6646686302678447,False,,5d52e92220d410001799d261,,2265882,304,evan-feature33,
305,305,,,2.0,2.0,0.0,1.0,1.0,0.0,1.0,0.0,,0.0-287.0,,1.0,892.0849999994971,0.0,0.4843519147243972,1.0,0.6108910153976405,0.0,0.5570132647010364,0.0,0.275259405257498,1.0,0.7272814031265278,1.0,0.20251554689367535,0.0,0.5802006766713742,0.0,0.3971020872698415,1.0,0.6612629332743081,False,,5d52e92220d410001799d261,,2272286,305,evan-feature33,
306,306,,,3.0,3.0,0.0,0.0,0.0,3.0,0.0,0.0,,0.0-288.0,,0.0,711.6600000006148,1.0,0.5333702096366583,1.0,0.5866613313334551,0.0,0.5925343401320502,0.0,0.26823401118674983,1.0,0.6929170129813961,0.0,0.2,0.0,0.5982062490523362,0.0,0.3000212743286333,0.0,0.6704086860499435,False,,5d52e92220d410001799d261,,2278505,306,evan-feature33,
307,307,,,3.0,3.0,0.0,0.0,0.0,3.0,0.0,0.0,,0.0-289.0,,0.0,1199.2400000016205,1.0,0.5575679636818129,1.0,0.5993998853655762,1.0,0.5452126161713725,1.0,0.20645961438046895,1.0,0.6798827044119421,0.0,0.2053888860221056,0.0,0.6281930021636376,0.0,0.29618403039565355,0.0,0.6708211323738016,False,,5d52e92220d410001799d261,,2285213,307,evan-feature33,
308,308,,,2.0,2.0,0.0,1.0,0.0,3.0,0.0,0.0,,0.0-290.0,,0.0,725.7250000005588,1.0,0.5313041745738628,0.0,0.6096857961239938,1.0,0.5280324514960095,0.0,0.2,1.0,0.6507031460354524,0.0,0.2316825210143452,1.0,0.5994100020972156,1.0,0.23038743285642185,0.0,0.6468337683643968,False,,5d52e92220d410001799d261,,2291447,308,evan-feature33,
309,309,,,3.0,3.0,1.0,1.0,0.0,3.0,0.0,0.0,,0.0-291.0,,3.0,655.019999998156,1.0,0.4622842932706579,1.0,0.5902072149602059,0.0,0.5295551094264641,0.0,0.2,0.0,0.6006639686662489,1.0,0.2864724945164461,1.0,0.6333412314669701,1.0,0.2333210059416142,0.0,0.641308115337276,False,,5d52e92220d410001799d261,,2297614,309,evan-feature33,
310,310,,,1.0,1.0,1.0,1.0,1.0,3.0,0.0,0.0,,0.0-292.0,,3.0,673.2850000010802,1.0,0.4746026872932663,1.0,0.6128803391468711,1.0,0.5096270800647196,1.0,0.2171516576017383,1.0,0.5614619581421629,0.0,0.3346096242779068,0.0,0.7022969920267041,1.0,0.2497791987909315,1.0,0.6700176357886364,False,,5d52e92220d410001799d261,,2303799,310,evan-feature33,
311,311,,,1.0,1.0,1.0,1.0,0.0,3.0,0.0,0.0,,0.0-293.0,,3.0,420.0249999994412,1.0,0.4597594416406333,1.0,0.5914290898680258,0.0,0.5311499731563394,0.0,0.2,0.0,0.5547896931518219,0.0,0.3909898517497839,0.0,0.7123763772354345,0.0,0.24274093099504665,1.0,0.7123683166921531,False,,5d52e92220d410001799d261,,2309730,311,evan-feature33,
312,312,,,2.0,2.0,1.0,0.0,0.0,0.0,1.0,0.0,,0.0-294.0,,0.0,1846.6399999996647,0.0,0.4290154123715683,1.0,0.5906644047963878,1.0,0.5307119685358754,1.0,0.24630911779234446,0.0,0.5979328579728566,0.0,0.4416394569053071,1.0,0.6593842234461675,0.0,0.2184027170937764,1.0,0.6737178068015611,False,,5d52e92220d410001799d261,,2317085,312,evan-feature33,
313,313,,,2.0,2.0,0.0,0.0,0.0,0.0,0.0,-3.0,,0.0-295.0,,0.0,836.5699999993668,1.0,0.4450654968447303,1.0,0.5844588139495617,1.0,0.4983583974774634,0.0,0.2415458038380056,0.0,0.6118706392028908,0.0,0.460920128876084,1.0,0.6635875686252853,0.0,0.2216263135090504,0.0,0.6429930582291766,False,,5d52e92220d410001799d261,,2323430,313,evan-feature33,
314,314,,,3.0,3.0,1.0,1.0,0.0,3.0,0.0,0.0,,0.0-296.0,,3.0,1540.4000000017695,1.0,0.4404176425367466,1.0,0.6192032028336091,1.0,0.5100856620203164,0.0,0.2406268850174618,0.0,0.6164831888068344,0.0,0.4712113026381429,1.0,0.682807786226514,1.0,0.2000978543474233,0.0,0.6634222198325336,False,,5d52e92220d410001799d261,,2330482,314,evan-feature33,
315,315,,,2.0,2.0,1.0,1.0,0.0,0.0,0.0,-3.0,,0.0-297.0,,0.0,1026.360000003595,1.0,0.4294954183013389,1.0,0.5815037887034606,1.0,0.4976209733996319,1.0,0.25746073940951675,1.0,0.6021613578326039,0.0,0.471144136047049,1.0,0.6880411359474291,1.0,0.2286493877065177,1.0,0.6466274591053168,False,,5d52e92220d410001799d261,,2337021,315,evan-feature33,
316,316,,,3.0,3.0,1.0,1.0,1.0,3.0,0.0,0.0,,0.0-298.0,,3.0,1187.000000001397,0.0,0.4380135043617637,0.0,0.5513778428867092,0.0,0.5269330404336661,1.0,0.2,1.0,0.5831394842514894,0.0,0.4991651516616206,1.0,0.692882994338322,1.0,0.25305472574626675,1.0,0.5766946785837803,False,,5d52e92220d410001799d261,,2343720,316,evan-feature33,
317,317,,,2.0,2.0,0.0,0.0,1.0,0.0,0.0,-3.0,,0.0-299.0,,-3.0,908.0350000001489,1.0,0.3924096496726558,0.0,0.5527330480197997,0.0,0.519910321069063,0.0,0.24227704258686544,0.0,0.5564534930940909,1.0,0.4759998575539273,0.0,0.7351585826571231,0.0,0.26096980294355177,0.0,0.6405336115972565,False,,5d52e92220d410001799d261,,2350139,317,evan-feature33,
339,21,,,2.0,2.0,1.0,1.0,0.0,0.0,0.0,-3.0,,0.0-18.0,,0.0,2867.2300000002724,1.0,0.6,1.0,0.5,1.0,0.4,1.0,0.4,1.0,0.6,0.0,0.5,0.0,0.6,0.0,0.5,0.0,0.4,True,,5b6359dff4db970001229501,,356127,21,evan-feature33,
340,22,,,1.0,1.0,1.0,1.0,0.0,3.0,0.0,0.0,,0.0-19.0,,3.0,2308.82000000024,1.0,0.6641845336923391,1.0,0.459527692138082,0.0,0.3896104556920875,0.0,0.4140332560127517,0.0,0.6525729703554292,1.0,0.5083492182073058,0.0,0.6211173788282252,1.0,0.5426048215527832,0.0,0.38766506864871936,True,,5b6359dff4db970001229501,,363972,22,evan-feature33,
341,23,,,1.0,1.0,0.0,0.0,1.0,3.0,0.0,0.0,,0.0-20.0,,0.0,2217.099999999802,0.0,0.6597836373867152,0.0,0.43472464306432695,1.0,0.36470181011909614,0.0,0.3943210815953337,1.0,0.6775643538300234,0.0,0.5139750687871566,1.0,0.5925548395798305,1.0,0.5041970221550064,1.0,0.4044160990180217,True,,5b6359dff4db970001229501,,371721,23,evan-feature33,
342,24,,,3.0,3.0,1.0,1.0,0.0,0.0,1.0,0.0,,0.0-21.0,,1.0,368.015000000014,0.0,0.5957667973525356,0.0,0.3954331289806557,1.0,0.38261951117385423,1.0,0.3685330947609723,1.0,0.7275062897993628,1.0,0.5313091249734804,1.0,0.5988063361779088,1.0,0.5240412624412167,0.0,0.3676841773605909,True,,5b6359dff4db970001229501,,377628,24,evan-feature33,
343,25,,,2.0,2.0,1.0,1.0,1.0,0.0,0.0,-3.0,,0.0-22.0,,-3.0,2133.624999999942,1.0,0.6360718667213158,0.0,0.39514661351258507,1.0,0.3755214096268576,1.0,0.36737085289159693,1.0,0.7403319483032553,1.0,0.5259800050402907,1.0,0.6187904001702376,0.0,0.5062515646269505,1.0,0.31158438565616964,True,,5b6359dff4db970001229501,,385287,25,evan-feature33,
344,26,,,1.0,1.0,0.0,1.0,0.0,3.0,0.0,0.0,,0.0-23.0,,0.0,844.3649999999326,0.0,0.6402907889203361,1.0,0.40618180400496295,0.0,0.4200738689660127,1.0,0.3795880436687338,1.0,0.7724238767580943,0.0,0.5475874553555391,0.0,0.628149002748421,0.0,0.5174395593951339,0.0,0.31819441664276604,True,,5b6359dff4db970001229501,,391663,26,evan-feature33,
345,27,,,2.0,2.0,1.0,1.0,1.0,0.0,0.0,-3.0,,0.0-24.0,,-3.0,2749.7849999999744,1.0,0.6179466106113147,0.0,0.4098251112423813,0.0,0.4473287895014987,1.0,0.4129034148260104,1.0,0.7927898634513063,1.0,0.6118224271367418,0.0,0.6466520427633794,1.0,0.4733150100143784,1.0,0.3066977766565181,True,,5b6359dff4db970001229501,,399939,27,evan-feature33,
346,28,,,1.0,1.0,1.0,1.0,1.0,0.0,1.0,0.0,,0.0-25.0,,1.0,915.8800000000048,1.0,0.6269707974793586,1.0,0.40232093379131706,1.0,0.4318549426237265,0.0,0.4130974792131447,1.0,0.797165476033386,0.0,0.5806850209415073,1.0,0.6749728842791545,1.0,0.498932451708005,0.0,0.3488054209368497,True,,5b6359dff4db970001229501,,406388,28,evan-feature33,
347,29,,,3.0,3.0,1.0,1.0,0.0,3.0,0.0,0.0,,0.0-26.0,,3.0,390.2349999998696,0.0,0.5673719009921698,0.0,0.4752829618047859,1.0,0.4516016437859398,1.0,0.3725588595424731,1.0,0.787339496784365,0.0,0.5609984011191723,1.0,0.6599340325266956,1.0,0.5133413497817113,0.0,0.31968307483069963,True,,5b6359dff4db970001229501,,412301,29,evan-feature33,
348,30,,,3.0,3.0,1.0,1.0,0.0,3.0,0.0,0.0,,0.0-27.0,,3.0,673.934999999823,1.0,0.5910969581605598,0.0,0.4405424969147052,0.0,0.40893352681035533,0.0,0.3458935911348198,1.0,0.7985466141560932,1.0,0.5474726482829286,1.0,0.6641576377599725,1.0,0.4765148433936608,0.0,0.33081816301777245,True,,5b6359dff4db970001229501,,418506,30,evan-feature33,
349,31,,,3.0,3.0,1.0,0.0,0.0,0.0,1.0,0.0,,0.0-28.0,,0.0,1062.3000000000468,1.0,0.6231462023175467,0.0,0.4146472144005301,0.0,0.419157009264896,0.0,0.35544032340138504,0.0,0.7626918503456779,1.0,0.5970381019002403,1.0,0.6974928461996306,0.0,0.4937992511136696,0.0,0.3068585706492136,True,,5b6359dff4db970001229501,,425098,31,evan-feature33,
350,32,,,3.0,3.0,1.0,1.0,0.0,3.0,0.0,0.0,,0.0-29.0,,3.0,1127.1899999997113,1.0,0.6473231843623145,0.0,0.3832755129383093,0.0,0.4316311027518864,0.0,0.3662597257861493,0.0,0.7524703382057069,1.0,0.6361280773191027,1.0,0.7187356629034903,1.0,0.4814442927853618,0.0,0.3156461444158952,True,,5b6359dff4db970001229501,,431752,32,evan-feature33,
351,33,,,3.0,3.0,0.0,1.0,0.0,0.0,0.0,-3.0,,0.0-30.0,,0.0,830.4549999998418,1.0,0.6499177720068331,0.0,0.3686772348883394,0.0,0.4617871101913704,0.0,0.3891019132603854,1.0,0.7453635438538616,1.0,0.6164000949231856,0.0,0.6796934969423188,1.0,0.4394045828167988,0.0,0.3116816123914389,True,,5b6359dff4db970001229501,,438106,33,evan-feature33,
352,34,,,1.0,1.0,1.0,1.0,1.0,0.0,0.0,-3.0,,0.0-31.0,,-3.0,563.0499999997555,1.0,0.6365702895597344,1.0,0.3977606036985893,1.0,0.4611609226101419,0.0,0.3496943888780905,1.0,0.7962948864007519,1.0,0.6019225190193829,0.0,0.6739772053315943,1.0,0.4681307322708888,0.0,0.32465251090644065,True,,5b6359dff4db970001229501,,444197,34,evan-feature33,
353,35,,,1.0,1.0,1.0,1.0,0.0,0.0,0.0,-3.0,,0.0-32.0,,0.0,1806.9949999998792,1.0,0.6235712776133511,1.0,0.3974469099975492,0.0,0.5103241438162199,1.0,0.3479463280704941,1.0,0.8,1.0,0.5926743327213972,1.0,0.6624227811833913,0.0,0.414293654945712,1.0,0.3769599817285528,True,,5b6359dff4db970001229501,,451527,35,evan-feature33,
