,index,Unnamed: 0,Q_name,button_pressed,choice_idxs,chosen_pos,chosen_state,chosen_state_f_1_outcome,chosen_state_f_2_outcome,f_1_reward,f_2_reward,incor_questions,internal_node_id,responses,reward_received,rt,s_1_f_1_outcome,s_1_f_1_prob,s_1_f_2_outcome,s_1_f_2_prob,s_2_f_1_outcome,s_2_f_1_prob,s_2_f_2_outcome,s_2_f_2_prob,safe_first,stimulus,subjectID,success,time_elapsed,trial_index,trial_num,trial_type,version,view_history,switching
0,34461,25,,,,2,2,0.0,0.0,1.0,0.0,,0.0-27.0,,0.0,2233.39,0.0,0.6,0.0,0.6,0.0,0.4,0.0,0.4,True,,5e14f1974a2ad4afe0f144b0,,547411,25,,evan-feature22,full_rf_a,,0
1,34462,26,,,,1,1,1.0,0.0,1.0,0.0,,0.0-28.0,,1.0,508.195,1.0,0.608053294,0.0,0.63424552,0.0,0.397152172,0.0,0.347069101,True,,5e14f1974a2ad4afe0f144b0,,557706,26,,evan-feature22,full_rf_a,,1
2,34463,27,,,,1,1,0.0,0.0,1.0,0.0,,0.0-29.0,,0.0,404.28,0.0,0.642237155,0.0,0.648566321,0.0,0.389407674,1.0,0.285525717,True,,5e14f1974a2ad4afe0f144b0,,567889,27,,evan-feature22,full_rf_a,,0
3,34464,28,,,,2,2,1.0,0.0,1.0,0.0,,0.0-30.0,,1.0,1268.86,1.0,0.661086576,1.0,0.630492543,1.0,0.399058924,0.0,0.25,True,,5e14f1974a2ad4afe0f144b0,,578938,28,,evan-feature22,full_rf_a,,1
4,34465,29,,,,SLOW,SLOW,,,0.0,-1.0,,0.0-31.0,,-3.0,,0.0,0.631324137,1.0,0.6269842929999999,1.0,0.38734784299999997,0.0,0.25,True,,5e14f1974a2ad4afe0f144b0,,584754,29,,evan-feature22,full_rf_a,,1
5,34466,30,,,,1,1,1.0,1.0,0.0,-1.0,,0.0-32.0,,-1.0,725.805,1.0,0.6381991370000001,1.0,0.68987999,0.0,0.384107265,0.0,0.271332943,True,,5e14f1974a2ad4afe0f144b0,,595269,30,,evan-feature22,full_rf_a,,1
6,34467,31,,,,2,2,1.0,0.0,1.0,0.0,,0.0-33.0,,1.0,252.775,0.0,0.66034901,0.0,0.742641349,1.0,0.360225629,0.0,0.25,True,,5e14f1974a2ad4afe0f144b0,,605312,31,,evan-feature22,full_rf_a,,1
7,34468,32,,,,1,1,1.0,1.0,1.0,0.0,,0.0-34.0,,1.0,457.21,1.0,0.638612418,1.0,0.75,1.0,0.367273939,0.0,0.25,True,,5e14f1974a2ad4afe0f144b0,,615556,32,,evan-feature22,full_rf_a,,1
8,34469,33,,,,2,2,1.0,0.0,0.0,-1.0,,0.0-35.0,,0.0,595.555,0.0,0.624340629,1.0,0.75,1.0,0.425829545,0.0,0.25,True,,5e14f1974a2ad4afe0f144b0,,625937,33,,evan-feature22,full_rf_a,,1
9,34470,34,,,,1,1,1.0,1.0,0.0,-1.0,,0.0-36.0,,-1.0,1765.425,1.0,0.621999804,1.0,0.75,1.0,0.368609357,0.0,0.25,True,,5e14f1974a2ad4afe0f144b0,,637486,34,,evan-feature22,full_rf_a,,1
10,34471,35,,,,2,2,0.0,0.0,1.0,0.0,,0.0-37.0,,0.0,545.545,1.0,0.62666403,1.0,0.75,0.0,0.311151498,0.0,0.25,True,,5e14f1974a2ad4afe0f144b0,,647810,35,,evan-feature22,full_rf_a,,1
11,34472,36,,,,2,2,1.0,0.0,0.0,-1.0,,0.0-38.0,,0.0,379.075,1.0,0.6819650009999999,0.0,0.75,1.0,0.310763048,0.0,0.25,True,,5e14f1974a2ad4afe0f144b0,,657970,36,,evan-feature22,full_rf_a,,0
12,34473,37,,,,1,1,1.0,1.0,1.0,0.0,,0.0-39.0,,1.0,348.305,1.0,0.740626951,1.0,0.75,0.0,0.25,0.0,0.25,True,,5e14f1974a2ad4afe0f144b0,,668107,37,,evan-feature22,full_rf_a,,1
13,34474,38,,,,1,1,1.0,0.0,1.0,0.0,,0.0-40.0,,1.0,334.57,1.0,0.739599242,0.0,0.742034978,0.0,0.25397114600000004,1.0,0.25,True,,5e14f1974a2ad4afe0f144b0,,678222,38,,evan-feature22,full_rf_a,,0
14,34475,39,,,,2,2,0.0,1.0,1.0,0.0,,0.0-41.0,,0.0,203.525,1.0,0.732341315,1.0,0.72735643,0.0,0.25,1.0,0.25,True,,5e14f1974a2ad4afe0f144b0,,688207,39,,evan-feature22,full_rf_a,,1
15,34476,40,,,,1,1,1.0,0.0,1.0,0.0,,0.0-42.0,,1.0,273.545,1.0,0.7062287770000001,0.0,0.75,0.0,0.29002151,1.0,0.288256649,True,,5e14f1974a2ad4afe0f144b0,,698268,40,,evan-feature22,full_rf_a,,1
16,34477,41,,,,1,1,1.0,1.0,1.0,0.0,,0.0-43.0,,1.0,465.25,1.0,0.7086029209999999,1.0,0.75,0.0,0.274129113,0.0,0.262851608,True,,5e14f1974a2ad4afe0f144b0,,708527,41,,evan-feature22,full_rf_a,,0
17,34478,42,,,,2,2,0.0,0.0,1.0,0.0,,0.0-44.0,,0.0,375.325,1.0,0.669189651,1.0,0.727614338,0.0,0.298444036,0.0,0.296944518,True,,5e14f1974a2ad4afe0f144b0,,718681,42,,evan-feature22,full_rf_a,,1
18,34479,43,,,,2,2,1.0,1.0,1.0,0.0,,0.0-45.0,,1.0,250.34,1.0,0.6819912929999999,1.0,0.7179434290000001,1.0,0.265003961,1.0,0.28157921199999997,True,,5e14f1974a2ad4afe0f144b0,,728719,43,,evan-feature22,full_rf_a,,0
19,34480,44,,,,1,1,0.0,1.0,0.0,-1.0,,0.0-46.0,,-1.0,843.155,0.0,0.665275002,1.0,0.723065271,0.0,0.260414971,0.0,0.30973870000000003,True,,5e14f1974a2ad4afe0f144b0,,739342,44,,evan-feature22,full_rf_a,,1
20,34481,45,,,,2,2,0.0,0.0,1.0,0.0,,0.0-47.0,,0.0,750.345,1.0,0.6660593260000001,1.0,0.728032907,0.0,0.30922817,0.0,0.338778608,True,,5e14f1974a2ad4afe0f144b0,,749868,45,,evan-feature22,full_rf_a,,1
21,34482,46,,,,2,2,1.0,0.0,1.0,0.0,,0.0-48.0,,1.0,380.75,0.0,0.702068785,1.0,0.6528750879999999,1.0,0.287329608,0.0,0.35789613200000003,True,,5e14f1974a2ad4afe0f144b0,,760023,46,,evan-feature22,full_rf_a,,0
22,34483,47,,,,1,1,1.0,1.0,1.0,0.0,,0.0-49.0,,1.0,468.33,1.0,0.651939787,1.0,0.636725589,0.0,0.284834488,0.0,0.358563756,True,,5e14f1974a2ad4afe0f144b0,,770273,47,,evan-feature22,full_rf_a,,1
23,34484,48,,,,2,2,0.0,0.0,0.0,-1.0,,0.0-50.0,,0.0,330.22,1.0,0.67573929,1.0,0.612550049,0.0,0.37130387600000003,0.0,0.383542402,True,,5e14f1974a2ad4afe0f144b0,,780378,48,,evan-feature22,full_rf_a,,1
24,34485,49,,,,2,2,0.0,0.0,0.0,-1.0,,0.0-51.0,,0.0,512.975,1.0,0.620753801,1.0,0.60513644,0.0,0.385529434,0.0,0.340361743,True,,5e14f1974a2ad4afe0f144b0,,790664,49,,evan-feature22,full_rf_a,,0
25,34486,50,,,,2,2,0.0,0.0,0.0,-1.0,,0.0-52.0,,0.0,424.745,1.0,0.673564893,1.0,0.672437924,0.0,0.292955382,0.0,0.337633795,True,,5e14f1974a2ad4afe0f144b0,,800860,50,,evan-feature22,full_rf_a,,0
26,34487,51,,,,1,1,1.0,0.0,1.0,0.0,,0.0-53.0,,1.0,3302.8,1.0,0.6749427,0.0,0.724197502,0.0,0.32391132100000003,0.0,0.350995264,True,,5e14f1974a2ad4afe0f144b0,,813951,51,,evan-feature22,full_rf_a,,1
27,34488,52,,,,1,1,1.0,0.0,1.0,0.0,,0.0-54.0,,1.0,440.43,1.0,0.6940159379999999,0.0,0.75,0.0,0.31710554399999996,0.0,0.413450341,True,,5e14f1974a2ad4afe0f144b0,,824167,52,,evan-feature22,full_rf_a,,0
28,34489,53,,,,2,2,1.0,0.0,1.0,0.0,,0.0-55.0,,1.0,322.6,1.0,0.6916018270000001,1.0,0.69001187,1.0,0.261817804,0.0,0.40038635,True,,5e14f1974a2ad4afe0f144b0,,834270,53,,evan-feature22,full_rf_a,,1
29,34490,54,,,,2,2,0.0,1.0,1.0,0.0,,0.0-56.0,,0.0,642.025,0.0,0.641061544,1.0,0.71337992,0.0,0.277296461,1.0,0.47372791700000005,True,,5e14f1974a2ad4afe0f144b0,,844696,54,,evan-feature22,full_rf_a,,0
30,34491,55,,,,2,2,0.0,0.0,1.0,0.0,,0.0-57.0,,0.0,436.935,1.0,0.6082438520000001,0.0,0.708471106,0.0,0.28745137,0.0,0.564174476,True,,5e14f1974a2ad4afe0f144b0,,854911,55,,evan-feature22,full_rf_a,,0
31,34492,56,,,,1,1,1.0,0.0,1.0,0.0,,0.0-58.0,,1.0,453.225,1.0,0.6051112120000001,0.0,0.7118147229999999,1.0,0.272390611,1.0,0.5595149939999999,True,,5e14f1974a2ad4afe0f144b0,,865146,56,,evan-feature22,full_rf_a,,1
32,34493,57,,,,1,1,1.0,0.0,1.0,0.0,,0.0-59.0,,1.0,370.945,1.0,0.582420852,0.0,0.635867583,0.0,0.31089574,0.0,0.5227206520000001,True,,5e14f1974a2ad4afe0f144b0,,875291,57,,evan-feature22,full_rf_a,,0
33,34494,58,,,,1,1,0.0,0.0,0.0,-1.0,,0.0-60.0,,0.0,1555.47,0.0,0.623195575,0.0,0.655026044,0.0,0.25,0.0,0.560387538,True,,5e14f1974a2ad4afe0f144b0,,886624,58,,evan-feature22,full_rf_a,,0
34,34495,59,,,,2,2,0.0,0.0,1.0,0.0,,0.0-61.0,,0.0,389.075,1.0,0.601889598,1.0,0.678198724,0.0,0.25,0.0,0.559922936,True,,5e14f1974a2ad4afe0f144b0,,896788,59,,evan-feature22,full_rf_a,,1
35,34496,60,,,,2,2,0.0,0.0,1.0,0.0,,0.0-62.0,,0.0,318.39,0.0,0.601259914,0.0,0.704681482,0.0,0.33908969299999997,0.0,0.505003715,True,,5e14f1974a2ad4afe0f144b0,,906883,60,,evan-feature22,full_rf_a,,0
36,34497,61,,,,2,2,0.0,0.0,1.0,0.0,,0.0-63.0,,0.0,423.37,0.0,0.59645454,0.0,0.710437172,0.0,0.327441879,0.0,0.391749613,True,,5e14f1974a2ad4afe0f144b0,,917085,61,,evan-feature22,full_rf_a,,0
37,34498,62,,,,1,1,1.0,0.0,1.0,0.0,,0.0-64.0,,1.0,321.52,1.0,0.529473,0.0,0.636758527,1.0,0.301338063,0.0,0.365661481,True,,5e14f1974a2ad4afe0f144b0,,927191,62,,evan-feature22,full_rf_a,,1
38,34499,63,,,,1,1,0.0,0.0,0.0,-1.0,,0.0-65.0,,0.0,613.725,0.0,0.541657162,0.0,0.634541962,0.0,0.343535366,0.0,0.371763742,True,,5e14f1974a2ad4afe0f144b0,,937581,63,,evan-feature22,full_rf_a,,0
39,34500,64,,,,2,2,1.0,0.0,1.0,0.0,,0.0-66.0,,1.0,616.555,1.0,0.5707533260000001,1.0,0.589121171,1.0,0.326428396,0.0,0.43961622899999997,True,,5e14f1974a2ad4afe0f144b0,,947976,64,,evan-feature22,full_rf_a,,1
40,34501,65,,,,1,1,1.0,1.0,1.0,0.0,,0.0-67.0,,1.0,424.1,1.0,0.5707533260000001,1.0,0.589121171,1.0,0.326428396,0.0,0.43961622899999997,True,,5e14f1974a2ad4afe0f144b0,,958190,65,,evan-feature22,full_rf_a,,1
41,34502,66,,,,2,2,0.0,0.0,1.0,0.0,,0.0-68.0,,0.0,443.59,1.0,0.506271295,0.0,0.641775594,0.0,0.37149690700000004,0.0,0.404330166,True,,5e14f1974a2ad4afe0f144b0,,968413,66,,evan-feature22,full_rf_a,,1
42,34503,67,,,,1,1,1.0,0.0,0.0,-1.0,,0.0-69.0,,0.0,718.635,1.0,0.455642565,0.0,0.623605825,0.0,0.358753011,0.0,0.346174041,True,,5e14f1974a2ad4afe0f144b0,,978922,67,,evan-feature22,full_rf_a,,1
43,34504,68,,,,2,2,0.0,1.0,0.0,-1.0,,0.0-70.0,,-1.0,668.395,0.0,0.483677308,1.0,0.5904681070000001,0.0,0.402218411,1.0,0.35344697,True,,5e14f1974a2ad4afe0f144b0,,989372,68,,evan-feature22,full_rf_a,,1
44,34505,69,,,,1,1,0.0,0.0,0.0,-1.0,,0.0-71.0,,0.0,1295.95,0.0,0.394210977,0.0,0.558925494,1.0,0.540052017,0.0,0.35182128700000004,True,,5e14f1974a2ad4afe0f144b0,,1000447,69,,evan-feature22,full_rf_a,,1
45,34506,70,,,,1,1,1.0,1.0,1.0,0.0,,0.0-72.0,,1.0,1870.98,1.0,0.382300414,1.0,0.577670603,0.0,0.607608448,1.0,0.378261578,True,,5e14f1974a2ad4afe0f144b0,,1012102,70,,evan-feature22,full_rf_a,,0
46,34507,71,,,,2,2,1.0,0.0,1.0,0.0,,0.0-73.0,,1.0,1566.715,1.0,0.357596762,1.0,0.5929076529999999,1.0,0.6579790010000001,0.0,0.401326777,True,,5e14f1974a2ad4afe0f144b0,,1023458,71,,evan-feature22,full_rf_a,,1
47,34508,72,,,,2,2,0.0,1.0,1.0,0.0,,0.0-74.0,,0.0,310.965,0.0,0.362033495,0.0,0.582308608,0.0,0.649195052,1.0,0.355158505,True,,5e14f1974a2ad4afe0f144b0,,1033544,72,,evan-feature22,full_rf_a,,0
48,34509,73,,,,1,1,0.0,1.0,1.0,0.0,,0.0-75.0,,0.0,822.35,0.0,0.369620635,1.0,0.669100864,1.0,0.706059111,0.0,0.362516241,True,,5e14f1974a2ad4afe0f144b0,,1044148,73,,evan-feature22,full_rf_a,,1
49,34510,74,,,,2,2,1.0,1.0,1.0,0.0,,0.0-76.0,,1.0,302.925,0.0,0.41477751399999996,1.0,0.7284416779999999,1.0,0.7182656940000001,1.0,0.36228040899999997,True,,5e14f1974a2ad4afe0f144b0,,1054248,74,,evan-feature22,full_rf_a,,1
50,34511,75,,,,1,1,0.0,1.0,0.0,-1.0,,0.0-77.0,,-1.0,371.355,0.0,0.37675460299999997,1.0,0.703250285,1.0,0.75,0.0,0.461979164,True,,5e14f1974a2ad4afe0f144b0,,1064407,75,,evan-feature22,full_rf_a,,1
51,34512,76,,,,2,2,0.0,0.0,0.0,-1.0,,0.0-78.0,,0.0,1947.375,0.0,0.398716075,1.0,0.6723864890000001,0.0,0.674153818,0.0,0.519029516,True,,5e14f1974a2ad4afe0f144b0,,1076130,76,,evan-feature22,full_rf_a,,1
52,34513,77,,,,1,1,1.0,1.0,1.0,0.0,,0.0-79.0,,1.0,718.625,1.0,0.34677856700000004,1.0,0.69057175,1.0,0.6822438540000001,1.0,0.477292237,True,,5e14f1974a2ad4afe0f144b0,,1086635,77,,evan-feature22,full_rf_a,,1
53,34514,78,,,,SLOW,SLOW,,,0.0,-1.0,,0.0-80.0,,-3.0,,0.0,0.28580469199999997,0.0,0.68408818,1.0,0.684207565,1.0,0.49780448299999996,True,,5e14f1974a2ad4afe0f144b0,,1092449,78,,evan-feature22,full_rf_a,,1
54,34516,80,,,,1,1,0.0,0.0,1.0,0.0,,0.0-82.0,,0.0,581.78,0.0,0.25,0.0,0.7405808970000001,1.0,0.679614108,0.0,0.436436964,True,,5e14f1974a2ad4afe0f144b0,,1108054,80,,evan-feature22,full_rf_a,,1
55,34517,81,,,,2,2,1.0,0.0,0.0,-1.0,,0.0-83.0,,0.0,447.615,0.0,0.29890393,1.0,0.730505706,1.0,0.7328203320000001,0.0,0.439256938,True,,5e14f1974a2ad4afe0f144b0,,1118293,81,,evan-feature22,full_rf_a,,1
56,34518,82,,,,2,2,1.0,1.0,1.0,0.0,,0.0-84.0,,1.0,606.0,1.0,0.326762398,1.0,0.7148059609999999,1.0,0.75,1.0,0.44389608799999997,True,,5e14f1974a2ad4afe0f144b0,,1128690,82,,evan-feature22,full_rf_a,,0
57,34519,83,,,,1,1,1.0,1.0,1.0,0.0,,0.0-85.0,,1.0,49.2,1.0,0.295168515,1.0,0.739760854,1.0,0.719947008,0.0,0.35277284600000003,True,,5e14f1974a2ad4afe0f144b0,,1138520,83,,evan-feature22,full_rf_a,,1
58,34520,84,,,,2,2,1.0,0.0,1.0,0.0,,0.0-86.0,,1.0,2207.67,0.0,0.25,0.0,0.70781482,1.0,0.75,0.0,0.286095925,True,,5e14f1974a2ad4afe0f144b0,,1150506,84,,evan-feature22,full_rf_a,,1
59,34521,85,,,,SLOW,SLOW,,,0.0,-1.0,,0.0-87.0,,-3.0,,1.0,0.25638190899999996,1.0,0.704088163,0.0,0.75,0.0,0.26872601399999996,True,,5e14f1974a2ad4afe0f144b0,,1156325,85,,evan-feature22,full_rf_a,,1
60,34522,86,,,,2,2,1.0,0.0,0.0,-1.0,,0.0-88.0,,0.0,303.0,0.0,0.271581126,1.0,0.669760107,1.0,0.733896663,0.0,0.273244572,True,,5e14f1974a2ad4afe0f144b0,,1166413,86,,evan-feature22,full_rf_a,,1
61,34523,87,,,,1,1,0.0,0.0,0.0,-1.0,,0.0-89.0,,0.0,426.24,0.0,0.257144401,0.0,0.600575706,1.0,0.74488122,0.0,0.25,True,,5e14f1974a2ad4afe0f144b0,,1176615,87,,evan-feature22,full_rf_a,,1
62,34524,88,,,,2,2,1.0,0.0,1.0,0.0,,0.0-90.0,,1.0,464.04,0.0,0.25,1.0,0.616870026,1.0,0.723610234,0.0,0.25,True,,5e14f1974a2ad4afe0f144b0,,1186854,88,,evan-feature22,full_rf_a,,1
63,34525,89,,,,2,2,0.0,1.0,0.0,-1.0,,0.0-91.0,,-1.0,2304.865,1.0,0.25,1.0,0.583540187,0.0,0.7041042559999999,1.0,0.285961995,True,,5e14f1974a2ad4afe0f144b0,,1198936,89,,evan-feature22,full_rf_a,,0
64,34526,90,,,,2,2,1.0,0.0,1.0,0.0,,0.0-92.0,,1.0,830.435,1.0,0.27254536,0.0,0.53875765,1.0,0.693783448,0.0,0.284961652,True,,5e14f1974a2ad4afe0f144b0,,1209551,90,,evan-feature22,full_rf_a,,0
65,34527,91,,,,2,2,0.0,0.0,0.0,-1.0,,0.0-93.0,,0.0,1948.72,0.0,0.25,1.0,0.548431252,0.0,0.734221895,0.0,0.279445214,True,,5e14f1974a2ad4afe0f144b0,,1221271,91,,evan-feature22,full_rf_a,,0
66,34528,92,,,,2,2,0.0,1.0,1.0,0.0,,0.0-94.0,,0.0,353.89,0.0,0.258640684,1.0,0.545878066,0.0,0.725245965,1.0,0.31487537,True,,5e14f1974a2ad4afe0f144b0,,1231403,92,,evan-feature22,full_rf_a,,0
67,34529,93,,,,2,2,1.0,1.0,1.0,0.0,,0.0-95.0,,1.0,2484.835,1.0,0.251103711,1.0,0.5776290629999999,1.0,0.696320133,1.0,0.317831047,True,,5e14f1974a2ad4afe0f144b0,,1243675,93,,evan-feature22,full_rf_a,,0
68,34530,94,,,,1,1,0.0,1.0,1.0,0.0,,0.0-96.0,,0.0,869.025,0.0,0.276630292,1.0,0.617329858,1.0,0.73838088,1.0,0.261471582,True,,5e14f1974a2ad4afe0f144b0,,1254321,94,,evan-feature22,full_rf_a,,1
69,34531,95,,,,SLOW,SLOW,,,0.0,-1.0,,0.0-97.0,,-3.0,,0.0,0.297716424,1.0,0.618863717,0.0,0.7402358259999999,1.0,0.262600834,True,,5e14f1974a2ad4afe0f144b0,,1260140,95,,evan-feature22,full_rf_a,,1
70,34532,96,,,,2,2,0.0,1.0,1.0,0.0,,0.0-98.0,,0.0,908.78,0.0,0.290935512,1.0,0.695370945,0.0,0.706570507,1.0,0.280030553,True,,5e14f1974a2ad4afe0f144b0,,1270824,96,,evan-feature22,full_rf_a,,1
71,34533,97,,,,1,1,0.0,1.0,1.0,0.0,,0.0-99.0,,0.0,2071.63,0.0,0.25,1.0,0.6465277079999999,1.0,0.67766682,0.0,0.25,True,,5e14f1974a2ad4afe0f144b0,,1282682,97,,evan-feature22,full_rf_a,,1
72,34534,98,,,,SLOW,SLOW,,,1.0,0.0,,0.0-100.0,,-3.0,,0.0,0.26463816,1.0,0.636100213,1.0,0.646048507,0.0,0.265607101,True,,5e14f1974a2ad4afe0f144b0,,1288501,98,,evan-feature22,full_rf_a,,1
73,34535,99,,,,SLOW,SLOW,,,1.0,0.0,,0.0-101.0,,-3.0,,0.0,0.314340707,0.0,0.667795927,1.0,0.613630805,0.0,0.25,True,,5e14f1974a2ad4afe0f144b0,,1294317,99,,evan-feature22,full_rf_a,,0
74,34536,100,,,,2,2,0.0,0.0,1.0,0.0,,0.0-102.0,,0.0,377.195,0.0,0.28685784,0.0,0.6622549529999999,0.0,0.652154117,0.0,0.25,True,,5e14f1974a2ad4afe0f144b0,,1304464,100,,evan-feature22,full_rf_a,,1
75,34537,101,,,,2,2,1.0,0.0,0.0,-1.0,,0.0-103.0,,0.0,233.58,0.0,0.304106554,0.0,0.631289538,1.0,0.707041942,0.0,0.29314237,True,,5e14f1974a2ad4afe0f144b0,,1314475,101,,evan-feature22,full_rf_a,,0
76,34538,102,,,,1,1,1.0,1.0,0.0,-1.0,,0.0-104.0,,-1.0,412.28,1.0,0.304806932,1.0,0.571167718,1.0,0.680472346,0.0,0.25,True,,5e14f1974a2ad4afe0f144b0,,1324664,102,,evan-feature22,full_rf_a,,1
77,34539,103,,,,2,2,1.0,1.0,0.0,-1.0,,0.0-105.0,,-1.0,276.44,0.0,0.37919861,0.0,0.5724849710000001,1.0,0.705638003,1.0,0.30179300600000003,True,,5e14f1974a2ad4afe0f144b0,,1334708,103,,evan-feature22,full_rf_a,,1
78,34540,104,,,,SLOW,SLOW,,,0.0,-1.0,,0.0-106.0,,-3.0,,1.0,0.464277969,1.0,0.554034373,1.0,0.7372627340000001,0.0,0.264699741,True,,5e14f1974a2ad4afe0f144b0,,1340526,104,,evan-feature22,full_rf_a,,1
79,34541,105,,,,2,2,1.0,0.0,1.0,0.0,,0.0-107.0,,1.0,3914.425,0.0,0.465104323,1.0,0.530793115,1.0,0.75,0.0,0.31683071,True,,5e14f1974a2ad4afe0f144b0,,1354213,105,,evan-feature22,full_rf_a,,1
80,34542,106,,,,2,2,1.0,0.0,0.0,-1.0,,0.0-108.0,,0.0,3086.405,0.0,0.465104323,0.0,0.530793115,1.0,0.75,0.0,0.31683071,True,,5e14f1974a2ad4afe0f144b0,,1367073,106,,evan-feature22,full_rf_a,,0
81,34543,107,,,,1,1,1.0,0.0,0.0,-1.0,,0.0-109.0,,0.0,364.665,1.0,0.46833986,0.0,0.570249239,1.0,0.7244472590000001,0.0,0.364114163,True,,5e14f1974a2ad4afe0f144b0,,1377223,107,,evan-feature22,full_rf_a,,1
82,34544,108,,,,2,2,0.0,1.0,0.0,-1.0,,0.0-110.0,,-1.0,916.38,1.0,0.445444024,1.0,0.649673355,0.0,0.6845441290000001,1.0,0.300660449,True,,5e14f1974a2ad4afe0f144b0,,1387923,108,,evan-feature22,full_rf_a,,1
83,34545,109,,,,2,2,1.0,0.0,0.0,-1.0,,0.0-111.0,,0.0,2469.94,0.0,0.39909721299999995,1.0,0.6715179509999999,1.0,0.742310028,0.0,0.35496088299999995,True,,5e14f1974a2ad4afe0f144b0,,1400173,109,,evan-feature22,full_rf_a,,0
84,34546,110,,,,1,1,1.0,0.0,0.0,-1.0,,0.0-112.0,,0.0,520.48,1.0,0.37956104799999996,0.0,0.694725302,1.0,0.7181651309999999,1.0,0.38726906299999997,True,,5e14f1974a2ad4afe0f144b0,,1410473,110,,evan-feature22,full_rf_a,,1
85,34547,111,,,,2,2,1.0,0.0,0.0,-1.0,,0.0-113.0,,0.0,433.74,1.0,0.404995034,1.0,0.724375412,1.0,0.6910946859999999,0.0,0.387187347,True,,5e14f1974a2ad4afe0f144b0,,1420690,111,,evan-feature22,full_rf_a,,1
86,34548,112,,,,2,2,1.0,0.0,0.0,-1.0,,0.0-114.0,,0.0,434.055,0.0,0.461740803,1.0,0.75,1.0,0.75,0.0,0.34872038200000005,True,,5e14f1974a2ad4afe0f144b0,,1430902,112,,evan-feature22,full_rf_a,,0
87,34549,113,,,,SLOW,SLOW,,,1.0,0.0,,0.0-115.0,,-3.0,,0.0,0.43821380600000004,1.0,0.738833273,0.0,0.728286963,1.0,0.399538128,True,,5e14f1974a2ad4afe0f144b0,,1436712,113,,evan-feature22,full_rf_a,,1
88,34550,114,,,,SLOW,SLOW,,,0.0,-1.0,,0.0-116.0,,-3.0,,1.0,0.41709882,0.0,0.736666736,1.0,0.75,0.0,0.389095584,True,,5e14f1974a2ad4afe0f144b0,,1442526,114,,evan-feature22,full_rf_a,,0
89,34551,115,,,,SLOW,SLOW,,,0.0,-1.0,,0.0-117.0,,-3.0,,0.0,0.39749009799999996,1.0,0.744320029,1.0,0.75,0.0,0.363848678,True,,5e14f1974a2ad4afe0f144b0,,1448348,115,,evan-feature22,full_rf_a,,0
90,34552,116,,,,2,2,1.0,0.0,1.0,0.0,,0.0-118.0,,1.0,304.665,0.0,0.392653706,1.0,0.75,1.0,0.75,0.0,0.384386976,True,,5e14f1974a2ad4afe0f144b0,,1458433,116,,evan-feature22,full_rf_a,,1
91,34553,117,,,,1,1,0.0,1.0,1.0,0.0,,0.0-119.0,,0.0,369.815,0.0,0.31190902600000003,1.0,0.75,1.0,0.732413819,0.0,0.413082932,True,,5e14f1974a2ad4afe0f144b0,,1468582,117,,evan-feature22,full_rf_a,,1
92,34554,118,,,,1,1,1.0,1.0,0.0,-1.0,,0.0-120.0,,-1.0,343.91,1.0,0.366917648,1.0,0.740073855,1.0,0.75,0.0,0.352861979,True,,5e14f1974a2ad4afe0f144b0,,1478707,118,,evan-feature22,full_rf_a,,0
93,34555,119,,,,2,2,1.0,0.0,0.0,-1.0,,0.0-121.0,,0.0,1297.81,0.0,0.3645172,1.0,0.721770713,1.0,0.75,0.0,0.404074511,True,,5e14f1974a2ad4afe0f144b0,,1489790,119,,evan-feature22,full_rf_a,,1
94,34556,120,,,,2,2,1.0,0.0,0.0,-1.0,,0.0-122.0,,0.0,2604.325,0.0,0.35205600299999995,1.0,0.68983859,1.0,0.739735447,0.0,0.366895945,True,,5e14f1974a2ad4afe0f144b0,,1502163,120,,evan-feature22,full_rf_a,,0
95,34557,121,,,,1,1,1.0,1.0,0.0,-1.0,,0.0-123.0,,-1.0,903.105,1.0,0.40998722600000004,1.0,0.720859127,1.0,0.673854955,1.0,0.368528541,True,,5e14f1974a2ad4afe0f144b0,,1512854,121,,evan-feature22,full_rf_a,,1
96,34558,122,,,,2,2,1.0,0.0,1.0,0.0,,0.0-124.0,,1.0,577.735,1.0,0.353625316,0.0,0.75,1.0,0.695605473,0.0,0.38303674200000004,True,,5e14f1974a2ad4afe0f144b0,,1523214,122,,evan-feature22,full_rf_a,,1
97,34559,123,,,,1,1,0.0,1.0,0.0,-1.0,,0.0-125.0,,-1.0,349.38,0.0,0.359216989,1.0,0.75,1.0,0.6987915090000001,1.0,0.35169046200000004,True,,5e14f1974a2ad4afe0f144b0,,1533338,123,,evan-feature22,full_rf_a,,1
98,34560,124,,,,2,2,1.0,1.0,1.0,0.0,,0.0-126.0,,1.0,1698.905,0.0,0.35834496899999996,1.0,0.75,1.0,0.707067742,1.0,0.416763636,True,,5e14f1974a2ad4afe0f144b0,,1544814,124,,evan-feature22,full_rf_a,,1
99,34561,125,,,,2,2,1.0,1.0,1.0,0.0,,0.0-127.0,,1.0,1430.215,0.0,0.38741613799999997,1.0,0.7177369570000001,1.0,0.734902455,1.0,0.49438664299999996,True,,5e14f1974a2ad4afe0f144b0,,1556021,125,,evan-feature22,full_rf_a,,0
100,34562,126,,,,SLOW,SLOW,,,0.0,-1.0,,0.0-128.0,,-3.0,,1.0,0.405255252,0.0,0.7300466640000001,0.0,0.7027748070000001,0.0,0.504359668,True,,5e14f1974a2ad4afe0f144b0,,1561837,126,,evan-feature22,full_rf_a,,1
101,34563,127,,,,SLOW,SLOW,,,0.0,-1.0,,0.0-129.0,,-3.0,,1.0,0.40697073,1.0,0.7260142190000001,0.0,0.724461982,0.0,0.522779179,True,,5e14f1974a2ad4afe0f144b0,,1567658,127,,evan-feature22,full_rf_a,,0
102,34564,128,,,,1,1,0.0,1.0,0.0,-1.0,,0.0-130.0,,-1.0,592.45,0.0,0.43906215299999996,1.0,0.7252802340000001,1.0,0.719079934,0.0,0.5712990579999999,True,,5e14f1974a2ad4afe0f144b0,,1578022,128,,evan-feature22,full_rf_a,,1
103,34565,129,,,,2,2,0.0,1.0,0.0,-1.0,,0.0-131.0,,-1.0,467.625,0.0,0.4076705,1.0,0.73280499,0.0,0.681313127,1.0,0.523891346,True,,5e14f1974a2ad4afe0f144b0,,1588268,129,,evan-feature22,full_rf_a,,1
104,34566,130,,,,2,2,1.0,0.0,0.0,-1.0,,0.0-132.0,,0.0,397.555,1.0,0.399102911,1.0,0.730498344,1.0,0.661080239,0.0,0.46742603,True,,5e14f1974a2ad4afe0f144b0,,1598446,130,,evan-feature22,full_rf_a,,0
105,34567,131,,,,1,1,0.0,0.0,1.0,0.0,,0.0-133.0,,0.0,815.96,0.0,0.356477282,0.0,0.712296395,1.0,0.641812684,0.0,0.44868414,True,,5e14f1974a2ad4afe0f144b0,,1609034,131,,evan-feature22,full_rf_a,,1
106,34568,132,,,,2,2,0.0,1.0,0.0,-1.0,,0.0-134.0,,-1.0,580.355,0.0,0.462760722,1.0,0.692349322,0.0,0.700947931,1.0,0.394680266,True,,5e14f1974a2ad4afe0f144b0,,1619403,132,,evan-feature22,full_rf_a,,1
107,34569,133,,,,2,2,1.0,0.0,0.0,-1.0,,0.0-135.0,,0.0,237.23,1.0,0.422306413,0.0,0.718375916,1.0,0.706340917,0.0,0.367787185,True,,5e14f1974a2ad4afe0f144b0,,1629417,133,,evan-feature22,full_rf_a,,0
108,34571,135,,,,1,1,0.0,1.0,0.0,-1.0,,0.0-137.0,,-1.0,1326.02,0.0,0.4582233,1.0,0.643834117,1.0,0.75,0.0,0.39615823299999997,True,,5e14f1974a2ad4afe0f144b0,,1645707,135,,evan-feature22,full_rf_a,,1
109,34572,136,,,,2,2,0.0,0.0,0.0,-1.0,,0.0-138.0,,0.0,300.22,0.0,0.43813437899999996,0.0,0.651283804,0.0,0.729674191,0.0,0.37711048,True,,5e14f1974a2ad4afe0f144b0,,1655782,136,,evan-feature22,full_rf_a,,1
110,34573,137,,,,2,2,1.0,1.0,0.0,-1.0,,0.0-139.0,,-1.0,402.14,1.0,0.471199094,1.0,0.6470010979999999,1.0,0.715008097,1.0,0.410656191,True,,5e14f1974a2ad4afe0f144b0,,1665956,137,,evan-feature22,full_rf_a,,0
111,34574,138,,,,SLOW,SLOW,,,1.0,0.0,,0.0-140.0,,-3.0,,1.0,0.42486406,1.0,0.629771829,1.0,0.6550939960000001,1.0,0.459093873,True,,5e14f1974a2ad4afe0f144b0,,1671776,138,,evan-feature22,full_rf_a,,1
112,34575,139,,,,1,1,0.0,1.0,1.0,0.0,,0.0-141.0,,0.0,358.83,0.0,0.4803197,1.0,0.645842715,1.0,0.6421749920000001,1.0,0.443092151,True,,5e14f1974a2ad4afe0f144b0,,1681913,139,,evan-feature22,full_rf_a,,1
113,34576,140,,,,1,1,1.0,0.0,1.0,0.0,,0.0-142.0,,1.0,516.14,1.0,0.521848997,0.0,0.735801074,1.0,0.6691348460000001,0.0,0.45259351600000003,True,,5e14f1974a2ad4afe0f144b0,,1692206,140,,evan-feature22,full_rf_a,,0
114,34577,141,,,,2,2,1.0,1.0,0.0,-1.0,,0.0-143.0,,-1.0,258.56,1.0,0.49565621299999996,1.0,0.742400847,1.0,0.661512553,1.0,0.483110831,True,,5e14f1974a2ad4afe0f144b0,,1702241,141,,evan-feature22,full_rf_a,,1
115,34578,142,,,,SLOW,SLOW,,,1.0,0.0,,0.0-144.0,,-3.0,,1.0,0.521564361,1.0,0.731078632,1.0,0.6774886809999999,1.0,0.483263956,True,,5e14f1974a2ad4afe0f144b0,,1708054,142,,evan-feature22,full_rf_a,,1
116,34579,143,,,,2,2,1.0,1.0,1.0,0.0,,0.0-145.0,,1.0,1587.965,0.0,0.558893102,1.0,0.719810023,1.0,0.67461031,1.0,0.499349834,True,,5e14f1974a2ad4afe0f144b0,,1719428,143,,evan-feature22,full_rf_a,,1
117,34580,144,,,,1,1,1.0,1.0,0.0,-1.0,,0.0-146.0,,-1.0,1872.975,1.0,0.611031046,1.0,0.75,0.0,0.688072995,0.0,0.5321422729999999,True,,5e14f1974a2ad4afe0f144b0,,1731073,144,,evan-feature22,full_rf_a,,1
118,34581,145,,,,2,2,1.0,1.0,1.0,0.0,,0.0-147.0,,1.0,459.505,1.0,0.633223941,1.0,0.713567728,1.0,0.75,1.0,0.48185314700000004,True,,5e14f1974a2ad4afe0f144b0,,1741313,145,,evan-feature22,full_rf_a,,1
119,34582,146,,,,1,1,1.0,1.0,1.0,0.0,,0.0-148.0,,1.0,403.08,1.0,0.664001694,1.0,0.705509768,1.0,0.75,0.0,0.500211065,True,,5e14f1974a2ad4afe0f144b0,,1751495,146,,evan-feature22,full_rf_a,,1
120,34583,147,,,,2,2,1.0,0.0,0.0,-1.0,,0.0-149.0,,0.0,3242.7,1.0,0.664001694,0.0,0.705509768,1.0,0.75,0.0,0.500211065,True,,5e14f1974a2ad4afe0f144b0,,1764515,147,,evan-feature22,full_rf_a,,1
121,34584,148,,,,2,2,1.0,1.0,0.0,-1.0,,0.0-150.0,,-1.0,258.085,0.0,0.696508041,1.0,0.71066027,1.0,0.717028709,1.0,0.49792991,True,,5e14f1974a2ad4afe0f144b0,,1774564,148,,evan-feature22,full_rf_a,,0
122,34585,149,,,,SLOW,SLOW,,,1.0,0.0,,0.0-151.0,,-3.0,,1.0,0.699883272,1.0,0.75,1.0,0.713543895,1.0,0.496962643,True,,5e14f1974a2ad4afe0f144b0,,1780382,149,,evan-feature22,full_rf_a,,1
123,34586,150,,,,2,2,1.0,0.0,0.0,-1.0,,0.0-152.0,,0.0,451.27,0.0,0.741163419,0.0,0.75,1.0,0.64691024,0.0,0.513858197,True,,5e14f1974a2ad4afe0f144b0,,1790612,150,,evan-feature22,full_rf_a,,1
124,34587,151,,,,SLOW,SLOW,,,1.0,0.0,,0.0-153.0,,-3.0,,1.0,0.75,1.0,0.70816558,0.0,0.594499079,0.0,0.48502124,True,,5e14f1974a2ad4afe0f144b0,,1796425,151,,evan-feature22,full_rf_a,,1
125,34588,152,,,,2,2,1.0,0.0,0.0,-1.0,,0.0-154.0,,0.0,752.01,0.0,0.75,1.0,0.721848901,1.0,0.62197249,0.0,0.48263586399999997,True,,5e14f1974a2ad4afe0f144b0,,1806952,152,,evan-feature22,full_rf_a,,1
126,34589,153,,,,1,1,1.0,1.0,1.0,0.0,,0.0-155.0,,1.0,410.485,1.0,0.75,1.0,0.74813071,1.0,0.584357161,1.0,0.411477782,True,,5e14f1974a2ad4afe0f144b0,,1817146,153,,evan-feature22,full_rf_a,,1
127,34590,154,,,,1,1,1.0,1.0,0.0,-1.0,,0.0-156.0,,-1.0,262.545,1.0,0.75,1.0,0.75,0.0,0.52287236,1.0,0.488290656,True,,5e14f1974a2ad4afe0f144b0,,1827186,154,,evan-feature22,full_rf_a,,0
128,34591,155,,,,1,1,1.0,1.0,0.0,-1.0,,0.0-157.0,,-1.0,316.16,1.0,0.75,1.0,0.75,1.0,0.544321581,0.0,0.53143059,True,,5e14f1974a2ad4afe0f144b0,,1837285,155,,evan-feature22,full_rf_a,,0
129,34592,156,,,,2,2,0.0,1.0,0.0,-1.0,,0.0-158.0,,-1.0,652.985,1.0,0.726754564,1.0,0.75,0.0,0.5129306370000001,1.0,0.530592445,True,,5e14f1974a2ad4afe0f144b0,,1847719,156,,evan-feature22,full_rf_a,,1
130,34593,157,,,,1,1,1.0,1.0,1.0,0.0,,0.0-159.0,,1.0,573.58,1.0,0.75,1.0,0.7392590729999999,0.0,0.479875835,1.0,0.547007051,True,,5e14f1974a2ad4afe0f144b0,,1858081,157,,evan-feature22,full_rf_a,,1
131,34594,158,,,,1,1,1.0,0.0,1.0,0.0,,0.0-160.0,,1.0,358.305,1.0,0.75,0.0,0.7393376979999999,1.0,0.546045419,1.0,0.541267353,True,,5e14f1974a2ad4afe0f144b0,,1868224,158,,evan-feature22,full_rf_a,,0
132,34595,159,,,,2,2,1.0,0.0,1.0,0.0,,0.0-161.0,,1.0,126.37,0.0,0.75,1.0,0.75,1.0,0.485725895,0.0,0.527625395,True,,5e14f1974a2ad4afe0f144b0,,1878134,159,,evan-feature22,full_rf_a,,1
133,34596,160,,,,1,1,1.0,1.0,0.0,-1.0,,0.0-162.0,,-1.0,28.83,1.0,0.75,1.0,0.725087974,1.0,0.488603595,0.0,0.504019206,True,,5e14f1974a2ad4afe0f144b0,,1887948,160,,evan-feature22,full_rf_a,,1
134,34597,161,,,,1,1,1.0,1.0,0.0,-1.0,,0.0-163.0,,-1.0,430.105,1.0,0.745504295,1.0,0.75,0.0,0.452379914,1.0,0.50131194,True,,5e14f1974a2ad4afe0f144b0,,1898158,161,,evan-feature22,full_rf_a,,0
135,34598,162,,,,2,2,0.0,0.0,0.0,-1.0,,0.0-164.0,,0.0,319.68,1.0,0.728513874,1.0,0.75,0.0,0.44125567200000004,0.0,0.531454591,True,,5e14f1974a2ad4afe0f144b0,,1908255,162,,evan-feature22,full_rf_a,,1
136,34599,163,,,,2,2,0.0,0.0,1.0,0.0,,0.0-165.0,,0.0,370.225,1.0,0.73790804,1.0,0.75,0.0,0.413036656,0.0,0.524619035,True,,5e14f1974a2ad4afe0f144b0,,1918400,163,,evan-feature22,full_rf_a,,0
137,34600,164,,,,1,1,1.0,1.0,0.0,-1.0,,0.0-166.0,,-1.0,1112.765,1.0,0.7080961309999999,1.0,0.708666865,1.0,0.431915581,0.0,0.481819489,True,,5e14f1974a2ad4afe0f144b0,,1929297,164,,evan-feature22,full_rf_a,,1
138,34601,165,,,,1,1,0.0,1.0,0.0,-1.0,,0.0-167.0,,-1.0,3695.71,0.0,0.721378003,1.0,0.71605913,1.0,0.36642387,1.0,0.5036739929999999,True,,5e14f1974a2ad4afe0f144b0,,1942773,165,,evan-feature22,full_rf_a,,0
139,34602,166,,,,1,1,1.0,0.0,0.0,-1.0,,0.0-168.0,,0.0,1542.185,1.0,0.7340618959999999,0.0,0.699323252,0.0,0.35298046299999997,1.0,0.511241692,True,,5e14f1974a2ad4afe0f144b0,,1954091,166,,evan-feature22,full_rf_a,,0
140,34603,167,,,,2,2,1.0,1.0,1.0,0.0,,0.0-169.0,,1.0,705.55,1.0,0.75,1.0,0.70412698,1.0,0.380734814,1.0,0.529580116,True,,5e14f1974a2ad4afe0f144b0,,1964586,167,,evan-feature22,full_rf_a,,1
141,34604,168,,,,1,1,1.0,1.0,0.0,-1.0,,0.0-170.0,,-1.0,482.13,1.0,0.7436654909999999,1.0,0.711182751,1.0,0.41125331,0.0,0.49554405,True,,5e14f1974a2ad4afe0f144b0,,1974856,168,,evan-feature22,full_rf_a,,1
142,34605,169,,,,1,1,1.0,1.0,0.0,-1.0,,0.0-171.0,,-1.0,2843.865,1.0,0.731607915,1.0,0.651774583,0.0,0.35688023,1.0,0.45194491600000003,True,,5e14f1974a2ad4afe0f144b0,,1987488,169,,evan-feature22,full_rf_a,,0
143,34606,170,,,,2,2,0.0,1.0,1.0,0.0,,0.0-172.0,,0.0,3343.005,1.0,0.75,1.0,0.75,0.0,0.283145374,1.0,0.528608005,True,,5e14f1974a2ad4afe0f144b0,,2000613,170,,evan-feature22,full_rf_a,,1
144,34607,171,,,,2,2,0.0,1.0,1.0,0.0,,0.0-173.0,,0.0,304.97,1.0,0.7491416890000001,0.0,0.7423785959999999,0.0,0.29135870399999997,1.0,0.498888318,True,,5e14f1974a2ad4afe0f144b0,,2010691,171,,evan-feature22,full_rf_a,,0
145,34608,172,,,,1,1,0.0,1.0,1.0,0.0,,0.0-174.0,,0.0,2985.48,0.0,0.708569387,1.0,0.717682277,1.0,0.294421699,1.0,0.493838163,True,,5e14f1974a2ad4afe0f144b0,,2023461,172,,evan-feature22,full_rf_a,,1
146,34609,173,,,,2,2,1.0,0.0,0.0,-1.0,,0.0-175.0,,0.0,2882.64,0.0,0.75,0.0,0.7383382159999999,1.0,0.356098707,0.0,0.442533405,True,,5e14f1974a2ad4afe0f144b0,,2036117,173,,evan-feature22,full_rf_a,,1
147,34610,174,,,,2,2,1.0,0.0,0.0,-1.0,,0.0-176.0,,0.0,342.19,1.0,0.744527075,1.0,0.75,1.0,0.334127506,0.0,0.393165805,True,,5e14f1974a2ad4afe0f144b0,,2046240,174,,evan-feature22,full_rf_a,,0
148,34611,175,,,,2,2,0.0,0.0,0.0,-1.0,,0.0-177.0,,0.0,430.98,1.0,0.75,0.0,0.75,0.0,0.33571021799999995,0.0,0.350393962,True,,5e14f1974a2ad4afe0f144b0,,2056449,175,,evan-feature22,full_rf_a,,0
149,34612,176,,,,2,2,0.0,0.0,0.0,-1.0,,0.0-178.0,,0.0,353.56,1.0,0.75,1.0,0.75,0.0,0.313628297,0.0,0.36349657399999996,True,,5e14f1974a2ad4afe0f144b0,,2066584,176,,evan-feature22,full_rf_a,,0
150,34613,177,,,,2,2,1.0,0.0,1.0,0.0,,0.0-179.0,,1.0,455.835,1.0,0.75,1.0,0.734284182,1.0,0.262667667,0.0,0.380199119,True,,5e14f1974a2ad4afe0f144b0,,2076823,177,,evan-feature22,full_rf_a,,0
151,34614,178,,,,2,2,0.0,0.0,0.0,-1.0,,0.0-180.0,,0.0,387.41,0.0,0.75,1.0,0.75,0.0,0.25,0.0,0.394494013,True,,5e14f1974a2ad4afe0f144b0,,2086995,178,,evan-feature22,full_rf_a,,0
152,34615,179,,,,1,1,0.0,0.0,1.0,0.0,,0.0-181.0,,0.0,336.595,0.0,0.722298145,0.0,0.7357822340000001,0.0,0.25,1.0,0.319142121,True,,5e14f1974a2ad4afe0f144b0,,2097097,179,,evan-feature22,full_rf_a,,1
153,34616,180,,,,2,2,0.0,0.0,1.0,0.0,,0.0-182.0,,0.0,430.665,1.0,0.73149275,0.0,0.724276446,0.0,0.305856907,0.0,0.281315057,True,,5e14f1974a2ad4afe0f144b0,,2107305,180,,evan-feature22,full_rf_a,,1
154,34617,181,,,,2,2,0.0,0.0,0.0,-1.0,,0.0-183.0,,0.0,369.17,1.0,0.7458732690000001,0.0,0.7336382459999999,0.0,0.272571964,0.0,0.266021999,True,,5e14f1974a2ad4afe0f144b0,,2117447,181,,evan-feature22,full_rf_a,,0
155,34618,182,,,,1,1,0.0,0.0,0.0,-1.0,,0.0-184.0,,0.0,1250.245,0.0,0.705579037,0.0,0.720778292,0.0,0.320238144,0.0,0.30971744,True,,5e14f1974a2ad4afe0f144b0,,2128473,182,,evan-feature22,full_rf_a,,1
156,34619,183,,,,2,2,1.0,1.0,0.0,-1.0,,0.0-185.0,,-1.0,378.29,1.0,0.700425648,1.0,0.7198784009999999,1.0,0.272590393,1.0,0.304182931,True,,5e14f1974a2ad4afe0f144b0,,2138633,183,,evan-feature22,full_rf_a,,1
157,34620,184,,,,2,2,0.0,0.0,0.0,-1.0,,0.0-186.0,,0.0,2229.085,1.0,0.735590785,1.0,0.722714973,0.0,0.25,0.0,0.323421091,True,,5e14f1974a2ad4afe0f144b0,,2150637,184,,evan-feature22,full_rf_a,,0
158,34621,185,,,,1,1,1.0,0.0,0.0,-1.0,,0.0-187.0,,0.0,398.79,1.0,0.724807662,0.0,0.63146213,1.0,0.36836492600000004,0.0,0.34592153299999995,True,,5e14f1974a2ad4afe0f144b0,,2160816,185,,evan-feature22,full_rf_a,,1
159,34622,186,,,,1,1,1.0,0.0,0.0,-1.0,,0.0-188.0,,0.0,480.315,1.0,0.7352796909999999,0.0,0.555111392,0.0,0.36003922,1.0,0.31433779999999995,True,,5e14f1974a2ad4afe0f144b0,,2171076,186,,evan-feature22,full_rf_a,,0
160,34623,187,notice,,,,,,,,,,0.0-189.0,"{""Q0"":""no""}",,13096.0,,,,,,,,,True,,5e14f1974a2ad4afe0f144b0,,2184177,187,Q,survey-text,full_rf_a,,1
161,34624,188,track1,,[1],,,,,,,,0.0-190.0,"{""Q0"":""no""}",,5009.0,,,,,,,,,True,,5e14f1974a2ad4afe0f144b0,,2189202,188,Q,evan-quiz,full_rf_a,,1
162,34625,189,track2,,[0],,,,,,,,0.0-191.0,"{""Q0"":""yes""}",,12550.0,,,,,,,,,True,,5e14f1974a2ad4afe0f144b0,,2201759,189,Q,evan-quiz,full_rf_a,,1
163,34626,190,strat,,,,,,,,,,0.0-192.0,"{""Q0"":""two G to every J""}",,27800.0,,,,,,,,,True,,5e14f1974a2ad4afe0f144b0,,2229570,190,Q,survey-text,full_rf_a,,1
