,index,Unnamed: 0,Q_name,button_pressed,choice_idxs,chosen_pos,chosen_state,chosen_state_f_1_outcome,chosen_state_f_2_outcome,f_1_reward,f_2_reward,incor_questions,internal_node_id,responses,reward_received,rt,s_1_f_1_outcome,s_1_f_1_prob,s_1_f_2_outcome,s_1_f_2_prob,s_2_f_1_outcome,s_2_f_1_prob,s_2_f_2_outcome,s_2_f_2_prob,safe_first,stimulus,subjectID,success,time_elapsed,trial_index,trial_num,trial_type,version,view_history,switching
0,22692,35,,,,1,1,1.0,1.0,-1.0,0.0,,0.0-27.0,,-1.0,2159.125,1.0,0.6,1.0,0.6,0.0,0.4,0.0,0.4,False,,5b66204382c4fa0001eabacf,,1840558,35,,evan-feature22,full_pf_b,,0
1,22693,36,,,,2,2,0.0,0.0,-1.0,0.0,,0.0-28.0,,0.0,1966.52,1.0,0.608053294,1.0,0.63424552,0.0,0.397152172,0.0,0.347069101,False,,5b66204382c4fa0001eabacf,,1852338,36,,evan-feature22,full_pf_b,,1
2,22694,37,,,,1,1,1.0,1.0,-1.0,0.0,,0.0-29.0,,-1.0,1210.81,1.0,0.642237155,1.0,0.648566321,1.0,0.389407674,0.0,0.285525717,False,,5b66204382c4fa0001eabacf,,1863345,37,,evan-feature22,full_pf_b,,1
3,22695,38,,,,1,1,0.0,1.0,-1.0,0.0,,0.0-30.0,,0.0,655.415,0.0,0.661086576,1.0,0.630492543,0.0,0.399058924,0.0,0.25,False,,5b66204382c4fa0001eabacf,,1873815,38,,evan-feature22,full_pf_b,,0
4,22696,39,,,,2,2,1.0,0.0,0.0,1.0,,0.0-31.0,,0.0,325.22,1.0,0.631324137,0.0,0.6269842929999999,1.0,0.38734784299999997,0.0,0.25,False,,5b66204382c4fa0001eabacf,,1883956,39,,evan-feature22,full_pf_b,,1
5,22697,40,,,,1,1,0.0,0.0,0.0,1.0,,0.0-32.0,,0.0,805.125,0.0,0.6381991370000001,0.0,0.68987999,0.0,0.384107265,1.0,0.271332943,False,,5b66204382c4fa0001eabacf,,1894591,40,,evan-feature22,full_pf_b,,1
6,22698,41,,,,1,1,1.0,1.0,-1.0,0.0,,0.0-33.0,,-1.0,432.945,1.0,0.66034901,1.0,0.742641349,0.0,0.360225629,1.0,0.25,False,,5b66204382c4fa0001eabacf,,1904852,41,,evan-feature22,full_pf_b,,0
7,22699,42,,,,2,2,1.0,1.0,-1.0,0.0,,0.0-34.0,,-1.0,524.97,1.0,0.638612418,1.0,0.75,1.0,0.367273939,1.0,0.25,False,,5b66204382c4fa0001eabacf,,1915217,42,,evan-feature22,full_pf_b,,1
8,22700,43,,,,1,1,0.0,1.0,0.0,1.0,,0.0-35.0,,1.0,1856.765,0.0,0.624340629,1.0,0.75,0.0,0.425829545,0.0,0.25,False,,5b66204382c4fa0001eabacf,,1926892,43,,evan-feature22,full_pf_b,,1
9,22701,44,,,,1,1,1.0,0.0,0.0,1.0,,0.0-36.0,,0.0,1929.63,1.0,0.621999804,0.0,0.75,0.0,0.368609357,0.0,0.25,False,,5b66204382c4fa0001eabacf,,1938636,44,,evan-feature22,full_pf_b,,0
10,22702,45,,,,1,1,1.0,1.0,-1.0,0.0,,0.0-37.0,,-1.0,843.25,1.0,0.62666403,1.0,0.75,0.0,0.311151498,0.0,0.25,False,,5b66204382c4fa0001eabacf,,1949274,45,,evan-feature22,full_pf_b,,0
11,22703,46,,,,2,2,0.0,0.0,0.0,1.0,,0.0-38.0,,0.0,966.815,1.0,0.6819650009999999,0.0,0.75,0.0,0.310763048,0.0,0.25,False,,5b66204382c4fa0001eabacf,,1960038,46,,evan-feature22,full_pf_b,,1
12,22704,47,,,,1,1,1.0,0.0,-1.0,0.0,,0.0-39.0,,-1.0,1053.34,1.0,0.740626951,0.0,0.75,0.0,0.25,0.0,0.25,False,,5b66204382c4fa0001eabacf,,1970898,47,,evan-feature22,full_pf_b,,1
13,22705,48,,,,1,1,1.0,1.0,-1.0,0.0,,0.0-40.0,,-1.0,306.81,1.0,0.739599242,1.0,0.742034978,0.0,0.25397114600000004,0.0,0.25,False,,5b66204382c4fa0001eabacf,,1981033,48,,evan-feature22,full_pf_b,,0
14,22706,49,,,,SLOW,SLOW,,,-1.0,0.0,,0.0-41.0,,-3.0,,1.0,0.732341315,1.0,0.72735643,0.0,0.25,1.0,0.25,False,,5b66204382c4fa0001eabacf,,1986874,49,,evan-feature22,full_pf_b,,1
15,22707,50,,,,1,1,1.0,1.0,-1.0,0.0,,0.0-42.0,,-1.0,3808.79,1.0,0.7062287770000001,1.0,0.75,1.0,0.29002151,0.0,0.288256649,False,,5b66204382c4fa0001eabacf,,2000489,50,,evan-feature22,full_pf_b,,1
16,22708,51,,,,2,2,0.0,1.0,-1.0,0.0,,0.0-43.0,,0.0,404.225,0.0,0.7086029209999999,1.0,0.75,0.0,0.274129113,1.0,0.262851608,False,,5b66204382c4fa0001eabacf,,2010707,51,,evan-feature22,full_pf_b,,1
17,22709,52,,,,2,2,0.0,0.0,-1.0,0.0,,0.0-44.0,,0.0,1867.11,1.0,0.669189651,1.0,0.727614338,0.0,0.298444036,0.0,0.296944518,False,,5b66204382c4fa0001eabacf,,2022361,52,,evan-feature22,full_pf_b,,0
18,22710,53,,,,2,2,0.0,0.0,-1.0,0.0,,0.0-45.0,,0.0,914.195,0.0,0.6819912929999999,1.0,0.7179434290000001,0.0,0.265003961,0.0,0.28157921199999997,False,,5b66204382c4fa0001eabacf,,2033092,53,,evan-feature22,full_pf_b,,0
19,22711,54,,,,2,2,0.0,0.0,0.0,1.0,,0.0-46.0,,0.0,398.24,1.0,0.665275002,1.0,0.723065271,0.0,0.260414971,0.0,0.30973870000000003,False,,5b66204382c4fa0001eabacf,,2043295,54,,evan-feature22,full_pf_b,,0
20,22712,55,,,,SLOW,SLOW,,,-1.0,0.0,,0.0-47.0,,-3.0,,1.0,0.6660593260000001,1.0,0.728032907,0.0,0.30922817,0.0,0.338778608,False,,5b66204382c4fa0001eabacf,,2049121,55,,evan-feature22,full_pf_b,,1
21,22713,56,,,,2,2,0.0,0.0,-1.0,0.0,,0.0-48.0,,0.0,555.435,0.0,0.702068785,1.0,0.6528750879999999,0.0,0.287329608,0.0,0.35789613200000003,False,,5b66204382c4fa0001eabacf,,2059490,56,,evan-feature22,full_pf_b,,1
22,22714,57,,,,2,2,0.0,0.0,-1.0,0.0,,0.0-49.0,,0.0,270.765,1.0,0.651939787,0.0,0.636725589,0.0,0.284834488,0.0,0.358563756,False,,5b66204382c4fa0001eabacf,,2069579,57,,evan-feature22,full_pf_b,,0
23,22715,58,,,,1,1,1.0,1.0,0.0,1.0,,0.0-50.0,,1.0,499.545,1.0,0.67573929,1.0,0.612550049,1.0,0.37130387600000003,1.0,0.383542402,False,,5b66204382c4fa0001eabacf,,2079917,58,,evan-feature22,full_pf_b,,1
24,22716,59,,,,2,2,0.0,0.0,0.0,1.0,,0.0-51.0,,0.0,344.54,0.0,0.620753801,1.0,0.60513644,0.0,0.385529434,0.0,0.340361743,False,,5b66204382c4fa0001eabacf,,2090057,59,,evan-feature22,full_pf_b,,1
25,22717,60,,,,2,2,0.0,0.0,0.0,1.0,,0.0-52.0,,0.0,866.265,1.0,0.673564893,1.0,0.672437924,0.0,0.292955382,0.0,0.337633795,False,,5b66204382c4fa0001eabacf,,2100747,60,,evan-feature22,full_pf_b,,0
26,22718,61,,,,2,2,0.0,0.0,-1.0,0.0,,0.0-53.0,,0.0,686.615,1.0,0.6749427,1.0,0.724197502,0.0,0.32391132100000003,0.0,0.350995264,False,,5b66204382c4fa0001eabacf,,2111235,61,,evan-feature22,full_pf_b,,0
27,22719,62,,,,2,2,0.0,0.0,-1.0,0.0,,0.0-54.0,,0.0,300.31,1.0,0.6940159379999999,1.0,0.75,0.0,0.31710554399999996,0.0,0.413450341,False,,5b66204382c4fa0001eabacf,,2121364,62,,evan-feature22,full_pf_b,,0
28,22720,63,,,,1,1,1.0,0.0,-1.0,0.0,,0.0-55.0,,-1.0,337.37,1.0,0.6916018270000001,0.0,0.69001187,1.0,0.261817804,0.0,0.40038635,False,,5b66204382c4fa0001eabacf,,2131507,63,,evan-feature22,full_pf_b,,1
29,22721,64,,,,1,1,0.0,1.0,-1.0,0.0,,0.0-56.0,,0.0,2246.31,0.0,0.641061544,1.0,0.71337992,0.0,0.277296461,1.0,0.47372791700000005,False,,5b66204382c4fa0001eabacf,,2143564,64,,evan-feature22,full_pf_b,,0
30,22722,65,,,,2,2,1.0,0.0,-1.0,0.0,,0.0-57.0,,-1.0,3029.2,0.0,0.6082438520000001,0.0,0.708471106,1.0,0.28745137,0.0,0.564174476,False,,5b66204382c4fa0001eabacf,,2156396,65,,evan-feature22,full_pf_b,,1
31,22723,66,,,,2,2,1.0,0.0,-1.0,0.0,,0.0-58.0,,-1.0,605.565,1.0,0.6051112120000001,1.0,0.7118147229999999,1.0,0.272390611,0.0,0.5595149939999999,False,,5b66204382c4fa0001eabacf,,2166824,66,,evan-feature22,full_pf_b,,0
32,22724,67,,,,2,2,1.0,1.0,-1.0,0.0,,0.0-59.0,,-1.0,558.625,0.0,0.582420852,1.0,0.635867583,1.0,0.31089574,1.0,0.5227206520000001,False,,5b66204382c4fa0001eabacf,,2177238,67,,evan-feature22,full_pf_b,,0
33,22725,68,,,,1,1,0.0,1.0,0.0,1.0,,0.0-60.0,,1.0,377.875,0.0,0.623195575,1.0,0.655026044,0.0,0.25,0.0,0.560387538,False,,5b66204382c4fa0001eabacf,,2187418,68,,evan-feature22,full_pf_b,,1
34,22726,69,,,,2,2,1.0,1.0,-1.0,0.0,,0.0-61.0,,-1.0,320.335,0.0,0.601889598,1.0,0.678198724,1.0,0.25,1.0,0.559922936,False,,5b66204382c4fa0001eabacf,,2197568,69,,evan-feature22,full_pf_b,,1
35,22727,70,,,,1,1,0.0,0.0,-1.0,0.0,,0.0-62.0,,0.0,1467.445,0.0,0.601259914,0.0,0.704681482,0.0,0.33908969299999997,1.0,0.505003715,False,,5b66204382c4fa0001eabacf,,2208860,70,,evan-feature22,full_pf_b,,1
36,22728,71,,,,2,2,0.0,0.0,-1.0,0.0,,0.0-63.0,,0.0,424.75,1.0,0.59645454,1.0,0.710437172,0.0,0.327441879,0.0,0.391749613,False,,5b66204382c4fa0001eabacf,,2219107,71,,evan-feature22,full_pf_b,,1
37,22729,72,,,,2,2,0.0,0.0,-1.0,0.0,,0.0-64.0,,0.0,400.24,0.0,0.529473,0.0,0.636758527,0.0,0.301338063,0.0,0.365661481,False,,5b66204382c4fa0001eabacf,,2229313,72,,evan-feature22,full_pf_b,,0
38,22730,73,,,,2,2,1.0,0.0,0.0,1.0,,0.0-65.0,,0.0,1084.75,0.0,0.541657162,1.0,0.634541962,1.0,0.343535366,0.0,0.371763742,False,,5b66204382c4fa0001eabacf,,2240230,73,,evan-feature22,full_pf_b,,0
39,22731,74,,,,SLOW,SLOW,,,-1.0,0.0,,0.0-66.0,,-3.0,,1.0,0.5707533260000001,1.0,0.589121171,0.0,0.326428396,0.0,0.43961622899999997,False,,5b66204382c4fa0001eabacf,,2246065,74,,evan-feature22,full_pf_b,,1
40,22732,75,,,,1,1,0.0,1.0,-1.0,0.0,,0.0-67.0,,0.0,752.79,0.0,0.5707533260000001,1.0,0.589121171,1.0,0.326428396,1.0,0.43961622899999997,False,,5b66204382c4fa0001eabacf,,2256657,75,,evan-feature22,full_pf_b,,1
41,22733,76,,,,2,2,0.0,1.0,-1.0,0.0,,0.0-68.0,,0.0,3731.655,0.0,0.506271295,0.0,0.641775594,0.0,0.37149690700000004,1.0,0.404330166,False,,5b66204382c4fa0001eabacf,,2270194,76,,evan-feature22,full_pf_b,,1
42,22734,77,,,,2,2,0.0,0.0,0.0,1.0,,0.0-69.0,,0.0,1528.145,1.0,0.455642565,0.0,0.623605825,0.0,0.358753011,0.0,0.346174041,False,,5b66204382c4fa0001eabacf,,2281530,77,,evan-feature22,full_pf_b,,0
43,22735,78,,,,2,2,0.0,0.0,0.0,1.0,,0.0-70.0,,0.0,261.255,1.0,0.483677308,0.0,0.5904681070000001,0.0,0.402218411,0.0,0.35344697,False,,5b66204382c4fa0001eabacf,,2291591,78,,evan-feature22,full_pf_b,,0
44,22736,79,,,,1,1,0.0,1.0,0.0,1.0,,0.0-71.0,,1.0,1500.49,0.0,0.394210977,1.0,0.558925494,0.0,0.540052017,1.0,0.35182128700000004,False,,5b66204382c4fa0001eabacf,,2302937,79,,evan-feature22,full_pf_b,,1
45,22737,80,,,,2,2,0.0,1.0,-1.0,0.0,,0.0-72.0,,0.0,1556.56,0.0,0.382300414,0.0,0.577670603,0.0,0.607608448,1.0,0.378261578,False,,5b66204382c4fa0001eabacf,,2314350,80,,evan-feature22,full_pf_b,,1
46,22738,81,,,,SLOW,SLOW,,,-1.0,0.0,,0.0-73.0,,-3.0,,0.0,0.357596762,1.0,0.5929076529999999,1.0,0.6579790010000001,0.0,0.401326777,False,,5b66204382c4fa0001eabacf,,2320195,81,,evan-feature22,full_pf_b,,1
47,22739,82,,,,1,1,0.0,0.0,-1.0,0.0,,0.0-74.0,,0.0,353.415,0.0,0.362033495,0.0,0.582308608,1.0,0.649195052,1.0,0.355158505,False,,5b66204382c4fa0001eabacf,,2330338,82,,evan-feature22,full_pf_b,,1
48,22740,83,,,,1,1,0.0,1.0,-1.0,0.0,,0.0-75.0,,0.0,1663.465,0.0,0.369620635,1.0,0.669100864,1.0,0.706059111,1.0,0.362516241,False,,5b66204382c4fa0001eabacf,,2341820,83,,evan-feature22,full_pf_b,,0
49,22741,84,,,,1,1,1.0,1.0,-1.0,0.0,,0.0-76.0,,-1.0,235.035,1.0,0.41477751399999996,1.0,0.7284416779999999,1.0,0.7182656940000001,0.0,0.36228040899999997,False,,5b66204382c4fa0001eabacf,,2351846,84,,evan-feature22,full_pf_b,,0
50,22742,85,,,,1,1,1.0,0.0,0.0,1.0,,0.0-77.0,,0.0,274.745,1.0,0.37675460299999997,0.0,0.703250285,0.0,0.75,0.0,0.461979164,False,,5b66204382c4fa0001eabacf,,2361944,85,,evan-feature22,full_pf_b,,0
51,22743,86,,,,2,2,1.0,1.0,0.0,1.0,,0.0-78.0,,1.0,987.065,1.0,0.398716075,1.0,0.6723864890000001,1.0,0.674153818,1.0,0.519029516,False,,5b66204382c4fa0001eabacf,,2372769,86,,evan-feature22,full_pf_b,,1
52,22744,87,,,,2,2,1.0,0.0,-1.0,0.0,,0.0-79.0,,-1.0,1315.115,1.0,0.34677856700000004,1.0,0.69057175,1.0,0.6822438540000001,0.0,0.477292237,False,,5b66204382c4fa0001eabacf,,2383872,87,,evan-feature22,full_pf_b,,0
53,22745,88,,,,1,1,0.0,1.0,0.0,1.0,,0.0-80.0,,1.0,1616.75,0.0,0.28580469199999997,1.0,0.68408818,0.0,0.684207565,1.0,0.49780448299999996,False,,5b66204382c4fa0001eabacf,,2395314,88,,evan-feature22,full_pf_b,,1
54,22747,90,,,,2,2,0.0,1.0,-1.0,0.0,,0.0-82.0,,0.0,1842.075,1.0,0.25,1.0,0.7405808970000001,0.0,0.679614108,1.0,0.436436964,False,,5b66204382c4fa0001eabacf,,2453141,90,,evan-feature22,full_pf_b,,1
55,22748,91,,,,1,1,1.0,0.0,0.0,1.0,,0.0-83.0,,0.0,270.695,1.0,0.29890393,0.0,0.730505706,1.0,0.7328203320000001,0.0,0.439256938,False,,5b66204382c4fa0001eabacf,,2463227,91,,evan-feature22,full_pf_b,,1
56,22749,92,,,,2,2,1.0,1.0,-1.0,0.0,,0.0-84.0,,-1.0,676.385,1.0,0.326762398,1.0,0.7148059609999999,1.0,0.75,1.0,0.44389608799999997,False,,5b66204382c4fa0001eabacf,,2473735,92,,evan-feature22,full_pf_b,,1
57,22750,93,,,,1,1,0.0,1.0,-1.0,0.0,,0.0-85.0,,0.0,579.24,0.0,0.295168515,1.0,0.739760854,0.0,0.719947008,0.0,0.35277284600000003,False,,5b66204382c4fa0001eabacf,,2484115,93,,evan-feature22,full_pf_b,,1
58,22751,94,,,,2,2,1.0,0.0,-1.0,0.0,,0.0-86.0,,-1.0,499.92,0.0,0.25,1.0,0.70781482,1.0,0.75,0.0,0.286095925,False,,5b66204382c4fa0001eabacf,,2494471,94,,evan-feature22,full_pf_b,,1
59,22752,95,,,,2,2,1.0,0.0,0.0,1.0,,0.0-87.0,,0.0,2464.885,0.0,0.25638190899999996,0.0,0.704088163,1.0,0.75,0.0,0.26872601399999996,False,,5b66204382c4fa0001eabacf,,2506747,95,,evan-feature22,full_pf_b,,0
60,22753,96,,,,2,2,1.0,0.0,0.0,1.0,,0.0-88.0,,0.0,3593.93,0.0,0.271581126,0.0,0.669760107,1.0,0.733896663,0.0,0.273244572,False,,5b66204382c4fa0001eabacf,,2520160,96,,evan-feature22,full_pf_b,,0
61,22754,97,,,,2,2,0.0,0.0,0.0,1.0,,0.0-89.0,,0.0,3646.4,0.0,0.257144401,1.0,0.600575706,0.0,0.74488122,0.0,0.25,False,,5b66204382c4fa0001eabacf,,2533639,97,,evan-feature22,full_pf_b,,0
62,22755,98,,,,SLOW,SLOW,,,-1.0,0.0,,0.0-90.0,,-3.0,,1.0,0.25,1.0,0.616870026,1.0,0.723610234,0.0,0.25,False,,5b66204382c4fa0001eabacf,,2539472,98,,evan-feature22,full_pf_b,,1
63,22756,99,,,,2,2,1.0,0.0,0.0,1.0,,0.0-91.0,,0.0,415.2,1.0,0.25,0.0,0.583540187,1.0,0.7041042559999999,0.0,0.285961995,False,,5b66204382c4fa0001eabacf,,2549707,99,,evan-feature22,full_pf_b,,1
64,22757,100,,,,2,2,1.0,1.0,-1.0,0.0,,0.0-92.0,,-1.0,2151.89,0.0,0.27254536,1.0,0.53875765,1.0,0.693783448,1.0,0.284961652,False,,5b66204382c4fa0001eabacf,,2561662,100,,evan-feature22,full_pf_b,,0
65,22758,101,,,,2,2,1.0,0.0,0.0,1.0,,0.0-93.0,,0.0,1306.435,0.0,0.25,0.0,0.548431252,1.0,0.734221895,0.0,0.279445214,False,,5b66204382c4fa0001eabacf,,2572824,101,,evan-feature22,full_pf_b,,0
66,22759,102,,,,2,2,0.0,1.0,-1.0,0.0,,0.0-94.0,,0.0,3400.74,0.0,0.258640684,0.0,0.545878066,0.0,0.725245965,1.0,0.31487537,False,,5b66204382c4fa0001eabacf,,2586074,102,,evan-feature22,full_pf_b,,0
67,22760,103,,,,2,2,0.0,1.0,-1.0,0.0,,0.0-95.0,,0.0,215.875,1.0,0.251103711,0.0,0.5776290629999999,0.0,0.696320133,1.0,0.317831047,False,,5b66204382c4fa0001eabacf,,2596097,103,,evan-feature22,full_pf_b,,0
68,22761,104,,,,2,2,1.0,0.0,-1.0,0.0,,0.0-96.0,,-1.0,425.815,0.0,0.276630292,1.0,0.617329858,1.0,0.73838088,0.0,0.261471582,False,,5b66204382c4fa0001eabacf,,2606323,104,,evan-feature22,full_pf_b,,0
69,22762,105,,,,1,1,0.0,1.0,0.0,1.0,,0.0-97.0,,1.0,219.165,0.0,0.297716424,1.0,0.618863717,0.0,0.7402358259999999,0.0,0.262600834,False,,5b66204382c4fa0001eabacf,,2616362,105,,evan-feature22,full_pf_b,,1
70,22763,106,,,,SLOW,SLOW,,,-1.0,0.0,,0.0-98.0,,-3.0,,0.0,0.290935512,0.0,0.695370945,1.0,0.706570507,0.0,0.280030553,False,,5b66204382c4fa0001eabacf,,2622192,106,,evan-feature22,full_pf_b,,1
71,22764,107,,,,1,1,1.0,0.0,-1.0,0.0,,0.0-99.0,,-1.0,455.455,1.0,0.25,0.0,0.6465277079999999,0.0,0.67766682,0.0,0.25,False,,5b66204382c4fa0001eabacf,,2632454,107,,evan-feature22,full_pf_b,,1
72,22765,108,,,,2,2,1.0,1.0,-1.0,0.0,,0.0-100.0,,-1.0,268.655,0.0,0.26463816,1.0,0.636100213,1.0,0.646048507,1.0,0.265607101,False,,5b66204382c4fa0001eabacf,,2642558,108,,evan-feature22,full_pf_b,,1
73,22766,109,,,,2,2,1.0,0.0,-1.0,0.0,,0.0-101.0,,-1.0,2802.715,1.0,0.314340707,1.0,0.667795927,1.0,0.613630805,0.0,0.25,False,,5b66204382c4fa0001eabacf,,2655174,109,,evan-feature22,full_pf_b,,0
74,22767,110,,,,2,2,1.0,0.0,-1.0,0.0,,0.0-102.0,,-1.0,355.635,0.0,0.28685784,1.0,0.6622549529999999,1.0,0.652154117,0.0,0.25,False,,5b66204382c4fa0001eabacf,,2665333,110,,evan-feature22,full_pf_b,,0
75,22768,111,,,,2,2,0.0,1.0,0.0,1.0,,0.0-103.0,,1.0,496.405,1.0,0.304106554,1.0,0.631289538,0.0,0.707041942,1.0,0.29314237,False,,5b66204382c4fa0001eabacf,,2675662,111,,evan-feature22,full_pf_b,,0
76,22769,112,,,,1,1,0.0,1.0,0.0,1.0,,0.0-104.0,,1.0,845.62,0.0,0.304806932,1.0,0.571167718,1.0,0.680472346,1.0,0.25,False,,5b66204382c4fa0001eabacf,,2686314,112,,evan-feature22,full_pf_b,,1
77,22770,113,,,,2,2,0.0,1.0,0.0,1.0,,0.0-105.0,,1.0,387.655,0.0,0.37919861,0.0,0.5724849710000001,0.0,0.705638003,1.0,0.30179300600000003,False,,5b66204382c4fa0001eabacf,,2696514,113,,evan-feature22,full_pf_b,,1
78,22771,114,,,,2,2,1.0,0.0,0.0,1.0,,0.0-106.0,,0.0,1180.715,1.0,0.464277969,0.0,0.554034373,1.0,0.7372627340000001,0.0,0.264699741,False,,5b66204382c4fa0001eabacf,,2707514,114,,evan-feature22,full_pf_b,,0
79,22772,115,,,,2,2,0.0,0.0,-1.0,0.0,,0.0-107.0,,0.0,243.28,0.0,0.465104323,0.0,0.530793115,0.0,0.75,0.0,0.31683071,False,,5b66204382c4fa0001eabacf,,2717565,115,,evan-feature22,full_pf_b,,0
80,22773,116,,,,1,1,1.0,1.0,0.0,1.0,,0.0-108.0,,1.0,303.515,1.0,0.465104323,1.0,0.530793115,1.0,0.75,1.0,0.31683071,False,,5b66204382c4fa0001eabacf,,2727711,116,,evan-feature22,full_pf_b,,1
81,22774,117,,,,2,2,1.0,1.0,0.0,1.0,,0.0-109.0,,1.0,312.625,0.0,0.46833986,0.0,0.570249239,1.0,0.7244472590000001,1.0,0.364114163,False,,5b66204382c4fa0001eabacf,,2737864,117,,evan-feature22,full_pf_b,,1
82,22775,118,,,,2,2,0.0,0.0,0.0,1.0,,0.0-110.0,,0.0,351.065,0.0,0.445444024,1.0,0.649673355,0.0,0.6845441290000001,0.0,0.300660449,False,,5b66204382c4fa0001eabacf,,2748006,118,,evan-feature22,full_pf_b,,0
83,22776,119,,,,1,1,1.0,1.0,0.0,1.0,,0.0-111.0,,1.0,722.915,1.0,0.39909721299999995,1.0,0.6715179509999999,1.0,0.742310028,0.0,0.35496088299999995,False,,5b66204382c4fa0001eabacf,,2758551,119,,evan-feature22,full_pf_b,,1
84,22777,120,,,,2,2,1.0,1.0,0.0,1.0,,0.0-112.0,,1.0,3140.475,0.0,0.37956104799999996,1.0,0.694725302,1.0,0.7181651309999999,1.0,0.38726906299999997,False,,5b66204382c4fa0001eabacf,,2771542,120,,evan-feature22,full_pf_b,,1
85,22778,121,,,,2,2,0.0,0.0,0.0,1.0,,0.0-113.0,,0.0,543.35,0.0,0.404995034,1.0,0.724375412,0.0,0.6910946859999999,0.0,0.387187347,False,,5b66204382c4fa0001eabacf,,2781893,121,,evan-feature22,full_pf_b,,0
86,22779,122,,,,SLOW,SLOW,,,0.0,1.0,,0.0-114.0,,-3.0,,1.0,0.461740803,1.0,0.75,1.0,0.75,0.0,0.34872038200000005,False,,5b66204382c4fa0001eabacf,,2787713,122,,evan-feature22,full_pf_b,,1
87,22780,123,,,,2,2,1.0,1.0,-1.0,0.0,,0.0-115.0,,-1.0,325.975,0.0,0.43821380600000004,1.0,0.738833273,1.0,0.728286963,1.0,0.399538128,False,,5b66204382c4fa0001eabacf,,2797887,123,,evan-feature22,full_pf_b,,1
88,22781,124,,,,1,1,0.0,1.0,0.0,1.0,,0.0-116.0,,1.0,358.735,0.0,0.41709882,1.0,0.736666736,1.0,0.75,0.0,0.389095584,False,,5b66204382c4fa0001eabacf,,2808050,124,,evan-feature22,full_pf_b,,1
89,22782,125,,,,2,2,1.0,1.0,0.0,1.0,,0.0-117.0,,1.0,340.905,1.0,0.39749009799999996,1.0,0.744320029,1.0,0.75,1.0,0.363848678,False,,5b66204382c4fa0001eabacf,,2818235,125,,evan-feature22,full_pf_b,,1
90,22783,126,,,,2,2,0.0,1.0,-1.0,0.0,,0.0-118.0,,0.0,822.055,0.0,0.392653706,0.0,0.75,0.0,0.75,1.0,0.384386976,False,,5b66204382c4fa0001eabacf,,2828931,126,,evan-feature22,full_pf_b,,0
91,22784,127,,,,2,2,0.0,1.0,-1.0,0.0,,0.0-119.0,,0.0,68.895,1.0,0.31190902600000003,1.0,0.75,0.0,0.732413819,1.0,0.413082932,False,,5b66204382c4fa0001eabacf,,2838822,127,,evan-feature22,full_pf_b,,0
92,22785,128,,,,2,2,0.0,1.0,0.0,1.0,,0.0-120.0,,1.0,485.915,0.0,0.366917648,1.0,0.740073855,0.0,0.75,1.0,0.352861979,False,,5b66204382c4fa0001eabacf,,2849112,128,,evan-feature22,full_pf_b,,0
93,22786,129,,,,2,2,1.0,0.0,0.0,1.0,,0.0-121.0,,0.0,3290.695,0.0,0.3645172,1.0,0.721770713,1.0,0.75,0.0,0.404074511,False,,5b66204382c4fa0001eabacf,,2862224,129,,evan-feature22,full_pf_b,,0
94,22787,130,,,,2,2,0.0,1.0,0.0,1.0,,0.0-122.0,,1.0,2658.895,0.0,0.35205600299999995,0.0,0.68983859,0.0,0.739735447,1.0,0.366895945,False,,5b66204382c4fa0001eabacf,,2874718,130,,evan-feature22,full_pf_b,,0
95,22788,131,,,,2,2,1.0,0.0,0.0,1.0,,0.0-123.0,,0.0,284.11,0.0,0.40998722600000004,1.0,0.720859127,1.0,0.673854955,0.0,0.368528541,False,,5b66204382c4fa0001eabacf,,2884846,131,,evan-feature22,full_pf_b,,0
96,22789,132,,,,2,2,0.0,1.0,-1.0,0.0,,0.0-124.0,,0.0,431.425,1.0,0.353625316,0.0,0.75,0.0,0.695605473,1.0,0.38303674200000004,False,,5b66204382c4fa0001eabacf,,2895084,132,,evan-feature22,full_pf_b,,0
97,22790,133,,,,2,2,1.0,1.0,0.0,1.0,,0.0-125.0,,1.0,263.975,0.0,0.359216989,1.0,0.75,1.0,0.6987915090000001,1.0,0.35169046200000004,False,,5b66204382c4fa0001eabacf,,2905159,133,,evan-feature22,full_pf_b,,0
98,22791,134,,,,2,2,1.0,1.0,-1.0,0.0,,0.0-126.0,,-1.0,1600.415,1.0,0.35834496899999996,0.0,0.75,1.0,0.707067742,1.0,0.416763636,False,,5b66204382c4fa0001eabacf,,2916561,134,,evan-feature22,full_pf_b,,0
99,22792,135,,,,2,2,1.0,1.0,-1.0,0.0,,0.0-127.0,,-1.0,1003.36,1.0,0.38741613799999997,0.0,0.7177369570000001,1.0,0.734902455,1.0,0.49438664299999996,False,,5b66204382c4fa0001eabacf,,2927378,135,,evan-feature22,full_pf_b,,0
100,22793,136,,,,1,1,0.0,0.0,0.0,1.0,,0.0-128.0,,0.0,1721.31,0.0,0.405255252,0.0,0.7300466640000001,1.0,0.7027748070000001,0.0,0.504359668,False,,5b66204382c4fa0001eabacf,,2938911,136,,evan-feature22,full_pf_b,,1
101,22794,137,,,,1,1,1.0,1.0,0.0,1.0,,0.0-129.0,,1.0,673.79,1.0,0.40697073,1.0,0.7260142190000001,1.0,0.724461982,1.0,0.522779179,False,,5b66204382c4fa0001eabacf,,2949390,137,,evan-feature22,full_pf_b,,0
102,22795,138,,,,1,1,0.0,1.0,0.0,1.0,,0.0-130.0,,1.0,334.88,0.0,0.43906215299999996,1.0,0.7252802340000001,1.0,0.719079934,0.0,0.5712990579999999,False,,5b66204382c4fa0001eabacf,,2959568,138,,evan-feature22,full_pf_b,,0
103,22796,139,,,,2,2,0.0,0.0,0.0,1.0,,0.0-131.0,,0.0,135.265,1.0,0.4076705,1.0,0.73280499,0.0,0.681313127,0.0,0.523891346,False,,5b66204382c4fa0001eabacf,,2969524,139,,evan-feature22,full_pf_b,,1
104,22797,140,,,,1,1,1.0,1.0,0.0,1.0,,0.0-132.0,,1.0,3517.13,1.0,0.399102911,1.0,0.730498344,1.0,0.661080239,1.0,0.46742603,False,,5b66204382c4fa0001eabacf,,2982891,140,,evan-feature22,full_pf_b,,1
105,22798,141,,,,2,2,1.0,1.0,-1.0,0.0,,0.0-133.0,,-1.0,3550.085,0.0,0.356477282,1.0,0.712296395,1.0,0.641812684,1.0,0.44868414,False,,5b66204382c4fa0001eabacf,,2996249,141,,evan-feature22,full_pf_b,,1
106,22799,142,,,,2,2,1.0,0.0,0.0,1.0,,0.0-134.0,,0.0,1056.66,0.0,0.462760722,1.0,0.692349322,1.0,0.700947931,0.0,0.394680266,False,,5b66204382c4fa0001eabacf,,3007155,142,,evan-feature22,full_pf_b,,0
107,22800,143,,,,2,2,0.0,1.0,0.0,1.0,,0.0-135.0,,1.0,2050.845,0.0,0.422306413,1.0,0.718375916,0.0,0.706340917,1.0,0.367787185,False,,5b66204382c4fa0001eabacf,,3019041,143,,evan-feature22,full_pf_b,,0
108,22802,145,,,,SLOW,SLOW,,,0.0,1.0,,0.0-137.0,,-3.0,,1.0,0.4582233,1.0,0.643834117,0.0,0.75,1.0,0.39615823299999997,False,,5b66204382c4fa0001eabacf,,3305911,145,,evan-feature22,full_pf_b,,1
109,22803,146,,,,SLOW,SLOW,,,0.0,1.0,,0.0-138.0,,-3.0,,0.0,0.43813437899999996,1.0,0.651283804,0.0,0.729674191,0.0,0.37711048,False,,5b66204382c4fa0001eabacf,,3311729,146,,evan-feature22,full_pf_b,,0
110,22804,147,,,,1,1,1.0,1.0,0.0,1.0,,0.0-139.0,,1.0,810.335,1.0,0.471199094,1.0,0.6470010979999999,0.0,0.715008097,1.0,0.410656191,False,,5b66204382c4fa0001eabacf,,3322377,147,,evan-feature22,full_pf_b,,1
111,22805,148,,,,1,1,0.0,0.0,-1.0,0.0,,0.0-140.0,,0.0,408.41,0.0,0.42486406,0.0,0.629771829,1.0,0.6550939960000001,1.0,0.459093873,False,,5b66204382c4fa0001eabacf,,3332639,148,,evan-feature22,full_pf_b,,0
112,22806,149,,,,SLOW,SLOW,,,-1.0,0.0,,0.0-141.0,,-3.0,,0.0,0.4803197,0.0,0.645842715,1.0,0.6421749920000001,0.0,0.443092151,False,,5b66204382c4fa0001eabacf,,3338460,149,,evan-feature22,full_pf_b,,1
113,22807,150,,,,SLOW,SLOW,,,-1.0,0.0,,0.0-142.0,,-3.0,,0.0,0.521848997,1.0,0.735801074,1.0,0.6691348460000001,1.0,0.45259351600000003,False,,5b66204382c4fa0001eabacf,,3344294,150,,evan-feature22,full_pf_b,,0
114,22808,151,,,,SLOW,SLOW,,,0.0,1.0,,0.0-143.0,,-3.0,,1.0,0.49565621299999996,1.0,0.742400847,0.0,0.661512553,0.0,0.483110831,False,,5b66204382c4fa0001eabacf,,3350122,151,,evan-feature22,full_pf_b,,0
115,22809,152,,,,SLOW,SLOW,,,-1.0,0.0,,0.0-144.0,,-3.0,,1.0,0.521564361,1.0,0.731078632,1.0,0.6774886809999999,0.0,0.483263956,False,,5b66204382c4fa0001eabacf,,3355951,152,,evan-feature22,full_pf_b,,0
116,22810,153,,,,2,2,0.0,0.0,-1.0,0.0,,0.0-145.0,,0.0,306.375,0.0,0.558893102,1.0,0.719810023,0.0,0.67461031,0.0,0.499349834,False,,5b66204382c4fa0001eabacf,,3366068,153,,evan-feature22,full_pf_b,,1
117,22811,154,,,,2,2,0.0,1.0,0.0,1.0,,0.0-146.0,,1.0,961.725,0.0,0.611031046,0.0,0.75,0.0,0.688072995,1.0,0.5321422729999999,False,,5b66204382c4fa0001eabacf,,3376835,154,,evan-feature22,full_pf_b,,0
118,22812,155,,,,1,1,0.0,1.0,-1.0,0.0,,0.0-147.0,,0.0,2531.275,0.0,0.633223941,1.0,0.713567728,1.0,0.75,0.0,0.48185314700000004,False,,5b66204382c4fa0001eabacf,,3389196,155,,evan-feature22,full_pf_b,,1
119,22813,156,,,,1,1,0.0,1.0,-1.0,0.0,,0.0-148.0,,0.0,290.98,0.0,0.664001694,1.0,0.705509768,1.0,0.75,1.0,0.500211065,False,,5b66204382c4fa0001eabacf,,3399304,156,,evan-feature22,full_pf_b,,0
120,22814,157,,,,1,1,1.0,0.0,0.0,1.0,,0.0-149.0,,0.0,722.635,1.0,0.664001694,0.0,0.705509768,1.0,0.75,0.0,0.500211065,False,,5b66204382c4fa0001eabacf,,3409857,157,,evan-feature22,full_pf_b,,0
121,22815,158,,,,1,1,1.0,1.0,0.0,1.0,,0.0-150.0,,1.0,284.915,1.0,0.696508041,1.0,0.71066027,1.0,0.717028709,1.0,0.49792991,False,,5b66204382c4fa0001eabacf,,3419948,158,,evan-feature22,full_pf_b,,0
122,22816,159,,,,1,1,1.0,1.0,-1.0,0.0,,0.0-151.0,,-1.0,977.155,1.0,0.699883272,1.0,0.75,1.0,0.713543895,0.0,0.496962643,False,,5b66204382c4fa0001eabacf,,3430745,159,,evan-feature22,full_pf_b,,0
123,22817,160,,,,2,2,1.0,1.0,0.0,1.0,,0.0-152.0,,1.0,269.06,1.0,0.741163419,0.0,0.75,1.0,0.64691024,1.0,0.513858197,False,,5b66204382c4fa0001eabacf,,3440880,160,,evan-feature22,full_pf_b,,1
124,22818,161,,,,2,2,1.0,0.0,-1.0,0.0,,0.0-153.0,,-1.0,3853.025,1.0,0.75,1.0,0.70816558,1.0,0.594499079,0.0,0.48502124,False,,5b66204382c4fa0001eabacf,,3454580,161,,evan-feature22,full_pf_b,,0
125,22819,162,,,,2,2,1.0,1.0,0.0,1.0,,0.0-154.0,,1.0,899.97,1.0,0.75,1.0,0.721848901,1.0,0.62197249,1.0,0.48263586399999997,False,,5b66204382c4fa0001eabacf,,3465303,162,,evan-feature22,full_pf_b,,0
126,22820,163,,,,2,2,1.0,0.0,-1.0,0.0,,0.0-155.0,,-1.0,1034.64,1.0,0.75,0.0,0.74813071,1.0,0.584357161,0.0,0.411477782,False,,5b66204382c4fa0001eabacf,,3476174,163,,evan-feature22,full_pf_b,,0
127,22821,164,,,,1,1,1.0,0.0,0.0,1.0,,0.0-156.0,,0.0,309.22,1.0,0.75,0.0,0.75,0.0,0.52287236,1.0,0.488290656,False,,5b66204382c4fa0001eabacf,,3486284,164,,evan-feature22,full_pf_b,,1
128,22822,165,,,,2,2,0.0,1.0,0.0,1.0,,0.0-157.0,,1.0,842.3,0.0,0.75,1.0,0.75,0.0,0.544321581,1.0,0.53143059,False,,5b66204382c4fa0001eabacf,,3496955,165,,evan-feature22,full_pf_b,,1
129,22823,166,,,,2,2,1.0,0.0,0.0,1.0,,0.0-158.0,,0.0,363.365,1.0,0.726754564,1.0,0.75,1.0,0.5129306370000001,0.0,0.530592445,False,,5b66204382c4fa0001eabacf,,3507137,166,,evan-feature22,full_pf_b,,0
130,22824,167,,,,2,2,0.0,1.0,-1.0,0.0,,0.0-159.0,,0.0,698.01,1.0,0.75,1.0,0.7392590729999999,0.0,0.479875835,1.0,0.547007051,False,,5b66204382c4fa0001eabacf,,3517645,167,,evan-feature22,full_pf_b,,0
131,22825,168,,,,1,1,1.0,1.0,-1.0,0.0,,0.0-160.0,,-1.0,410.22,1.0,0.75,1.0,0.7393376979999999,0.0,0.546045419,1.0,0.541267353,False,,5b66204382c4fa0001eabacf,,3527882,168,,evan-feature22,full_pf_b,,1
132,22826,169,,,,2,2,0.0,1.0,-1.0,0.0,,0.0-161.0,,0.0,403.46,1.0,0.75,0.0,0.75,0.0,0.485725895,1.0,0.527625395,False,,5b66204382c4fa0001eabacf,,3538086,169,,evan-feature22,full_pf_b,,1
133,22827,170,,,,1,1,1.0,1.0,0.0,1.0,,0.0-162.0,,1.0,414.96,1.0,0.75,1.0,0.725087974,1.0,0.488603595,1.0,0.504019206,False,,5b66204382c4fa0001eabacf,,3548315,170,,evan-feature22,full_pf_b,,1
134,22828,171,,,,1,1,1.0,1.0,0.0,1.0,,0.0-163.0,,1.0,277.355,1.0,0.745504295,1.0,0.75,0.0,0.452379914,1.0,0.50131194,False,,5b66204382c4fa0001eabacf,,3558395,171,,evan-feature22,full_pf_b,,0
135,22829,172,,,,1,1,1.0,1.0,0.0,1.0,,0.0-164.0,,1.0,420.395,1.0,0.728513874,1.0,0.75,1.0,0.44125567200000004,1.0,0.531454591,False,,5b66204382c4fa0001eabacf,,3568619,172,,evan-feature22,full_pf_b,,0
136,22830,173,,,,1,1,1.0,0.0,-1.0,0.0,,0.0-165.0,,-1.0,409.81,1.0,0.73790804,0.0,0.75,0.0,0.413036656,0.0,0.524619035,False,,5b66204382c4fa0001eabacf,,3578822,173,,evan-feature22,full_pf_b,,0
137,22831,174,,,,2,2,0.0,1.0,0.0,1.0,,0.0-166.0,,1.0,731.15,1.0,0.7080961309999999,1.0,0.708666865,0.0,0.431915581,1.0,0.481819489,False,,5b66204382c4fa0001eabacf,,3589377,174,,evan-feature22,full_pf_b,,1
138,22832,175,,,,1,1,1.0,1.0,0.0,1.0,,0.0-167.0,,1.0,336.605,1.0,0.721378003,1.0,0.71605913,1.0,0.36642387,0.0,0.5036739929999999,False,,5b66204382c4fa0001eabacf,,3599519,175,,evan-feature22,full_pf_b,,1
139,22833,176,,,,2,2,0.0,0.0,0.0,1.0,,0.0-168.0,,0.0,407.925,1.0,0.7340618959999999,1.0,0.699323252,0.0,0.35298046299999997,0.0,0.511241692,False,,5b66204382c4fa0001eabacf,,3609744,176,,evan-feature22,full_pf_b,,1
140,22834,177,,,,SLOW,SLOW,,,-1.0,0.0,,0.0-169.0,,-3.0,,1.0,0.75,1.0,0.70412698,0.0,0.380734814,0.0,0.529580116,False,,5b66204382c4fa0001eabacf,,3615557,177,,evan-feature22,full_pf_b,,1
141,22835,178,,,,1,1,1.0,1.0,0.0,1.0,,0.0-170.0,,1.0,2277.78,1.0,0.7436654909999999,1.0,0.711182751,1.0,0.41125331,1.0,0.49554405,False,,5b66204382c4fa0001eabacf,,3627640,178,,evan-feature22,full_pf_b,,1
142,22836,179,,,,2,2,1.0,1.0,0.0,1.0,,0.0-171.0,,1.0,1351.27,1.0,0.731607915,0.0,0.651774583,1.0,0.35688023,1.0,0.45194491600000003,False,,5b66204382c4fa0001eabacf,,3638804,179,,evan-feature22,full_pf_b,,1
143,22837,180,,,,1,1,1.0,1.0,-1.0,0.0,,0.0-172.0,,-1.0,1571.275,1.0,0.75,1.0,0.75,1.0,0.283145374,1.0,0.528608005,False,,5b66204382c4fa0001eabacf,,3650207,180,,evan-feature22,full_pf_b,,1
144,22838,181,,,,1,1,0.0,0.0,-1.0,0.0,,0.0-173.0,,0.0,329.11,0.0,0.7491416890000001,0.0,0.7423785959999999,0.0,0.29135870399999997,0.0,0.498888318,False,,5b66204382c4fa0001eabacf,,3660348,181,,evan-feature22,full_pf_b,,0
145,22839,182,,,,1,1,1.0,1.0,-1.0,0.0,,0.0-174.0,,-1.0,2942.3,1.0,0.708569387,1.0,0.717682277,0.0,0.294421699,1.0,0.493838163,False,,5b66204382c4fa0001eabacf,,3673122,182,,evan-feature22,full_pf_b,,0
146,22840,183,,,,2,2,0.0,0.0,0.0,1.0,,0.0-175.0,,0.0,622.96,1.0,0.75,0.0,0.7383382159999999,0.0,0.356098707,0.0,0.442533405,False,,5b66204382c4fa0001eabacf,,3683572,183,,evan-feature22,full_pf_b,,1
147,22841,184,,,,2,2,0.0,0.0,0.0,1.0,,0.0-176.0,,0.0,3580.52,1.0,0.744527075,1.0,0.75,0.0,0.334127506,0.0,0.393165805,False,,5b66204382c4fa0001eabacf,,3696955,184,,evan-feature22,full_pf_b,,0
148,22842,185,,,,1,1,1.0,1.0,0.0,1.0,,0.0-177.0,,1.0,244.745,1.0,0.75,1.0,0.75,1.0,0.33571021799999995,1.0,0.350393962,False,,5b66204382c4fa0001eabacf,,3707030,185,,evan-feature22,full_pf_b,,1
149,22843,186,,,,1,1,1.0,1.0,0.0,1.0,,0.0-178.0,,1.0,358.36,1.0,0.75,1.0,0.75,0.0,0.313628297,1.0,0.36349657399999996,False,,5b66204382c4fa0001eabacf,,3717190,186,,evan-feature22,full_pf_b,,0
150,22844,187,,,,SLOW,SLOW,,,-1.0,0.0,,0.0-179.0,,-3.0,,0.0,0.75,0.0,0.734284182,0.0,0.262667667,1.0,0.380199119,False,,5b66204382c4fa0001eabacf,,3723018,187,,evan-feature22,full_pf_b,,1
151,22845,188,,,,2,2,0.0,0.0,0.0,1.0,,0.0-180.0,,0.0,197.005,1.0,0.75,0.0,0.75,0.0,0.25,0.0,0.394494013,False,,5b66204382c4fa0001eabacf,,3733091,188,,evan-feature22,full_pf_b,,1
152,22846,189,,,,2,2,0.0,0.0,-1.0,0.0,,0.0-181.0,,0.0,2248.78,1.0,0.722298145,1.0,0.7357822340000001,0.0,0.25,0.0,0.319142121,False,,5b66204382c4fa0001eabacf,,3745156,189,,evan-feature22,full_pf_b,,0
153,22847,190,,,,SLOW,SLOW,,,-1.0,0.0,,0.0-182.0,,-3.0,,1.0,0.73149275,1.0,0.724276446,0.0,0.305856907,0.0,0.281315057,False,,5b66204382c4fa0001eabacf,,3750988,190,,evan-feature22,full_pf_b,,1
154,22848,191,,,,2,2,0.0,1.0,0.0,1.0,,0.0-183.0,,1.0,334.855,0.0,0.7458732690000001,1.0,0.7336382459999999,0.0,0.272571964,1.0,0.266021999,False,,5b66204382c4fa0001eabacf,,3761127,191,,evan-feature22,full_pf_b,,1
155,22849,192,,,,2,2,0.0,0.0,0.0,1.0,,0.0-184.0,,0.0,284.795,1.0,0.705579037,1.0,0.720778292,0.0,0.320238144,0.0,0.30971744,False,,5b66204382c4fa0001eabacf,,3771223,192,,evan-feature22,full_pf_b,,0
156,22850,193,,,,2,2,0.0,1.0,0.0,1.0,,0.0-185.0,,1.0,431.055,1.0,0.700425648,1.0,0.7198784009999999,0.0,0.272590393,1.0,0.304182931,False,,5b66204382c4fa0001eabacf,,3781466,193,,evan-feature22,full_pf_b,,0
157,22851,194,,,,2,2,0.0,0.0,0.0,1.0,,0.0-186.0,,0.0,1529.75,1.0,0.735590785,1.0,0.722714973,0.0,0.25,0.0,0.323421091,False,,5b66204382c4fa0001eabacf,,3792809,194,,evan-feature22,full_pf_b,,0
158,22852,195,,,,2,2,0.0,1.0,0.0,1.0,,0.0-187.0,,1.0,644.095,1.0,0.724807662,1.0,0.63146213,0.0,0.36836492600000004,1.0,0.34592153299999995,False,,5b66204382c4fa0001eabacf,,3803289,195,,evan-feature22,full_pf_b,,0
159,22853,196,,,,SLOW,SLOW,,,0.0,1.0,,0.0-188.0,,-3.0,,0.0,0.7352796909999999,0.0,0.555111392,0.0,0.36003922,1.0,0.31433779999999995,False,,5b66204382c4fa0001eabacf,,3809108,196,,evan-feature22,full_pf_b,,1
160,22854,197,notice,,,,,,,,,,0.0-189.0,"{""Q0"":""faster""}",,9693.0,,,,,,,,,False,,5b66204382c4fa0001eabacf,,3818804,197,Q,survey-text,full_pf_b,,1
161,22855,198,track1,,[1],,,,,,,,0.0-190.0,"{""Q0"":""no""}",,5968.0,,,,,,,,,False,,5b66204382c4fa0001eabacf,,3824782,198,Q,evan-quiz,full_pf_b,,1
162,22856,199,track2,,[0],,,,,,,,0.0-191.0,"{""Q0"":""yes""}",,5497.0,,,,,,,,,False,,5b66204382c4fa0001eabacf,,3830286,199,Q,evan-quiz,full_pf_b,,1
163,22857,200,strat,,,,,,,,,,0.0-192.0,"{""Q0"":""i checked the numbers and then looked at the patterns of earning the points""}",,23831.0,,,,,,,,,False,,5b66204382c4fa0001eabacf,,3854123,200,Q,survey-text,full_pf_b,,1
