,index,Unnamed: 0,Q_name,button_pressed,choice_idxs,chosen_pos,chosen_state,chosen_state_f_1_outcome,chosen_state_f_2_outcome,f_1_reward,f_2_reward,incor_questions,internal_node_id,responses,reward_received,rt,s_1_f_1_outcome,s_1_f_1_prob,s_1_f_2_outcome,s_1_f_2_prob,s_2_f_1_outcome,s_2_f_1_prob,s_2_f_2_outcome,s_2_f_2_prob,safe_first,stimulus,subjectID,success,time_elapsed,trial_index,trial_num,trial_type,version,view_history,switching
0,16906,30,,,,1,1,0.0,0.0,0.0,1.0,,0.0-27.0,,0.0,2970.0,0.0,0.6,0.0,0.6,0.0,0.4,1.0,0.4,True,,57adbbe8bcf54e000152816b,,628785,30,,evan-feature22,full_rf_b,,0
1,16907,31,,,,1,1,1.0,1.0,0.0,1.0,,0.0-28.0,,1.0,2241.0,1.0,0.608053294,1.0,0.63424552,0.0,0.397152172,1.0,0.347069101,True,,57adbbe8bcf54e000152816b,,640786,31,,evan-feature22,full_rf_b,,0
2,16908,32,,,,SLOW,SLOW,,,0.0,1.0,,0.0-29.0,,-3.0,,0.0,0.642237155,0.0,0.648566321,0.0,0.389407674,0.0,0.285525717,True,,57adbbe8bcf54e000152816b,,646590,32,,evan-feature22,full_rf_b,,1
3,16909,33,,,,1,1,1.0,0.0,0.0,1.0,,0.0-30.0,,0.0,941.0,1.0,0.661086576,0.0,0.630492543,0.0,0.399058924,0.0,0.25,True,,57adbbe8bcf54e000152816b,,657289,33,,evan-feature22,full_rf_b,,1
4,16910,34,,,,SLOW,SLOW,,,0.0,1.0,,0.0-31.0,,-3.0,,1.0,0.631324137,1.0,0.6269842929999999,0.0,0.38734784299999997,0.0,0.25,True,,57adbbe8bcf54e000152816b,,663095,34,,evan-feature22,full_rf_b,,1
5,16911,35,,,,2,2,0.0,0.0,0.0,1.0,,0.0-32.0,,0.0,1041.0,0.0,0.6381991370000001,0.0,0.68987999,0.0,0.384107265,0.0,0.271332943,True,,57adbbe8bcf54e000152816b,,673895,35,,evan-feature22,full_rf_b,,1
6,16912,36,,,,2,2,0.0,0.0,0.0,1.0,,0.0-33.0,,0.0,1046.0,0.0,0.66034901,1.0,0.742641349,0.0,0.360225629,0.0,0.25,True,,57adbbe8bcf54e000152816b,,684695,36,,evan-feature22,full_rf_b,,0
7,16913,37,,,,1,1,0.0,1.0,-1.0,0.0,,0.0-34.0,,0.0,1893.0,0.0,0.638612418,1.0,0.75,0.0,0.367273939,0.0,0.25,True,,57adbbe8bcf54e000152816b,,696354,37,,evan-feature22,full_rf_b,,1
8,16914,38,,,,2,2,1.0,1.0,0.0,1.0,,0.0-35.0,,1.0,1685.0,0.0,0.624340629,1.0,0.75,1.0,0.425829545,1.0,0.25,True,,57adbbe8bcf54e000152816b,,707797,38,,evan-feature22,full_rf_b,,1
9,16915,39,,,,2,2,1.0,0.0,0.0,1.0,,0.0-36.0,,0.0,1268.0,1.0,0.621999804,0.0,0.75,1.0,0.368609357,0.0,0.25,True,,57adbbe8bcf54e000152816b,,718822,39,,evan-feature22,full_rf_b,,0
10,16916,40,,,,1,1,0.0,0.0,-1.0,0.0,,0.0-37.0,,0.0,892.0,0.0,0.62666403,0.0,0.75,1.0,0.311151498,0.0,0.25,True,,57adbbe8bcf54e000152816b,,729472,40,,evan-feature22,full_rf_b,,1
11,16917,41,,,,1,1,1.0,1.0,-1.0,0.0,,0.0-38.0,,-1.0,1121.0,1.0,0.6819650009999999,1.0,0.75,1.0,0.310763048,1.0,0.25,True,,57adbbe8bcf54e000152816b,,740349,41,,evan-feature22,full_rf_b,,0
12,16918,42,,,,2,2,0.0,1.0,0.0,1.0,,0.0-39.0,,1.0,1069.0,1.0,0.740626951,0.0,0.75,0.0,0.25,1.0,0.25,True,,57adbbe8bcf54e000152816b,,751175,42,,evan-feature22,full_rf_b,,1
13,16919,43,,,,2,2,0.0,0.0,0.0,1.0,,0.0-40.0,,0.0,1351.0,0.0,0.739599242,1.0,0.742034978,0.0,0.25397114600000004,0.0,0.25,True,,57adbbe8bcf54e000152816b,,762284,43,,evan-feature22,full_rf_b,,0
14,16920,44,,,,1,1,0.0,1.0,0.0,1.0,,0.0-41.0,,1.0,352.0,0.0,0.732341315,1.0,0.72735643,1.0,0.25,0.0,0.25,True,,57adbbe8bcf54e000152816b,,772393,44,,evan-feature22,full_rf_b,,1
15,16921,45,,,,2,2,0.0,0.0,0.0,1.0,,0.0-42.0,,0.0,1890.0,1.0,0.7062287770000001,1.0,0.75,0.0,0.29002151,0.0,0.288256649,True,,57adbbe8bcf54e000152816b,,784041,45,,evan-feature22,full_rf_b,,1
16,16922,46,,,,1,1,1.0,1.0,-1.0,0.0,,0.0-43.0,,-1.0,287.0,1.0,0.7086029209999999,1.0,0.75,0.0,0.274129113,0.0,0.262851608,True,,57adbbe8bcf54e000152816b,,794086,46,,evan-feature22,full_rf_b,,1
17,16923,47,,,,2,2,0.0,0.0,0.0,1.0,,0.0-44.0,,0.0,252.0,0.0,0.669189651,1.0,0.727614338,0.0,0.298444036,0.0,0.296944518,True,,57adbbe8bcf54e000152816b,,804097,47,,evan-feature22,full_rf_b,,1
18,16924,48,,,,2,2,0.0,0.0,-1.0,0.0,,0.0-45.0,,0.0,160.0,0.0,0.6819912929999999,1.0,0.7179434290000001,0.0,0.265003961,0.0,0.28157921199999997,True,,57adbbe8bcf54e000152816b,,814018,48,,evan-feature22,full_rf_b,,0
19,16925,49,,,,2,2,1.0,0.0,-1.0,0.0,,0.0-46.0,,-1.0,412.0,1.0,0.665275002,0.0,0.723065271,1.0,0.260414971,0.0,0.30973870000000003,True,,57adbbe8bcf54e000152816b,,824188,49,,evan-feature22,full_rf_b,,0
20,16926,50,,,,SLOW,SLOW,,,0.0,1.0,,0.0-47.0,,-3.0,,1.0,0.6660593260000001,1.0,0.728032907,0.0,0.30922817,1.0,0.338778608,True,,57adbbe8bcf54e000152816b,,829991,50,,evan-feature22,full_rf_b,,1
21,16927,51,,,,SLOW,SLOW,,,0.0,1.0,,0.0-48.0,,-3.0,,0.0,0.702068785,1.0,0.6528750879999999,1.0,0.287329608,1.0,0.35789613200000003,True,,57adbbe8bcf54e000152816b,,835796,51,,evan-feature22,full_rf_b,,0
22,16928,52,,,,SLOW,SLOW,,,0.0,1.0,,0.0-49.0,,-3.0,,0.0,0.651939787,0.0,0.636725589,0.0,0.284834488,1.0,0.358563756,True,,57adbbe8bcf54e000152816b,,841600,52,,evan-feature22,full_rf_b,,0
23,16929,53,,,,SLOW,SLOW,,,0.0,1.0,,0.0-50.0,,-3.0,,0.0,0.67573929,1.0,0.612550049,0.0,0.37130387600000003,0.0,0.383542402,True,,57adbbe8bcf54e000152816b,,847407,53,,evan-feature22,full_rf_b,,0
24,16930,54,,,,SLOW,SLOW,,,0.0,1.0,,0.0-51.0,,-3.0,,0.0,0.620753801,0.0,0.60513644,0.0,0.385529434,0.0,0.340361743,True,,57adbbe8bcf54e000152816b,,853214,54,,evan-feature22,full_rf_b,,0
25,16931,55,,,,1,1,1.0,0.0,-1.0,0.0,,0.0-52.0,,-1.0,946.0,1.0,0.673564893,0.0,0.672437924,0.0,0.292955382,0.0,0.337633795,True,,57adbbe8bcf54e000152816b,,863921,55,,evan-feature22,full_rf_b,,1
26,16932,56,,,,2,2,0.0,0.0,0.0,1.0,,0.0-53.0,,0.0,23.0,1.0,0.6749427,1.0,0.724197502,0.0,0.32391132100000003,0.0,0.350995264,True,,57adbbe8bcf54e000152816b,,873703,56,,evan-feature22,full_rf_b,,1
27,16933,57,,,,1,1,0.0,1.0,0.0,1.0,,0.0-54.0,,1.0,449.0,0.0,0.6940159379999999,1.0,0.75,1.0,0.31710554399999996,1.0,0.413450341,True,,57adbbe8bcf54e000152816b,,883910,57,,evan-feature22,full_rf_b,,1
28,16934,58,,,,2,2,0.0,0.0,0.0,1.0,,0.0-55.0,,0.0,427.0,1.0,0.6916018270000001,1.0,0.69001187,0.0,0.261817804,0.0,0.40038635,True,,57adbbe8bcf54e000152816b,,894096,58,,evan-feature22,full_rf_b,,1
29,16935,59,,,,SLOW,SLOW,,,0.0,1.0,,0.0-56.0,,-3.0,,1.0,0.641061544,1.0,0.71337992,1.0,0.277296461,1.0,0.47372791700000005,True,,57adbbe8bcf54e000152816b,,899899,59,,evan-feature22,full_rf_b,,1
30,16936,60,,,,2,2,0.0,1.0,0.0,1.0,,0.0-57.0,,1.0,786.0,0.0,0.6082438520000001,1.0,0.708471106,0.0,0.28745137,1.0,0.564174476,True,,57adbbe8bcf54e000152816b,,910442,60,,evan-feature22,full_rf_b,,1
31,16937,61,,,,2,2,0.0,0.0,-1.0,0.0,,0.0-58.0,,0.0,671.0,1.0,0.6051112120000001,1.0,0.7118147229999999,0.0,0.272390611,0.0,0.5595149939999999,True,,57adbbe8bcf54e000152816b,,920871,61,,evan-feature22,full_rf_b,,0
32,16938,62,,,,2,2,0.0,0.0,-1.0,0.0,,0.0-59.0,,0.0,486.0,1.0,0.582420852,0.0,0.635867583,0.0,0.31089574,0.0,0.5227206520000001,True,,57adbbe8bcf54e000152816b,,931117,62,,evan-feature22,full_rf_b,,0
33,16939,63,,,,1,1,1.0,1.0,-1.0,0.0,,0.0-60.0,,-1.0,241.0,1.0,0.623195575,1.0,0.655026044,1.0,0.25,1.0,0.560387538,True,,57adbbe8bcf54e000152816b,,941115,63,,evan-feature22,full_rf_b,,1
34,16940,64,,,,SLOW,SLOW,,,0.0,1.0,,0.0-61.0,,-3.0,,0.0,0.601889598,0.0,0.678198724,0.0,0.25,1.0,0.559922936,True,,57adbbe8bcf54e000152816b,,946918,64,,evan-feature22,full_rf_b,,1
35,16941,65,,,,SLOW,SLOW,,,-1.0,0.0,,0.0-62.0,,-3.0,,1.0,0.601259914,1.0,0.704681482,0.0,0.33908969299999997,1.0,0.505003715,True,,57adbbe8bcf54e000152816b,,952721,65,,evan-feature22,full_rf_b,,0
36,16942,66,,,,1,1,1.0,1.0,-1.0,0.0,,0.0-63.0,,-1.0,2082.0,1.0,0.59645454,1.0,0.710437172,0.0,0.327441879,0.0,0.391749613,True,,57adbbe8bcf54e000152816b,,964562,66,,evan-feature22,full_rf_b,,1
37,16943,67,,,,2,2,0.0,1.0,0.0,1.0,,0.0-64.0,,1.0,704.0,0.0,0.529473,1.0,0.636758527,0.0,0.301338063,1.0,0.365661481,True,,57adbbe8bcf54e000152816b,,975022,67,,evan-feature22,full_rf_b,,1
38,16944,68,,,,1,1,0.0,1.0,-1.0,0.0,,0.0-65.0,,0.0,975.0,0.0,0.541657162,1.0,0.634541962,1.0,0.343535366,1.0,0.371763742,True,,57adbbe8bcf54e000152816b,,985756,68,,evan-feature22,full_rf_b,,1
39,16945,69,,,,2,2,0.0,0.0,-1.0,0.0,,0.0-66.0,,0.0,277.0,0.0,0.5707533260000001,0.0,0.589121171,0.0,0.326428396,0.0,0.43961622899999997,True,,57adbbe8bcf54e000152816b,,995789,69,,evan-feature22,full_rf_b,,1
40,16946,70,,,,1,1,1.0,1.0,0.0,1.0,,0.0-67.0,,1.0,373.0,1.0,0.5707533260000001,1.0,0.589121171,0.0,0.326428396,0.0,0.43961622899999997,True,,57adbbe8bcf54e000152816b,,1005915,70,,evan-feature22,full_rf_b,,1
41,16947,71,,,,2,2,1.0,0.0,0.0,1.0,,0.0-68.0,,0.0,544.0,0.0,0.506271295,1.0,0.641775594,1.0,0.37149690700000004,0.0,0.404330166,True,,57adbbe8bcf54e000152816b,,1016214,71,,evan-feature22,full_rf_b,,1
42,16948,72,,,,1,1,1.0,0.0,-1.0,0.0,,0.0-69.0,,-1.0,274.0,1.0,0.455642565,0.0,0.623605825,1.0,0.358753011,0.0,0.346174041,True,,57adbbe8bcf54e000152816b,,1026246,72,,evan-feature22,full_rf_b,,1
43,16949,73,,,,SLOW,SLOW,,,0.0,1.0,,0.0-70.0,,-3.0,,0.0,0.483677308,1.0,0.5904681070000001,1.0,0.402218411,1.0,0.35344697,True,,57adbbe8bcf54e000152816b,,1032052,73,,evan-feature22,full_rf_b,,1
44,16950,74,,,,1,1,0.0,0.0,-1.0,0.0,,0.0-71.0,,0.0,679.0,0.0,0.394210977,0.0,0.558925494,0.0,0.540052017,0.0,0.35182128700000004,True,,57adbbe8bcf54e000152816b,,1042487,74,,evan-feature22,full_rf_b,,1
45,16951,75,,,,2,2,1.0,0.0,0.0,1.0,,0.0-72.0,,0.0,770.0,0.0,0.382300414,1.0,0.577670603,1.0,0.607608448,0.0,0.378261578,True,,57adbbe8bcf54e000152816b,,1053013,75,,evan-feature22,full_rf_b,,1
46,16952,76,,,,1,1,0.0,1.0,-1.0,0.0,,0.0-73.0,,0.0,1036.0,0.0,0.357596762,1.0,0.5929076529999999,1.0,0.6579790010000001,1.0,0.401326777,True,,57adbbe8bcf54e000152816b,,1063808,76,,evan-feature22,full_rf_b,,1
47,16953,77,,,,1,1,0.0,1.0,0.0,1.0,,0.0-74.0,,1.0,776.0,0.0,0.362033495,1.0,0.582308608,1.0,0.649195052,0.0,0.355158505,True,,57adbbe8bcf54e000152816b,,1074342,77,,evan-feature22,full_rf_b,,0
48,16954,78,,,,2,2,1.0,0.0,0.0,1.0,,0.0-75.0,,0.0,418.0,0.0,0.369620635,0.0,0.669100864,1.0,0.706059111,0.0,0.362516241,True,,57adbbe8bcf54e000152816b,,1084517,78,,evan-feature22,full_rf_b,,1
49,16955,79,,,,1,1,1.0,1.0,0.0,1.0,,0.0-76.0,,1.0,53.0,1.0,0.41477751399999996,1.0,0.7284416779999999,1.0,0.7182656940000001,0.0,0.36228040899999997,True,,57adbbe8bcf54e000152816b,,1094344,79,,evan-feature22,full_rf_b,,1
50,16956,80,,,,1,1,0.0,1.0,-1.0,0.0,,0.0-77.0,,0.0,875.0,0.0,0.37675460299999997,1.0,0.703250285,1.0,0.75,1.0,0.461979164,True,,57adbbe8bcf54e000152816b,,1104977,80,,evan-feature22,full_rf_b,,0
51,16957,81,,,,2,2,1.0,0.0,-1.0,0.0,,0.0-78.0,,-1.0,377.0,1.0,0.398716075,0.0,0.6723864890000001,1.0,0.674153818,0.0,0.519029516,True,,57adbbe8bcf54e000152816b,,1115112,81,,evan-feature22,full_rf_b,,1
52,16958,82,,,,1,1,0.0,1.0,-1.0,0.0,,0.0-79.0,,0.0,483.0,0.0,0.34677856700000004,1.0,0.69057175,1.0,0.6822438540000001,0.0,0.477292237,True,,57adbbe8bcf54e000152816b,,1125353,82,,evan-feature22,full_rf_b,,1
53,16959,83,,,,2,2,1.0,0.0,0.0,1.0,,0.0-80.0,,0.0,242.0,1.0,0.28580469199999997,1.0,0.68408818,1.0,0.684207565,0.0,0.49780448299999996,True,,57adbbe8bcf54e000152816b,,1135349,83,,evan-feature22,full_rf_b,,1
54,16961,85,,,,2,2,1.0,0.0,0.0,1.0,,0.0-82.0,,0.0,1667.0,1.0,0.25,1.0,0.7405808970000001,1.0,0.679614108,0.0,0.436436964,True,,57adbbe8bcf54e000152816b,,6261681,85,,evan-feature22,full_rf_b,,0
55,16962,86,,,,2,2,0.0,1.0,0.0,1.0,,0.0-83.0,,1.0,1067.0,1.0,0.29890393,1.0,0.730505706,0.0,0.7328203320000001,1.0,0.439256938,True,,57adbbe8bcf54e000152816b,,6272509,86,,evan-feature22,full_rf_b,,0
56,16963,87,,,,1,1,0.0,1.0,-1.0,0.0,,0.0-84.0,,0.0,1431.0,0.0,0.326762398,1.0,0.7148059609999999,1.0,0.75,1.0,0.44389608799999997,True,,57adbbe8bcf54e000152816b,,6283698,87,,evan-feature22,full_rf_b,,1
57,16964,88,,,,SLOW,SLOW,,,0.0,1.0,,0.0-85.0,,-3.0,,1.0,0.295168515,1.0,0.739760854,1.0,0.719947008,1.0,0.35277284600000003,True,,57adbbe8bcf54e000152816b,,6289500,88,,evan-feature22,full_rf_b,,1
58,16965,89,,,,2,2,1.0,0.0,0.0,1.0,,0.0-86.0,,0.0,1140.0,1.0,0.25,0.0,0.70781482,1.0,0.75,0.0,0.286095925,True,,57adbbe8bcf54e000152816b,,6300400,89,,evan-feature22,full_rf_b,,1
59,16966,90,,,,1,1,0.0,0.0,0.0,1.0,,0.0-87.0,,0.0,1287.0,0.0,0.25638190899999996,0.0,0.704088163,1.0,0.75,0.0,0.26872601399999996,True,,57adbbe8bcf54e000152816b,,6311444,90,,evan-feature22,full_rf_b,,1
60,16967,91,,,,1,1,0.0,1.0,-1.0,0.0,,0.0-88.0,,0.0,1774.0,0.0,0.271581126,1.0,0.669760107,1.0,0.733896663,1.0,0.273244572,True,,57adbbe8bcf54e000152816b,,6322975,91,,evan-feature22,full_rf_b,,0
61,16968,92,,,,2,2,0.0,0.0,0.0,1.0,,0.0-89.0,,0.0,1050.0,0.0,0.257144401,1.0,0.600575706,0.0,0.74488122,0.0,0.25,True,,57adbbe8bcf54e000152816b,,6333784,92,,evan-feature22,full_rf_b,,1
62,16969,93,,,,2,2,1.0,0.0,0.0,1.0,,0.0-90.0,,0.0,887.0,1.0,0.25,1.0,0.616870026,1.0,0.723610234,0.0,0.25,True,,57adbbe8bcf54e000152816b,,6344428,93,,evan-feature22,full_rf_b,,0
63,16970,94,,,,1,1,1.0,1.0,-1.0,0.0,,0.0-91.0,,-1.0,906.0,1.0,0.25,1.0,0.583540187,0.0,0.7041042559999999,0.0,0.285961995,True,,57adbbe8bcf54e000152816b,,6355093,94,,evan-feature22,full_rf_b,,1
64,16971,95,,,,1,1,0.0,0.0,-1.0,0.0,,0.0-92.0,,0.0,501.0,0.0,0.27254536,0.0,0.53875765,1.0,0.693783448,0.0,0.284961652,True,,57adbbe8bcf54e000152816b,,6365349,95,,evan-feature22,full_rf_b,,0
65,16972,96,,,,1,1,1.0,1.0,-1.0,0.0,,0.0-93.0,,-1.0,731.0,1.0,0.25,1.0,0.548431252,1.0,0.734221895,0.0,0.279445214,True,,57adbbe8bcf54e000152816b,,6375838,96,,evan-feature22,full_rf_b,,0
66,16973,97,,,,2,2,1.0,0.0,0.0,1.0,,0.0-94.0,,0.0,367.0,1.0,0.258640684,0.0,0.545878066,1.0,0.725245965,0.0,0.31487537,True,,57adbbe8bcf54e000152816b,,6385970,97,,evan-feature22,full_rf_b,,1
67,16974,98,,,,1,1,0.0,1.0,0.0,1.0,,0.0-95.0,,1.0,424.0,0.0,0.251103711,1.0,0.5776290629999999,1.0,0.696320133,0.0,0.317831047,True,,57adbbe8bcf54e000152816b,,6396148,98,,evan-feature22,full_rf_b,,1
68,16975,99,,,,2,2,0.0,0.0,0.0,1.0,,0.0-96.0,,0.0,887.0,0.0,0.276630292,0.0,0.617329858,0.0,0.73838088,0.0,0.261471582,True,,57adbbe8bcf54e000152816b,,6406794,99,,evan-feature22,full_rf_b,,1
69,16976,100,,,,2,2,1.0,1.0,0.0,1.0,,0.0-97.0,,1.0,1121.0,1.0,0.297716424,1.0,0.618863717,1.0,0.7402358259999999,1.0,0.262600834,True,,57adbbe8bcf54e000152816b,,6417669,100,,evan-feature22,full_rf_b,,0
70,16977,101,,,,1,1,0.0,1.0,-1.0,0.0,,0.0-98.0,,0.0,1581.0,0.0,0.290935512,1.0,0.695370945,0.0,0.706570507,0.0,0.280030553,True,,57adbbe8bcf54e000152816b,,6429009,101,,evan-feature22,full_rf_b,,1
71,16978,102,,,,2,2,1.0,0.0,0.0,1.0,,0.0-99.0,,0.0,1159.0,0.0,0.25,0.0,0.6465277079999999,1.0,0.67766682,0.0,0.25,True,,57adbbe8bcf54e000152816b,,6439924,102,,evan-feature22,full_rf_b,,1
72,16979,103,,,,1,1,0.0,0.0,-1.0,0.0,,0.0-100.0,,0.0,907.0,0.0,0.26463816,0.0,0.636100213,0.0,0.646048507,1.0,0.265607101,True,,57adbbe8bcf54e000152816b,,6450593,103,,evan-feature22,full_rf_b,,1
73,16980,104,,,,1,1,0.0,1.0,-1.0,0.0,,0.0-101.0,,0.0,782.0,0.0,0.314340707,1.0,0.667795927,0.0,0.613630805,0.0,0.25,True,,57adbbe8bcf54e000152816b,,6461129,104,,evan-feature22,full_rf_b,,0
74,16981,105,,,,2,2,0.0,0.0,0.0,1.0,,0.0-102.0,,0.0,787.0,0.0,0.28685784,1.0,0.6622549529999999,0.0,0.652154117,0.0,0.25,True,,57adbbe8bcf54e000152816b,,6471673,105,,evan-feature22,full_rf_b,,1
75,16982,106,,,,1,1,0.0,1.0,0.0,1.0,,0.0-103.0,,1.0,729.0,0.0,0.304106554,1.0,0.631289538,0.0,0.707041942,0.0,0.29314237,True,,57adbbe8bcf54e000152816b,,6482157,106,,evan-feature22,full_rf_b,,1
76,16983,107,,,,2,2,1.0,1.0,0.0,1.0,,0.0-104.0,,1.0,748.0,0.0,0.304806932,0.0,0.571167718,1.0,0.680472346,1.0,0.25,True,,57adbbe8bcf54e000152816b,,6492671,107,,evan-feature22,full_rf_b,,1
77,16984,108,,,,1,1,0.0,1.0,0.0,1.0,,0.0-105.0,,1.0,1339.0,0.0,0.37919861,1.0,0.5724849710000001,1.0,0.705638003,0.0,0.30179300600000003,True,,57adbbe8bcf54e000152816b,,6503766,108,,evan-feature22,full_rf_b,,1
78,16985,109,,,,2,2,0.0,0.0,0.0,1.0,,0.0-106.0,,0.0,604.0,0.0,0.464277969,0.0,0.554034373,0.0,0.7372627340000001,0.0,0.264699741,True,,57adbbe8bcf54e000152816b,,6514126,109,,evan-feature22,full_rf_b,,1
79,16986,110,,,,2,2,1.0,1.0,0.0,1.0,,0.0-107.0,,1.0,751.0,0.0,0.465104323,1.0,0.530793115,1.0,0.75,1.0,0.31683071,True,,57adbbe8bcf54e000152816b,,6524639,110,,evan-feature22,full_rf_b,,0
80,16987,111,,,,1,1,1.0,1.0,-1.0,0.0,,0.0-108.0,,-1.0,775.0,1.0,0.465104323,1.0,0.530793115,1.0,0.75,0.0,0.31683071,True,,57adbbe8bcf54e000152816b,,6535172,111,,evan-feature22,full_rf_b,,1
81,16988,112,,,,2,2,0.0,0.0,-1.0,0.0,,0.0-109.0,,0.0,555.0,1.0,0.46833986,1.0,0.570249239,0.0,0.7244472590000001,0.0,0.364114163,True,,57adbbe8bcf54e000152816b,,6545485,112,,evan-feature22,full_rf_b,,1
82,16989,113,,,,1,1,0.0,1.0,-1.0,0.0,,0.0-110.0,,0.0,672.0,0.0,0.445444024,1.0,0.649673355,1.0,0.6845441290000001,0.0,0.300660449,True,,57adbbe8bcf54e000152816b,,6555916,113,,evan-feature22,full_rf_b,,1
83,16990,114,,,,1,1,1.0,1.0,-1.0,0.0,,0.0-111.0,,-1.0,583.0,1.0,0.39909721299999995,1.0,0.6715179509999999,1.0,0.742310028,1.0,0.35496088299999995,True,,57adbbe8bcf54e000152816b,,6566255,114,,evan-feature22,full_rf_b,,0
84,16991,115,,,,2,2,0.0,1.0,0.0,1.0,,0.0-112.0,,1.0,909.0,0.0,0.37956104799999996,1.0,0.694725302,0.0,0.7181651309999999,1.0,0.38726906299999997,True,,57adbbe8bcf54e000152816b,,6576922,115,,evan-feature22,full_rf_b,,1
85,16992,116,,,,1,1,0.0,1.0,0.0,1.0,,0.0-113.0,,1.0,521.0,0.0,0.404995034,1.0,0.724375412,1.0,0.6910946859999999,0.0,0.387187347,True,,57adbbe8bcf54e000152816b,,6587198,116,,evan-feature22,full_rf_b,,1
86,16993,117,,,,1,1,1.0,1.0,-1.0,0.0,,0.0-114.0,,-1.0,732.0,1.0,0.461740803,1.0,0.75,1.0,0.75,0.0,0.34872038200000005,True,,57adbbe8bcf54e000152816b,,6597687,117,,evan-feature22,full_rf_b,,0
87,16994,118,,,,SLOW,SLOW,,,-1.0,0.0,,0.0-115.0,,-3.0,,1.0,0.43821380600000004,1.0,0.738833273,0.0,0.728286963,0.0,0.399538128,True,,57adbbe8bcf54e000152816b,,6603488,118,,evan-feature22,full_rf_b,,1
88,16995,119,,,,2,2,1.0,1.0,0.0,1.0,,0.0-116.0,,1.0,1205.0,0.0,0.41709882,0.0,0.736666736,1.0,0.75,1.0,0.389095584,True,,57adbbe8bcf54e000152816b,,6614449,119,,evan-feature22,full_rf_b,,1
89,16996,120,,,,1,1,0.0,1.0,0.0,1.0,,0.0-117.0,,1.0,694.0,0.0,0.39749009799999996,1.0,0.744320029,1.0,0.75,1.0,0.363848678,True,,57adbbe8bcf54e000152816b,,6624897,120,,evan-feature22,full_rf_b,,1
90,16997,121,,,,1,1,0.0,1.0,-1.0,0.0,,0.0-118.0,,0.0,1616.0,0.0,0.392653706,1.0,0.75,1.0,0.75,1.0,0.384386976,True,,57adbbe8bcf54e000152816b,,6636272,121,,evan-feature22,full_rf_b,,0
91,16998,122,,,,2,2,0.0,1.0,0.0,1.0,,0.0-119.0,,1.0,1005.0,1.0,0.31190902600000003,0.0,0.75,0.0,0.732413819,1.0,0.413082932,True,,57adbbe8bcf54e000152816b,,6647031,122,,evan-feature22,full_rf_b,,1
92,16999,123,,,,1,1,1.0,1.0,-1.0,0.0,,0.0-120.0,,-1.0,587.0,1.0,0.366917648,1.0,0.740073855,1.0,0.75,0.0,0.352861979,True,,57adbbe8bcf54e000152816b,,6657374,123,,evan-feature22,full_rf_b,,1
93,17000,124,,,,1,1,0.0,1.0,-1.0,0.0,,0.0-121.0,,0.0,2505.0,0.0,0.3645172,1.0,0.721770713,1.0,0.75,0.0,0.404074511,True,,57adbbe8bcf54e000152816b,,6669635,124,,evan-feature22,full_rf_b,,0
94,17001,125,,,,1,1,1.0,1.0,-1.0,0.0,,0.0-122.0,,-1.0,1118.0,1.0,0.35205600299999995,1.0,0.68983859,0.0,0.739735447,0.0,0.366895945,True,,57adbbe8bcf54e000152816b,,6680512,125,,evan-feature22,full_rf_b,,0
95,17002,126,,,,2,2,1.0,0.0,-1.0,0.0,,0.0-123.0,,-1.0,350.0,1.0,0.40998722600000004,0.0,0.720859127,1.0,0.673854955,0.0,0.368528541,True,,57adbbe8bcf54e000152816b,,6690620,126,,evan-feature22,full_rf_b,,1
96,17003,127,,,,1,1,0.0,0.0,-1.0,0.0,,0.0-124.0,,0.0,368.0,0.0,0.353625316,0.0,0.75,1.0,0.695605473,0.0,0.38303674200000004,True,,57adbbe8bcf54e000152816b,,6700753,127,,evan-feature22,full_rf_b,,1
97,17004,128,,,,1,1,0.0,1.0,-1.0,0.0,,0.0-125.0,,0.0,818.0,0.0,0.359216989,1.0,0.75,0.0,0.6987915090000001,1.0,0.35169046200000004,True,,57adbbe8bcf54e000152816b,,6711327,128,,evan-feature22,full_rf_b,,0
98,17005,129,,,,1,1,0.0,0.0,-1.0,0.0,,0.0-126.0,,0.0,467.0,0.0,0.35834496899999996,0.0,0.75,1.0,0.707067742,0.0,0.416763636,True,,57adbbe8bcf54e000152816b,,6721554,129,,evan-feature22,full_rf_b,,0
99,17006,130,,,,2,2,1.0,0.0,0.0,1.0,,0.0-127.0,,0.0,601.0,0.0,0.38741613799999997,1.0,0.7177369570000001,1.0,0.734902455,0.0,0.49438664299999996,True,,57adbbe8bcf54e000152816b,,6731912,130,,evan-feature22,full_rf_b,,1
100,17007,131,,,,SLOW,SLOW,,,-1.0,0.0,,0.0-128.0,,-3.0,,0.0,0.405255252,0.0,0.7300466640000001,0.0,0.7027748070000001,0.0,0.504359668,True,,57adbbe8bcf54e000152816b,,6737716,131,,evan-feature22,full_rf_b,,1
101,17008,132,,,,1,1,1.0,1.0,-1.0,0.0,,0.0-129.0,,-1.0,703.0,1.0,0.40697073,1.0,0.7260142190000001,0.0,0.724461982,0.0,0.522779179,True,,57adbbe8bcf54e000152816b,,6748176,132,,evan-feature22,full_rf_b,,1
102,17009,133,,,,2,2,0.0,0.0,-1.0,0.0,,0.0-130.0,,0.0,323.0,1.0,0.43906215299999996,1.0,0.7252802340000001,0.0,0.719079934,0.0,0.5712990579999999,True,,57adbbe8bcf54e000152816b,,6758254,133,,evan-feature22,full_rf_b,,1
103,17010,134,,,,2,2,0.0,0.0,0.0,1.0,,0.0-131.0,,0.0,1737.0,0.0,0.4076705,0.0,0.73280499,0.0,0.681313127,0.0,0.523891346,True,,57adbbe8bcf54e000152816b,,6769747,134,,evan-feature22,full_rf_b,,0
104,17011,135,,,,2,2,1.0,0.0,0.0,1.0,,0.0-132.0,,0.0,2109.0,1.0,0.399102911,1.0,0.730498344,1.0,0.661080239,0.0,0.46742603,True,,57adbbe8bcf54e000152816b,,6781612,135,,evan-feature22,full_rf_b,,0
105,17012,136,,,,1,1,0.0,0.0,0.0,1.0,,0.0-133.0,,0.0,61.0,0.0,0.356477282,0.0,0.712296395,1.0,0.641812684,0.0,0.44868414,True,,57adbbe8bcf54e000152816b,,6791429,136,,evan-feature22,full_rf_b,,1
106,17013,137,,,,2,2,1.0,0.0,-1.0,0.0,,0.0-134.0,,-1.0,307.0,1.0,0.462760722,1.0,0.692349322,1.0,0.700947931,0.0,0.394680266,True,,57adbbe8bcf54e000152816b,,6801492,137,,evan-feature22,full_rf_b,,1
107,17014,138,,,,1,1,0.0,0.0,-1.0,0.0,,0.0-135.0,,0.0,901.0,0.0,0.422306413,0.0,0.718375916,1.0,0.706340917,1.0,0.367787185,True,,57adbbe8bcf54e000152816b,,6812148,138,,evan-feature22,full_rf_b,,1
108,17016,140,,,,1,1,0.0,1.0,-1.0,0.0,,0.0-137.0,,0.0,1187.0,0.0,0.4582233,1.0,0.643834117,1.0,0.75,1.0,0.39615823299999997,True,,57adbbe8bcf54e000152816b,,6990968,140,,evan-feature22,full_rf_b,,0
109,17017,141,,,,2,2,1.0,0.0,-1.0,0.0,,0.0-138.0,,-1.0,462.0,1.0,0.43813437899999996,1.0,0.651283804,1.0,0.729674191,0.0,0.37711048,True,,57adbbe8bcf54e000152816b,,7001188,141,,evan-feature22,full_rf_b,,1
110,17018,142,,,,2,2,0.0,1.0,-1.0,0.0,,0.0-139.0,,0.0,2957.0,0.0,0.471199094,1.0,0.6470010979999999,0.0,0.715008097,1.0,0.410656191,True,,57adbbe8bcf54e000152816b,,7013910,142,,evan-feature22,full_rf_b,,0
111,17019,143,,,,1,1,1.0,0.0,-1.0,0.0,,0.0-140.0,,-1.0,485.0,1.0,0.42486406,0.0,0.629771829,0.0,0.6550939960000001,1.0,0.459093873,True,,57adbbe8bcf54e000152816b,,7024150,143,,evan-feature22,full_rf_b,,1
112,17020,144,,,,SLOW,SLOW,,,-1.0,0.0,,0.0-141.0,,-3.0,,0.0,0.4803197,1.0,0.645842715,1.0,0.6421749920000001,0.0,0.443092151,True,,57adbbe8bcf54e000152816b,,7029955,144,,evan-feature22,full_rf_b,,1
113,17021,145,,,,1,1,0.0,1.0,0.0,1.0,,0.0-142.0,,1.0,117.0,0.0,0.521848997,1.0,0.735801074,0.0,0.6691348460000001,0.0,0.45259351600000003,True,,57adbbe8bcf54e000152816b,,7039837,145,,evan-feature22,full_rf_b,,1
114,17022,146,,,,1,1,1.0,1.0,-1.0,0.0,,0.0-143.0,,-1.0,2629.0,1.0,0.49565621299999996,1.0,0.742400847,1.0,0.661512553,0.0,0.483110831,True,,57adbbe8bcf54e000152816b,,7052220,146,,evan-feature22,full_rf_b,,0
115,17023,147,,,,2,2,1.0,0.0,-1.0,0.0,,0.0-144.0,,-1.0,691.0,0.0,0.521564361,0.0,0.731078632,1.0,0.6774886809999999,0.0,0.483263956,True,,57adbbe8bcf54e000152816b,,7062667,147,,evan-feature22,full_rf_b,,1
116,17024,148,,,,1,1,0.0,0.0,-1.0,0.0,,0.0-145.0,,0.0,395.0,0.0,0.558893102,0.0,0.719810023,1.0,0.67461031,0.0,0.499349834,True,,57adbbe8bcf54e000152816b,,7072819,148,,evan-feature22,full_rf_b,,1
117,17025,149,,,,1,1,1.0,0.0,-1.0,0.0,,0.0-146.0,,-1.0,826.0,1.0,0.611031046,0.0,0.75,1.0,0.688072995,0.0,0.5321422729999999,True,,57adbbe8bcf54e000152816b,,7083423,149,,evan-feature22,full_rf_b,,0
118,17026,150,,,,2,2,1.0,1.0,0.0,1.0,,0.0-147.0,,1.0,1142.0,1.0,0.633223941,1.0,0.713567728,1.0,0.75,1.0,0.48185314700000004,True,,57adbbe8bcf54e000152816b,,7094322,150,,evan-feature22,full_rf_b,,1
119,17027,151,,,,SLOW,SLOW,,,-1.0,0.0,,0.0-148.0,,-3.0,,1.0,0.664001694,1.0,0.705509768,1.0,0.75,1.0,0.500211065,True,,57adbbe8bcf54e000152816b,,7100125,151,,evan-feature22,full_rf_b,,1
120,17028,152,,,,2,2,0.0,1.0,-1.0,0.0,,0.0-149.0,,0.0,570.0,1.0,0.664001694,0.0,0.705509768,0.0,0.75,1.0,0.500211065,True,,57adbbe8bcf54e000152816b,,7110458,152,,evan-feature22,full_rf_b,,1
121,17029,153,,,,1,1,0.0,1.0,-1.0,0.0,,0.0-150.0,,0.0,613.0,0.0,0.696508041,1.0,0.71066027,1.0,0.717028709,0.0,0.49792991,True,,57adbbe8bcf54e000152816b,,7120827,153,,evan-feature22,full_rf_b,,1
122,17030,154,,,,2,2,1.0,1.0,0.0,1.0,,0.0-151.0,,1.0,309.0,1.0,0.699883272,1.0,0.75,1.0,0.713543895,1.0,0.496962643,True,,57adbbe8bcf54e000152816b,,7130893,154,,evan-feature22,full_rf_b,,1
123,17031,155,,,,1,1,1.0,0.0,0.0,1.0,,0.0-152.0,,0.0,417.0,1.0,0.741163419,0.0,0.75,0.0,0.64691024,1.0,0.513858197,True,,57adbbe8bcf54e000152816b,,7141067,155,,evan-feature22,full_rf_b,,1
124,17032,156,,,,2,2,0.0,0.0,0.0,1.0,,0.0-153.0,,0.0,538.0,1.0,0.75,0.0,0.70816558,0.0,0.594499079,0.0,0.48502124,True,,57adbbe8bcf54e000152816b,,7151362,156,,evan-feature22,full_rf_b,,1
125,17033,157,,,,2,2,1.0,0.0,-1.0,0.0,,0.0-154.0,,-1.0,166.0,1.0,0.75,1.0,0.721848901,1.0,0.62197249,0.0,0.48263586399999997,True,,57adbbe8bcf54e000152816b,,7161287,157,,evan-feature22,full_rf_b,,0
126,17034,158,,,,1,1,1.0,1.0,-1.0,0.0,,0.0-155.0,,-1.0,3929.0,1.0,0.75,1.0,0.74813071,1.0,0.584357161,1.0,0.411477782,True,,57adbbe8bcf54e000152816b,,7174973,158,,evan-feature22,full_rf_b,,1
127,17035,159,,,,1,1,1.0,1.0,-1.0,0.0,,0.0-156.0,,-1.0,405.0,1.0,0.75,1.0,0.75,1.0,0.52287236,0.0,0.488290656,True,,57adbbe8bcf54e000152816b,,7185135,159,,evan-feature22,full_rf_b,,0
128,17036,160,,,,2,2,0.0,1.0,-1.0,0.0,,0.0-157.0,,0.0,705.0,0.0,0.75,1.0,0.75,0.0,0.544321581,1.0,0.53143059,True,,57adbbe8bcf54e000152816b,,7195595,160,,evan-feature22,full_rf_b,,1
129,17037,161,,,,1,1,1.0,0.0,-1.0,0.0,,0.0-158.0,,-1.0,495.0,1.0,0.726754564,0.0,0.75,1.0,0.5129306370000001,1.0,0.530592445,True,,57adbbe8bcf54e000152816b,,7205847,161,,evan-feature22,full_rf_b,,1
130,17038,162,,,,2,2,1.0,0.0,0.0,1.0,,0.0-159.0,,0.0,19.0,0.0,0.75,1.0,0.7392590729999999,1.0,0.479875835,0.0,0.547007051,True,,57adbbe8bcf54e000152816b,,7215623,162,,evan-feature22,full_rf_b,,1
131,17039,163,,,,2,2,0.0,1.0,0.0,1.0,,0.0-160.0,,1.0,595.0,0.0,0.75,1.0,0.7393376979999999,0.0,0.546045419,1.0,0.541267353,True,,57adbbe8bcf54e000152816b,,7225974,163,,evan-feature22,full_rf_b,,0
132,17040,164,,,,1,1,0.0,0.0,-1.0,0.0,,0.0-161.0,,0.0,3258.0,0.0,0.75,0.0,0.75,0.0,0.485725895,1.0,0.527625395,True,,57adbbe8bcf54e000152816b,,7238985,164,,evan-feature22,full_rf_b,,1
133,17041,165,,,,1,1,0.0,0.0,0.0,1.0,,0.0-162.0,,0.0,1057.0,0.0,0.75,0.0,0.725087974,1.0,0.488603595,1.0,0.504019206,True,,57adbbe8bcf54e000152816b,,7249798,165,,evan-feature22,full_rf_b,,0
134,17042,166,,,,1,1,0.0,1.0,-1.0,0.0,,0.0-163.0,,0.0,930.0,0.0,0.745504295,1.0,0.75,1.0,0.452379914,1.0,0.50131194,True,,57adbbe8bcf54e000152816b,,7260484,166,,evan-feature22,full_rf_b,,0
135,17043,167,,,,2,2,0.0,1.0,0.0,1.0,,0.0-164.0,,1.0,2706.0,1.0,0.728513874,0.0,0.75,0.0,0.44125567200000004,1.0,0.531454591,True,,57adbbe8bcf54e000152816b,,7272946,167,,evan-feature22,full_rf_b,,1
136,17044,168,,,,1,1,0.0,1.0,-1.0,0.0,,0.0-165.0,,0.0,452.0,0.0,0.73790804,1.0,0.75,1.0,0.413036656,0.0,0.524619035,True,,57adbbe8bcf54e000152816b,,7283153,168,,evan-feature22,full_rf_b,,1
137,17045,169,,,,2,2,0.0,1.0,-1.0,0.0,,0.0-166.0,,0.0,640.0,0.0,0.7080961309999999,0.0,0.708666865,0.0,0.431915581,1.0,0.481819489,True,,57adbbe8bcf54e000152816b,,7293550,169,,evan-feature22,full_rf_b,,1
138,17046,170,,,,1,1,0.0,0.0,-1.0,0.0,,0.0-167.0,,0.0,2949.0,0.0,0.721378003,0.0,0.71605913,0.0,0.36642387,0.0,0.5036739929999999,True,,57adbbe8bcf54e000152816b,,7306254,170,,evan-feature22,full_rf_b,,1
139,17047,171,,,,2,2,0.0,0.0,0.0,1.0,,0.0-168.0,,0.0,487.0,1.0,0.7340618959999999,1.0,0.699323252,0.0,0.35298046299999997,0.0,0.511241692,True,,57adbbe8bcf54e000152816b,,7316500,171,,evan-feature22,full_rf_b,,1
140,17048,172,,,,1,1,1.0,0.0,0.0,1.0,,0.0-169.0,,0.0,573.0,1.0,0.75,0.0,0.70412698,1.0,0.380734814,1.0,0.529580116,True,,57adbbe8bcf54e000152816b,,7326831,172,,evan-feature22,full_rf_b,,1
141,17049,173,,,,2,2,0.0,1.0,0.0,1.0,,0.0-170.0,,1.0,365.0,1.0,0.7436654909999999,1.0,0.711182751,0.0,0.41125331,1.0,0.49554405,True,,57adbbe8bcf54e000152816b,,7336956,173,,evan-feature22,full_rf_b,,1
142,17050,174,,,,2,2,0.0,0.0,-1.0,0.0,,0.0-171.0,,0.0,764.0,1.0,0.731607915,1.0,0.651774583,0.0,0.35688023,0.0,0.45194491600000003,True,,57adbbe8bcf54e000152816b,,7347481,174,,evan-feature22,full_rf_b,,0
143,17051,175,,,,2,2,0.0,1.0,0.0,1.0,,0.0-172.0,,1.0,2686.0,1.0,0.75,1.0,0.75,0.0,0.283145374,1.0,0.528608005,True,,57adbbe8bcf54e000152816b,,7359921,175,,evan-feature22,full_rf_b,,0
144,17052,176,,,,1,1,1.0,1.0,-1.0,0.0,,0.0-173.0,,-1.0,318.0,1.0,0.7491416890000001,1.0,0.7423785959999999,0.0,0.29135870399999997,1.0,0.498888318,True,,57adbbe8bcf54e000152816b,,7369994,176,,evan-feature22,full_rf_b,,1
145,17053,177,,,,SLOW,SLOW,,,0.0,1.0,,0.0-174.0,,-3.0,,0.0,0.708569387,0.0,0.717682277,1.0,0.294421699,0.0,0.493838163,True,,57adbbe8bcf54e000152816b,,7375797,177,,evan-feature22,full_rf_b,,1
146,17054,178,,,,1,1,0.0,1.0,-1.0,0.0,,0.0-175.0,,0.0,1012.0,0.0,0.75,1.0,0.7383382159999999,0.0,0.356098707,1.0,0.442533405,True,,57adbbe8bcf54e000152816b,,7386565,178,,evan-feature22,full_rf_b,,1
147,17055,179,,,,1,1,1.0,1.0,-1.0,0.0,,0.0-176.0,,-1.0,786.0,1.0,0.744527075,1.0,0.75,1.0,0.334127506,0.0,0.393165805,True,,57adbbe8bcf54e000152816b,,7397105,179,,evan-feature22,full_rf_b,,0
148,17056,180,,,,2,2,1.0,0.0,-1.0,0.0,,0.0-177.0,,-1.0,472.0,1.0,0.75,1.0,0.75,1.0,0.33571021799999995,0.0,0.350393962,True,,57adbbe8bcf54e000152816b,,7407332,180,,evan-feature22,full_rf_b,,1
149,17057,181,,,,1,1,1.0,1.0,0.0,1.0,,0.0-178.0,,1.0,569.0,1.0,0.75,1.0,0.75,1.0,0.313628297,1.0,0.36349657399999996,True,,57adbbe8bcf54e000152816b,,7417656,181,,evan-feature22,full_rf_b,,1
150,17058,182,,,,1,1,0.0,1.0,-1.0,0.0,,0.0-179.0,,0.0,664.0,0.0,0.75,1.0,0.734284182,1.0,0.262667667,0.0,0.380199119,True,,57adbbe8bcf54e000152816b,,7428078,182,,evan-feature22,full_rf_b,,0
151,17059,183,,,,1,1,1.0,0.0,-1.0,0.0,,0.0-180.0,,-1.0,1826.0,1.0,0.75,0.0,0.75,0.0,0.25,0.0,0.394494013,True,,57adbbe8bcf54e000152816b,,7439665,183,,evan-feature22,full_rf_b,,0
152,17060,184,,,,2,2,1.0,0.0,-1.0,0.0,,0.0-181.0,,-1.0,1161.0,1.0,0.722298145,1.0,0.7357822340000001,1.0,0.25,0.0,0.319142121,True,,57adbbe8bcf54e000152816b,,7450584,184,,evan-feature22,full_rf_b,,1
153,17061,185,,,,1,1,1.0,1.0,-1.0,0.0,,0.0-182.0,,-1.0,1406.0,1.0,0.73149275,1.0,0.724276446,0.0,0.305856907,0.0,0.281315057,True,,57adbbe8bcf54e000152816b,,7461745,185,,evan-feature22,full_rf_b,,1
154,17062,186,,,,SLOW,SLOW,,,-1.0,0.0,,0.0-183.0,,-3.0,,0.0,0.7458732690000001,1.0,0.7336382459999999,0.0,0.272571964,0.0,0.266021999,True,,57adbbe8bcf54e000152816b,,7467549,186,,evan-feature22,full_rf_b,,1
155,17063,187,,,,2,2,0.0,1.0,0.0,1.0,,0.0-184.0,,1.0,818.0,1.0,0.705579037,1.0,0.720778292,0.0,0.320238144,1.0,0.30971744,True,,57adbbe8bcf54e000152816b,,7478125,187,,evan-feature22,full_rf_b,,1
156,17064,188,,,,2,2,0.0,1.0,0.0,1.0,,0.0-185.0,,1.0,1226.0,0.0,0.700425648,0.0,0.7198784009999999,0.0,0.272590393,1.0,0.304182931,True,,57adbbe8bcf54e000152816b,,7489108,188,,evan-feature22,full_rf_b,,0
157,17065,189,,,,1,1,1.0,1.0,0.0,1.0,,0.0-186.0,,1.0,618.0,1.0,0.735590785,1.0,0.722714973,1.0,0.25,0.0,0.323421091,True,,57adbbe8bcf54e000152816b,,7499480,189,,evan-feature22,full_rf_b,,1
158,17066,190,,,,2,2,1.0,0.0,0.0,1.0,,0.0-187.0,,0.0,2357.0,1.0,0.724807662,1.0,0.63146213,1.0,0.36836492600000004,0.0,0.34592153299999995,True,,57adbbe8bcf54e000152816b,,7511596,190,,evan-feature22,full_rf_b,,1
159,17067,191,,,,2,2,1.0,0.0,-1.0,0.0,,0.0-188.0,,-1.0,439.0,1.0,0.7352796909999999,0.0,0.555111392,1.0,0.36003922,0.0,0.31433779999999995,True,,57adbbe8bcf54e000152816b,,7521793,191,,evan-feature22,full_rf_b,,0
160,17068,192,notice,,,,,,,,,,0.0-189.0,"{""Q0"":""No""}",,7467.0,,,,,,,,,True,,57adbbe8bcf54e000152816b,,7529261,192,Q,survey-text,full_rf_b,,1
161,17069,193,track1,,[1],,,,,,,,0.0-190.0,"{""Q0"":""no""}",,2351.0,,,,,,,,,True,,57adbbe8bcf54e000152816b,,7531614,193,Q,evan-quiz,full_rf_b,,1
162,17070,194,track2,,[0],,,,,,,,0.0-191.0,"{""Q0"":""yes""}",,7345.0,,,,,,,,,True,,57adbbe8bcf54e000152816b,,7538961,194,Q,evan-quiz,full_rf_b,,1
163,17071,195,strat,,,,,,,,,,0.0-192.0,"{""Q0"":""No""}",,21506.0,,,,,,,,,True,,57adbbe8bcf54e000152816b,,7560470,195,Q,survey-text,full_rf_b,,1
