,index,Unnamed: 0,Q_name,button_pressed,choice_idxs,chosen_pos,chosen_state,chosen_state_f_1_outcome,chosen_state_f_2_outcome,f_1_reward,f_2_reward,incor_questions,internal_node_id,responses,reward_received,rt,s_1_f_1_outcome,s_1_f_1_prob,s_1_f_2_outcome,s_1_f_2_prob,s_2_f_1_outcome,s_2_f_1_prob,s_2_f_2_outcome,s_2_f_2_prob,safe_first,stimulus,subjectID,success,time_elapsed,trial_index,trial_num,trial_type,version,view_history,switching
0,17504,35,,,,SLOW,SLOW,,,0.0,1.0,,0.0-27.0,,-3.0,,1.0,0.6,1.0,0.6,1.0,0.4,0.0,0.4,True,,5ee83eeb1c649a139c9f84ef,,1300284,35,,evan-feature22,full_rf_b,,0
1,17505,36,,,,SLOW,SLOW,,,0.0,1.0,,0.0-28.0,,-3.0,,1.0,0.608053294,1.0,0.63424552,0.0,0.397152172,0.0,0.347069101,True,,5ee83eeb1c649a139c9f84ef,,1306089,36,,evan-feature22,full_rf_b,,0
2,17506,37,,,,2,2,1.0,0.0,0.0,1.0,,0.0-29.0,,0.0,683.855,0.0,0.642237155,0.0,0.648566321,1.0,0.389407674,0.0,0.285525717,True,,5ee83eeb1c649a139c9f84ef,,1316535,37,,evan-feature22,full_rf_b,,1
3,17507,38,,,,2,2,1.0,0.0,0.0,1.0,,0.0-30.0,,0.0,297.885,1.0,0.661086576,0.0,0.630492543,1.0,0.399058924,0.0,0.25,True,,5ee83eeb1c649a139c9f84ef,,1326595,38,,evan-feature22,full_rf_b,,0
4,17508,39,,,,1,1,0.0,1.0,0.0,1.0,,0.0-31.0,,1.0,496.895,0.0,0.631324137,1.0,0.6269842929999999,0.0,0.38734784299999997,0.0,0.25,True,,5ee83eeb1c649a139c9f84ef,,1336855,39,,evan-feature22,full_rf_b,,1
5,17509,40,,,,2,2,0.0,0.0,0.0,1.0,,0.0-32.0,,0.0,456.005,1.0,0.6381991370000001,1.0,0.68987999,0.0,0.384107265,0.0,0.271332943,True,,5ee83eeb1c649a139c9f84ef,,1347072,40,,evan-feature22,full_rf_b,,1
6,17510,41,,,,1,1,1.0,1.0,0.0,1.0,,0.0-33.0,,1.0,23.27500001,1.0,0.66034901,1.0,0.742641349,0.0,0.360225629,0.0,0.25,True,,5ee83eeb1c649a139c9f84ef,,1356857,41,,evan-feature22,full_rf_b,,1
7,17511,42,,,,1,1,1.0,1.0,-1.0,0.0,,0.0-34.0,,-1.0,726.77,1.0,0.638612418,1.0,0.75,0.0,0.367273939,1.0,0.25,True,,5ee83eeb1c649a139c9f84ef,,1367347,42,,evan-feature22,full_rf_b,,0
8,17512,43,,,,2,2,0.0,0.0,0.0,1.0,,0.0-35.0,,0.0,1434.915,1.0,0.624340629,1.0,0.75,0.0,0.425829545,0.0,0.25,True,,5ee83eeb1c649a139c9f84ef,,1378543,43,,evan-feature22,full_rf_b,,1
9,17513,44,,,,1,1,1.0,1.0,0.0,1.0,,0.0-36.0,,1.0,884.555,1.0,0.621999804,1.0,0.75,0.0,0.368609357,0.0,0.25,True,,5ee83eeb1c649a139c9f84ef,,1389189,44,,evan-feature22,full_rf_b,,1
10,17514,45,,,,1,1,0.0,1.0,-1.0,0.0,,0.0-37.0,,0.0,837.88,0.0,0.62666403,1.0,0.75,0.0,0.311151498,0.0,0.25,True,,5ee83eeb1c649a139c9f84ef,,1399787,45,,evan-feature22,full_rf_b,,0
11,17515,46,,,,1,1,1.0,1.0,-1.0,0.0,,0.0-38.0,,-1.0,752.005,1.0,0.6819650009999999,1.0,0.75,1.0,0.310763048,0.0,0.25,True,,5ee83eeb1c649a139c9f84ef,,1410302,46,,evan-feature22,full_rf_b,,0
12,17516,47,,,,2,2,0.0,0.0,0.0,1.0,,0.0-39.0,,0.0,2743.53,0.0,0.740626951,1.0,0.75,0.0,0.25,0.0,0.25,True,,5ee83eeb1c649a139c9f84ef,,1422809,47,,evan-feature22,full_rf_b,,1
13,17517,48,,,,1,1,1.0,1.0,0.0,1.0,,0.0-40.0,,1.0,815.775,1.0,0.739599242,1.0,0.742034978,0.0,0.25397114600000004,0.0,0.25,True,,5ee83eeb1c649a139c9f84ef,,1433387,48,,evan-feature22,full_rf_b,,1
14,17518,49,,,,2,2,1.0,0.0,0.0,1.0,,0.0-41.0,,0.0,1031.115,1.0,0.732341315,1.0,0.72735643,1.0,0.25,0.0,0.25,True,,5ee83eeb1c649a139c9f84ef,,1444180,49,,evan-feature22,full_rf_b,,1
15,17519,50,,,,1,1,1.0,1.0,0.0,1.0,,0.0-42.0,,1.0,624.255,1.0,0.7062287770000001,1.0,0.75,0.0,0.29002151,0.0,0.288256649,True,,5ee83eeb1c649a139c9f84ef,,1454567,50,,evan-feature22,full_rf_b,,1
16,17520,51,,,,2,2,0.0,0.0,-1.0,0.0,,0.0-43.0,,0.0,26.11500002,0.0,0.7086029209999999,1.0,0.75,0.0,0.274129113,0.0,0.262851608,True,,5ee83eeb1c649a139c9f84ef,,1464352,51,,evan-feature22,full_rf_b,,1
17,17521,52,,,,2,2,0.0,0.0,0.0,1.0,,0.0-44.0,,0.0,1409.85,1.0,0.669189651,1.0,0.727614338,0.0,0.298444036,0.0,0.296944518,True,,5ee83eeb1c649a139c9f84ef,,1475521,52,,evan-feature22,full_rf_b,,0
18,17522,53,,,,2,2,1.0,0.0,-1.0,0.0,,0.0-45.0,,-1.0,2552.68,1.0,0.6819912929999999,0.0,0.7179434290000001,1.0,0.265003961,0.0,0.28157921199999997,True,,5ee83eeb1c649a139c9f84ef,,1487837,53,,evan-feature22,full_rf_b,,0
19,17523,54,,,,SLOW,SLOW,,,-1.0,0.0,,0.0-46.0,,-3.0,,0.0,0.665275002,1.0,0.723065271,1.0,0.260414971,0.0,0.30973870000000003,True,,5ee83eeb1c649a139c9f84ef,,1493642,54,,evan-feature22,full_rf_b,,1
20,17524,55,,,,SLOW,SLOW,,,0.0,1.0,,0.0-47.0,,-3.0,,0.0,0.6660593260000001,1.0,0.728032907,0.0,0.30922817,0.0,0.338778608,True,,5ee83eeb1c649a139c9f84ef,,1499448,55,,evan-feature22,full_rf_b,,0
21,17525,56,,,,2,2,0.0,0.0,0.0,1.0,,0.0-48.0,,0.0,3959.68,0.0,0.702068785,0.0,0.6528750879999999,0.0,0.287329608,0.0,0.35789613200000003,True,,5ee83eeb1c649a139c9f84ef,,1513171,56,,evan-feature22,full_rf_b,,1
22,17526,57,,,,2,2,0.0,0.0,0.0,1.0,,0.0-49.0,,0.0,687.9,1.0,0.651939787,1.0,0.636725589,0.0,0.284834488,0.0,0.358563756,True,,5ee83eeb1c649a139c9f84ef,,1523619,57,,evan-feature22,full_rf_b,,0
23,17527,58,,,,1,1,1.0,0.0,0.0,1.0,,0.0-50.0,,0.0,390.7,1.0,0.67573929,0.0,0.612550049,1.0,0.37130387600000003,1.0,0.383542402,True,,5ee83eeb1c649a139c9f84ef,,1533771,58,,evan-feature22,full_rf_b,,1
24,17528,59,,,,1,1,1.0,1.0,0.0,1.0,,0.0-51.0,,1.0,2841.62,1.0,0.620753801,1.0,0.60513644,1.0,0.385529434,1.0,0.340361743,True,,5ee83eeb1c649a139c9f84ef,,1546374,59,,evan-feature22,full_rf_b,,0
25,17529,60,,,,1,1,0.0,0.0,-1.0,0.0,,0.0-52.0,,0.0,778.18,0.0,0.673564893,0.0,0.672437924,0.0,0.292955382,1.0,0.337633795,True,,5ee83eeb1c649a139c9f84ef,,1556914,60,,evan-feature22,full_rf_b,,0
26,17530,61,,,,2,2,0.0,0.0,0.0,1.0,,0.0-53.0,,0.0,543.85,0.0,0.6749427,1.0,0.724197502,0.0,0.32391132100000003,0.0,0.350995264,True,,5ee83eeb1c649a139c9f84ef,,1567223,61,,evan-feature22,full_rf_b,,1
27,17531,62,,,,2,2,0.0,0.0,0.0,1.0,,0.0-54.0,,0.0,448.38,0.0,0.6940159379999999,1.0,0.75,0.0,0.31710554399999996,0.0,0.413450341,True,,5ee83eeb1c649a139c9f84ef,,1577429,62,,evan-feature22,full_rf_b,,0
28,17532,63,,,,1,1,1.0,1.0,0.0,1.0,,0.0-55.0,,1.0,419.825,1.0,0.6916018270000001,1.0,0.69001187,0.0,0.261817804,1.0,0.40038635,True,,5ee83eeb1c649a139c9f84ef,,1587611,63,,evan-feature22,full_rf_b,,1
29,17533,64,,,,2,2,0.0,0.0,0.0,1.0,,0.0-56.0,,0.0,419.225,0.0,0.641061544,0.0,0.71337992,0.0,0.277296461,0.0,0.47372791700000005,True,,5ee83eeb1c649a139c9f84ef,,1597789,64,,evan-feature22,full_rf_b,,1
30,17534,65,,,,1,1,0.0,1.0,0.0,1.0,,0.0-57.0,,1.0,601.32,0.0,0.6082438520000001,1.0,0.708471106,1.0,0.28745137,1.0,0.564174476,True,,5ee83eeb1c649a139c9f84ef,,1608152,65,,evan-feature22,full_rf_b,,1
31,17535,66,,,,SLOW,SLOW,,,-1.0,0.0,,0.0-58.0,,-3.0,,0.0,0.6051112120000001,0.0,0.7118147229999999,0.0,0.272390611,0.0,0.5595149939999999,True,,5ee83eeb1c649a139c9f84ef,,1613958,66,,evan-feature22,full_rf_b,,1
32,17536,67,,,,SLOW,SLOW,,,-1.0,0.0,,0.0-59.0,,-3.0,,1.0,0.582420852,1.0,0.635867583,1.0,0.31089574,1.0,0.5227206520000001,True,,5ee83eeb1c649a139c9f84ef,,1619763,67,,evan-feature22,full_rf_b,,0
33,17537,68,,,,2,2,0.0,0.0,-1.0,0.0,,0.0-60.0,,0.0,739.895,1.0,0.623195575,1.0,0.655026044,0.0,0.25,0.0,0.560387538,True,,5ee83eeb1c649a139c9f84ef,,1630263,68,,evan-feature22,full_rf_b,,1
34,17538,69,,,,1,1,1.0,1.0,0.0,1.0,,0.0-61.0,,1.0,558.41,1.0,0.601889598,1.0,0.678198724,0.0,0.25,0.0,0.559922936,True,,5ee83eeb1c649a139c9f84ef,,1640582,69,,evan-feature22,full_rf_b,,1
35,17539,70,,,,2,2,1.0,1.0,-1.0,0.0,,0.0-62.0,,-1.0,1380.25,0.0,0.601259914,1.0,0.704681482,1.0,0.33908969299999997,1.0,0.505003715,True,,5ee83eeb1c649a139c9f84ef,,1651726,70,,evan-feature22,full_rf_b,,1
36,17540,71,,,,2,2,0.0,0.0,-1.0,0.0,,0.0-63.0,,0.0,766.615,1.0,0.59645454,1.0,0.710437172,0.0,0.327441879,0.0,0.391749613,True,,5ee83eeb1c649a139c9f84ef,,1662253,71,,evan-feature22,full_rf_b,,0
37,17541,72,,,,1,1,0.0,0.0,0.0,1.0,,0.0-64.0,,0.0,611.955,0.0,0.529473,0.0,0.636758527,0.0,0.301338063,0.0,0.365661481,True,,5ee83eeb1c649a139c9f84ef,,1672624,72,,evan-feature22,full_rf_b,,1
38,17542,73,,,,2,2,1.0,0.0,-1.0,0.0,,0.0-65.0,,-1.0,408.285,0.0,0.541657162,1.0,0.634541962,1.0,0.343535366,0.0,0.371763742,True,,5ee83eeb1c649a139c9f84ef,,1682793,73,,evan-feature22,full_rf_b,,1
39,17543,74,,,,SLOW,SLOW,,,-1.0,0.0,,0.0-66.0,,-3.0,,0.0,0.5707533260000001,1.0,0.589121171,0.0,0.326428396,1.0,0.43961622899999997,True,,5ee83eeb1c649a139c9f84ef,,1688598,74,,evan-feature22,full_rf_b,,1
40,17544,75,,,,SLOW,SLOW,,,0.0,1.0,,0.0-67.0,,-3.0,,1.0,0.5707533260000001,1.0,0.589121171,1.0,0.326428396,1.0,0.43961622899999997,True,,5ee83eeb1c649a139c9f84ef,,1694403,75,,evan-feature22,full_rf_b,,0
41,17545,76,,,,SLOW,SLOW,,,0.0,1.0,,0.0-68.0,,-3.0,,1.0,0.506271295,1.0,0.641775594,0.0,0.37149690700000004,0.0,0.404330166,True,,5ee83eeb1c649a139c9f84ef,,1700209,76,,evan-feature22,full_rf_b,,0
42,17546,77,,,,SLOW,SLOW,,,-1.0,0.0,,0.0-69.0,,-3.0,,0.0,0.455642565,0.0,0.623605825,1.0,0.358753011,0.0,0.346174041,True,,5ee83eeb1c649a139c9f84ef,,1706015,77,,evan-feature22,full_rf_b,,0
43,17547,78,,,,1,1,1.0,1.0,0.0,1.0,,0.0-70.0,,1.0,2147.105,1.0,0.483677308,1.0,0.5904681070000001,0.0,0.402218411,0.0,0.35344697,True,,5ee83eeb1c649a139c9f84ef,,1717924,78,,evan-feature22,full_rf_b,,1
44,17548,79,,,,2,2,1.0,0.0,-1.0,0.0,,0.0-71.0,,-1.0,418.985,1.0,0.394210977,1.0,0.558925494,1.0,0.540052017,0.0,0.35182128700000004,True,,5ee83eeb1c649a139c9f84ef,,1728102,79,,evan-feature22,full_rf_b,,1
45,17549,80,,,,1,1,0.0,1.0,0.0,1.0,,0.0-72.0,,1.0,396.87,0.0,0.382300414,1.0,0.577670603,0.0,0.607608448,1.0,0.378261578,True,,5ee83eeb1c649a139c9f84ef,,1738259,80,,evan-feature22,full_rf_b,,1
46,17550,81,,,,2,2,1.0,1.0,-1.0,0.0,,0.0-73.0,,-1.0,615.035,0.0,0.357596762,1.0,0.5929076529999999,1.0,0.6579790010000001,1.0,0.401326777,True,,5ee83eeb1c649a139c9f84ef,,1748634,81,,evan-feature22,full_rf_b,,1
47,17551,82,,,,2,2,1.0,0.0,0.0,1.0,,0.0-74.0,,0.0,44.63500003,0.0,0.362033495,1.0,0.582308608,1.0,0.649195052,0.0,0.355158505,True,,5ee83eeb1c649a139c9f84ef,,1758441,82,,evan-feature22,full_rf_b,,0
48,17552,83,,,,1,1,1.0,1.0,0.0,1.0,,0.0-75.0,,1.0,1485.95,1.0,0.369620635,1.0,0.669100864,1.0,0.706059111,1.0,0.362516241,True,,5ee83eeb1c649a139c9f84ef,,1769691,83,,evan-feature22,full_rf_b,,1
49,17553,84,,,,SLOW,SLOW,,,0.0,1.0,,0.0-76.0,,-3.0,,0.0,0.41477751399999996,1.0,0.7284416779999999,1.0,0.7182656940000001,0.0,0.36228040899999997,True,,5ee83eeb1c649a139c9f84ef,,1775496,84,,evan-feature22,full_rf_b,,1
50,17554,85,,,,1,1,1.0,0.0,-1.0,0.0,,0.0-77.0,,-1.0,1260.17,1.0,0.37675460299999997,0.0,0.703250285,1.0,0.75,0.0,0.461979164,True,,5ee83eeb1c649a139c9f84ef,,1786516,85,,evan-feature22,full_rf_b,,1
51,17555,86,,,,2,2,1.0,0.0,-1.0,0.0,,0.0-78.0,,-1.0,575.96,1.0,0.398716075,0.0,0.6723864890000001,1.0,0.674153818,0.0,0.519029516,True,,5ee83eeb1c649a139c9f84ef,,1796852,86,,evan-feature22,full_rf_b,,1
52,17556,87,,,,SLOW,SLOW,,,-1.0,0.0,,0.0-79.0,,-3.0,,1.0,0.34677856700000004,1.0,0.69057175,1.0,0.6822438540000001,0.0,0.477292237,True,,5ee83eeb1c649a139c9f84ef,,1802660,87,,evan-feature22,full_rf_b,,1
53,17557,88,,,,SLOW,SLOW,,,0.0,1.0,,0.0-80.0,,-3.0,,1.0,0.28580469199999997,1.0,0.68408818,0.0,0.684207565,0.0,0.49780448299999996,True,,5ee83eeb1c649a139c9f84ef,,1808465,88,,evan-feature22,full_rf_b,,0
54,17559,90,,,,1,1,0.0,1.0,0.0,1.0,,0.0-82.0,,1.0,1106.135,0.0,0.25,1.0,0.7405808970000001,1.0,0.679614108,1.0,0.436436964,True,,5ee83eeb1c649a139c9f84ef,,2205538,90,,evan-feature22,full_rf_b,,1
55,17560,91,,,,1,1,0.0,1.0,0.0,1.0,,0.0-83.0,,1.0,1361.105,0.0,0.29890393,1.0,0.730505706,1.0,0.7328203320000001,0.0,0.439256938,True,,5ee83eeb1c649a139c9f84ef,,2216659,91,,evan-feature22,full_rf_b,,0
56,17561,92,,,,1,1,0.0,0.0,-1.0,0.0,,0.0-84.0,,0.0,927.625,0.0,0.326762398,0.0,0.7148059609999999,1.0,0.75,1.0,0.44389608799999997,True,,5ee83eeb1c649a139c9f84ef,,2227346,92,,evan-feature22,full_rf_b,,0
57,17562,93,,,,1,1,1.0,1.0,0.0,1.0,,0.0-85.0,,1.0,1331.17,1.0,0.295168515,1.0,0.739760854,1.0,0.719947008,1.0,0.35277284600000003,True,,5ee83eeb1c649a139c9f84ef,,2238439,93,,evan-feature22,full_rf_b,,0
58,17563,94,,,,1,1,1.0,1.0,0.0,1.0,,0.0-86.0,,1.0,951.98,1.0,0.25,1.0,0.70781482,1.0,0.75,1.0,0.286095925,True,,5ee83eeb1c649a139c9f84ef,,2249153,94,,evan-feature22,full_rf_b,,0
59,17564,95,,,,1,1,0.0,1.0,0.0,1.0,,0.0-87.0,,1.0,442.5,0.0,0.25638190899999996,1.0,0.704088163,0.0,0.75,1.0,0.26872601399999996,True,,5ee83eeb1c649a139c9f84ef,,2259355,95,,evan-feature22,full_rf_b,,0
60,17565,96,,,,2,2,1.0,0.0,-1.0,0.0,,0.0-88.0,,-1.0,305.985,1.0,0.271581126,1.0,0.669760107,1.0,0.733896663,0.0,0.273244572,True,,5ee83eeb1c649a139c9f84ef,,2269421,96,,evan-feature22,full_rf_b,,1
61,17566,97,,,,1,1,1.0,1.0,0.0,1.0,,0.0-89.0,,1.0,2043.95,1.0,0.257144401,1.0,0.600575706,1.0,0.74488122,0.0,0.25,True,,5ee83eeb1c649a139c9f84ef,,2281228,97,,evan-feature22,full_rf_b,,1
62,17567,98,,,,1,1,0.0,1.0,0.0,1.0,,0.0-90.0,,1.0,438.755,0.0,0.25,1.0,0.616870026,1.0,0.723610234,0.0,0.25,True,,5ee83eeb1c649a139c9f84ef,,2291429,98,,evan-feature22,full_rf_b,,0
63,17568,99,,,,1,1,1.0,1.0,-1.0,0.0,,0.0-91.0,,-1.0,728.275,1.0,0.25,1.0,0.583540187,1.0,0.7041042559999999,0.0,0.285961995,True,,5ee83eeb1c649a139c9f84ef,,2301923,99,,evan-feature22,full_rf_b,,0
64,17569,100,,,,2,2,0.0,0.0,-1.0,0.0,,0.0-92.0,,0.0,1749.915,0.0,0.27254536,0.0,0.53875765,0.0,0.693783448,0.0,0.284961652,True,,5ee83eeb1c649a139c9f84ef,,2313437,100,,evan-feature22,full_rf_b,,1
65,17570,101,,,,2,2,0.0,1.0,-1.0,0.0,,0.0-93.0,,0.0,351.06,0.0,0.25,0.0,0.548431252,0.0,0.734221895,1.0,0.279445214,True,,5ee83eeb1c649a139c9f84ef,,2323547,101,,evan-feature22,full_rf_b,,0
66,17571,102,,,,1,1,0.0,1.0,0.0,1.0,,0.0-94.0,,1.0,1445.635,0.0,0.258640684,1.0,0.545878066,0.0,0.725245965,1.0,0.31487537,True,,5ee83eeb1c649a139c9f84ef,,2334755,102,,evan-feature22,full_rf_b,,1
67,17572,103,,,,1,1,0.0,0.0,0.0,1.0,,0.0-95.0,,0.0,98.83,0.0,0.251103711,0.0,0.5776290629999999,1.0,0.696320133,1.0,0.317831047,True,,5ee83eeb1c649a139c9f84ef,,2344613,103,,evan-feature22,full_rf_b,,0
68,17573,104,,,,1,1,0.0,1.0,0.0,1.0,,0.0-96.0,,1.0,1089.055,0.0,0.276630292,1.0,0.617329858,1.0,0.73838088,0.0,0.261471582,True,,5ee83eeb1c649a139c9f84ef,,2355465,104,,evan-feature22,full_rf_b,,0
69,17574,105,,,,1,1,0.0,1.0,0.0,1.0,,0.0-97.0,,1.0,745.2,0.0,0.297716424,1.0,0.618863717,1.0,0.7402358259999999,0.0,0.262600834,True,,5ee83eeb1c649a139c9f84ef,,2365973,105,,evan-feature22,full_rf_b,,0
70,17575,106,,,,1,1,0.0,1.0,-1.0,0.0,,0.0-98.0,,0.0,1446.335,0.0,0.290935512,1.0,0.695370945,1.0,0.706570507,1.0,0.280030553,True,,5ee83eeb1c649a139c9f84ef,,2377180,106,,evan-feature22,full_rf_b,,0
71,17576,107,,,,2,2,1.0,0.0,0.0,1.0,,0.0-99.0,,0.0,831.42,1.0,0.25,1.0,0.6465277079999999,1.0,0.67766682,0.0,0.25,True,,5ee83eeb1c649a139c9f84ef,,2387774,107,,evan-feature22,full_rf_b,,1
72,17577,108,,,,1,1,0.0,0.0,-1.0,0.0,,0.0-100.0,,0.0,2912.29,0.0,0.26463816,0.0,0.636100213,1.0,0.646048507,0.0,0.265607101,True,,5ee83eeb1c649a139c9f84ef,,2400445,108,,evan-feature22,full_rf_b,,1
73,17578,109,,,,2,2,1.0,0.0,-1.0,0.0,,0.0-101.0,,-1.0,1347.83,0.0,0.314340707,0.0,0.667795927,1.0,0.613630805,0.0,0.25,True,,5ee83eeb1c649a139c9f84ef,,2411556,109,,evan-feature22,full_rf_b,,1
74,17579,110,,,,1,1,1.0,1.0,0.0,1.0,,0.0-102.0,,1.0,2575.41,1.0,0.28685784,1.0,0.6622549529999999,1.0,0.652154117,0.0,0.25,True,,5ee83eeb1c649a139c9f84ef,,2423896,110,,evan-feature22,full_rf_b,,1
75,17580,111,,,,1,1,0.0,1.0,0.0,1.0,,0.0-103.0,,1.0,929.645,0.0,0.304106554,1.0,0.631289538,1.0,0.707041942,0.0,0.29314237,True,,5ee83eeb1c649a139c9f84ef,,2434590,111,,evan-feature22,full_rf_b,,0
76,17581,112,,,,1,1,0.0,0.0,0.0,1.0,,0.0-104.0,,0.0,2222.3,0.0,0.304806932,0.0,0.571167718,0.0,0.680472346,1.0,0.25,True,,5ee83eeb1c649a139c9f84ef,,2446571,112,,evan-feature22,full_rf_b,,0
77,17582,113,,,,SLOW,SLOW,,,0.0,1.0,,0.0-105.0,,-3.0,,1.0,0.37919861,0.0,0.5724849710000001,0.0,0.705638003,0.0,0.30179300600000003,True,,5ee83eeb1c649a139c9f84ef,,2452377,113,,evan-feature22,full_rf_b,,1
78,17583,114,,,,SLOW,SLOW,,,0.0,1.0,,0.0-106.0,,-3.0,,1.0,0.464277969,0.0,0.554034373,1.0,0.7372627340000001,0.0,0.264699741,True,,5ee83eeb1c649a139c9f84ef,,2458181,114,,evan-feature22,full_rf_b,,0
79,17584,115,,,,1,1,0.0,1.0,0.0,1.0,,0.0-107.0,,1.0,3892.53,0.0,0.465104323,1.0,0.530793115,1.0,0.75,0.0,0.31683071,True,,5ee83eeb1c649a139c9f84ef,,2471832,115,,evan-feature22,full_rf_b,,1
80,17585,116,,,,1,1,0.0,1.0,-1.0,0.0,,0.0-108.0,,0.0,1611.86,0.0,0.465104323,1.0,0.530793115,1.0,0.75,0.0,0.31683071,True,,5ee83eeb1c649a139c9f84ef,,2483204,116,,evan-feature22,full_rf_b,,0
81,17586,117,,,,1,1,1.0,0.0,-1.0,0.0,,0.0-109.0,,-1.0,184.765,1.0,0.46833986,0.0,0.570249239,1.0,0.7244472590000001,1.0,0.364114163,True,,5ee83eeb1c649a139c9f84ef,,2493153,117,,evan-feature22,full_rf_b,,0
82,17587,118,,,,2,2,1.0,0.0,-1.0,0.0,,0.0-110.0,,-1.0,1618.06,0.0,0.445444024,1.0,0.649673355,1.0,0.6845441290000001,0.0,0.300660449,True,,5ee83eeb1c649a139c9f84ef,,2504533,118,,evan-feature22,full_rf_b,,1
83,17588,119,,,,2,2,1.0,0.0,-1.0,0.0,,0.0-111.0,,-1.0,1699.17,1.0,0.39909721299999995,1.0,0.6715179509999999,1.0,0.742310028,0.0,0.35496088299999995,True,,5ee83eeb1c649a139c9f84ef,,2515994,119,,evan-feature22,full_rf_b,,0
84,17589,120,,,,2,2,1.0,1.0,0.0,1.0,,0.0-112.0,,1.0,3053.67,1.0,0.37956104799999996,1.0,0.694725302,1.0,0.7181651309999999,1.0,0.38726906299999997,True,,5ee83eeb1c649a139c9f84ef,,2528811,120,,evan-feature22,full_rf_b,,0
85,17590,121,,,,2,2,1.0,0.0,0.0,1.0,,0.0-113.0,,0.0,390.335,1.0,0.404995034,1.0,0.724375412,1.0,0.6910946859999999,0.0,0.387187347,True,,5ee83eeb1c649a139c9f84ef,,2538962,121,,evan-feature22,full_rf_b,,0
86,17591,122,,,,2,2,1.0,0.0,-1.0,0.0,,0.0-114.0,,-1.0,171.865,1.0,0.461740803,1.0,0.75,1.0,0.75,0.0,0.34872038200000005,True,,5ee83eeb1c649a139c9f84ef,,2548899,122,,evan-feature22,full_rf_b,,0
87,17592,123,,,,2,2,0.0,0.0,-1.0,0.0,,0.0-115.0,,0.0,1661.87,1.0,0.43821380600000004,0.0,0.738833273,0.0,0.728286963,0.0,0.399538128,True,,5ee83eeb1c649a139c9f84ef,,2560320,123,,evan-feature22,full_rf_b,,0
88,17593,124,,,,1,1,1.0,1.0,0.0,1.0,,0.0-116.0,,1.0,858.335,1.0,0.41709882,1.0,0.736666736,1.0,0.75,1.0,0.389095584,True,,5ee83eeb1c649a139c9f84ef,,2570939,124,,evan-feature22,full_rf_b,,1
89,17594,125,,,,1,1,0.0,1.0,0.0,1.0,,0.0-117.0,,1.0,342.7,0.0,0.39749009799999996,1.0,0.744320029,1.0,0.75,1.0,0.363848678,True,,5ee83eeb1c649a139c9f84ef,,2581045,125,,evan-feature22,full_rf_b,,0
90,17595,126,,,,1,1,0.0,1.0,-1.0,0.0,,0.0-118.0,,0.0,2545.815,0.0,0.392653706,1.0,0.75,1.0,0.75,0.0,0.384386976,True,,5ee83eeb1c649a139c9f84ef,,2593368,126,,evan-feature22,full_rf_b,,0
91,17596,127,,,,2,2,1.0,0.0,0.0,1.0,,0.0-119.0,,0.0,1201.29,0.0,0.31190902600000003,1.0,0.75,1.0,0.732413819,0.0,0.413082932,True,,5ee83eeb1c649a139c9f84ef,,2604334,127,,evan-feature22,full_rf_b,,1
92,17597,128,,,,2,2,1.0,1.0,-1.0,0.0,,0.0-120.0,,-1.0,1751.525,0.0,0.366917648,1.0,0.740073855,1.0,0.75,1.0,0.352861979,True,,5ee83eeb1c649a139c9f84ef,,2615847,128,,evan-feature22,full_rf_b,,0
93,17598,129,,,,2,2,1.0,0.0,-1.0,0.0,,0.0-121.0,,-1.0,3315.92,0.0,0.3645172,1.0,0.721770713,1.0,0.75,0.0,0.404074511,True,,5ee83eeb1c649a139c9f84ef,,2628924,129,,evan-feature22,full_rf_b,,0
94,17599,130,,,,1,1,1.0,1.0,-1.0,0.0,,0.0-122.0,,-1.0,828.44,1.0,0.35205600299999995,1.0,0.68983859,1.0,0.739735447,0.0,0.366895945,True,,5ee83eeb1c649a139c9f84ef,,2639515,130,,evan-feature22,full_rf_b,,1
95,17600,131,,,,2,2,0.0,1.0,-1.0,0.0,,0.0-123.0,,0.0,190.315,1.0,0.40998722600000004,0.0,0.720859127,0.0,0.673854955,1.0,0.368528541,True,,5ee83eeb1c649a139c9f84ef,,2649464,131,,evan-feature22,full_rf_b,,1
96,17601,132,,,,1,1,0.0,1.0,-1.0,0.0,,0.0-124.0,,0.0,131.315,0.0,0.353625316,1.0,0.75,0.0,0.695605473,0.0,0.38303674200000004,True,,5ee83eeb1c649a139c9f84ef,,2659359,132,,evan-feature22,full_rf_b,,1
97,17602,133,,,,1,1,1.0,1.0,-1.0,0.0,,0.0-125.0,,-1.0,148.805,1.0,0.359216989,1.0,0.75,0.0,0.6987915090000001,0.0,0.35169046200000004,True,,5ee83eeb1c649a139c9f84ef,,2669271,133,,evan-feature22,full_rf_b,,0
98,17603,134,,,,1,1,0.0,1.0,-1.0,0.0,,0.0-126.0,,0.0,1536.085,0.0,0.35834496899999996,1.0,0.75,1.0,0.707067742,0.0,0.416763636,True,,5ee83eeb1c649a139c9f84ef,,2680569,134,,evan-feature22,full_rf_b,,0
99,17604,135,,,,1,1,0.0,0.0,0.0,1.0,,0.0-127.0,,0.0,689.74,0.0,0.38741613799999997,0.0,0.7177369570000001,1.0,0.734902455,0.0,0.49438664299999996,True,,5ee83eeb1c649a139c9f84ef,,2691017,135,,evan-feature22,full_rf_b,,0
100,17605,136,,,,1,1,0.0,1.0,-1.0,0.0,,0.0-128.0,,0.0,413.765,0.0,0.405255252,1.0,0.7300466640000001,1.0,0.7027748070000001,0.0,0.504359668,True,,5ee83eeb1c649a139c9f84ef,,2701193,136,,evan-feature22,full_rf_b,,0
101,17606,137,,,,2,2,1.0,1.0,-1.0,0.0,,0.0-129.0,,-1.0,553.395,0.0,0.40697073,0.0,0.7260142190000001,1.0,0.724461982,1.0,0.522779179,True,,5ee83eeb1c649a139c9f84ef,,2711513,137,,evan-feature22,full_rf_b,,1
102,17607,138,,,,1,1,0.0,1.0,-1.0,0.0,,0.0-130.0,,0.0,573.395,0.0,0.43906215299999996,1.0,0.7252802340000001,1.0,0.719079934,1.0,0.5712990579999999,True,,5ee83eeb1c649a139c9f84ef,,2721846,138,,evan-feature22,full_rf_b,,1
103,17608,139,,,,2,2,0.0,0.0,0.0,1.0,,0.0-131.0,,0.0,82.59499998,0.0,0.4076705,1.0,0.73280499,0.0,0.681313127,0.0,0.523891346,True,,5ee83eeb1c649a139c9f84ef,,2731689,139,,evan-feature22,full_rf_b,,1
104,17609,140,,,,2,2,1.0,0.0,0.0,1.0,,0.0-132.0,,0.0,83.04499998,1.0,0.399102911,1.0,0.730498344,1.0,0.661080239,0.0,0.46742603,True,,5ee83eeb1c649a139c9f84ef,,2741536,140,,evan-feature22,full_rf_b,,0
105,17610,141,,,,1,1,1.0,1.0,0.0,1.0,,0.0-133.0,,1.0,9.79500002,1.0,0.356477282,1.0,0.712296395,0.0,0.641812684,0.0,0.44868414,True,,5ee83eeb1c649a139c9f84ef,,2751307,141,,evan-feature22,full_rf_b,,1
106,17611,142,,,,1,1,0.0,1.0,-1.0,0.0,,0.0-134.0,,0.0,712.71,0.0,0.462760722,1.0,0.692349322,1.0,0.700947931,1.0,0.394680266,True,,5ee83eeb1c649a139c9f84ef,,2761779,142,,evan-feature22,full_rf_b,,0
107,17612,143,,,,2,2,1.0,1.0,-1.0,0.0,,0.0-135.0,,-1.0,95.26999999,0.0,0.422306413,1.0,0.718375916,1.0,0.706340917,1.0,0.367787185,True,,5ee83eeb1c649a139c9f84ef,,2771636,143,,evan-feature22,full_rf_b,,1
108,17614,145,,,,1,1,1.0,0.0,-1.0,0.0,,0.0-137.0,,-1.0,1568.935,1.0,0.4582233,0.0,0.643834117,1.0,0.75,0.0,0.39615823299999997,True,,5ee83eeb1c649a139c9f84ef,,2806476,145,,evan-feature22,full_rf_b,,1
109,17615,146,,,,2,2,1.0,1.0,-1.0,0.0,,0.0-138.0,,-1.0,3422.24,0.0,0.43813437899999996,1.0,0.651283804,1.0,0.729674191,1.0,0.37711048,True,,5ee83eeb1c649a139c9f84ef,,2819660,146,,evan-feature22,full_rf_b,,1
110,17616,147,,,,1,1,0.0,1.0,-1.0,0.0,,0.0-139.0,,0.0,1858.09,0.0,0.471199094,1.0,0.6470010979999999,0.0,0.715008097,0.0,0.410656191,True,,5ee83eeb1c649a139c9f84ef,,2831277,147,,evan-feature22,full_rf_b,,1
111,17617,148,,,,2,2,1.0,0.0,-1.0,0.0,,0.0-140.0,,-1.0,1754.445,0.0,0.42486406,1.0,0.629771829,1.0,0.6550939960000001,0.0,0.459093873,True,,5ee83eeb1c649a139c9f84ef,,2842793,148,,evan-feature22,full_rf_b,,1
112,17618,149,,,,1,1,1.0,1.0,-1.0,0.0,,0.0-141.0,,-1.0,1662.33,1.0,0.4803197,1.0,0.645842715,1.0,0.6421749920000001,0.0,0.443092151,True,,5ee83eeb1c649a139c9f84ef,,2854219,149,,evan-feature22,full_rf_b,,1
113,17619,150,,,,2,2,1.0,0.0,0.0,1.0,,0.0-142.0,,0.0,2942.54,0.0,0.521848997,1.0,0.735801074,1.0,0.6691348460000001,0.0,0.45259351600000003,True,,5ee83eeb1c649a139c9f84ef,,2866920,150,,evan-feature22,full_rf_b,,1
114,17620,151,,,,SLOW,SLOW,,,-1.0,0.0,,0.0-143.0,,-3.0,,1.0,0.49565621299999996,1.0,0.742400847,0.0,0.661512553,1.0,0.483110831,True,,5ee83eeb1c649a139c9f84ef,,2872725,151,,evan-feature22,full_rf_b,,1
115,17621,152,,,,1,1,1.0,0.0,-1.0,0.0,,0.0-144.0,,-1.0,2679.015,1.0,0.521564361,0.0,0.731078632,0.0,0.6774886809999999,0.0,0.483263956,True,,5ee83eeb1c649a139c9f84ef,,2885165,152,,evan-feature22,full_rf_b,,1
116,17622,153,,,,2,2,1.0,0.0,-1.0,0.0,,0.0-145.0,,-1.0,810.03,1.0,0.558893102,0.0,0.719810023,1.0,0.67461031,0.0,0.499349834,True,,5ee83eeb1c649a139c9f84ef,,2895736,153,,evan-feature22,full_rf_b,,1
117,17623,154,,,,1,1,0.0,1.0,-1.0,0.0,,0.0-146.0,,0.0,267.56,0.0,0.611031046,1.0,0.75,0.0,0.688072995,1.0,0.5321422729999999,True,,5ee83eeb1c649a139c9f84ef,,2905763,154,,evan-feature22,full_rf_b,,1
118,17624,155,,,,2,2,1.0,0.0,0.0,1.0,,0.0-147.0,,0.0,820.345,1.0,0.633223941,0.0,0.713567728,1.0,0.75,0.0,0.48185314700000004,True,,5ee83eeb1c649a139c9f84ef,,2916345,155,,evan-feature22,full_rf_b,,1
119,17625,156,,,,2,2,1.0,1.0,-1.0,0.0,,0.0-148.0,,-1.0,1801.44,1.0,0.664001694,0.0,0.705509768,1.0,0.75,1.0,0.500211065,True,,5ee83eeb1c649a139c9f84ef,,2927910,156,,evan-feature22,full_rf_b,,0
120,17626,157,,,,1,1,1.0,1.0,-1.0,0.0,,0.0-149.0,,-1.0,708.76,1.0,0.664001694,1.0,0.705509768,1.0,0.75,0.0,0.500211065,True,,5ee83eeb1c649a139c9f84ef,,2938380,157,,evan-feature22,full_rf_b,,1
121,17627,158,,,,1,1,1.0,1.0,-1.0,0.0,,0.0-150.0,,-1.0,680.185,1.0,0.696508041,1.0,0.71066027,1.0,0.717028709,1.0,0.49792991,True,,5ee83eeb1c649a139c9f84ef,,2948824,158,,evan-feature22,full_rf_b,,0
122,17628,159,,,,1,1,1.0,1.0,0.0,1.0,,0.0-151.0,,1.0,1909.47,1.0,0.699883272,1.0,0.75,0.0,0.713543895,0.0,0.496962643,True,,5ee83eeb1c649a139c9f84ef,,2960496,159,,evan-feature22,full_rf_b,,0
123,17629,160,,,,2,2,1.0,1.0,0.0,1.0,,0.0-152.0,,1.0,635.615,0.0,0.741163419,1.0,0.75,1.0,0.64691024,1.0,0.513858197,True,,5ee83eeb1c649a139c9f84ef,,2970895,160,,evan-feature22,full_rf_b,,1
124,17630,161,,,,2,2,1.0,0.0,0.0,1.0,,0.0-153.0,,0.0,1670.645,1.0,0.75,0.0,0.70816558,1.0,0.594499079,0.0,0.48502124,True,,5ee83eeb1c649a139c9f84ef,,2982327,161,,evan-feature22,full_rf_b,,0
125,17631,162,,,,2,2,1.0,0.0,-1.0,0.0,,0.0-154.0,,-1.0,270.195,1.0,0.75,0.0,0.721848901,1.0,0.62197249,0.0,0.48263586399999997,True,,5ee83eeb1c649a139c9f84ef,,2992359,162,,evan-feature22,full_rf_b,,0
126,17632,163,,,,1,1,1.0,1.0,-1.0,0.0,,0.0-155.0,,-1.0,964.95,1.0,0.75,1.0,0.74813071,0.0,0.584357161,0.0,0.411477782,True,,5ee83eeb1c649a139c9f84ef,,3003087,163,,evan-feature22,full_rf_b,,1
127,17633,164,,,,1,1,1.0,1.0,-1.0,0.0,,0.0-156.0,,-1.0,808.74,1.0,0.75,1.0,0.75,0.0,0.52287236,0.0,0.488290656,True,,5ee83eeb1c649a139c9f84ef,,3013659,164,,evan-feature22,full_rf_b,,0
128,17634,165,,,,2,2,1.0,1.0,-1.0,0.0,,0.0-157.0,,-1.0,1347.95,1.0,0.75,0.0,0.75,1.0,0.544321581,1.0,0.53143059,True,,5ee83eeb1c649a139c9f84ef,,3024770,165,,evan-feature22,full_rf_b,,1
129,17635,166,,,,1,1,1.0,1.0,-1.0,0.0,,0.0-158.0,,-1.0,2055.97,1.0,0.726754564,1.0,0.75,0.0,0.5129306370000001,0.0,0.530592445,True,,5ee83eeb1c649a139c9f84ef,,3036583,166,,evan-feature22,full_rf_b,,1
130,17636,167,,,,2,2,0.0,0.0,0.0,1.0,,0.0-159.0,,0.0,145.93,1.0,0.75,1.0,0.7392590729999999,0.0,0.479875835,0.0,0.547007051,True,,5ee83eeb1c649a139c9f84ef,,3046488,167,,evan-feature22,full_rf_b,,1
131,17637,168,,,,2,2,0.0,0.0,0.0,1.0,,0.0-160.0,,0.0,1580.45,1.0,0.75,0.0,0.7393376979999999,0.0,0.546045419,0.0,0.541267353,True,,5ee83eeb1c649a139c9f84ef,,3057829,168,,evan-feature22,full_rf_b,,0
132,17638,169,,,,1,1,0.0,1.0,-1.0,0.0,,0.0-161.0,,0.0,1841.385,0.0,0.75,1.0,0.75,0.0,0.485725895,1.0,0.527625395,True,,5ee83eeb1c649a139c9f84ef,,3069431,169,,evan-feature22,full_rf_b,,1
133,17639,170,,,,2,2,1.0,0.0,0.0,1.0,,0.0-162.0,,0.0,554.69,1.0,0.75,0.0,0.725087974,1.0,0.488603595,0.0,0.504019206,True,,5ee83eeb1c649a139c9f84ef,,3079744,170,,evan-feature22,full_rf_b,,1
134,17640,171,,,,1,1,1.0,1.0,-1.0,0.0,,0.0-163.0,,-1.0,322.47,1.0,0.745504295,1.0,0.75,1.0,0.452379914,0.0,0.50131194,True,,5ee83eeb1c649a139c9f84ef,,3089831,171,,evan-feature22,full_rf_b,,1
135,17641,172,,,,2,2,0.0,0.0,0.0,1.0,,0.0-164.0,,0.0,197.775,1.0,0.728513874,1.0,0.75,0.0,0.44125567200000004,0.0,0.531454591,True,,5ee83eeb1c649a139c9f84ef,,3099792,172,,evan-feature22,full_rf_b,,1
136,17642,173,,,,1,1,1.0,1.0,-1.0,0.0,,0.0-165.0,,-1.0,467.285,1.0,0.73790804,1.0,0.75,1.0,0.413036656,1.0,0.524619035,True,,5ee83eeb1c649a139c9f84ef,,3110023,173,,evan-feature22,full_rf_b,,1
137,17643,174,,,,1,1,1.0,0.0,-1.0,0.0,,0.0-166.0,,-1.0,3973.795,1.0,0.7080961309999999,0.0,0.708666865,1.0,0.431915581,1.0,0.481819489,True,,5ee83eeb1c649a139c9f84ef,,3123760,174,,evan-feature22,full_rf_b,,0
138,17644,175,,,,SLOW,SLOW,,,-1.0,0.0,,0.0-167.0,,-3.0,,1.0,0.721378003,1.0,0.71605913,0.0,0.36642387,1.0,0.5036739929999999,True,,5ee83eeb1c649a139c9f84ef,,3129566,175,,evan-feature22,full_rf_b,,1
139,17645,176,,,,2,2,1.0,1.0,0.0,1.0,,0.0-168.0,,1.0,917.65,0.0,0.7340618959999999,0.0,0.699323252,1.0,0.35298046299999997,1.0,0.511241692,True,,5ee83eeb1c649a139c9f84ef,,3140244,176,,evan-feature22,full_rf_b,,1
140,17646,177,,,,2,2,1.0,0.0,0.0,1.0,,0.0-169.0,,0.0,1164.985,0.0,0.75,0.0,0.70412698,1.0,0.380734814,0.0,0.529580116,True,,5ee83eeb1c649a139c9f84ef,,3151169,177,,evan-feature22,full_rf_b,,0
141,17647,178,,,,2,2,0.0,1.0,0.0,1.0,,0.0-170.0,,1.0,198.63,1.0,0.7436654909999999,1.0,0.711182751,0.0,0.41125331,1.0,0.49554405,True,,5ee83eeb1c649a139c9f84ef,,3161128,178,,evan-feature22,full_rf_b,,0
142,17648,179,,,,1,1,1.0,1.0,-1.0,0.0,,0.0-171.0,,-1.0,2799.04,1.0,0.731607915,1.0,0.651774583,1.0,0.35688023,0.0,0.45194491600000003,True,,5ee83eeb1c649a139c9f84ef,,3173686,179,,evan-feature22,full_rf_b,,1
143,17649,180,,,,2,2,1.0,1.0,0.0,1.0,,0.0-172.0,,1.0,3445.76,1.0,0.75,0.0,0.75,1.0,0.283145374,1.0,0.528608005,True,,5ee83eeb1c649a139c9f84ef,,3186895,180,,evan-feature22,full_rf_b,,1
144,17650,181,,,,2,2,0.0,1.0,-1.0,0.0,,0.0-173.0,,0.0,1064.945,1.0,0.7491416890000001,1.0,0.7423785959999999,0.0,0.29135870399999997,1.0,0.498888318,True,,5ee83eeb1c649a139c9f84ef,,3197720,181,,evan-feature22,full_rf_b,,0
145,17651,182,,,,2,2,1.0,0.0,0.0,1.0,,0.0-174.0,,0.0,542.115,1.0,0.708569387,1.0,0.717682277,1.0,0.294421699,0.0,0.493838163,True,,5ee83eeb1c649a139c9f84ef,,3208023,182,,evan-feature22,full_rf_b,,0
146,17652,183,,,,2,2,0.0,0.0,-1.0,0.0,,0.0-175.0,,0.0,989.58,0.0,0.75,1.0,0.7383382159999999,0.0,0.356098707,0.0,0.442533405,True,,5ee83eeb1c649a139c9f84ef,,3218774,183,,evan-feature22,full_rf_b,,0
147,17653,184,,,,SLOW,SLOW,,,-1.0,0.0,,0.0-176.0,,-3.0,,1.0,0.744527075,1.0,0.75,1.0,0.334127506,0.0,0.393165805,True,,5ee83eeb1c649a139c9f84ef,,3224580,184,,evan-feature22,full_rf_b,,1
148,17654,185,,,,2,2,1.0,0.0,-1.0,0.0,,0.0-177.0,,-1.0,3196.225,1.0,0.75,1.0,0.75,1.0,0.33571021799999995,0.0,0.350393962,True,,5ee83eeb1c649a139c9f84ef,,3237540,185,,evan-feature22,full_rf_b,,1
149,17655,186,,,,2,2,1.0,0.0,0.0,1.0,,0.0-178.0,,0.0,2293.48,0.0,0.75,0.0,0.75,1.0,0.313628297,0.0,0.36349657399999996,True,,5ee83eeb1c649a139c9f84ef,,3249596,186,,evan-feature22,full_rf_b,,0
150,17656,187,,,,2,2,0.0,1.0,-1.0,0.0,,0.0-179.0,,0.0,1535.62,1.0,0.75,1.0,0.734284182,0.0,0.262667667,1.0,0.380199119,True,,5ee83eeb1c649a139c9f84ef,,3260891,187,,evan-feature22,full_rf_b,,0
151,17657,188,,,,1,1,1.0,1.0,-1.0,0.0,,0.0-180.0,,-1.0,687.95,1.0,0.75,1.0,0.75,0.0,0.25,0.0,0.394494013,True,,5ee83eeb1c649a139c9f84ef,,3271339,188,,evan-feature22,full_rf_b,,1
152,17658,189,,,,2,2,0.0,0.0,-1.0,0.0,,0.0-181.0,,0.0,1957.625,1.0,0.722298145,1.0,0.7357822340000001,0.0,0.25,0.0,0.319142121,True,,5ee83eeb1c649a139c9f84ef,,3283059,189,,evan-feature22,full_rf_b,,1
153,17659,190,,,,SLOW,SLOW,,,-1.0,0.0,,0.0-182.0,,-3.0,,1.0,0.73149275,1.0,0.724276446,0.0,0.305856907,1.0,0.281315057,True,,5ee83eeb1c649a139c9f84ef,,3288863,190,,evan-feature22,full_rf_b,,1
154,17660,191,,,,2,2,0.0,0.0,-1.0,0.0,,0.0-183.0,,0.0,1051.82,1.0,0.7458732690000001,1.0,0.7336382459999999,0.0,0.272571964,0.0,0.266021999,True,,5ee83eeb1c649a139c9f84ef,,3299676,191,,evan-feature22,full_rf_b,,1
155,17661,192,,,,SLOW,SLOW,,,0.0,1.0,,0.0-184.0,,-3.0,,0.0,0.705579037,0.0,0.720778292,0.0,0.320238144,0.0,0.30971744,True,,5ee83eeb1c649a139c9f84ef,,3305481,192,,evan-feature22,full_rf_b,,1
156,17662,193,,,,SLOW,SLOW,,,0.0,1.0,,0.0-185.0,,-3.0,,1.0,0.700425648,1.0,0.7198784009999999,1.0,0.272590393,0.0,0.304182931,True,,5ee83eeb1c649a139c9f84ef,,3311287,193,,evan-feature22,full_rf_b,,0
157,17663,194,,,,SLOW,SLOW,,,0.0,1.0,,0.0-186.0,,-3.0,,0.0,0.735590785,0.0,0.722714973,0.0,0.25,1.0,0.323421091,True,,5ee83eeb1c649a139c9f84ef,,3317095,194,,evan-feature22,full_rf_b,,0
158,17664,195,,,,2,2,0.0,0.0,0.0,1.0,,0.0-187.0,,0.0,2917.54,0.0,0.724807662,1.0,0.63146213,0.0,0.36836492600000004,0.0,0.34592153299999995,True,,5ee83eeb1c649a139c9f84ef,,3329772,195,,evan-feature22,full_rf_b,,1
159,17665,196,,,,SLOW,SLOW,,,-1.0,0.0,,0.0-188.0,,-3.0,,0.0,0.7352796909999999,1.0,0.555111392,0.0,0.36003922,0.0,0.31433779999999995,True,,5ee83eeb1c649a139c9f84ef,,3335578,196,,evan-feature22,full_rf_b,,1
160,17666,197,notice,,,,,,,,,,0.0-189.0,"{""Q0"":""not sure""}",,25261.0,,,,,,,,,True,,5ee83eeb1c649a139c9f84ef,,3360841,197,Q,survey-text,full_rf_b,,1
161,17667,198,track1,,[1],,,,,,,,0.0-190.0,"{""Q0"":""no""}",,4661.0,,,,,,,,,True,,5ee83eeb1c649a139c9f84ef,,3365507,198,Q,evan-quiz,full_rf_b,,1
162,17668,199,track2,,[1],,,,,,,,0.0-191.0,"{""Q0"":""no""}",,26643.0,,,,,,,,,True,,5ee83eeb1c649a139c9f84ef,,3392153,199,Q,evan-quiz,full_rf_b,,1
163,17669,200,strat,,,,,,,,,,0.0-192.0,"{""Q0"":""guessed""}",,81597.0,,,,,,,,,True,,5ee83eeb1c649a139c9f84ef,,3473753,200,Q,survey-text,full_rf_b,,1
