,index,Unnamed: 0,Q_name,button_pressed,choice_idxs,chosen_pos,chosen_state,chosen_state_f_1_outcome,chosen_state_f_2_outcome,f_1_reward,f_2_reward,incor_questions,internal_node_id,responses,reward_received,rt,s_1_f_1_outcome,s_1_f_1_prob,s_1_f_2_outcome,s_1_f_2_prob,s_2_f_1_outcome,s_2_f_1_prob,s_2_f_2_outcome,s_2_f_2_prob,safe_first,stimulus,subjectID,success,time_elapsed,trial_index,trial_num,trial_type,version,view_history,switching
0,34270,25,,,,1,1,1.0,0.0,-1.0,0.0,,0.0-27.0,,-1.0,703.74,1.0,0.6,0.0,0.6,1.0,0.4,1.0,0.4,False,,5cf117aacfbe24001aafa2dd,,477509,25,,evan-feature22,full_pf_b,,0
1,34271,26,,,,2,2,0.0,0.0,-1.0,0.0,,0.0-28.0,,0.0,100.045,1.0,0.608053294,0.0,0.63424552,0.0,0.397152172,0.0,0.347069101,False,,5cf117aacfbe24001aafa2dd,,487440,26,,evan-feature22,full_pf_b,,1
2,34272,27,,,,2,2,0.0,0.0,-1.0,0.0,,0.0-29.0,,0.0,541.055,1.0,0.642237155,1.0,0.648566321,0.0,0.389407674,0.0,0.285525717,False,,5cf117aacfbe24001aafa2dd,,497822,27,,evan-feature22,full_pf_b,,0
3,34273,28,,,,1,1,0.0,1.0,-1.0,0.0,,0.0-30.0,,0.0,330.155,0.0,0.661086576,1.0,0.630492543,0.0,0.399058924,0.0,0.25,False,,5cf117aacfbe24001aafa2dd,,507985,28,,evan-feature22,full_pf_b,,1
4,34274,29,,,,1,1,1.0,1.0,0.0,1.0,,0.0-31.0,,1.0,342.365,1.0,0.631324137,1.0,0.6269842929999999,0.0,0.38734784299999997,0.0,0.25,False,,5cf117aacfbe24001aafa2dd,,518161,29,,evan-feature22,full_pf_b,,0
5,34275,30,,,,1,1,1.0,0.0,0.0,1.0,,0.0-32.0,,0.0,137.11,1.0,0.6381991370000001,0.0,0.68987999,0.0,0.384107265,0.0,0.271332943,False,,5cf117aacfbe24001aafa2dd,,528170,30,,evan-feature22,full_pf_b,,0
6,34276,31,,,,1,1,1.0,1.0,-1.0,0.0,,0.0-33.0,,-1.0,302.26,1.0,0.66034901,1.0,0.742641349,0.0,0.360225629,1.0,0.25,False,,5cf117aacfbe24001aafa2dd,,538310,31,,evan-feature22,full_pf_b,,0
7,34277,32,,,,2,2,0.0,0.0,-1.0,0.0,,0.0-34.0,,0.0,441.29,1.0,0.638612418,1.0,0.75,0.0,0.367273939,0.0,0.25,False,,5cf117aacfbe24001aafa2dd,,548577,32,,evan-feature22,full_pf_b,,1
8,34278,33,,,,2,2,1.0,0.0,0.0,1.0,,0.0-35.0,,0.0,320.86,1.0,0.624340629,1.0,0.75,1.0,0.425829545,0.0,0.25,False,,5cf117aacfbe24001aafa2dd,,558741,33,,evan-feature22,full_pf_b,,0
9,34279,34,,,,2,2,0.0,0.0,0.0,1.0,,0.0-36.0,,0.0,345.485,1.0,0.621999804,1.0,0.75,0.0,0.368609357,0.0,0.25,False,,5cf117aacfbe24001aafa2dd,,568901,34,,evan-feature22,full_pf_b,,0
10,34280,35,,,,1,1,1.0,1.0,-1.0,0.0,,0.0-37.0,,-1.0,335.015,1.0,0.62666403,1.0,0.75,0.0,0.311151498,0.0,0.25,False,,5cf117aacfbe24001aafa2dd,,579049,35,,evan-feature22,full_pf_b,,1
11,34281,36,,,,1,1,1.0,1.0,0.0,1.0,,0.0-38.0,,1.0,482.725,1.0,0.6819650009999999,1.0,0.75,0.0,0.310763048,0.0,0.25,False,,5cf117aacfbe24001aafa2dd,,589400,36,,evan-feature22,full_pf_b,,0
12,34282,37,,,,1,1,0.0,1.0,-1.0,0.0,,0.0-39.0,,0.0,129.465,0.0,0.740626951,1.0,0.75,0.0,0.25,0.0,0.25,False,,5cf117aacfbe24001aafa2dd,,599361,37,,evan-feature22,full_pf_b,,0
13,34283,38,,,,1,1,0.0,0.0,-1.0,0.0,,0.0-40.0,,0.0,224.01,0.0,0.739599242,0.0,0.742034978,0.0,0.25397114600000004,0.0,0.25,False,,5cf117aacfbe24001aafa2dd,,609405,38,,evan-feature22,full_pf_b,,0
14,34284,39,,,,1,1,1.0,1.0,-1.0,0.0,,0.0-41.0,,-1.0,377.255,1.0,0.732341315,1.0,0.72735643,1.0,0.25,0.0,0.25,False,,5cf117aacfbe24001aafa2dd,,619619,39,,evan-feature22,full_pf_b,,0
15,34285,40,,,,1,1,1.0,0.0,-1.0,0.0,,0.0-42.0,,-1.0,527.32,1.0,0.7062287770000001,0.0,0.75,1.0,0.29002151,1.0,0.288256649,False,,5cf117aacfbe24001aafa2dd,,629998,40,,evan-feature22,full_pf_b,,0
16,34286,41,,,,2,2,0.0,1.0,-1.0,0.0,,0.0-43.0,,0.0,515.59,0.0,0.7086029209999999,1.0,0.75,0.0,0.274129113,1.0,0.262851608,False,,5cf117aacfbe24001aafa2dd,,640350,41,,evan-feature22,full_pf_b,,1
17,34287,42,,,,1,1,1.0,0.0,-1.0,0.0,,0.0-44.0,,-1.0,563.04,1.0,0.669189651,0.0,0.727614338,0.0,0.298444036,0.0,0.296944518,False,,5cf117aacfbe24001aafa2dd,,650785,42,,evan-feature22,full_pf_b,,1
18,34288,43,,,,1,1,0.0,1.0,-1.0,0.0,,0.0-45.0,,0.0,602.02,0.0,0.6819912929999999,1.0,0.7179434290000001,0.0,0.265003961,0.0,0.28157921199999997,False,,5cf117aacfbe24001aafa2dd,,661198,43,,evan-feature22,full_pf_b,,0
19,34289,44,,,,1,1,0.0,1.0,0.0,1.0,,0.0-46.0,,1.0,2898.49,0.0,0.665275002,1.0,0.723065271,0.0,0.260414971,1.0,0.30973870000000003,False,,5cf117aacfbe24001aafa2dd,,673912,44,,evan-feature22,full_pf_b,,0
20,34290,45,,,,1,1,1.0,0.0,-1.0,0.0,,0.0-47.0,,-1.0,422.02,1.0,0.6660593260000001,0.0,0.728032907,0.0,0.30922817,1.0,0.338778608,False,,5cf117aacfbe24001aafa2dd,,684174,45,,evan-feature22,full_pf_b,,0
21,34291,46,,,,1,1,1.0,1.0,-1.0,0.0,,0.0-48.0,,-1.0,225.94,1.0,0.702068785,1.0,0.6528750879999999,0.0,0.287329608,0.0,0.35789613200000003,False,,5cf117aacfbe24001aafa2dd,,694220,46,,evan-feature22,full_pf_b,,0
22,34292,47,,,,2,2,0.0,0.0,-1.0,0.0,,0.0-49.0,,0.0,721.87,1.0,0.651939787,0.0,0.636725589,0.0,0.284834488,0.0,0.358563756,False,,5cf117aacfbe24001aafa2dd,,704773,47,,evan-feature22,full_pf_b,,1
23,34293,48,,,,2,2,1.0,0.0,0.0,1.0,,0.0-50.0,,0.0,115.37,1.0,0.67573929,1.0,0.612550049,1.0,0.37130387600000003,0.0,0.383542402,False,,5cf117aacfbe24001aafa2dd,,714708,48,,evan-feature22,full_pf_b,,0
24,34294,49,,,,2,2,0.0,1.0,0.0,1.0,,0.0-51.0,,1.0,570.08,1.0,0.620753801,1.0,0.60513644,0.0,0.385529434,1.0,0.340361743,False,,5cf117aacfbe24001aafa2dd,,725110,49,,evan-feature22,full_pf_b,,0
25,34295,50,,,,2,2,0.0,1.0,0.0,1.0,,0.0-52.0,,1.0,380.45,1.0,0.673564893,0.0,0.672437924,0.0,0.292955382,1.0,0.337633795,False,,5cf117aacfbe24001aafa2dd,,735338,50,,evan-feature22,full_pf_b,,0
26,34296,51,,,,2,2,0.0,1.0,-1.0,0.0,,0.0-53.0,,0.0,1743.95,0.0,0.6749427,1.0,0.724197502,0.0,0.32391132100000003,1.0,0.350995264,False,,5cf117aacfbe24001aafa2dd,,746966,51,,evan-feature22,full_pf_b,,0
27,34297,52,,,,2,2,0.0,1.0,-1.0,0.0,,0.0-54.0,,0.0,857.7,1.0,0.6940159379999999,0.0,0.75,0.0,0.31710554399999996,1.0,0.413450341,False,,5cf117aacfbe24001aafa2dd,,757669,52,,evan-feature22,full_pf_b,,0
28,34298,53,,,,2,2,0.0,0.0,-1.0,0.0,,0.0-55.0,,0.0,1863.705,0.0,0.6916018270000001,1.0,0.69001187,0.0,0.261817804,0.0,0.40038635,False,,5cf117aacfbe24001aafa2dd,,769352,53,,evan-feature22,full_pf_b,,0
29,34299,54,,,,2,2,0.0,0.0,-1.0,0.0,,0.0-56.0,,0.0,2762.995,1.0,0.641061544,0.0,0.71337992,0.0,0.277296461,0.0,0.47372791700000005,False,,5cf117aacfbe24001aafa2dd,,781944,54,,evan-feature22,full_pf_b,,0
30,34300,55,,,,2,2,0.0,0.0,-1.0,0.0,,0.0-57.0,,0.0,2595.285,0.0,0.6082438520000001,1.0,0.708471106,0.0,0.28745137,0.0,0.564174476,False,,5cf117aacfbe24001aafa2dd,,794373,55,,evan-feature22,full_pf_b,,0
31,34301,56,,,,2,2,0.0,1.0,-1.0,0.0,,0.0-58.0,,0.0,3040.56,0.0,0.6051112120000001,1.0,0.7118147229999999,0.0,0.272390611,1.0,0.5595149939999999,False,,5cf117aacfbe24001aafa2dd,,807222,56,,evan-feature22,full_pf_b,,0
32,34302,57,,,,2,2,1.0,0.0,-1.0,0.0,,0.0-59.0,,-1.0,2114.565,1.0,0.582420852,0.0,0.635867583,1.0,0.31089574,0.0,0.5227206520000001,False,,5cf117aacfbe24001aafa2dd,,819175,57,,evan-feature22,full_pf_b,,0
33,34303,58,,,,SLOW,SLOW,,,0.0,1.0,,0.0-60.0,,-3.0,,0.0,0.623195575,0.0,0.655026044,0.0,0.25,0.0,0.560387538,False,,5cf117aacfbe24001aafa2dd,,825011,58,,evan-feature22,full_pf_b,,1
34,34304,59,,,,2,2,0.0,1.0,-1.0,0.0,,0.0-61.0,,0.0,1609.18,1.0,0.601889598,0.0,0.678198724,0.0,0.25,1.0,0.559922936,False,,5cf117aacfbe24001aafa2dd,,836454,59,,evan-feature22,full_pf_b,,1
35,34305,60,,,,2,2,0.0,0.0,-1.0,0.0,,0.0-62.0,,0.0,411.28,0.0,0.601259914,0.0,0.704681482,0.0,0.33908969299999997,0.0,0.505003715,False,,5cf117aacfbe24001aafa2dd,,846685,60,,evan-feature22,full_pf_b,,0
36,34306,61,,,,2,2,1.0,0.0,-1.0,0.0,,0.0-63.0,,-1.0,768.065,1.0,0.59645454,1.0,0.710437172,1.0,0.327441879,0.0,0.391749613,False,,5cf117aacfbe24001aafa2dd,,857267,61,,evan-feature22,full_pf_b,,0
37,34307,62,,,,1,1,0.0,0.0,-1.0,0.0,,0.0-64.0,,0.0,185.39,0.0,0.529473,0.0,0.636758527,0.0,0.301338063,0.0,0.365661481,False,,5cf117aacfbe24001aafa2dd,,867280,62,,evan-feature22,full_pf_b,,1
38,34308,63,,,,1,1,0.0,1.0,0.0,1.0,,0.0-65.0,,1.0,487.435,0.0,0.541657162,1.0,0.634541962,0.0,0.343535366,1.0,0.371763742,False,,5cf117aacfbe24001aafa2dd,,877603,63,,evan-feature22,full_pf_b,,0
39,34309,64,,,,1,1,1.0,1.0,-1.0,0.0,,0.0-66.0,,-1.0,442.845,1.0,0.5707533260000001,1.0,0.589121171,0.0,0.326428396,0.0,0.43961622899999997,False,,5cf117aacfbe24001aafa2dd,,887880,64,,evan-feature22,full_pf_b,,0
40,34310,65,,,,1,1,0.0,0.0,-1.0,0.0,,0.0-67.0,,0.0,287.005,0.0,0.5707533260000001,0.0,0.589121171,0.0,0.326428396,0.0,0.43961622899999997,False,,5cf117aacfbe24001aafa2dd,,897983,65,,evan-feature22,full_pf_b,,0
41,34311,66,,,,1,1,1.0,0.0,-1.0,0.0,,0.0-68.0,,-1.0,1899.59,1.0,0.506271295,0.0,0.641775594,1.0,0.37149690700000004,1.0,0.404330166,False,,5cf117aacfbe24001aafa2dd,,909701,66,,evan-feature22,full_pf_b,,0
42,34312,67,,,,1,1,1.0,0.0,0.0,1.0,,0.0-69.0,,0.0,723.82,1.0,0.455642565,0.0,0.623605825,0.0,0.358753011,0.0,0.346174041,False,,5cf117aacfbe24001aafa2dd,,920258,67,,evan-feature22,full_pf_b,,0
43,34313,68,,,,1,1,0.0,0.0,0.0,1.0,,0.0-70.0,,0.0,1126.015,0.0,0.483677308,0.0,0.5904681070000001,1.0,0.402218411,1.0,0.35344697,False,,5cf117aacfbe24001aafa2dd,,931180,68,,evan-feature22,full_pf_b,,0
44,34314,69,,,,1,1,1.0,0.0,0.0,1.0,,0.0-71.0,,0.0,768.53,1.0,0.394210977,0.0,0.558925494,0.0,0.540052017,1.0,0.35182128700000004,False,,5cf117aacfbe24001aafa2dd,,941763,69,,evan-feature22,full_pf_b,,0
45,34315,70,,,,2,2,1.0,0.0,-1.0,0.0,,0.0-72.0,,-1.0,143.935,1.0,0.382300414,1.0,0.577670603,1.0,0.607608448,0.0,0.378261578,False,,5cf117aacfbe24001aafa2dd,,951741,70,,evan-feature22,full_pf_b,,1
46,34316,71,,,,2,2,0.0,1.0,-1.0,0.0,,0.0-73.0,,0.0,386.205,0.0,0.357596762,0.0,0.5929076529999999,0.0,0.6579790010000001,1.0,0.401326777,False,,5cf117aacfbe24001aafa2dd,,961948,71,,evan-feature22,full_pf_b,,0
47,34317,72,,,,2,2,1.0,0.0,-1.0,0.0,,0.0-74.0,,-1.0,293.565,0.0,0.362033495,1.0,0.582308608,1.0,0.649195052,0.0,0.355158505,False,,5cf117aacfbe24001aafa2dd,,972071,72,,evan-feature22,full_pf_b,,0
48,34318,73,,,,2,2,1.0,0.0,-1.0,0.0,,0.0-75.0,,-1.0,114.135,0.0,0.369620635,1.0,0.669100864,1.0,0.706059111,0.0,0.362516241,False,,5cf117aacfbe24001aafa2dd,,982016,73,,evan-feature22,full_pf_b,,0
49,34319,74,,,,1,1,0.0,0.0,-1.0,0.0,,0.0-76.0,,0.0,701.55,0.0,0.41477751399999996,0.0,0.7284416779999999,1.0,0.7182656940000001,1.0,0.36228040899999997,False,,5cf117aacfbe24001aafa2dd,,992537,74,,evan-feature22,full_pf_b,,1
50,34320,75,,,,1,1,0.0,1.0,0.0,1.0,,0.0-77.0,,1.0,117.85,0.0,0.37675460299999997,1.0,0.703250285,1.0,0.75,0.0,0.461979164,False,,5cf117aacfbe24001aafa2dd,,1002526,75,,evan-feature22,full_pf_b,,0
51,34321,76,,,,1,1,1.0,1.0,0.0,1.0,,0.0-78.0,,1.0,468.915,1.0,0.398716075,1.0,0.6723864890000001,0.0,0.674153818,0.0,0.519029516,False,,5cf117aacfbe24001aafa2dd,,1012820,76,,evan-feature22,full_pf_b,,0
52,34322,77,,,,SLOW,SLOW,,,-1.0,0.0,,0.0-79.0,,-3.0,,0.0,0.34677856700000004,1.0,0.69057175,1.0,0.6822438540000001,0.0,0.477292237,False,,5cf117aacfbe24001aafa2dd,,1018660,77,,evan-feature22,full_pf_b,,1
53,34323,78,,,,1,1,0.0,1.0,0.0,1.0,,0.0-80.0,,1.0,230.93,0.0,0.28580469199999997,1.0,0.68408818,0.0,0.684207565,1.0,0.49780448299999996,False,,5cf117aacfbe24001aafa2dd,,1028817,78,,evan-feature22,full_pf_b,,1
54,34325,80,,,,1,1,0.0,1.0,-1.0,0.0,,0.0-82.0,,0.0,344.06,0.0,0.25,1.0,0.7405808970000001,1.0,0.679614108,0.0,0.436436964,False,,5cf117aacfbe24001aafa2dd,,1041183,80,,evan-feature22,full_pf_b,,0
55,34326,81,,,,1,1,0.0,1.0,0.0,1.0,,0.0-83.0,,1.0,703.69,0.0,0.29890393,1.0,0.730505706,1.0,0.7328203320000001,1.0,0.439256938,False,,5cf117aacfbe24001aafa2dd,,1051725,81,,evan-feature22,full_pf_b,,0
56,34327,82,,,,2,2,1.0,0.0,-1.0,0.0,,0.0-84.0,,-1.0,415.135,1.0,0.326762398,1.0,0.7148059609999999,1.0,0.75,0.0,0.44389608799999997,False,,5cf117aacfbe24001aafa2dd,,1061972,82,,evan-feature22,full_pf_b,,1
57,34328,83,,,,SLOW,SLOW,,,-1.0,0.0,,0.0-85.0,,-3.0,,1.0,0.295168515,1.0,0.739760854,0.0,0.719947008,0.0,0.35277284600000003,False,,5cf117aacfbe24001aafa2dd,,1067793,83,,evan-feature22,full_pf_b,,1
58,34329,84,,,,2,2,1.0,0.0,-1.0,0.0,,0.0-86.0,,-1.0,3616.87,0.0,0.25,1.0,0.70781482,1.0,0.75,0.0,0.286095925,False,,5cf117aacfbe24001aafa2dd,,1081310,84,,evan-feature22,full_pf_b,,1
59,34330,85,,,,2,2,1.0,0.0,0.0,1.0,,0.0-87.0,,0.0,271.53,0.0,0.25638190899999996,0.0,0.704088163,1.0,0.75,0.0,0.26872601399999996,False,,5cf117aacfbe24001aafa2dd,,1091413,85,,evan-feature22,full_pf_b,,0
60,34331,86,,,,2,2,1.0,0.0,0.0,1.0,,0.0-88.0,,0.0,247.79,0.0,0.271581126,1.0,0.669760107,1.0,0.733896663,0.0,0.273244572,False,,5cf117aacfbe24001aafa2dd,,1101485,86,,evan-feature22,full_pf_b,,0
61,34332,87,,,,2,2,0.0,0.0,0.0,1.0,,0.0-89.0,,0.0,341.03,0.0,0.257144401,1.0,0.600575706,0.0,0.74488122,0.0,0.25,False,,5cf117aacfbe24001aafa2dd,,1111658,87,,evan-feature22,full_pf_b,,0
62,34333,88,,,,2,2,0.0,0.0,-1.0,0.0,,0.0-90.0,,0.0,366.175,0.0,0.25,1.0,0.616870026,0.0,0.723610234,0.0,0.25,False,,5cf117aacfbe24001aafa2dd,,1121873,88,,evan-feature22,full_pf_b,,0
63,34334,89,,,,2,2,0.0,1.0,0.0,1.0,,0.0-91.0,,1.0,490.955,1.0,0.25,1.0,0.583540187,0.0,0.7041042559999999,1.0,0.285961995,False,,5cf117aacfbe24001aafa2dd,,1132191,89,,evan-feature22,full_pf_b,,0
64,34335,90,,,,2,2,0.0,0.0,-1.0,0.0,,0.0-92.0,,0.0,338.66,1.0,0.27254536,1.0,0.53875765,0.0,0.693783448,0.0,0.284961652,False,,5cf117aacfbe24001aafa2dd,,1142368,90,,evan-feature22,full_pf_b,,0
65,34336,91,,,,2,2,1.0,0.0,0.0,1.0,,0.0-93.0,,0.0,87.29,0.0,0.25,1.0,0.548431252,1.0,0.734221895,0.0,0.279445214,False,,5cf117aacfbe24001aafa2dd,,1152291,91,,evan-feature22,full_pf_b,,0
66,34337,92,,,,2,2,1.0,0.0,-1.0,0.0,,0.0-94.0,,-1.0,986.02,1.0,0.258640684,1.0,0.545878066,1.0,0.725245965,0.0,0.31487537,False,,5cf117aacfbe24001aafa2dd,,1163159,92,,evan-feature22,full_pf_b,,0
67,34338,93,,,,2,2,1.0,1.0,-1.0,0.0,,0.0-95.0,,-1.0,1606.94,0.0,0.251103711,1.0,0.5776290629999999,1.0,0.696320133,1.0,0.317831047,False,,5cf117aacfbe24001aafa2dd,,1174632,93,,evan-feature22,full_pf_b,,0
68,34339,94,,,,2,2,0.0,0.0,-1.0,0.0,,0.0-96.0,,0.0,340.985,0.0,0.276630292,0.0,0.617329858,0.0,0.73838088,0.0,0.261471582,False,,5cf117aacfbe24001aafa2dd,,1184803,94,,evan-feature22,full_pf_b,,0
69,34340,95,,,,2,2,0.0,1.0,0.0,1.0,,0.0-97.0,,1.0,1562.47,0.0,0.297716424,1.0,0.618863717,0.0,0.7402358259999999,1.0,0.262600834,False,,5cf117aacfbe24001aafa2dd,,1196213,95,,evan-feature22,full_pf_b,,0
70,34341,96,,,,1,1,0.0,1.0,-1.0,0.0,,0.0-98.0,,0.0,1129.43,0.0,0.290935512,1.0,0.695370945,1.0,0.706570507,0.0,0.280030553,False,,5cf117aacfbe24001aafa2dd,,1207169,96,,evan-feature22,full_pf_b,,1
71,34342,97,,,,2,2,0.0,0.0,-1.0,0.0,,0.0-99.0,,0.0,2529.605,0.0,0.25,0.0,0.6465277079999999,0.0,0.67766682,0.0,0.25,False,,5cf117aacfbe24001aafa2dd,,1219506,97,,evan-feature22,full_pf_b,,1
72,34343,98,,,,2,2,1.0,0.0,-1.0,0.0,,0.0-100.0,,-1.0,705.445,0.0,0.26463816,0.0,0.636100213,1.0,0.646048507,0.0,0.265607101,False,,5cf117aacfbe24001aafa2dd,,1230052,98,,evan-feature22,full_pf_b,,0
73,34344,99,,,,2,2,0.0,0.0,-1.0,0.0,,0.0-101.0,,0.0,691.775,0.0,0.314340707,1.0,0.667795927,0.0,0.613630805,0.0,0.25,False,,5cf117aacfbe24001aafa2dd,,1240565,99,,evan-feature22,full_pf_b,,0
74,34345,100,,,,SLOW,SLOW,,,-1.0,0.0,,0.0-102.0,,-3.0,,0.0,0.28685784,1.0,0.6622549529999999,1.0,0.652154117,0.0,0.25,False,,5cf117aacfbe24001aafa2dd,,1246394,100,,evan-feature22,full_pf_b,,1
75,34346,101,,,,1,1,0.0,0.0,0.0,1.0,,0.0-103.0,,0.0,69.12,0.0,0.304106554,0.0,0.631289538,0.0,0.707041942,1.0,0.29314237,False,,5cf117aacfbe24001aafa2dd,,1256271,101,,evan-feature22,full_pf_b,,1
76,34347,102,,,,2,2,0.0,0.0,0.0,1.0,,0.0-104.0,,0.0,50.405,1.0,0.304806932,1.0,0.571167718,0.0,0.680472346,0.0,0.25,False,,5cf117aacfbe24001aafa2dd,,1266152,102,,evan-feature22,full_pf_b,,1
77,34348,103,,,,2,2,1.0,1.0,0.0,1.0,,0.0-105.0,,1.0,645.845,1.0,0.37919861,0.0,0.5724849710000001,1.0,0.705638003,1.0,0.30179300600000003,False,,5cf117aacfbe24001aafa2dd,,1276628,103,,evan-feature22,full_pf_b,,0
78,34349,104,,,,2,2,0.0,0.0,0.0,1.0,,0.0-106.0,,0.0,190.51,0.0,0.464277969,0.0,0.554034373,0.0,0.7372627340000001,0.0,0.264699741,False,,5cf117aacfbe24001aafa2dd,,1286658,104,,evan-feature22,full_pf_b,,0
79,34350,105,,,,2,2,1.0,0.0,-1.0,0.0,,0.0-107.0,,-1.0,946.535,0.0,0.465104323,1.0,0.530793115,1.0,0.75,0.0,0.31683071,False,,5cf117aacfbe24001aafa2dd,,1297416,105,,evan-feature22,full_pf_b,,0
80,34351,106,,,,2,2,1.0,0.0,0.0,1.0,,0.0-108.0,,0.0,413.655,1.0,0.465104323,1.0,0.530793115,1.0,0.75,0.0,0.31683071,False,,5cf117aacfbe24001aafa2dd,,1307647,106,,evan-feature22,full_pf_b,,0
81,34352,107,,,,2,2,0.0,0.0,0.0,1.0,,0.0-109.0,,0.0,151.305,0.0,0.46833986,1.0,0.570249239,0.0,0.7244472590000001,0.0,0.364114163,False,,5cf117aacfbe24001aafa2dd,,1317626,107,,evan-feature22,full_pf_b,,0
82,34353,108,,,,2,2,0.0,0.0,0.0,1.0,,0.0-110.0,,0.0,981.89,0.0,0.445444024,1.0,0.649673355,0.0,0.6845441290000001,0.0,0.300660449,False,,5cf117aacfbe24001aafa2dd,,1328436,108,,evan-feature22,full_pf_b,,0
83,34354,109,,,,2,2,1.0,0.0,0.0,1.0,,0.0-111.0,,0.0,203.51,0.0,0.39909721299999995,0.0,0.6715179509999999,1.0,0.742310028,0.0,0.35496088299999995,False,,5cf117aacfbe24001aafa2dd,,1338499,109,,evan-feature22,full_pf_b,,0
84,34355,110,,,,2,2,0.0,0.0,0.0,1.0,,0.0-112.0,,0.0,349.345,0.0,0.37956104799999996,1.0,0.694725302,0.0,0.7181651309999999,0.0,0.38726906299999997,False,,5cf117aacfbe24001aafa2dd,,1348669,110,,evan-feature22,full_pf_b,,0
85,34356,111,,,,2,2,1.0,1.0,0.0,1.0,,0.0-113.0,,1.0,817.225,0.0,0.404995034,1.0,0.724375412,1.0,0.6910946859999999,1.0,0.387187347,False,,5cf117aacfbe24001aafa2dd,,1359394,111,,evan-feature22,full_pf_b,,0
86,34357,112,,,,2,2,0.0,1.0,0.0,1.0,,0.0-114.0,,1.0,512.255,0.0,0.461740803,1.0,0.75,0.0,0.75,1.0,0.34872038200000005,False,,5cf117aacfbe24001aafa2dd,,1369733,112,,evan-feature22,full_pf_b,,0
87,34358,113,,,,1,1,0.0,0.0,-1.0,0.0,,0.0-115.0,,0.0,926.84,0.0,0.43821380600000004,0.0,0.738833273,1.0,0.728286963,1.0,0.399538128,False,,5cf117aacfbe24001aafa2dd,,1380486,113,,evan-feature22,full_pf_b,,1
88,34359,114,,,,2,2,1.0,1.0,0.0,1.0,,0.0-116.0,,1.0,59.94,1.0,0.41709882,0.0,0.736666736,1.0,0.75,1.0,0.389095584,False,,5cf117aacfbe24001aafa2dd,,1390392,114,,evan-feature22,full_pf_b,,1
89,34360,115,,,,1,1,1.0,1.0,0.0,1.0,,0.0-117.0,,1.0,30.62,1.0,0.39749009799999996,1.0,0.744320029,1.0,0.75,0.0,0.363848678,False,,5cf117aacfbe24001aafa2dd,,1400284,115,,evan-feature22,full_pf_b,,1
90,34361,116,,,,2,2,1.0,0.0,-1.0,0.0,,0.0-118.0,,-1.0,728.235,0.0,0.392653706,1.0,0.75,1.0,0.75,0.0,0.384386976,False,,5cf117aacfbe24001aafa2dd,,1410830,116,,evan-feature22,full_pf_b,,1
91,34362,117,,,,2,2,1.0,0.0,-1.0,0.0,,0.0-119.0,,-1.0,1089.965,0.0,0.31190902600000003,0.0,0.75,1.0,0.732413819,0.0,0.413082932,False,,5cf117aacfbe24001aafa2dd,,1421751,117,,evan-feature22,full_pf_b,,0
92,34363,118,,,,2,2,0.0,0.0,0.0,1.0,,0.0-120.0,,0.0,381.615,0.0,0.366917648,1.0,0.740073855,0.0,0.75,0.0,0.352861979,False,,5cf117aacfbe24001aafa2dd,,1431964,118,,evan-feature22,full_pf_b,,0
93,34364,119,,,,2,2,1.0,1.0,0.0,1.0,,0.0-121.0,,1.0,711.76,0.0,0.3645172,1.0,0.721770713,1.0,0.75,1.0,0.404074511,False,,5cf117aacfbe24001aafa2dd,,1442541,119,,evan-feature22,full_pf_b,,0
94,34365,120,,,,2,2,1.0,0.0,0.0,1.0,,0.0-122.0,,0.0,1307.8,0.0,0.35205600299999995,0.0,0.68983859,1.0,0.739735447,0.0,0.366895945,False,,5cf117aacfbe24001aafa2dd,,1453682,120,,evan-feature22,full_pf_b,,0
95,34366,121,,,,2,2,1.0,0.0,0.0,1.0,,0.0-123.0,,0.0,300.525,0.0,0.40998722600000004,0.0,0.720859127,1.0,0.673854955,0.0,0.368528541,False,,5cf117aacfbe24001aafa2dd,,1463817,121,,evan-feature22,full_pf_b,,0
96,34367,122,,,,2,2,1.0,0.0,-1.0,0.0,,0.0-124.0,,-1.0,328.02,0.0,0.353625316,1.0,0.75,1.0,0.695605473,0.0,0.38303674200000004,False,,5cf117aacfbe24001aafa2dd,,1473977,122,,evan-feature22,full_pf_b,,0
97,34368,123,,,,2,2,0.0,0.0,0.0,1.0,,0.0-125.0,,0.0,367.715,1.0,0.359216989,1.0,0.75,0.0,0.6987915090000001,0.0,0.35169046200000004,False,,5cf117aacfbe24001aafa2dd,,1484148,123,,evan-feature22,full_pf_b,,0
98,34369,124,,,,2,2,1.0,0.0,-1.0,0.0,,0.0-126.0,,-1.0,347.79,0.0,0.35834496899999996,1.0,0.75,1.0,0.707067742,0.0,0.416763636,False,,5cf117aacfbe24001aafa2dd,,1494346,124,,evan-feature22,full_pf_b,,0
99,34370,125,,,,2,2,0.0,0.0,-1.0,0.0,,0.0-127.0,,0.0,561.39,0.0,0.38741613799999997,1.0,0.7177369570000001,0.0,0.734902455,0.0,0.49438664299999996,False,,5cf117aacfbe24001aafa2dd,,1504742,125,,evan-feature22,full_pf_b,,0
100,34371,126,,,,2,2,0.0,0.0,0.0,1.0,,0.0-128.0,,0.0,150.895,1.0,0.405255252,1.0,0.7300466640000001,0.0,0.7027748070000001,0.0,0.504359668,False,,5cf117aacfbe24001aafa2dd,,1514705,126,,evan-feature22,full_pf_b,,0
101,34372,127,,,,2,2,1.0,1.0,0.0,1.0,,0.0-129.0,,1.0,346.905,1.0,0.40697073,1.0,0.7260142190000001,1.0,0.724461982,1.0,0.522779179,False,,5cf117aacfbe24001aafa2dd,,1524904,127,,evan-feature22,full_pf_b,,0
102,34373,128,,,,2,2,1.0,0.0,0.0,1.0,,0.0-130.0,,0.0,74.88,0.0,0.43906215299999996,1.0,0.7252802340000001,1.0,0.719079934,0.0,0.5712990579999999,False,,5cf117aacfbe24001aafa2dd,,1534811,128,,evan-feature22,full_pf_b,,0
103,34374,129,,,,2,2,1.0,0.0,0.0,1.0,,0.0-131.0,,0.0,503.59,0.0,0.4076705,1.0,0.73280499,1.0,0.681313127,0.0,0.523891346,False,,5cf117aacfbe24001aafa2dd,,1545145,129,,evan-feature22,full_pf_b,,0
104,34375,130,,,,2,2,1.0,0.0,0.0,1.0,,0.0-132.0,,0.0,116.265,0.0,0.399102911,0.0,0.730498344,1.0,0.661080239,0.0,0.46742603,False,,5cf117aacfbe24001aafa2dd,,1555150,130,,evan-feature22,full_pf_b,,0
105,34376,131,,,,2,2,1.0,1.0,-1.0,0.0,,0.0-133.0,,-1.0,674.545,1.0,0.356477282,1.0,0.712296395,1.0,0.641812684,1.0,0.44868414,False,,5cf117aacfbe24001aafa2dd,,1565643,131,,evan-feature22,full_pf_b,,0
106,34377,132,,,,2,2,1.0,1.0,0.0,1.0,,0.0-134.0,,1.0,1073.165,0.0,0.462760722,0.0,0.692349322,1.0,0.700947931,1.0,0.394680266,False,,5cf117aacfbe24001aafa2dd,,1576588,132,,evan-feature22,full_pf_b,,0
107,34378,133,,,,2,2,1.0,0.0,0.0,1.0,,0.0-135.0,,0.0,235.32,0.0,0.422306413,1.0,0.718375916,1.0,0.706340917,0.0,0.367787185,False,,5cf117aacfbe24001aafa2dd,,1586640,133,,evan-feature22,full_pf_b,,0
108,34380,135,,,,1,1,1.0,1.0,0.0,1.0,,0.0-137.0,,1.0,716.025,1.0,0.4582233,1.0,0.643834117,1.0,0.75,0.0,0.39615823299999997,False,,5cf117aacfbe24001aafa2dd,,1606162,135,,evan-feature22,full_pf_b,,1
109,34381,136,,,,1,1,1.0,0.0,0.0,1.0,,0.0-138.0,,0.0,232.175,1.0,0.43813437899999996,0.0,0.651283804,0.0,0.729674191,0.0,0.37711048,False,,5cf117aacfbe24001aafa2dd,,1616233,136,,evan-feature22,full_pf_b,,0
110,34382,137,,,,1,1,1.0,0.0,0.0,1.0,,0.0-139.0,,0.0,1175.475,1.0,0.471199094,0.0,0.6470010979999999,1.0,0.715008097,0.0,0.410656191,False,,5cf117aacfbe24001aafa2dd,,1627273,137,,evan-feature22,full_pf_b,,0
111,34383,138,,,,1,1,0.0,1.0,-1.0,0.0,,0.0-140.0,,0.0,2524.305,0.0,0.42486406,1.0,0.629771829,0.0,0.6550939960000001,1.0,0.459093873,False,,5cf117aacfbe24001aafa2dd,,1639658,138,,evan-feature22,full_pf_b,,0
112,34384,139,,,,1,1,1.0,1.0,-1.0,0.0,,0.0-141.0,,-1.0,388.11,1.0,0.4803197,1.0,0.645842715,1.0,0.6421749920000001,0.0,0.443092151,False,,5cf117aacfbe24001aafa2dd,,1649881,139,,evan-feature22,full_pf_b,,0
113,34385,140,,,,1,1,1.0,1.0,-1.0,0.0,,0.0-142.0,,-1.0,505.805,1.0,0.521848997,1.0,0.735801074,1.0,0.6691348460000001,1.0,0.45259351600000003,False,,5cf117aacfbe24001aafa2dd,,1660246,140,,evan-feature22,full_pf_b,,0
114,34386,141,,,,1,1,0.0,0.0,0.0,1.0,,0.0-143.0,,0.0,502.905,0.0,0.49565621299999996,0.0,0.742400847,1.0,0.661512553,0.0,0.483110831,False,,5cf117aacfbe24001aafa2dd,,1670565,141,,evan-feature22,full_pf_b,,0
115,34387,142,,,,1,1,0.0,1.0,-1.0,0.0,,0.0-144.0,,0.0,711.38,0.0,0.521564361,1.0,0.731078632,0.0,0.6774886809999999,0.0,0.483263956,False,,5cf117aacfbe24001aafa2dd,,1681091,142,,evan-feature22,full_pf_b,,0
116,34388,143,,,,1,1,1.0,1.0,-1.0,0.0,,0.0-145.0,,-1.0,99.78999999,1.0,0.558893102,1.0,0.719810023,0.0,0.67461031,1.0,0.499349834,False,,5cf117aacfbe24001aafa2dd,,1691041,143,,evan-feature22,full_pf_b,,0
117,34389,144,,,,1,1,0.0,1.0,0.0,1.0,,0.0-146.0,,1.0,1280.79,0.0,0.611031046,1.0,0.75,1.0,0.688072995,1.0,0.5321422729999999,False,,5cf117aacfbe24001aafa2dd,,1702159,144,,evan-feature22,full_pf_b,,0
118,34390,145,,,,1,1,1.0,0.0,-1.0,0.0,,0.0-147.0,,-1.0,386.64,1.0,0.633223941,0.0,0.713567728,0.0,0.75,0.0,0.48185314700000004,False,,5cf117aacfbe24001aafa2dd,,1712365,145,,evan-feature22,full_pf_b,,0
119,34391,146,,,,SLOW,SLOW,,,-1.0,0.0,,0.0-148.0,,-3.0,,1.0,0.664001694,0.0,0.705509768,1.0,0.75,0.0,0.500211065,False,,5cf117aacfbe24001aafa2dd,,1718211,146,,evan-feature22,full_pf_b,,1
120,34392,147,,,,SLOW,SLOW,,,0.0,1.0,,0.0-149.0,,-3.0,,1.0,0.664001694,0.0,0.705509768,1.0,0.75,0.0,0.500211065,False,,5cf117aacfbe24001aafa2dd,,1724052,147,,evan-feature22,full_pf_b,,0
121,34393,148,,,,SLOW,SLOW,,,0.0,1.0,,0.0-150.0,,-3.0,,0.0,0.696508041,1.0,0.71066027,0.0,0.717028709,1.0,0.49792991,False,,5cf117aacfbe24001aafa2dd,,1729902,148,,evan-feature22,full_pf_b,,0
122,34394,149,,,,1,1,1.0,1.0,-1.0,0.0,,0.0-151.0,,-1.0,766.575,1.0,0.699883272,1.0,0.75,1.0,0.713543895,1.0,0.496962643,False,,5cf117aacfbe24001aafa2dd,,1740491,149,,evan-feature22,full_pf_b,,1
123,34395,150,,,,SLOW,SLOW,,,0.0,1.0,,0.0-152.0,,-3.0,,0.0,0.741163419,1.0,0.75,1.0,0.64691024,0.0,0.513858197,False,,5cf117aacfbe24001aafa2dd,,1746331,150,,evan-feature22,full_pf_b,,1
124,34396,151,,,,1,1,1.0,1.0,-1.0,0.0,,0.0-153.0,,-1.0,302.575,1.0,0.75,1.0,0.70816558,1.0,0.594499079,1.0,0.48502124,False,,5cf117aacfbe24001aafa2dd,,1756502,151,,evan-feature22,full_pf_b,,1
125,34397,152,,,,1,1,1.0,0.0,0.0,1.0,,0.0-154.0,,0.0,233.72,1.0,0.75,0.0,0.721848901,1.0,0.62197249,1.0,0.48263586399999997,False,,5cf117aacfbe24001aafa2dd,,1766566,152,,evan-feature22,full_pf_b,,0
126,34398,153,,,,1,1,1.0,1.0,-1.0,0.0,,0.0-155.0,,-1.0,911.42,1.0,0.75,1.0,0.74813071,0.0,0.584357161,1.0,0.411477782,False,,5cf117aacfbe24001aafa2dd,,1777306,153,,evan-feature22,full_pf_b,,0
127,34399,154,,,,1,1,1.0,1.0,0.0,1.0,,0.0-156.0,,1.0,233.075,1.0,0.75,1.0,0.75,0.0,0.52287236,1.0,0.488290656,False,,5cf117aacfbe24001aafa2dd,,1787380,154,,evan-feature22,full_pf_b,,0
128,34400,155,,,,1,1,1.0,1.0,0.0,1.0,,0.0-157.0,,1.0,137.59,1.0,0.75,1.0,0.75,1.0,0.544321581,0.0,0.53143059,False,,5cf117aacfbe24001aafa2dd,,1797367,155,,evan-feature22,full_pf_b,,0
129,34401,156,,,,1,1,0.0,1.0,0.0,1.0,,0.0-158.0,,1.0,858.445,0.0,0.726754564,1.0,0.75,1.0,0.5129306370000001,0.0,0.530592445,False,,5cf117aacfbe24001aafa2dd,,1808049,156,,evan-feature22,full_pf_b,,0
130,34402,157,,,,1,1,1.0,0.0,-1.0,0.0,,0.0-159.0,,-1.0,149.08,1.0,0.75,0.0,0.7392590729999999,1.0,0.479875835,0.0,0.547007051,False,,5cf117aacfbe24001aafa2dd,,1818021,157,,evan-feature22,full_pf_b,,0
131,34403,158,,,,1,1,1.0,1.0,-1.0,0.0,,0.0-160.0,,-1.0,1110.21,1.0,0.75,1.0,0.7393376979999999,1.0,0.546045419,1.0,0.541267353,False,,5cf117aacfbe24001aafa2dd,,1828935,158,,evan-feature22,full_pf_b,,0
132,34404,159,,,,1,1,1.0,0.0,-1.0,0.0,,0.0-161.0,,-1.0,69.97,1.0,0.75,0.0,0.75,1.0,0.485725895,1.0,0.527625395,False,,5cf117aacfbe24001aafa2dd,,1838833,159,,evan-feature22,full_pf_b,,0
133,34405,160,,,,1,1,1.0,1.0,0.0,1.0,,0.0-162.0,,1.0,224.45,1.0,0.75,1.0,0.725087974,0.0,0.488603595,1.0,0.504019206,False,,5cf117aacfbe24001aafa2dd,,1848895,160,,evan-feature22,full_pf_b,,0
134,34406,161,,,,SLOW,SLOW,,,0.0,1.0,,0.0-163.0,,-3.0,,1.0,0.745504295,1.0,0.75,0.0,0.452379914,1.0,0.50131194,False,,5cf117aacfbe24001aafa2dd,,1854725,161,,evan-feature22,full_pf_b,,1
135,34407,162,,,,SLOW,SLOW,,,0.0,1.0,,0.0-164.0,,-3.0,,0.0,0.728513874,1.0,0.75,0.0,0.44125567200000004,0.0,0.531454591,False,,5cf117aacfbe24001aafa2dd,,1860551,162,,evan-feature22,full_pf_b,,0
136,34408,163,,,,SLOW,SLOW,,,-1.0,0.0,,0.0-165.0,,-3.0,,1.0,0.73790804,1.0,0.75,1.0,0.413036656,0.0,0.524619035,False,,5cf117aacfbe24001aafa2dd,,1866384,163,,evan-feature22,full_pf_b,,0
137,34409,164,,,,SLOW,SLOW,,,0.0,1.0,,0.0-166.0,,-3.0,,1.0,0.7080961309999999,0.0,0.708666865,0.0,0.431915581,1.0,0.481819489,False,,5cf117aacfbe24001aafa2dd,,1872202,164,,evan-feature22,full_pf_b,,0
138,34410,165,,,,SLOW,SLOW,,,0.0,1.0,,0.0-167.0,,-3.0,,1.0,0.721378003,1.0,0.71605913,1.0,0.36642387,1.0,0.5036739929999999,False,,5cf117aacfbe24001aafa2dd,,1878054,165,,evan-feature22,full_pf_b,,0
139,34411,166,,,,SLOW,SLOW,,,0.0,1.0,,0.0-168.0,,-3.0,,1.0,0.7340618959999999,0.0,0.699323252,0.0,0.35298046299999997,1.0,0.511241692,False,,5cf117aacfbe24001aafa2dd,,1883892,166,,evan-feature22,full_pf_b,,0
140,34412,167,,,,SLOW,SLOW,,,-1.0,0.0,,0.0-169.0,,-3.0,,1.0,0.75,1.0,0.70412698,1.0,0.380734814,0.0,0.529580116,False,,5cf117aacfbe24001aafa2dd,,1889721,167,,evan-feature22,full_pf_b,,0
141,34413,168,,,,1,1,1.0,1.0,0.0,1.0,,0.0-170.0,,1.0,660.99,1.0,0.7436654909999999,1.0,0.711182751,0.0,0.41125331,0.0,0.49554405,False,,5cf117aacfbe24001aafa2dd,,1900249,168,,evan-feature22,full_pf_b,,1
142,34414,169,,,,1,1,0.0,0.0,0.0,1.0,,0.0-171.0,,0.0,2847.43,0.0,0.731607915,0.0,0.651774583,1.0,0.35688023,1.0,0.45194491600000003,False,,5cf117aacfbe24001aafa2dd,,1912907,169,,evan-feature22,full_pf_b,,0
143,34415,170,,,,SLOW,SLOW,,,-1.0,0.0,,0.0-172.0,,-3.0,,1.0,0.75,1.0,0.75,0.0,0.283145374,1.0,0.528608005,False,,5cf117aacfbe24001aafa2dd,,1918737,170,,evan-feature22,full_pf_b,,1
144,34416,171,,,,1,1,0.0,1.0,-1.0,0.0,,0.0-173.0,,0.0,126.44,0.0,0.7491416890000001,1.0,0.7423785959999999,0.0,0.29135870399999997,0.0,0.498888318,False,,5cf117aacfbe24001aafa2dd,,1928675,171,,evan-feature22,full_pf_b,,1
145,34417,172,,,,1,1,1.0,1.0,-1.0,0.0,,0.0-174.0,,-1.0,37.495,1.0,0.708569387,1.0,0.717682277,0.0,0.294421699,1.0,0.493838163,False,,5cf117aacfbe24001aafa2dd,,1938518,172,,evan-feature22,full_pf_b,,0
146,34418,173,,,,SLOW,SLOW,,,0.0,1.0,,0.0-175.0,,-3.0,,1.0,0.75,1.0,0.7383382159999999,0.0,0.356098707,1.0,0.442533405,False,,5cf117aacfbe24001aafa2dd,,1944362,173,,evan-feature22,full_pf_b,,1
147,34419,174,,,,1,1,1.0,0.0,0.0,1.0,,0.0-176.0,,0.0,266.715,1.0,0.744527075,0.0,0.75,0.0,0.334127506,0.0,0.393165805,False,,5cf117aacfbe24001aafa2dd,,1954482,174,,evan-feature22,full_pf_b,,1
148,34420,175,,,,SLOW,SLOW,,,0.0,1.0,,0.0-177.0,,-3.0,,1.0,0.75,1.0,0.75,1.0,0.33571021799999995,1.0,0.350393962,False,,5cf117aacfbe24001aafa2dd,,1960308,175,,evan-feature22,full_pf_b,,1
149,34421,176,,,,SLOW,SLOW,,,0.0,1.0,,0.0-178.0,,-3.0,,1.0,0.75,1.0,0.75,0.0,0.313628297,0.0,0.36349657399999996,False,,5cf117aacfbe24001aafa2dd,,1966144,176,,evan-feature22,full_pf_b,,0
150,34422,177,,,,SLOW,SLOW,,,-1.0,0.0,,0.0-179.0,,-3.0,,1.0,0.75,1.0,0.734284182,1.0,0.262667667,0.0,0.380199119,False,,5cf117aacfbe24001aafa2dd,,1971984,177,,evan-feature22,full_pf_b,,0
151,34423,178,,,,SLOW,SLOW,,,0.0,1.0,,0.0-180.0,,-3.0,,1.0,0.75,1.0,0.75,1.0,0.25,0.0,0.394494013,False,,5cf117aacfbe24001aafa2dd,,1977816,178,,evan-feature22,full_pf_b,,0
152,34424,179,,,,SLOW,SLOW,,,-1.0,0.0,,0.0-181.0,,-3.0,,1.0,0.722298145,1.0,0.7357822340000001,0.0,0.25,0.0,0.319142121,False,,5cf117aacfbe24001aafa2dd,,1983647,179,,evan-feature22,full_pf_b,,0
153,34425,180,,,,SLOW,SLOW,,,-1.0,0.0,,0.0-182.0,,-3.0,,0.0,0.73149275,1.0,0.724276446,0.0,0.305856907,1.0,0.281315057,False,,5cf117aacfbe24001aafa2dd,,1989481,180,,evan-feature22,full_pf_b,,0
154,34426,181,,,,SLOW,SLOW,,,0.0,1.0,,0.0-183.0,,-3.0,,1.0,0.7458732690000001,1.0,0.7336382459999999,0.0,0.272571964,1.0,0.266021999,False,,5cf117aacfbe24001aafa2dd,,1995316,181,,evan-feature22,full_pf_b,,0
155,34427,182,,,,1,1,1.0,1.0,0.0,1.0,,0.0-184.0,,1.0,286.92,1.0,0.705579037,1.0,0.720778292,0.0,0.320238144,1.0,0.30971744,False,,5cf117aacfbe24001aafa2dd,,2005405,182,,evan-feature22,full_pf_b,,1
156,34428,183,,,,SLOW,SLOW,,,0.0,1.0,,0.0-185.0,,-3.0,,0.0,0.700425648,1.0,0.7198784009999999,0.0,0.272590393,0.0,0.304182931,False,,5cf117aacfbe24001aafa2dd,,2011242,183,,evan-feature22,full_pf_b,,1
157,34429,184,,,,1,1,1.0,1.0,0.0,1.0,,0.0-186.0,,1.0,2735.435,1.0,0.735590785,1.0,0.722714973,1.0,0.25,1.0,0.323421091,False,,5cf117aacfbe24001aafa2dd,,2023798,184,,evan-feature22,full_pf_b,,1
158,34430,185,,,,SLOW,SLOW,,,0.0,1.0,,0.0-187.0,,-3.0,,1.0,0.724807662,0.0,0.63146213,0.0,0.36836492600000004,0.0,0.34592153299999995,False,,5cf117aacfbe24001aafa2dd,,2029638,185,,evan-feature22,full_pf_b,,1
159,34431,186,,,,1,1,1.0,0.0,0.0,1.0,,0.0-188.0,,0.0,317.065,1.0,0.7352796909999999,0.0,0.555111392,1.0,0.36003922,0.0,0.31433779999999995,False,,5cf117aacfbe24001aafa2dd,,2039784,186,,evan-feature22,full_pf_b,,1
160,34432,187,notice,,,,,,,,,,0.0-189.0,"{""Q0"":""""}",,77335.0,,,,,,,,,False,,5cf117aacfbe24001aafa2dd,,2117122,187,Q,survey-text,full_pf_b,,1
161,34433,188,track1,,[1],,,,,,,,0.0-190.0,"{""Q0"":""no""}",,4130.0,,,,,,,,,False,,5cf117aacfbe24001aafa2dd,,2121270,188,Q,evan-quiz,full_pf_b,,1
162,34434,189,track2,,[],,,,,,,,0.0-191.0,"{""Q0"":""""}",,9656.0,,,,,,,,,False,,5cf117aacfbe24001aafa2dd,,2130933,189,Q,evan-quiz,full_pf_b,,1
163,34435,190,strat,,,,,,,,,,0.0-192.0,"{""Q0"":""guess""}",,12647.0,,,,,,,,,False,,5cf117aacfbe24001aafa2dd,,2143585,190,Q,survey-text,full_pf_b,,1
