,index,Unnamed: 0,Q_name,button_pressed,choice_idxs,chosen_pos,chosen_state,chosen_state_f_1_outcome,chosen_state_f_2_outcome,f_1_reward,f_2_reward,incor_questions,internal_node_id,responses,reward_received,rt,s_1_f_1_outcome,s_1_f_1_prob,s_1_f_2_outcome,s_1_f_2_prob,s_2_f_1_outcome,s_2_f_1_prob,s_2_f_2_outcome,s_2_f_2_prob,safe_first,stimulus,subjectID,success,time_elapsed,trial_index,trial_num,trial_type,version,view_history,switching
0,32076,40,,,,1,1,1.0,0.0,0.0,1.0,,0.0-27.0,,0.0,2361.215,1.0,0.6,0.0,0.6,0.0,0.4,1.0,0.4,True,,5c9604d579a68c0001a16496,,833644,40,,evan-feature22,full_rf_b,,0
1,32077,41,,,,SLOW,SLOW,,,0.0,1.0,,0.0-28.0,,-3.0,,0.0,0.608053294,0.0,0.63424552,0.0,0.397152172,0.0,0.347069101,True,,5c9604d579a68c0001a16496,,839457,41,,evan-feature22,full_rf_b,,1
2,32078,42,,,,1,1,0.0,1.0,0.0,1.0,,0.0-29.0,,1.0,427.155,0.0,0.642237155,1.0,0.648566321,0.0,0.389407674,1.0,0.285525717,True,,5c9604d579a68c0001a16496,,849665,42,,evan-feature22,full_rf_b,,1
3,32079,43,,,,2,2,0.0,1.0,0.0,1.0,,0.0-30.0,,1.0,778.475,0.0,0.661086576,0.0,0.630492543,0.0,0.399058924,1.0,0.25,True,,5c9604d579a68c0001a16496,,860218,43,,evan-feature22,full_rf_b,,1
4,32080,44,,,,1,1,0.0,1.0,0.0,1.0,,0.0-31.0,,1.0,424.78,0.0,0.631324137,1.0,0.6269842929999999,1.0,0.38734784299999997,0.0,0.25,True,,5c9604d579a68c0001a16496,,870423,44,,evan-feature22,full_rf_b,,1
5,32081,45,,,,2,2,1.0,0.0,0.0,1.0,,0.0-32.0,,0.0,1495.375,1.0,0.6381991370000001,1.0,0.68987999,1.0,0.384107265,0.0,0.271332943,True,,5c9604d579a68c0001a16496,,881693,45,,evan-feature22,full_rf_b,,1
6,32082,46,,,,1,1,1.0,1.0,0.0,1.0,,0.0-33.0,,1.0,570.95,1.0,0.66034901,1.0,0.742641349,0.0,0.360225629,0.0,0.25,True,,5c9604d579a68c0001a16496,,892040,46,,evan-feature22,full_rf_b,,1
7,32083,47,,,,1,1,1.0,1.0,-1.0,0.0,,0.0-34.0,,-1.0,558.14,1.0,0.638612418,1.0,0.75,0.0,0.367273939,1.0,0.25,True,,5c9604d579a68c0001a16496,,902379,47,,evan-feature22,full_rf_b,,0
8,32084,48,,,,2,2,0.0,0.0,0.0,1.0,,0.0-35.0,,0.0,1423.325,0.0,0.624340629,1.0,0.75,0.0,0.425829545,0.0,0.25,True,,5c9604d579a68c0001a16496,,913568,48,,evan-feature22,full_rf_b,,1
9,32085,49,,,,1,1,0.0,1.0,0.0,1.0,,0.0-36.0,,1.0,401.77,0.0,0.621999804,1.0,0.75,0.0,0.368609357,0.0,0.25,True,,5c9604d579a68c0001a16496,,923742,49,,evan-feature22,full_rf_b,,1
10,32086,50,,,,1,1,1.0,0.0,-1.0,0.0,,0.0-37.0,,-1.0,429.04,1.0,0.62666403,0.0,0.75,1.0,0.311151498,0.0,0.25,True,,5c9604d579a68c0001a16496,,933943,50,,evan-feature22,full_rf_b,,0
11,32087,51,,,,2,2,1.0,0.0,-1.0,0.0,,0.0-38.0,,-1.0,482.755,0.0,0.6819650009999999,1.0,0.75,1.0,0.310763048,0.0,0.25,True,,5c9604d579a68c0001a16496,,944878,51,,evan-feature22,full_rf_b,,1
12,32088,52,,,,2,2,0.0,0.0,0.0,1.0,,0.0-39.0,,0.0,2156.115,1.0,0.740626951,1.0,0.75,0.0,0.25,0.0,0.25,True,,5c9604d579a68c0001a16496,,960371,52,,evan-feature22,full_rf_b,,0
13,32089,53,,,,2,2,0.0,0.0,0.0,1.0,,0.0-40.0,,0.0,2280.46,1.0,0.739599242,1.0,0.742034978,0.0,0.25397114600000004,0.0,0.25,True,,5c9604d579a68c0001a16496,,973894,53,,evan-feature22,full_rf_b,,0
14,32090,54,,,,1,1,1.0,0.0,0.0,1.0,,0.0-41.0,,0.0,1316.345,1.0,0.732341315,0.0,0.72735643,1.0,0.25,0.0,0.25,True,,5c9604d579a68c0001a16496,,984984,54,,evan-feature22,full_rf_b,,1
15,32091,55,,,,1,1,0.0,1.0,0.0,1.0,,0.0-42.0,,1.0,449.695,0.0,0.7062287770000001,1.0,0.75,0.0,0.29002151,1.0,0.288256649,True,,5c9604d579a68c0001a16496,,995208,55,,evan-feature22,full_rf_b,,0
16,32092,56,,,,1,1,1.0,1.0,-1.0,0.0,,0.0-43.0,,-1.0,351.62,1.0,0.7086029209999999,1.0,0.75,1.0,0.274129113,0.0,0.262851608,True,,5c9604d579a68c0001a16496,,1008938,56,,evan-feature22,full_rf_b,,0
17,32093,57,,,,SLOW,SLOW,,,0.0,1.0,,0.0-44.0,,-3.0,,0.0,0.669189651,0.0,0.727614338,1.0,0.298444036,0.0,0.296944518,True,,5c9604d579a68c0001a16496,,1015676,57,,evan-feature22,full_rf_b,,1
18,32094,58,,,,2,2,0.0,0.0,-1.0,0.0,,0.0-45.0,,0.0,92.415,0.0,0.6819912929999999,1.0,0.7179434290000001,0.0,0.265003961,0.0,0.28157921199999997,True,,5c9604d579a68c0001a16496,,1025546,58,,evan-feature22,full_rf_b,,1
19,32095,59,,,,1,1,0.0,1.0,-1.0,0.0,,0.0-46.0,,0.0,2003.885,0.0,0.665275002,1.0,0.723065271,0.0,0.260414971,0.0,0.30973870000000003,True,,5c9604d579a68c0001a16496,,1037862,59,,evan-feature22,full_rf_b,,1
20,32096,60,,,,1,1,1.0,0.0,0.0,1.0,,0.0-47.0,,0.0,3351.155,1.0,0.6660593260000001,0.0,0.728032907,0.0,0.30922817,1.0,0.338778608,True,,5c9604d579a68c0001a16496,,1052880,60,,evan-feature22,full_rf_b,,0
21,32097,61,,,,1,1,0.0,1.0,0.0,1.0,,0.0-48.0,,1.0,1149.585,0.0,0.702068785,1.0,0.6528750879999999,0.0,0.287329608,1.0,0.35789613200000003,True,,5c9604d579a68c0001a16496,,1063807,61,,evan-feature22,full_rf_b,,0
22,32098,62,,,,1,1,1.0,1.0,0.0,1.0,,0.0-49.0,,1.0,439.88,1.0,0.651939787,1.0,0.636725589,0.0,0.284834488,0.0,0.358563756,True,,5c9604d579a68c0001a16496,,1074871,62,,evan-feature22,full_rf_b,,0
23,32099,63,,,,2,2,0.0,1.0,0.0,1.0,,0.0-50.0,,1.0,1434.79,0.0,0.67573929,0.0,0.612550049,0.0,0.37130387600000003,1.0,0.383542402,True,,5c9604d579a68c0001a16496,,1086253,63,,evan-feature22,full_rf_b,,1
24,32100,64,,,,2,2,0.0,0.0,0.0,1.0,,0.0-51.0,,0.0,446.39,1.0,0.620753801,0.0,0.60513644,0.0,0.385529434,0.0,0.340361743,True,,5c9604d579a68c0001a16496,,1096472,64,,evan-feature22,full_rf_b,,0
25,32101,65,,,,2,2,0.0,1.0,-1.0,0.0,,0.0-52.0,,0.0,449.62,0.0,0.673564893,1.0,0.672437924,0.0,0.292955382,1.0,0.337633795,True,,5c9604d579a68c0001a16496,,1106891,65,,evan-feature22,full_rf_b,,0
26,32102,66,,,,1,1,1.0,0.0,0.0,1.0,,0.0-53.0,,0.0,619.02,1.0,0.6749427,0.0,0.724197502,1.0,0.32391132100000003,0.0,0.350995264,True,,5c9604d579a68c0001a16496,,1119417,66,,evan-feature22,full_rf_b,,1
27,32103,67,,,,1,1,1.0,1.0,0.0,1.0,,0.0-54.0,,1.0,57.94,1.0,0.6940159379999999,1.0,0.75,0.0,0.31710554399999996,1.0,0.413450341,True,,5c9604d579a68c0001a16496,,1130871,67,,evan-feature22,full_rf_b,,0
28,32104,68,,,,1,1,1.0,0.0,0.0,1.0,,0.0-55.0,,0.0,1097.41,1.0,0.6916018270000001,0.0,0.69001187,0.0,0.261817804,0.0,0.40038635,True,,5c9604d579a68c0001a16496,,1142736,68,,evan-feature22,full_rf_b,,0
29,32105,69,,,,1,1,0.0,1.0,0.0,1.0,,0.0-56.0,,1.0,2443.87,0.0,0.641061544,1.0,0.71337992,0.0,0.277296461,1.0,0.47372791700000005,True,,5c9604d579a68c0001a16496,,1154960,69,,evan-feature22,full_rf_b,,0
30,32106,70,,,,1,1,1.0,0.0,0.0,1.0,,0.0-57.0,,0.0,1187.59,1.0,0.6082438520000001,0.0,0.708471106,0.0,0.28745137,1.0,0.564174476,True,,5c9604d579a68c0001a16496,,1165923,70,,evan-feature22,full_rf_b,,0
31,32107,71,,,,1,1,0.0,1.0,-1.0,0.0,,0.0-58.0,,0.0,398.115,0.0,0.6051112120000001,1.0,0.7118147229999999,1.0,0.272390611,0.0,0.5595149939999999,True,,5c9604d579a68c0001a16496,,1176102,71,,evan-feature22,full_rf_b,,0
32,32108,72,,,,1,1,1.0,1.0,-1.0,0.0,,0.0-59.0,,-1.0,3199.065,1.0,0.582420852,1.0,0.635867583,0.0,0.31089574,1.0,0.5227206520000001,True,,5c9604d579a68c0001a16496,,1189072,72,,evan-feature22,full_rf_b,,0
33,32109,73,,,,SLOW,SLOW,,,-1.0,0.0,,0.0-60.0,,-3.0,,0.0,0.623195575,1.0,0.655026044,1.0,0.25,1.0,0.560387538,True,,5c9604d579a68c0001a16496,,1195087,73,,evan-feature22,full_rf_b,,1
34,32110,74,,,,1,1,1.0,1.0,0.0,1.0,,0.0-61.0,,1.0,943.765,1.0,0.601889598,1.0,0.678198724,0.0,0.25,0.0,0.559922936,True,,5c9604d579a68c0001a16496,,1205803,74,,evan-feature22,full_rf_b,,1
35,32111,75,,,,1,1,0.0,0.0,-1.0,0.0,,0.0-62.0,,0.0,788.455,0.0,0.601259914,0.0,0.704681482,1.0,0.33908969299999997,0.0,0.505003715,True,,5c9604d579a68c0001a16496,,1217370,75,,evan-feature22,full_rf_b,,0
36,32112,76,,,,SLOW,SLOW,,,-1.0,0.0,,0.0-63.0,,-3.0,,1.0,0.59645454,1.0,0.710437172,1.0,0.327441879,0.0,0.391749613,True,,5c9604d579a68c0001a16496,,1223183,76,,evan-feature22,full_rf_b,,1
37,32113,77,,,,SLOW,SLOW,,,0.0,1.0,,0.0-64.0,,-3.0,,1.0,0.529473,1.0,0.636758527,1.0,0.301338063,0.0,0.365661481,True,,5c9604d579a68c0001a16496,,1228992,77,,evan-feature22,full_rf_b,,0
38,32114,78,,,,SLOW,SLOW,,,-1.0,0.0,,0.0-65.0,,-3.0,,1.0,0.541657162,1.0,0.634541962,1.0,0.343535366,1.0,0.371763742,True,,5c9604d579a68c0001a16496,,1234805,78,,evan-feature22,full_rf_b,,0
39,32115,79,,,,2,2,0.0,0.0,-1.0,0.0,,0.0-66.0,,0.0,218.47,0.0,0.5707533260000001,1.0,0.589121171,0.0,0.326428396,0.0,0.43961622899999997,True,,5c9604d579a68c0001a16496,,1244971,79,,evan-feature22,full_rf_b,,1
40,32116,80,,,,SLOW,SLOW,,,0.0,1.0,,0.0-67.0,,-3.0,,1.0,0.5707533260000001,0.0,0.589121171,1.0,0.326428396,0.0,0.43961622899999997,True,,5c9604d579a68c0001a16496,,1251669,80,,evan-feature22,full_rf_b,,1
41,32117,81,,,,2,2,1.0,0.0,0.0,1.0,,0.0-68.0,,0.0,278.125,1.0,0.506271295,0.0,0.641775594,1.0,0.37149690700000004,0.0,0.404330166,True,,5c9604d579a68c0001a16496,,1261724,81,,evan-feature22,full_rf_b,,1
42,32118,82,,,,1,1,0.0,1.0,-1.0,0.0,,0.0-69.0,,0.0,324.4,0.0,0.455642565,1.0,0.623605825,1.0,0.358753011,0.0,0.346174041,True,,5c9604d579a68c0001a16496,,1271821,82,,evan-feature22,full_rf_b,,1
43,32119,83,,,,SLOW,SLOW,,,0.0,1.0,,0.0-70.0,,-3.0,,1.0,0.483677308,1.0,0.5904681070000001,1.0,0.402218411,0.0,0.35344697,True,,5c9604d579a68c0001a16496,,1277633,83,,evan-feature22,full_rf_b,,1
44,32120,84,,,,2,2,0.0,0.0,-1.0,0.0,,0.0-71.0,,0.0,201.615,0.0,0.394210977,0.0,0.558925494,0.0,0.540052017,0.0,0.35182128700000004,True,,5c9604d579a68c0001a16496,,1287609,84,,evan-feature22,full_rf_b,,1
45,32121,85,,,,2,2,0.0,0.0,0.0,1.0,,0.0-72.0,,0.0,781.56,1.0,0.382300414,0.0,0.577670603,0.0,0.607608448,0.0,0.378261578,True,,5c9604d579a68c0001a16496,,1298865,85,,evan-feature22,full_rf_b,,0
46,32122,86,,,,1,1,0.0,1.0,-1.0,0.0,,0.0-73.0,,0.0,1608.11,0.0,0.357596762,1.0,0.5929076529999999,1.0,0.6579790010000001,0.0,0.401326777,True,,5c9604d579a68c0001a16496,,1311408,86,,evan-feature22,full_rf_b,,1
47,32123,87,,,,1,1,0.0,1.0,0.0,1.0,,0.0-74.0,,1.0,1334.85,0.0,0.362033495,1.0,0.582308608,1.0,0.649195052,0.0,0.355158505,True,,5c9604d579a68c0001a16496,,1325460,87,,evan-feature22,full_rf_b,,0
48,32124,88,,,,1,1,0.0,1.0,0.0,1.0,,0.0-75.0,,1.0,17.775,0.0,0.369620635,1.0,0.669100864,0.0,0.706059111,1.0,0.362516241,True,,5c9604d579a68c0001a16496,,1337939,88,,evan-feature22,full_rf_b,,0
49,32125,89,,,,SLOW,SLOW,,,0.0,1.0,,0.0-76.0,,-3.0,,1.0,0.41477751399999996,1.0,0.7284416779999999,1.0,0.7182656940000001,1.0,0.36228040899999997,True,,5c9604d579a68c0001a16496,,1346866,89,,evan-feature22,full_rf_b,,1
50,32126,90,,,,1,1,0.0,0.0,-1.0,0.0,,0.0-77.0,,0.0,2085.4,0.0,0.37675460299999997,0.0,0.703250285,1.0,0.75,1.0,0.461979164,True,,5c9604d579a68c0001a16496,,1361866,90,,evan-feature22,full_rf_b,,1
51,32127,91,,,,1,1,1.0,0.0,-1.0,0.0,,0.0-78.0,,-1.0,486.705,1.0,0.398716075,0.0,0.6723864890000001,1.0,0.674153818,1.0,0.519029516,True,,5c9604d579a68c0001a16496,,1374202,91,,evan-feature22,full_rf_b,,0
52,32128,92,,,,1,1,0.0,0.0,-1.0,0.0,,0.0-79.0,,0.0,32.12,0.0,0.34677856700000004,0.0,0.69057175,0.0,0.6822438540000001,0.0,0.477292237,True,,5c9604d579a68c0001a16496,,1386274,92,,evan-feature22,full_rf_b,,0
53,32129,93,,,,2,2,1.0,1.0,0.0,1.0,,0.0-80.0,,1.0,581.335,1.0,0.28580469199999997,1.0,0.68408818,1.0,0.684207565,1.0,0.49780448299999996,True,,5c9604d579a68c0001a16496,,1398867,93,,evan-feature22,full_rf_b,,1
54,32131,95,,,,2,2,1.0,1.0,0.0,1.0,,0.0-82.0,,1.0,3216.37,0.0,0.25,0.0,0.7405808970000001,1.0,0.679614108,1.0,0.436436964,True,,5c9604d579a68c0001a16496,,1421158,95,,evan-feature22,full_rf_b,,0
55,32132,96,,,,2,2,1.0,1.0,0.0,1.0,,0.0-83.0,,1.0,311.465,0.0,0.29890393,1.0,0.730505706,1.0,0.7328203320000001,1.0,0.439256938,True,,5c9604d579a68c0001a16496,,1432869,96,,evan-feature22,full_rf_b,,0
56,32133,97,,,,SLOW,SLOW,,,-1.0,0.0,,0.0-84.0,,-3.0,,1.0,0.326762398,1.0,0.7148059609999999,1.0,0.75,1.0,0.44389608799999997,True,,5c9604d579a68c0001a16496,,1440876,97,,evan-feature22,full_rf_b,,1
57,32134,98,,,,SLOW,SLOW,,,0.0,1.0,,0.0-85.0,,-3.0,,0.0,0.295168515,1.0,0.739760854,0.0,0.719947008,0.0,0.35277284600000003,True,,5c9604d579a68c0001a16496,,1449362,98,,evan-feature22,full_rf_b,,0
58,32135,99,,,,SLOW,SLOW,,,0.0,1.0,,0.0-86.0,,-3.0,,0.0,0.25,1.0,0.70781482,1.0,0.75,1.0,0.286095925,True,,5c9604d579a68c0001a16496,,1455929,99,,evan-feature22,full_rf_b,,0
59,32136,100,,,,SLOW,SLOW,,,0.0,1.0,,0.0-87.0,,-3.0,,1.0,0.25638190899999996,1.0,0.704088163,0.0,0.75,0.0,0.26872601399999996,True,,5c9604d579a68c0001a16496,,1462876,100,,evan-feature22,full_rf_b,,0
60,32137,101,,,,SLOW,SLOW,,,-1.0,0.0,,0.0-88.0,,-3.0,,1.0,0.271581126,1.0,0.669760107,0.0,0.733896663,0.0,0.273244572,True,,5c9604d579a68c0001a16496,,1469869,101,,evan-feature22,full_rf_b,,0
61,32138,102,,,,SLOW,SLOW,,,0.0,1.0,,0.0-89.0,,-3.0,,0.0,0.257144401,0.0,0.600575706,1.0,0.74488122,1.0,0.25,True,,5c9604d579a68c0001a16496,,1476889,102,,evan-feature22,full_rf_b,,0
62,32139,103,,,,SLOW,SLOW,,,0.0,1.0,,0.0-90.0,,-3.0,,0.0,0.25,1.0,0.616870026,1.0,0.723610234,1.0,0.25,True,,5c9604d579a68c0001a16496,,1484863,103,,evan-feature22,full_rf_b,,0
63,32140,104,,,,SLOW,SLOW,,,-1.0,0.0,,0.0-91.0,,-3.0,,0.0,0.25,1.0,0.583540187,1.0,0.7041042559999999,1.0,0.285961995,True,,5c9604d579a68c0001a16496,,1491864,104,,evan-feature22,full_rf_b,,0
64,32141,105,,,,SLOW,SLOW,,,-1.0,0.0,,0.0-92.0,,-3.0,,0.0,0.27254536,1.0,0.53875765,1.0,0.693783448,0.0,0.284961652,True,,5c9604d579a68c0001a16496,,1498675,105,,evan-feature22,full_rf_b,,0
65,32142,106,,,,1,1,1.0,0.0,-1.0,0.0,,0.0-93.0,,-1.0,144.25,1.0,0.25,0.0,0.548431252,1.0,0.734221895,0.0,0.279445214,True,,5c9604d579a68c0001a16496,,1511111,106,,evan-feature22,full_rf_b,,1
66,32143,107,,,,1,1,0.0,1.0,0.0,1.0,,0.0-94.0,,1.0,122.955,0.0,0.258640684,1.0,0.545878066,1.0,0.725245965,0.0,0.31487537,True,,5c9604d579a68c0001a16496,,1523863,107,,evan-feature22,full_rf_b,,0
67,32144,108,,,,SLOW,SLOW,,,0.0,1.0,,0.0-95.0,,-3.0,,1.0,0.251103711,1.0,0.5776290629999999,0.0,0.696320133,1.0,0.317831047,True,,5c9604d579a68c0001a16496,,1531545,108,,evan-feature22,full_rf_b,,1
68,32145,109,,,,1,1,0.0,1.0,0.0,1.0,,0.0-96.0,,1.0,60.19,0.0,0.276630292,1.0,0.617329858,1.0,0.73838088,0.0,0.261471582,True,,5c9604d579a68c0001a16496,,1542394,109,,evan-feature22,full_rf_b,,1
69,32146,110,,,,2,2,1.0,0.0,0.0,1.0,,0.0-97.0,,0.0,819.29,0.0,0.297716424,1.0,0.618863717,1.0,0.7402358259999999,0.0,0.262600834,True,,5c9604d579a68c0001a16496,,1553863,110,,evan-feature22,full_rf_b,,1
70,32147,111,,,,SLOW,SLOW,,,-1.0,0.0,,0.0-98.0,,-3.0,,1.0,0.290935512,1.0,0.695370945,1.0,0.706570507,1.0,0.280030553,True,,5c9604d579a68c0001a16496,,1561867,111,,evan-feature22,full_rf_b,,1
71,32148,112,,,,1,1,0.0,1.0,0.0,1.0,,0.0-99.0,,1.0,1120.465,0.0,0.25,1.0,0.6465277079999999,1.0,0.67766682,0.0,0.25,True,,5c9604d579a68c0001a16496,,1573868,112,,evan-feature22,full_rf_b,,1
72,32149,113,,,,1,1,1.0,1.0,-1.0,0.0,,0.0-100.0,,-1.0,79.535,1.0,0.26463816,1.0,0.636100213,0.0,0.646048507,0.0,0.265607101,True,,5c9604d579a68c0001a16496,,1585871,113,,evan-feature22,full_rf_b,,0
73,32150,114,,,,SLOW,SLOW,,,-1.0,0.0,,0.0-101.0,,-3.0,,0.0,0.314340707,0.0,0.667795927,1.0,0.613630805,0.0,0.25,True,,5c9604d579a68c0001a16496,,1593899,114,,evan-feature22,full_rf_b,,1
74,32151,115,,,,SLOW,SLOW,,,0.0,1.0,,0.0-102.0,,-3.0,,0.0,0.28685784,1.0,0.6622549529999999,1.0,0.652154117,0.0,0.25,True,,5c9604d579a68c0001a16496,,1600699,115,,evan-feature22,full_rf_b,,0
75,32152,116,,,,2,2,1.0,1.0,0.0,1.0,,0.0-103.0,,1.0,387.105,1.0,0.304106554,1.0,0.631289538,1.0,0.707041942,1.0,0.29314237,True,,5c9604d579a68c0001a16496,,1612276,116,,evan-feature22,full_rf_b,,1
76,32153,117,,,,2,2,1.0,0.0,0.0,1.0,,0.0-104.0,,0.0,8.78,0.0,0.304806932,0.0,0.571167718,1.0,0.680472346,0.0,0.25,True,,5c9604d579a68c0001a16496,,1623936,117,,evan-feature22,full_rf_b,,0
77,32154,118,,,,2,2,1.0,0.0,0.0,1.0,,0.0-105.0,,0.0,2105.885,1.0,0.37919861,0.0,0.5724849710000001,1.0,0.705638003,0.0,0.30179300600000003,True,,5c9604d579a68c0001a16496,,1639160,118,,evan-feature22,full_rf_b,,0
78,32155,119,,,,2,2,0.0,1.0,0.0,1.0,,0.0-106.0,,1.0,52.915,0.0,0.464277969,1.0,0.554034373,0.0,0.7372627340000001,1.0,0.264699741,True,,5c9604d579a68c0001a16496,,1648995,119,,evan-feature22,full_rf_b,,0
79,32156,120,,,,2,2,1.0,1.0,0.0,1.0,,0.0-107.0,,1.0,535.94,0.0,0.465104323,1.0,0.530793115,1.0,0.75,1.0,0.31683071,True,,5c9604d579a68c0001a16496,,1660617,120,,evan-feature22,full_rf_b,,0
80,32157,121,,,,2,2,1.0,0.0,-1.0,0.0,,0.0-108.0,,-1.0,436.705,1.0,0.465104323,0.0,0.530793115,1.0,0.75,0.0,0.31683071,True,,5c9604d579a68c0001a16496,,1672427,121,,evan-feature22,full_rf_b,,0
81,32158,122,,,,2,2,1.0,1.0,-1.0,0.0,,0.0-109.0,,-1.0,367.09,0.0,0.46833986,1.0,0.570249239,1.0,0.7244472590000001,1.0,0.364114163,True,,5c9604d579a68c0001a16496,,1685056,122,,evan-feature22,full_rf_b,,0
82,32159,123,,,,SLOW,SLOW,,,-1.0,0.0,,0.0-110.0,,-3.0,,0.0,0.445444024,1.0,0.649673355,0.0,0.6845441290000001,1.0,0.300660449,True,,5c9604d579a68c0001a16496,,1692056,123,,evan-feature22,full_rf_b,,1
83,32160,124,,,,2,2,1.0,0.0,-1.0,0.0,,0.0-111.0,,-1.0,2178.65,0.0,0.39909721299999995,1.0,0.6715179509999999,1.0,0.742310028,0.0,0.35496088299999995,True,,5c9604d579a68c0001a16496,,1706877,124,,evan-feature22,full_rf_b,,1
84,32161,125,,,,2,2,0.0,0.0,0.0,1.0,,0.0-112.0,,0.0,77.49,0.0,0.37956104799999996,1.0,0.694725302,0.0,0.7181651309999999,0.0,0.38726906299999997,True,,5c9604d579a68c0001a16496,,1721170,125,,evan-feature22,full_rf_b,,0
85,32162,126,,,,2,2,0.0,0.0,0.0,1.0,,0.0-113.0,,0.0,1790.73,1.0,0.404995034,1.0,0.724375412,0.0,0.6910946859999999,0.0,0.387187347,True,,5c9604d579a68c0001a16496,,1736955,126,,evan-feature22,full_rf_b,,0
86,32163,127,,,,2,2,1.0,1.0,-1.0,0.0,,0.0-114.0,,-1.0,30.595,0.0,0.461740803,0.0,0.75,1.0,0.75,1.0,0.34872038200000005,True,,5c9604d579a68c0001a16496,,1748742,127,,evan-feature22,full_rf_b,,0
87,32164,128,,,,2,2,1.0,0.0,-1.0,0.0,,0.0-115.0,,-1.0,0.469999999,0.0,0.43821380600000004,1.0,0.738833273,1.0,0.728286963,0.0,0.399538128,True,,5c9604d579a68c0001a16496,,1760366,128,,evan-feature22,full_rf_b,,0
88,32165,129,,,,2,2,1.0,1.0,0.0,1.0,,0.0-116.0,,1.0,64.01,0.0,0.41709882,1.0,0.736666736,1.0,0.75,1.0,0.389095584,True,,5c9604d579a68c0001a16496,,1772862,129,,evan-feature22,full_rf_b,,0
89,32166,130,,,,2,2,1.0,1.0,0.0,1.0,,0.0-117.0,,1.0,2455.03,1.0,0.39749009799999996,1.0,0.744320029,1.0,0.75,1.0,0.363848678,True,,5c9604d579a68c0001a16496,,1787869,130,,evan-feature22,full_rf_b,,0
90,32167,131,,,,1,1,0.0,0.0,-1.0,0.0,,0.0-118.0,,0.0,1065.095,0.0,0.392653706,0.0,0.75,0.0,0.75,1.0,0.384386976,True,,5c9604d579a68c0001a16496,,1800947,131,,evan-feature22,full_rf_b,,1
91,32168,132,,,,1,1,1.0,1.0,0.0,1.0,,0.0-119.0,,1.0,2633.385,1.0,0.31190902600000003,1.0,0.75,1.0,0.732413819,1.0,0.413082932,True,,5c9604d579a68c0001a16496,,1817048,132,,evan-feature22,full_rf_b,,0
92,32169,133,,,,2,2,1.0,0.0,-1.0,0.0,,0.0-120.0,,-1.0,1631.34,0.0,0.366917648,1.0,0.740073855,1.0,0.75,0.0,0.352861979,True,,5c9604d579a68c0001a16496,,1830951,133,,evan-feature22,full_rf_b,,1
93,32170,134,,,,SLOW,SLOW,,,-1.0,0.0,,0.0-121.0,,-3.0,,0.0,0.3645172,1.0,0.721770713,1.0,0.75,0.0,0.404074511,True,,5c9604d579a68c0001a16496,,1837869,134,,evan-feature22,full_rf_b,,1
94,32171,135,,,,1,1,0.0,1.0,-1.0,0.0,,0.0-122.0,,0.0,356.3,0.0,0.35205600299999995,1.0,0.68983859,0.0,0.739735447,1.0,0.366895945,True,,5c9604d579a68c0001a16496,,1849073,135,,evan-feature22,full_rf_b,,1
95,32172,136,,,,1,1,0.0,1.0,-1.0,0.0,,0.0-123.0,,0.0,1490.665,0.0,0.40998722600000004,1.0,0.720859127,1.0,0.673854955,1.0,0.368528541,True,,5c9604d579a68c0001a16496,,1864867,136,,evan-feature22,full_rf_b,,0
96,32173,137,,,,SLOW,SLOW,,,-1.0,0.0,,0.0-124.0,,-3.0,,0.0,0.353625316,1.0,0.75,1.0,0.695605473,0.0,0.38303674200000004,True,,5c9604d579a68c0001a16496,,1870682,137,,evan-feature22,full_rf_b,,1
97,32174,138,,,,1,1,1.0,0.0,-1.0,0.0,,0.0-125.0,,-1.0,23.07,1.0,0.359216989,0.0,0.75,0.0,0.6987915090000001,0.0,0.35169046200000004,True,,5c9604d579a68c0001a16496,,1881873,138,,evan-feature22,full_rf_b,,1
98,32175,139,,,,1,1,1.0,1.0,-1.0,0.0,,0.0-126.0,,-1.0,3482.415,1.0,0.35834496899999996,1.0,0.75,1.0,0.707067742,0.0,0.416763636,True,,5c9604d579a68c0001a16496,,1899456,139,,evan-feature22,full_rf_b,,0
99,32176,140,,,,1,1,0.0,1.0,0.0,1.0,,0.0-127.0,,1.0,1002.325,0.0,0.38741613799999997,1.0,0.7177369570000001,1.0,0.734902455,1.0,0.49438664299999996,True,,5c9604d579a68c0001a16496,,1911520,140,,evan-feature22,full_rf_b,,0
100,32177,141,,,,1,1,0.0,0.0,-1.0,0.0,,0.0-128.0,,0.0,2473.725,0.0,0.405255252,0.0,0.7300466640000001,0.0,0.7027748070000001,0.0,0.504359668,True,,5c9604d579a68c0001a16496,,1925482,141,,evan-feature22,full_rf_b,,0
101,32178,142,,,,1,1,1.0,1.0,-1.0,0.0,,0.0-129.0,,-1.0,1426.97,1.0,0.40697073,1.0,0.7260142190000001,1.0,0.724461982,0.0,0.522779179,True,,5c9604d579a68c0001a16496,,1937065,142,,evan-feature22,full_rf_b,,0
102,32179,143,,,,1,1,1.0,1.0,-1.0,0.0,,0.0-130.0,,-1.0,1926.85,1.0,0.43906215299999996,1.0,0.7252802340000001,1.0,0.719079934,1.0,0.5712990579999999,True,,5c9604d579a68c0001a16496,,1948791,143,,evan-feature22,full_rf_b,,0
103,32180,144,,,,2,2,1.0,0.0,0.0,1.0,,0.0-131.0,,0.0,686.21,0.0,0.4076705,0.0,0.73280499,1.0,0.681313127,0.0,0.523891346,True,,5c9604d579a68c0001a16496,,1960864,144,,evan-feature22,full_rf_b,,1
104,32181,145,,,,2,2,0.0,1.0,0.0,1.0,,0.0-132.0,,1.0,31.28,1.0,0.399102911,1.0,0.730498344,0.0,0.661080239,1.0,0.46742603,True,,5c9604d579a68c0001a16496,,1972367,145,,evan-feature22,full_rf_b,,0
105,32182,146,,,,1,1,0.0,1.0,0.0,1.0,,0.0-133.0,,1.0,254.38,0.0,0.356477282,1.0,0.712296395,0.0,0.641812684,1.0,0.44868414,True,,5c9604d579a68c0001a16496,,1982401,146,,evan-feature22,full_rf_b,,1
106,32183,147,,,,1,1,0.0,1.0,-1.0,0.0,,0.0-134.0,,0.0,392.035,0.0,0.462760722,1.0,0.692349322,1.0,0.700947931,0.0,0.394680266,True,,5c9604d579a68c0001a16496,,1992559,147,,evan-feature22,full_rf_b,,0
107,32184,148,,,,2,2,0.0,1.0,-1.0,0.0,,0.0-135.0,,0.0,488.175,0.0,0.422306413,0.0,0.718375916,0.0,0.706340917,1.0,0.367787185,True,,5c9604d579a68c0001a16496,,2002820,148,,evan-feature22,full_rf_b,,1
108,32186,150,,,,1,1,0.0,1.0,-1.0,0.0,,0.0-137.0,,0.0,634.705,0.0,0.4582233,1.0,0.643834117,1.0,0.75,0.0,0.39615823299999997,True,,5c9604d579a68c0001a16496,,2017104,150,,evan-feature22,full_rf_b,,1
109,32187,151,,,,1,1,0.0,0.0,-1.0,0.0,,0.0-138.0,,0.0,582.775,0.0,0.43813437899999996,0.0,0.651283804,1.0,0.729674191,0.0,0.37711048,True,,5c9604d579a68c0001a16496,,2027458,151,,evan-feature22,full_rf_b,,0
110,32188,152,,,,1,1,0.0,1.0,-1.0,0.0,,0.0-139.0,,0.0,48.72,0.0,0.471199094,1.0,0.6470010979999999,1.0,0.715008097,0.0,0.410656191,True,,5c9604d579a68c0001a16496,,2037283,152,,evan-feature22,full_rf_b,,0
111,32189,153,,,,SLOW,SLOW,,,-1.0,0.0,,0.0-140.0,,-3.0,,0.0,0.42486406,1.0,0.629771829,0.0,0.6550939960000001,0.0,0.459093873,True,,5c9604d579a68c0001a16496,,2043110,153,,evan-feature22,full_rf_b,,1
112,32190,154,,,,1,1,0.0,1.0,-1.0,0.0,,0.0-141.0,,0.0,491.86,0.0,0.4803197,1.0,0.645842715,1.0,0.6421749920000001,1.0,0.443092151,True,,5c9604d579a68c0001a16496,,2053386,154,,evan-feature22,full_rf_b,,1
113,32191,155,,,,SLOW,SLOW,,,0.0,1.0,,0.0-142.0,,-3.0,,0.0,0.521848997,1.0,0.735801074,1.0,0.6691348460000001,1.0,0.45259351600000003,True,,5c9604d579a68c0001a16496,,2059197,155,,evan-feature22,full_rf_b,,1
114,32192,156,,,,1,1,0.0,1.0,-1.0,0.0,,0.0-143.0,,0.0,13.505,0.0,0.49565621299999996,1.0,0.742400847,1.0,0.661512553,0.0,0.483110831,True,,5c9604d579a68c0001a16496,,2068986,156,,evan-feature22,full_rf_b,,1
115,32193,157,,,,1,1,0.0,1.0,-1.0,0.0,,0.0-144.0,,0.0,213.56,0.0,0.521564361,1.0,0.731078632,0.0,0.6774886809999999,1.0,0.483263956,True,,5c9604d579a68c0001a16496,,2078972,157,,evan-feature22,full_rf_b,,0
116,32194,158,,,,SLOW,SLOW,,,-1.0,0.0,,0.0-145.0,,-3.0,,1.0,0.558893102,1.0,0.719810023,0.0,0.67461031,0.0,0.499349834,True,,5c9604d579a68c0001a16496,,2084801,158,,evan-feature22,full_rf_b,,1
117,32195,159,,,,1,1,1.0,0.0,-1.0,0.0,,0.0-146.0,,-1.0,1250.045,1.0,0.611031046,0.0,0.75,1.0,0.688072995,0.0,0.5321422729999999,True,,5c9604d579a68c0001a16496,,2095828,159,,evan-feature22,full_rf_b,,1
118,32196,160,,,,1,1,1.0,0.0,0.0,1.0,,0.0-147.0,,0.0,519.74,1.0,0.633223941,0.0,0.713567728,1.0,0.75,0.0,0.48185314700000004,True,,5c9604d579a68c0001a16496,,2106136,160,,evan-feature22,full_rf_b,,0
119,32197,161,,,,2,2,0.0,0.0,-1.0,0.0,,0.0-148.0,,0.0,1010.78,1.0,0.664001694,1.0,0.705509768,0.0,0.75,0.0,0.500211065,True,,5c9604d579a68c0001a16496,,2116916,161,,evan-feature22,full_rf_b,,1
120,32198,162,,,,2,2,1.0,1.0,-1.0,0.0,,0.0-149.0,,-1.0,525.905,1.0,0.664001694,1.0,0.705509768,1.0,0.75,1.0,0.500211065,True,,5c9604d579a68c0001a16496,,2127215,162,,evan-feature22,full_rf_b,,0
121,32199,163,,,,2,2,1.0,0.0,-1.0,0.0,,0.0-150.0,,-1.0,12.695,1.0,0.696508041,0.0,0.71066027,1.0,0.717028709,0.0,0.49792991,True,,5c9604d579a68c0001a16496,,2137004,163,,evan-feature22,full_rf_b,,0
122,32200,164,,,,SLOW,SLOW,,,0.0,1.0,,0.0-151.0,,-3.0,,0.0,0.699883272,1.0,0.75,1.0,0.713543895,0.0,0.496962643,True,,5c9604d579a68c0001a16496,,2142816,164,,evan-feature22,full_rf_b,,1
123,32201,165,,,,2,2,1.0,0.0,0.0,1.0,,0.0-152.0,,0.0,536.33,1.0,0.741163419,1.0,0.75,1.0,0.64691024,0.0,0.513858197,True,,5c9604d579a68c0001a16496,,2153132,165,,evan-feature22,full_rf_b,,1
124,32202,166,,,,2,2,1.0,1.0,0.0,1.0,,0.0-153.0,,1.0,308.78,0.0,0.75,0.0,0.70816558,1.0,0.594499079,1.0,0.48502124,True,,5c9604d579a68c0001a16496,,2163223,166,,evan-feature22,full_rf_b,,0
125,32203,167,,,,1,1,1.0,1.0,-1.0,0.0,,0.0-154.0,,-1.0,789.345,1.0,0.75,1.0,0.721848901,1.0,0.62197249,1.0,0.48263586399999997,True,,5c9604d579a68c0001a16496,,2173792,167,,evan-feature22,full_rf_b,,1
126,32204,168,,,,1,1,1.0,1.0,-1.0,0.0,,0.0-155.0,,-1.0,2551.875,1.0,0.75,1.0,0.74813071,1.0,0.584357161,1.0,0.411477782,True,,5c9604d579a68c0001a16496,,2186116,168,,evan-feature22,full_rf_b,,0
127,32205,169,,,,2,2,1.0,1.0,-1.0,0.0,,0.0-156.0,,-1.0,465.995,1.0,0.75,1.0,0.75,1.0,0.52287236,1.0,0.488290656,True,,5c9604d579a68c0001a16496,,2196355,169,,evan-feature22,full_rf_b,,1
128,32206,170,,,,1,1,1.0,1.0,-1.0,0.0,,0.0-157.0,,-1.0,1138.145,1.0,0.75,1.0,0.75,1.0,0.544321581,0.0,0.53143059,True,,5c9604d579a68c0001a16496,,2207269,170,,evan-feature22,full_rf_b,,1
129,32207,171,,,,1,1,1.0,1.0,-1.0,0.0,,0.0-158.0,,-1.0,0.925,1.0,0.726754564,1.0,0.75,1.0,0.5129306370000001,1.0,0.530592445,True,,5c9604d579a68c0001a16496,,2217048,171,,evan-feature22,full_rf_b,,0
130,32208,172,,,,SLOW,SLOW,,,0.0,1.0,,0.0-159.0,,-3.0,,1.0,0.75,1.0,0.7392590729999999,1.0,0.479875835,1.0,0.547007051,True,,5c9604d579a68c0001a16496,,2222861,172,,evan-feature22,full_rf_b,,1
131,32209,173,,,,1,1,1.0,0.0,0.0,1.0,,0.0-160.0,,0.0,862.435,1.0,0.75,0.0,0.7393376979999999,0.0,0.546045419,0.0,0.541267353,True,,5c9604d579a68c0001a16496,,2233506,173,,evan-feature22,full_rf_b,,1
132,32210,174,,,,1,1,1.0,1.0,-1.0,0.0,,0.0-161.0,,-1.0,1784.315,1.0,0.75,1.0,0.75,0.0,0.485725895,1.0,0.527625395,True,,5c9604d579a68c0001a16496,,2245077,174,,evan-feature22,full_rf_b,,0
133,32211,175,,,,SLOW,SLOW,,,0.0,1.0,,0.0-162.0,,-3.0,,1.0,0.75,0.0,0.725087974,1.0,0.488603595,1.0,0.504019206,True,,5c9604d579a68c0001a16496,,2250889,175,,evan-feature22,full_rf_b,,1
134,32212,176,,,,1,1,0.0,0.0,-1.0,0.0,,0.0-163.0,,0.0,107.15,0.0,0.745504295,0.0,0.75,1.0,0.452379914,0.0,0.50131194,True,,5c9604d579a68c0001a16496,,2260765,176,,evan-feature22,full_rf_b,,1
135,32213,177,,,,1,1,0.0,1.0,0.0,1.0,,0.0-164.0,,1.0,3059.955,0.0,0.728513874,1.0,0.75,1.0,0.44125567200000004,0.0,0.531454591,True,,5c9604d579a68c0001a16496,,2273592,177,,evan-feature22,full_rf_b,,0
136,32214,178,,,,1,1,1.0,1.0,-1.0,0.0,,0.0-165.0,,-1.0,150.05,1.0,0.73790804,1.0,0.75,1.0,0.413036656,1.0,0.524619035,True,,5c9604d579a68c0001a16496,,2283516,178,,evan-feature22,full_rf_b,,0
137,32215,179,,,,1,1,1.0,1.0,-1.0,0.0,,0.0-166.0,,-1.0,2748.83,1.0,0.7080961309999999,1.0,0.708666865,0.0,0.431915581,0.0,0.481819489,True,,5c9604d579a68c0001a16496,,2296046,179,,evan-feature22,full_rf_b,,0
138,32216,180,,,,SLOW,SLOW,,,-1.0,0.0,,0.0-167.0,,-3.0,,0.0,0.721378003,1.0,0.71605913,1.0,0.36642387,1.0,0.5036739929999999,True,,5c9604d579a68c0001a16496,,2301859,180,,evan-feature22,full_rf_b,,1
139,32217,181,,,,SLOW,SLOW,,,0.0,1.0,,0.0-168.0,,-3.0,,1.0,0.7340618959999999,0.0,0.699323252,1.0,0.35298046299999997,0.0,0.511241692,True,,5c9604d579a68c0001a16496,,2307681,181,,evan-feature22,full_rf_b,,0
140,32218,182,,,,SLOW,SLOW,,,0.0,1.0,,0.0-169.0,,-3.0,,1.0,0.75,1.0,0.70412698,0.0,0.380734814,1.0,0.529580116,True,,5c9604d579a68c0001a16496,,2313492,182,,evan-feature22,full_rf_b,,0
141,32219,183,,,,1,1,1.0,1.0,0.0,1.0,,0.0-170.0,,1.0,2442.81,1.0,0.7436654909999999,1.0,0.711182751,1.0,0.41125331,0.0,0.49554405,True,,5c9604d579a68c0001a16496,,2325714,183,,evan-feature22,full_rf_b,,1
142,32220,184,,,,2,2,0.0,1.0,-1.0,0.0,,0.0-171.0,,0.0,54.875,1.0,0.731607915,0.0,0.651774583,0.0,0.35688023,1.0,0.45194491600000003,True,,5c9604d579a68c0001a16496,,2335559,184,,evan-feature22,full_rf_b,,1
143,32221,185,,,,1,1,1.0,1.0,0.0,1.0,,0.0-172.0,,1.0,1548.975,1.0,0.75,1.0,0.75,0.0,0.283145374,0.0,0.528608005,True,,5c9604d579a68c0001a16496,,2346878,185,,evan-feature22,full_rf_b,,1
144,32222,186,,,,1,1,1.0,0.0,-1.0,0.0,,0.0-173.0,,-1.0,120.125,1.0,0.7491416890000001,0.0,0.7423785959999999,1.0,0.29135870399999997,1.0,0.498888318,True,,5c9604d579a68c0001a16496,,2356778,186,,evan-feature22,full_rf_b,,0
145,32223,187,,,,SLOW,SLOW,,,0.0,1.0,,0.0-174.0,,-3.0,,1.0,0.708569387,1.0,0.717682277,0.0,0.294421699,0.0,0.493838163,True,,5c9604d579a68c0001a16496,,2362593,187,,evan-feature22,full_rf_b,,1
146,32224,188,,,,1,1,1.0,0.0,-1.0,0.0,,0.0-175.0,,-1.0,2643.405,1.0,0.75,0.0,0.7383382159999999,1.0,0.356098707,1.0,0.442533405,True,,5c9604d579a68c0001a16496,,2375009,188,,evan-feature22,full_rf_b,,1
147,32225,189,,,,SLOW,SLOW,,,-1.0,0.0,,0.0-176.0,,-3.0,,1.0,0.744527075,1.0,0.75,0.0,0.334127506,0.0,0.393165805,True,,5c9604d579a68c0001a16496,,2380829,189,,evan-feature22,full_rf_b,,1
148,32226,190,,,,1,1,1.0,1.0,-1.0,0.0,,0.0-177.0,,-1.0,15.85,1.0,0.75,1.0,0.75,0.0,0.33571021799999995,0.0,0.350393962,True,,5c9604d579a68c0001a16496,,2390623,190,,evan-feature22,full_rf_b,,1
149,32227,191,,,,1,1,0.0,1.0,0.0,1.0,,0.0-178.0,,1.0,3999.735,0.0,0.75,1.0,0.75,1.0,0.313628297,0.0,0.36349657399999996,True,,5c9604d579a68c0001a16496,,2404393,191,,evan-feature22,full_rf_b,,0
150,32228,192,,,,1,1,1.0,1.0,-1.0,0.0,,0.0-179.0,,-1.0,258.29,1.0,0.75,1.0,0.734284182,0.0,0.262667667,1.0,0.380199119,True,,5c9604d579a68c0001a16496,,2416851,192,,evan-feature22,full_rf_b,,0
151,32229,193,,,,1,1,1.0,0.0,-1.0,0.0,,0.0-180.0,,-1.0,563.005,1.0,0.75,0.0,0.75,0.0,0.25,1.0,0.394494013,True,,5c9604d579a68c0001a16496,,2427192,193,,evan-feature22,full_rf_b,,0
152,32230,194,,,,1,1,1.0,0.0,-1.0,0.0,,0.0-181.0,,-1.0,1238.395,1.0,0.722298145,0.0,0.7357822340000001,1.0,0.25,0.0,0.319142121,True,,5c9604d579a68c0001a16496,,2438221,194,,evan-feature22,full_rf_b,,0
153,32231,195,,,,SLOW,SLOW,,,-1.0,0.0,,0.0-182.0,,-3.0,,1.0,0.73149275,1.0,0.724276446,0.0,0.305856907,0.0,0.281315057,True,,5c9604d579a68c0001a16496,,2444038,195,,evan-feature22,full_rf_b,,1
154,32232,196,,,,1,1,1.0,1.0,-1.0,0.0,,0.0-183.0,,-1.0,611.415,1.0,0.7458732690000001,1.0,0.7336382459999999,0.0,0.272571964,0.0,0.266021999,True,,5c9604d579a68c0001a16496,,2454425,196,,evan-feature22,full_rf_b,,1
155,32233,197,,,,SLOW,SLOW,,,0.0,1.0,,0.0-184.0,,-3.0,,1.0,0.705579037,0.0,0.720778292,0.0,0.320238144,0.0,0.30971744,True,,5c9604d579a68c0001a16496,,2460241,197,,evan-feature22,full_rf_b,,1
156,32234,198,,,,1,1,1.0,1.0,0.0,1.0,,0.0-185.0,,1.0,138.93,1.0,0.700425648,1.0,0.7198784009999999,0.0,0.272590393,0.0,0.304182931,True,,5c9604d579a68c0001a16496,,2470160,198,,evan-feature22,full_rf_b,,1
157,32235,199,,,,1,1,0.0,0.0,0.0,1.0,,0.0-186.0,,0.0,121.32,0.0,0.735590785,0.0,0.722714973,0.0,0.25,0.0,0.323421091,True,,5c9604d579a68c0001a16496,,2480053,199,,evan-feature22,full_rf_b,,0
158,32236,200,,,,1,1,1.0,1.0,0.0,1.0,,0.0-187.0,,1.0,56.355,1.0,0.724807662,1.0,0.63146213,1.0,0.36836492600000004,1.0,0.34592153299999995,True,,5c9604d579a68c0001a16496,,2489886,200,,evan-feature22,full_rf_b,,0
159,32237,201,,,,SLOW,SLOW,,,-1.0,0.0,,0.0-188.0,,-3.0,,0.0,0.7352796909999999,0.0,0.555111392,0.0,0.36003922,1.0,0.31433779999999995,True,,5c9604d579a68c0001a16496,,2495701,201,,evan-feature22,full_rf_b,,1
160,32238,202,notice,,,,,,,,,,0.0-189.0,"{""Q0"":""no""}",,7949.0,,,,,,,,,True,,5c9604d579a68c0001a16496,,2503654,202,Q,survey-text,full_rf_b,,1
161,32239,203,track1,,[1],,,,,,,,0.0-190.0,"{""Q0"":""no""}",,3560.0,,,,,,,,,True,,5c9604d579a68c0001a16496,,2507226,203,Q,evan-quiz,full_rf_b,,1
162,32240,204,track2,,[1],,,,,,,,0.0-191.0,"{""Q0"":""no""}",,4887.0,,,,,,,,,True,,5c9604d579a68c0001a16496,,2512121,204,Q,evan-quiz,full_rf_b,,1
163,32241,205,strat,,,,,,,,,,0.0-192.0,"{""Q0"":""none""}",,5239.0,,,,,,,,,True,,5c9604d579a68c0001a16496,,2517367,205,Q,survey-text,full_rf_b,,1
