,"Q_name","button_pressed","choice_idxs","chosen_pos","chosen_state","chosen_state_f_1_outcome","chosen_state_f_2_outcome","f_1_reward","f_2_reward","incor_questions","internal_node_id","responses","reward_received","rt","s_1_f_1_outcome","s_1_f_1_prob","s_1_f_2_outcome","s_1_f_2_prob","s_2_f_1_outcome","s_2_f_1_prob","s_2_f_2_outcome","s_2_f_2_prob","safe_first","stimulus","subjectID","success","time_elapsed","trial_index","trial_num","trial_type","view_history"
0,,,,,,,,,,,"0.0-0.0",,,,,,,,,,,,"FALSE",,"59bcddc43a9ab600011197f5","TRUE",2807,0,,"fullscreen",
1,,0,,,,,,,,,"0.0-1.0",,,3961,,,,,,,,,"FALSE","Welcome to the task. Before starting the main task, we would like you to answer a few questionnaires.  Please try to answer as accurately as you can.","59bcddc43a9ab600011197f5",,6772,1,,"html-button-response",
2,"anx_aro",,,,,,,,,,"0.0-2.0","{""Q0"":1,""Q1"":0,""Q2"":0,""Q3"":0,""Q4"":0,""Q5"":0,""Q6"":0,""Q7"":0,""Q8"":0,""Q9"":1}",,282625,,,,,,,,,"FALSE",,"59bcddc43a9ab600011197f5",,289401,2,"Q","survey-likert",
3,"worry",,,,,,,,,,"0.0-3.0","{""Q0"":1,""Q1"":1,""Q2"":1,""Q3"":3,""Q4"":2,""Q5"":3,""Q6"":2,""Q7"":2,""Q8"":2,""Q9"":0,""Q10"":3,""Q11"":3,""Q12"":3,""Q13"":1,""Q14"":1,""Q15"":2}",,90135,,,,,,,,,"FALSE",,"59bcddc43a9ab600011197f5",,379542,3,"Q","survey-likert",
4,,,,,,,,,,,"0.0-4.0",,,98447,,,,,,,,,"FALSE",,"59bcddc43a9ab600011197f5",,477991,4,,"instructions","[{""page_index"":0,""viewing_time"":6043},{""page_index"":1,""viewing_time"":43614},{""page_index"":2,""viewing_time"":41133},{""page_index"":1,""viewing_time"":2229},{""page_index"":2,""viewing_time"":5427}]"
5,,,,2,2,1,1,1,-1,,"0.0-5.0",,0,2744.315,0,0.6,0,0.4,1,0.3,1,0.7,"FALSE",,"59bcddc43a9ab600011197f5",,487023,5,,"evan-feature22",
6,,,,"SLOW","SLOW",,,1,-1,,"0.0-6.0",,-3,,0,0.6,1,0.4,0,0.3,1,0.7,"FALSE",,"59bcddc43a9ab600011197f5",,492833,6,,"evan-feature22",
7,,,,2,2,0,1,1,-1,,"0.0-7.0",,-1,233.505,1,0.6,0,0.4,0,0.3,1,0.7,"FALSE",,"59bcddc43a9ab600011197f5",,499335,7,,"evan-feature22",
8,,,,2,2,0,0,1,-1,,"0.0-8.0",,0,2230.52,1,0.6,1,0.4,0,0.3,0,0.7,"FALSE",,"59bcddc43a9ab600011197f5",,507836,8,,"evan-feature22",
9,,,,2,2,1,1,1,-1,,"0.0-9.0",,0,712.98,1,0.6,0,0.4,1,0.3,1,0.7,"FALSE",,"59bcddc43a9ab600011197f5",,514820,9,,"evan-feature22",
10,,,,2,2,0,1,1,-1,,"0.0-10.0",,-1,982.13,1,0.6,0,0.4,0,0.3,1,0.7,"FALSE",,"59bcddc43a9ab600011197f5",,522076,10,,"evan-feature22",
11,,,,2,2,0,1,1,-1,,"0.0-11.0",,-1,1175.72,1,0.6,0,0.4,0,0.3,1,0.7,"FALSE",,"59bcddc43a9ab600011197f5",,529518,11,,"evan-feature22",
12,,,,2,2,0,1,1,-1,,"0.0-12.0",,-1,746.93,0,0.6,0,0.4,0,0.3,1,0.7,"FALSE",,"59bcddc43a9ab600011197f5",,536536,12,,"evan-feature22",
13,,,,2,2,1,0,1,-1,,"0.0-13.0",,1,1110.89,1,0.6,0,0.4,1,0.3,0,0.7,"FALSE",,"59bcddc43a9ab600011197f5",,543916,13,,"evan-feature22",
14,,,,2,2,0,1,1,-1,,"0.0-14.0",,-1,2272.805,1,0.6,0,0.4,0,0.3,1,0.7,"FALSE",,"59bcddc43a9ab600011197f5",,552459,14,,"evan-feature22",
15,,,,,,,,,,,"0.0-15.0",,,233117,,,,,,,,,"FALSE",,"59bcddc43a9ab600011197f5",,785577,15,,"instructions","[{""page_index"":0,""viewing_time"":71945},{""page_index"":1,""viewing_time"":75407},{""page_index"":2,""viewing_time"":42651},{""page_index"":3,""viewing_time"":43113}]"
16,,,,"SLOW","SLOW",,,1,0,,"0.0-16.0",,-3,,1,0.6,0,0.3,0,0.3,0,0.5,"FALSE",,"59bcddc43a9ab600011197f5",,791393,16,,"evan-feature22",
17,,,,1,1,1,1,0,-1,,"0.0-17.0",,-1,1534.035,1,0.6,1,0.3,0,0.3,0,0.5,"FALSE",,"59bcddc43a9ab600011197f5",,791208,17,,"evan-feature22",
18,,,,2,2,0,0,0,-1,,"0.0-18.0",,0,1326.99,1,0.6,0,0.3,0,0.3,0,0.5,"FALSE",,"59bcddc43a9ab600011197f5",,802312,18,,"evan-feature22",
19,,,,2,2,0,0,1,0,,"0.0-19.0",,0,1087.75,0,0.6,0,0.3,0,0.3,0,0.5,"FALSE",,"59bcddc43a9ab600011197f5",,813175,19,,"evan-feature22",
20,,,,1,1,0,0,1,0,,"0.0-20.0",,0,1203.1,0,0.6,0,0.3,1,0.3,1,0.5,"FALSE",,"59bcddc43a9ab600011197f5",,824155,20,,"evan-feature22",
21,,,,,,,,,,,"0.0-21.0",,,50526,,,,,,,,,"FALSE",,"59bcddc43a9ab600011197f5",,874681,21,,"instructions","[{""page_index"":0,""viewing_time"":50525}]"
22,,,"[1, 1, 0, 0]",,,,,,,,"0.0-22.0","{""Q0"":""2"",""Q1"":""The number of minerals gained minus the number of minerals lost on 5 randomly selected decisions."",""Q2"":""Yes."",""Q3"":""The number of minerals that the gold alien will provide (if positive) or take away (if negative)""}",,65831,,,,,,,,,"FALSE",,"59bcddc43a9ab600011197f5",,940521,22,,"evan-quiz",
23,,0,,,,,,,,,"0.0-25.0",,,10789,,,,,,,,,"FALSE","You passed the quiz! Great work. The task will take about 30 minutes. Press the button to begin.","59bcddc43a9ab600011197f5",,951312,23,,"html-button-response",
24,,,,1,1,0,0,0,-1,,"0.0-26.0",,0,1211.635,0,0.6,0,0.4,0,0.4,0,0.6,"FALSE",,"59bcddc43a9ab600011197f5",,962296,24,,"evan-feature22",
25,,,,1,1,1,0,0,-1,,"0.0-27.0",,0,1037.085,1,0.625928423,0,0.395903568,0,0.416361855,0,0.636279196,"FALSE",,"59bcddc43a9ab600011197f5",,973106,25,,"evan-feature22",
26,,,,2,2,0,1,0,-1,,"0.0-28.0",,-1,969.955,1,0.632185889,0,0.379409997,0,0.510461374,1,0.636053735,"FALSE",,"59bcddc43a9ab600011197f5",,983855,26,,"evan-feature22",
27,,,,2,2,1,0,0,-1,,"0.0-29.0",,0,1289.5,0,0.650098956,0,0.437690015,1,0.513165207,0,0.594219782,"FALSE",,"59bcddc43a9ab600011197f5",,994920,27,,"evan-feature22",
28,,,,2,2,1,0,0,-1,,"0.0-30.0",,0,1582.78,1,0.718427004,1,0.461759895,1,0.466591374,0,0.557006706,"FALSE",,"59bcddc43a9ab600011197f5",,1006277,28,,"evan-feature22",
29,,,,1,1,1,0,0,-1,,"0.0-31.0",,0,1022.55,1,0.762929561,0,0.487475291,0,0.437729423,1,0.574463924,"FALSE",,"59bcddc43a9ab600011197f5",,1017080,29,,"evan-feature22",
30,,,,1,1,0,0,0,-1,,"0.0-32.0",,0,609.615,0,0.763717037,0,0.435099549,1,0.465087572,0,0.60565513,"FALSE",,"59bcddc43a9ab600011197f5",,1027462,30,,"evan-feature22",
31,,,,1,1,1,0,1,0,,"0.0-33.0",,1,1373.31,1,0.77229152,0,0.364439775,1,0.401053115,1,0.658123444,"FALSE",,"59bcddc43a9ab600011197f5",,1038614,31,,"evan-feature22",
32,,,,1,1,1,0,0,-1,,"0.0-34.0",,0,1331.36,1,0.744772498,0,0.353486627,1,0.357677552,1,0.650421367,"FALSE",,"59bcddc43a9ab600011197f5",,1049723,32,,"evan-feature22",
33,,,,2,2,0,0,0,-1,,"0.0-35.0",,0,778.01,1,0.674079628,0,0.341841772,0,0.364878884,0,0.720326902,"FALSE",,"59bcddc43a9ab600011197f5",,1060279,33,,"evan-feature22",
34,,,,2,2,1,1,1,0,,"0.0-36.0",,1,1476.755,1,0.661527729,0,0.347257661,1,0.301580406,1,0.757279221,"FALSE",,"59bcddc43a9ab600011197f5",,1071540,34,,"evan-feature22",
35,,,,1,1,0,1,1,0,,"0.0-37.0",,0,1193.765,0,0.660815217,1,0.379489547,0,0.266362694,1,0.8,"FALSE",,"59bcddc43a9ab600011197f5",,1082512,35,,"evan-feature22",
36,,,,1,1,1,0,0,-1,,"0.0-38.0",,0,1189.765,1,0.645840989,0,0.303961219,0,0.227276622,0,0.8,"FALSE",,"59bcddc43a9ab600011197f5",,1093479,36,,"evan-feature22",
37,,,,2,2,0,1,0,-1,,"0.0-39.0",,-1,857.53,1,0.653475024,0,0.330387001,0,0.216413453,1,0.761410571,"FALSE",,"59bcddc43a9ab600011197f5",,1104114,37,,"evan-feature22",
38,,,,1,1,1,1,0,-1,,"0.0-40.0",,-1,809.355,1,0.641284007,1,0.3333084,0,0.240310726,1,0.8,"FALSE",,"59bcddc43a9ab600011197f5",,1114700,38,,"evan-feature22",
39,,,,2,2,0,1,0,-1,,"0.0-41.0",,-1,815.1,1,0.613358121,0,0.297219209,0,0.298906785,1,0.781296249,"FALSE",,"59bcddc43a9ab600011197f5",,1125291,39,,"evan-feature22",
40,,,,2,2,1,1,1,0,,"0.0-42.0",,1,819.53,1,0.560222979,0,0.260871998,1,0.246708996,1,0.792830946,"FALSE",,"59bcddc43a9ab600011197f5",,1135890,40,,"evan-feature22",
41,,,,2,2,0,1,0,-1,,"0.0-43.0",,-1,647.48,1,0.536912134,1,0.250417104,0,0.2,1,0.765101149,"FALSE",,"59bcddc43a9ab600011197f5",,1146315,41,,"evan-feature22",
42,,,,1,1,0,0,1,0,,"0.0-44.0",,0,537.63,0,0.49919695,0,0.2,0,0.2,1,0.773279061,"FALSE",,"59bcddc43a9ab600011197f5",,1156627,42,,"evan-feature22",
43,,,,1,1,0,0,1,0,,"0.0-45.0",,0,806.7,0,0.459627509,0,0.212216909,0,0.2,1,0.662061311,"FALSE",,"59bcddc43a9ab600011197f5",,1167212,43,,"evan-feature22",
44,,,,2,2,0,1,0,-1,,"0.0-46.0",,-1,725.31,0,0.417845724,0,0.22682277,0,0.2,1,0.709165356,"FALSE",,"59bcddc43a9ab600011197f5",,1177710,44,,"evan-feature22",
45,,,,2,2,0,0,0,-1,,"0.0-47.0",,0,1928.07,0,0.494962775,0,0.2,0,0.2,0,0.716798403,"FALSE",,"59bcddc43a9ab600011197f5",,1189412,45,,"evan-feature22",
46,,,,2,2,1,1,0,-1,,"0.0-48.0",,-1,2180.75,0,0.545506958,0,0.235437513,1,0.2,1,0.645567591,"FALSE",,"59bcddc43a9ab600011197f5",,1201369,46,,"evan-feature22",
47,,,,1,1,1,1,0,-1,,"0.0-49.0",,-1,704.355,1,0.588847237,1,0.274305745,1,0.2,1,0.647011113,"FALSE",,"59bcddc43a9ab600011197f5",,1211847,47,,"evan-feature22",
48,,,,1,1,1,0,0,-1,,"0.0-50.0",,0,663.845,1,0.541102968,0,0.22645371,0,0.236325635,1,0.667273806,"FALSE",,"59bcddc43a9ab600011197f5",,1222289,48,,"evan-feature22",
49,,,,1,1,1,1,1,0,,"0.0-51.0",,1,777.67,1,0.490387594,1,0.2,0,0.209906961,1,0.658487389,"FALSE",,"59bcddc43a9ab600011197f5",,1232842,49,,"evan-feature22",
50,,,,1,1,0,0,0,-1,,"0.0-52.0",,0,1351.325,0,0.549336464,0,0.223311399,0,0.215427269,0,0.699424853,"FALSE",,"59bcddc43a9ab600011197f5",,1243970,50,,"evan-feature22",
51,,,,1,1,1,0,0,-1,,"0.0-53.0",,0,1684.015,1,0.616387033,0,0.242050882,0,0.236831238,1,0.660702856,"FALSE",,"59bcddc43a9ab600011197f5",,1255432,51,,"evan-feature22",
52,,,,1,1,0,0,0,-1,,"0.0-54.0",,0,958.465,0,0.632533083,0,0.236756329,0,0.239558776,1,0.626572575,"FALSE",,"59bcddc43a9ab600011197f5",,1266172,52,,"evan-feature22",
53,,,,1,1,1,0,0,-1,,"0.0-55.0",,0,1038.425,1,0.585128523,0,0.211085127,0,0.242964243,1,0.646247017,"FALSE",,"59bcddc43a9ab600011197f5",,1276986,53,,"evan-feature22",
54,,,,1,1,0,1,0,-1,,"0.0-56.0",,-1,645.99,0,0.631279052,1,0.208261881,0,0.2,1,0.598661374,"FALSE",,"59bcddc43a9ab600011197f5",,1287409,54,,"evan-feature22",
55,,,,1,1,0,0,1,0,,"0.0-57.0",,0,1128.07,0,0.645601188,0,0.2,0,0.2,0,0.604309462,"FALSE",,"59bcddc43a9ab600011197f5",,1298313,55,,"evan-feature22",
56,,,,2,2,1,1,1,0,,"0.0-58.0",,1,1506.57,1,0.618753278,0,0.2,1,0.2,1,0.59705541,"FALSE",,"59bcddc43a9ab600011197f5",,1309598,56,,"evan-feature22",
57,,,,2,2,0,1,1,0,,"0.0-59.0",,0,1466.99,1,0.62382752,1,0.2,0,0.223636049,1,0.626809609,"FALSE",,"59bcddc43a9ab600011197f5",,1320840,57,,"evan-feature22",
58,,,,1,1,1,0,0,-1,,"0.0-60.0",,0,1501.26,1,0.673200992,0,0.2,0,0.240142729,1,0.610360914,"FALSE",,"59bcddc43a9ab600011197f5",,1332115,58,,"evan-feature22",
59,,,,1,1,1,0,1,0,,"0.0-61.0",,1,689.87,1,0.610898111,0,0.250157064,0,0.250884274,1,0.664171968,"FALSE",,"59bcddc43a9ab600011197f5",,1342582,59,,"evan-feature22",
60,,,,1,1,1,1,1,0,,"0.0-62.0",,1,773.765,1,0.598301898,1,0.248311053,0,0.296388488,0,0.63425056,"FALSE",,"59bcddc43a9ab600011197f5",,1353123,60,,"evan-feature22",
61,,,,2,2,0,0,0,-1,,"0.0-63.0",,0,1014.825,1,0.588894116,0,0.256357363,0,0.253003051,0,0.552032601,"FALSE",,"59bcddc43a9ab600011197f5",,1363914,61,,"evan-feature22",
62,,,,1,1,1,0,1,0,,"0.0-64.0",,1,488.9,1,0.568426,0,0.236770987,0,0.303107977,0,0.515870586,"FALSE",,"59bcddc43a9ab600011197f5",,1374176,62,,"evan-feature22",
63,,,,1,1,1,1,1,0,,"0.0-65.0",,1,755.98,1,0.579014883,1,0.221214946,0,0.302005511,1,0.544151758,"FALSE",,"59bcddc43a9ab600011197f5",,1384703,63,,"evan-feature22",
64,,,,2,2,0,1,0,-1,,"0.0-66.0",,-1,1868.01,1,0.565697181,0,0.216910924,0,0.329714007,1,0.548125478,"FALSE",,"59bcddc43a9ab600011197f5",,1396347,64,,"evan-feature22",
65,,,,2,2,1,0,0,-1,,"0.0-67.0",,0,1978.6,1,0.557218295,0,0.235275726,1,0.310280339,0,0.601635125,"FALSE",,"59bcddc43a9ab600011197f5",,1408099,65,,"evan-feature22",
66,,,,1,1,1,0,1,0,,"0.0-68.0",,1,866.75,1,0.503661609,0,0.316001204,0,0.359065097,1,0.606103889,"FALSE",,"59bcddc43a9ab600011197f5",,1418739,66,,"evan-feature22",
67,,,,1,1,0,0,0,-1,,"0.0-69.0",,0,1631.125,0,0.52124269,0,0.247744411,0,0.336491959,0,0.569669564,"FALSE",,"59bcddc43a9ab600011197f5",,1430142,67,,"evan-feature22",
68,,,,1,1,0,0,1,0,,"0.0-70.0",,0,652.585,0,0.476715291,0,0.252307362,0,0.361290845,1,0.696552654,"FALSE",,"59bcddc43a9ab600011197f5",,1440567,68,,"evan-feature22",
69,,,,2,2,0,1,0,-1,,"0.0-71.0",,-1,1978.43,0,0.522125232,1,0.263652623,0,0.416704449,1,0.757101488,"FALSE",,"59bcddc43a9ab600011197f5",,1452318,69,,"evan-feature22",
70,,,,1,1,0,0,1,0,,"0.0-72.0",,0,763.96,0,0.530909247,0,0.285803841,1,0.349236593,1,0.743130233,"FALSE",,"59bcddc43a9ab600011197f5",,1462859,70,,"evan-feature22",
71,,,,1,1,0,0,0,-1,,"0.0-73.0",,0,1844.04,0,0.491973806,0,0.274503571,0,0.387175478,0,0.796399836,"FALSE",,"59bcddc43a9ab600011197f5",,1474478,71,,"evan-feature22",
72,,,,1,1,0,1,0,-1,,"0.0-74.0",,-1,1286.305,0,0.440335822,1,0.284677433,0,0.362895033,1,0.8,"FALSE",,"59bcddc43a9ab600011197f5",,1485538,72,,"evan-feature22",
73,,,,2,2,1,1,0,-1,,"0.0-75.0",,-1,1142.495,0,0.479074501,0,0.294004891,1,0.298101769,1,0.8,"FALSE",,"59bcddc43a9ab600011197f5",,1496457,73,,"evan-feature22",
74,,,,2,2,0,1,1,0,,"0.0-76.0",,0,1034.02,1,0.4932447,0,0.209806217,0,0.349105487,1,0.768530393,"FALSE",,"59bcddc43a9ab600011197f5",,1507268,74,,"evan-feature22",
75,,,,1,1,1,0,1,0,,"0.0-77.0",,1,669.69,1,0.478325964,0,0.232650109,0,0.397575193,1,0.759970785,"FALSE",,"59bcddc43a9ab600011197f5",,1517716,75,,"evan-feature22",
76,,,,1,1,1,0,1,0,,"0.0-78.0",,1,760.5,1,0.495116819,0,0.262830049,1,0.395442465,1,0.757900997,"FALSE",,"59bcddc43a9ab600011197f5",,1528252,76,,"evan-feature22",
77,,,,1,1,0,0,0,-1,,"0.0-79.0",,0,1491.7,0,0.46826402,0,0.299520002,1,0.367897658,1,0.8,"FALSE",,"59bcddc43a9ab600011197f5",,1539518,77,,"evan-feature22",
78,,0,,,,,,,,,"0.0-80.0",,,9325,,,,,,,,,"FALSE","Great work. You are a third of the way through the task.","59bcddc43a9ab600011197f5",,1548845,78,,"html-button-response",
79,,,,2,2,1,1,0,-1,,"0.0-81.0",,-1,1322.76,0,0.429692185,1,0.290259512,1,0.38417303,1,0.8,"FALSE",,"59bcddc43a9ab600011197f5",,1559949,79,,"evan-feature22",
80,,,,1,1,1,0,0,-1,,"0.0-82.0",,0,1724.645,1,0.448544348,0,0.218902463,1,0.359121131,0,0.8,"FALSE",,"59bcddc43a9ab600011197f5",,1571447,80,,"evan-feature22",
81,,,,1,1,0,0,1,0,,"0.0-83.0",,0,892.705,0,0.404634243,0,0.2,1,0.331168384,0,0.8,"FALSE",,"59bcddc43a9ab600011197f5",,1582111,81,,"evan-feature22",
82,,,,2,2,0,1,0,-1,,"0.0-84.0",,-1,1120.235,1,0.460808469,0,0.226932935,0,0.426844185,1,0.779158574,"FALSE",,"59bcddc43a9ab600011197f5",,1593004,82,,"evan-feature22",
83,,,,1,1,1,0,0,-1,,"0.0-85.0",,0,1147.04,1,0.507328748,0,0.225628596,1,0.491272617,0,0.779171318,"FALSE",,"59bcddc43a9ab600011197f5",,1603926,83,,"evan-feature22",
84,,,,1,1,1,0,0,-1,,"0.0-86.0",,0,667.985,1,0.475398868,0,0.210546691,1,0.548946291,0,0.8,"FALSE",,"59bcddc43a9ab600011197f5",,1614374,84,,"evan-feature22",
85,,,,1,1,1,0,1,0,,"0.0-87.0",,1,1029.32,1,0.577366958,0,0.210025267,1,0.517663827,1,0.667149461,"FALSE",,"59bcddc43a9ab600011197f5",,1625178,85,,"evan-feature22",
86,,,,1,1,1,0,0,-1,,"0.0-88.0",,0,1392.115,1,0.59689526,0,0.2,1,0.457089543,1,0.695501237,"FALSE",,"59bcddc43a9ab600011197f5",,1636346,86,,"evan-feature22",
87,,,,1,1,0,1,0,-1,,"0.0-89.0",,-1,1135.36,0,0.634631385,1,0.2,0,0.424596711,1,0.677506484,"FALSE",,"59bcddc43a9ab600011197f5",,1647253,87,,"evan-feature22",
88,,,,1,1,0,1,1,0,,"0.0-90.0",,0,1007.96,0,0.65654557,1,0.221934702,1,0.445639003,1,0.673381668,"FALSE",,"59bcddc43a9ab600011197f5",,1658035,88,,"evan-feature22",
89,,,,1,1,1,1,1,0,,"0.0-91.0",,1,998.015,1,0.681977797,1,0.242148743,0,0.493866451,0,0.662437964,"FALSE",,"59bcddc43a9ab600011197f5",,1668814,89,,"evan-feature22",
90,,,,1,1,0,0,1,0,,"0.0-92.0",,0,640.99,0,0.650328273,0,0.20706394,1,0.470045369,1,0.691556057,"FALSE",,"59bcddc43a9ab600011197f5",,1679225,90,,"evan-feature22",
91,,,,2,2,0,1,0,-1,,"0.0-93.0",,-1,1851.87,1,0.652406904,0,0.2,0,0.46602527,1,0.718680015,"FALSE",,"59bcddc43a9ab600011197f5",,1690929,91,,"evan-feature22",
92,,,,2,2,0,1,0,-1,,"0.0-94.0",,-1,1269.91,1,0.618106018,0,0.21862797,0,0.494718723,1,0.771952271,"FALSE",,"59bcddc43a9ab600011197f5",,1701976,92,,"evan-feature22",
93,,,,1,1,1,1,0,-1,,"0.0-95.0",,-1,1139.63,1,0.61569103,1,0.257594422,0,0.514741772,1,0.750874695,"FALSE",,"59bcddc43a9ab600011197f5",,1712893,93,,"evan-feature22",
94,,,,2,2,0,1,0,-1,,"0.0-96.0",,-1,759.15,1,0.598889253,0,0.32643588,0,0.573899692,1,0.765464495,"FALSE",,"59bcddc43a9ab600011197f5",,1723420,94,,"evan-feature22",
95,,,,1,1,1,1,1,0,,"0.0-97.0",,1,1065.185,1,0.604148234,1,0.31179723,0,0.605084543,0,0.717556355,"FALSE",,"59bcddc43a9ab600011197f5",,1734264,95,,"evan-feature22",
96,,,,1,1,0,1,0,-1,,"0.0-98.0",,-1,1249.655,0,0.60914345,1,0.304089194,1,0.587413745,0,0.762510786,"FALSE",,"59bcddc43a9ab600011197f5",,1745286,96,,"evan-feature22",
97,,,,2,2,0,1,1,0,,"0.0-99.0",,0,1966.895,0,0.556011004,1,0.297212656,0,0.615215204,1,0.688835497,"FALSE",,"59bcddc43a9ab600011197f5",,1757030,97,,"evan-feature22",
98,,,,1,1,1,0,1,0,,"0.0-100.0",,1,1008.745,1,0.538989836,0,0.259288265,0,0.63117526,1,0.622387272,"FALSE",,"59bcddc43a9ab600011197f5",,1767816,98,,"evan-feature22",
99,,,,2,2,1,0,0,-1,,"0.0-101.0",,0,947.71,1,0.477391925,1,0.286964716,1,0.607192834,0,0.630914953,"FALSE",,"59bcddc43a9ab600011197f5",,1778545,99,,"evan-feature22",
100,,,,2,2,1,1,0,-1,,"0.0-102.0",,-1,983.79,1,0.481844581,0,0.318018092,1,0.606517823,1,0.554718886,"FALSE",,"59bcddc43a9ab600011197f5",,1789302,100,,"evan-feature22",
101,,,,1,1,0,0,0,-1,,"0.0-103.0",,0,896.63,0,0.546807353,0,0.271400321,0,0.611358728,1,0.583214152,"FALSE",,"59bcddc43a9ab600011197f5",,1799972,101,,"evan-feature22",
102,,,,2,2,0,1,0,-1,,"0.0-104.0",,-1,1967.205,0,0.559747181,0,0.2,0,0.602012293,1,0.59294636,"FALSE",,"59bcddc43a9ab600011197f5",,1811715,102,,"evan-feature22",
103,,,,2,2,0,1,0,-1,,"0.0-105.0",,-1,590.825,0,0.50773535,0,0.2,0,0.627190004,1,0.57015433,"FALSE",,"59bcddc43a9ab600011197f5",,1822085,103,,"evan-feature22",
104,,,,1,1,1,0,0,-1,,"0.0-106.0",,0,1851.52,1,0.517936872,0,0.24316099,1,0.593253697,1,0.59982907,"FALSE",,"59bcddc43a9ab600011197f5",,1833715,104,,"evan-feature22",
105,,,,1,1,1,0,1,0,,"0.0-107.0",,1,581.715,1,0.517936872,0,0.24316099,1,0.593253697,0,0.59982907,"FALSE",,"59bcddc43a9ab600011197f5",,1844072,105,,"evan-feature22",
106,,,,1,1,1,0,1,0,,"0.0-108.0",,1,661.93,1,0.545406358,0,0.235308725,1,0.60269625,0,0.585108204,"FALSE",,"59bcddc43a9ab600011197f5",,1854514,106,,"evan-feature22",
107,,,,1,1,0,0,1,0,,"0.0-109.0",,0,1546.92,0,0.56855096,0,0.257056033,1,0.654037276,0,0.575303131,"FALSE",,"59bcddc43a9ab600011197f5",,1865837,107,,"evan-feature22",
108,,,,1,1,0,0,1,0,,"0.0-110.0",,0,1728.735,0,0.551159479,0,0.293219958,0,0.709807256,1,0.581356956,"FALSE",,"59bcddc43a9ab600011197f5",,1877337,108,,"evan-feature22",
109,,,,2,2,0,0,0,-1,,"0.0-111.0",,0,766.73,1,0.555545184,0,0.266790717,0,0.709570383,0,0.605721509,"FALSE",,"59bcddc43a9ab600011197f5",,1887879,109,,"evan-feature22",
110,,,,2,2,0,1,0,-1,,"0.0-112.0",,-1,878.17,0,0.548890444,0,0.227627465,0,0.710537366,1,0.651867006,"FALSE",,"59bcddc43a9ab600011197f5",,1898535,110,,"evan-feature22",
111,,,,1,1,1,0,1,0,,"0.0-113.0",,1,569.435,1,0.492628039,0,0.2,1,0.697910418,1,0.550421355,"FALSE",,"59bcddc43a9ab600011197f5",,1908879,111,,"evan-feature22",
112,,,,1,1,0,0,1,0,,"0.0-114.0",,0,661.725,0,0.472347617,0,0.2,1,0.697241764,0,0.563979944,"FALSE",,"59bcddc43a9ab600011197f5",,1919314,112,,"evan-feature22",
113,,,,2,2,1,1,0,-1,,"0.0-115.0",,-1,1312.125,0,0.491942424,0,0.211831634,1,0.711485281,1,0.545873024,"FALSE",,"59bcddc43a9ab600011197f5",,1930405,113,,"evan-feature22",
114,,,,1,1,0,1,0,-1,,"0.0-116.0",,-1,650.285,0,0.470991332,1,0.21466666,0,0.709895341,0,0.512353759,"FALSE",,"59bcddc43a9ab600011197f5",,1940831,114,,"evan-feature22",
115,,,,1,1,0,0,1,0,,"0.0-117.0",,0,1195.55,0,0.511181511,0,0.2,0,0.684302564,0,0.489101207,"FALSE",,"59bcddc43a9ab600011197f5",,1951800,115,,"evan-feature22",
116,,,,1,1,0,0,0,-1,,"0.0-118.0",,0,1183.905,0,0.427471732,0,0.2,1,0.725747096,1,0.442443554,"FALSE",,"59bcddc43a9ab600011197f5",,1962762,116,,"evan-feature22",
117,,,,1,1,0,1,1,0,,"0.0-119.0",,0,1142.795,0,0.391559647,1,0.202341271,1,0.8,0,0.498487669,"FALSE",,"59bcddc43a9ab600011197f5",,1973679,117,,"evan-feature22",
118,,,,1,1,0,1,1,0,,"0.0-120.0",,0,845.605,0,0.338934629,1,0.201024594,0,0.8,1,0.599172933,"FALSE",,"59bcddc43a9ab600011197f5",,1984296,118,,"evan-feature22",
119,,,,1,1,0,0,1,0,,"0.0-121.0",,0,649.82,0,0.272438107,0,0.2,0,0.8,1,0.582195177,"FALSE",,"59bcddc43a9ab600011197f5",,1994723,119,,"evan-feature22",
120,,,,2,2,0,1,1,0,,"0.0-122.0",,0,689.5,0,0.208731131,0,0.2,0,0.782881242,1,0.574527637,"FALSE",,"59bcddc43a9ab600011197f5",,2005187,120,,"evan-feature22",
121,,,,2,2,1,1,1,0,,"0.0-123.0",,1,726.145,0,0.213789486,0,0.239588933,1,0.794481966,1,0.646756856,"FALSE",,"59bcddc43a9ab600011197f5",,2015688,121,,"evan-feature22",
122,,,,2,2,1,1,1,0,,"0.0-124.0",,1,639.9149999,0,0.234300481,0,0.236977303,1,0.8,1,0.692508186,"FALSE",,"59bcddc43a9ab600011197f5",,2026105,122,,"evan-feature22",
123,,,,2,2,1,1,1,0,,"0.0-125.0",,1,1179.715,0,0.2,1,0.253327382,1,0.8,1,0.715382988,"FALSE",,"59bcddc43a9ab600011197f5",,2037062,123,,"evan-feature22",
124,,,,2,2,1,0,0,-1,,"0.0-126.0",,0,1339.55,0,0.2,0,0.316819226,1,0.768248569,0,0.635039647,"FALSE",,"59bcddc43a9ab600011197f5",,2048179,124,,"evan-feature22",
125,,,,1,1,0,0,1,0,,"0.0-127.0",,0,1364.895,0,0.2,0,0.304331711,0,0.743690074,1,0.570285467,"FALSE",,"59bcddc43a9ab600011197f5",,2059320,125,,"evan-feature22",
126,,,,2,2,1,0,1,0,,"0.0-128.0",,1,830.395,0,0.2,0,0.344426757,1,0.782947142,0,0.58883072,"FALSE",,"59bcddc43a9ab600011197f5",,2069929,126,,"evan-feature22",
127,,,,2,2,1,0,1,0,,"0.0-129.0",,1,989.925,0,0.2,0,0.333764469,1,0.74909275,0,0.597660698,"FALSE",,"59bcddc43a9ab600011197f5",,2080699,127,,"evan-feature22",
128,,,,2,2,0,1,0,-1,,"0.0-130.0",,-1,1485.655,0,0.211822571,1,0.333071143,0,0.731321896,1,0.586049322,"FALSE",,"59bcddc43a9ab600011197f5",,2091962,128,,"evan-feature22",
129,,,,2,2,0,0,0,-1,,"0.0-131.0",,0,1084.185,0,0.324383244,0,0.281169443,0,0.764387082,0,0.560261518,"FALSE",,"59bcddc43a9ab600011197f5",,2102825,129,,"evan-feature22",
130,,,,1,1,0,0,0,-1,,"0.0-132.0",,0,1389.395,0,0.323030459,0,0.343874174,1,0.768897514,1,0.611131737,"FALSE",,"59bcddc43a9ab600011197f5",,2113995,130,,"evan-feature22",
131,,,,2,2,1,1,1,0,,"0.0-133.0",,1,760.005,0,0.269643308,0,0.356809403,1,0.750347165,1,0.637401914,"FALSE",,"59bcddc43a9ab600011197f5",,2124524,131,,"evan-feature22",
132,,,,2,2,1,0,1,0,,"0.0-134.0",,1,731.345,0,0.348625307,1,0.398334159,1,0.746241999,0,0.616321674,"FALSE",,"59bcddc43a9ab600011197f5",,2135030,132,,"evan-feature22",
133,,0,,,,,,,,,"0.0-135.0",,,68279,,,,,,,,,"FALSE","Great work. You are two thirds of the way through the task.","59bcddc43a9ab600011197f5",,2203310,133,,"html-button-response",
134,,,,1,1,1,0,1,0,,"0.0-136.0",,1,1553.33,1,0.349511741,0,0.354602362,1,0.744822232,1,0.625552076,"FALSE",,"59bcddc43a9ab600011197f5",,2214638,134,,"evan-feature22",
135,,,,1,1,0,0,1,0,,"0.0-137.0",,0,1502.4,0,0.421284319,0,0.338837396,0,0.8,1,0.677864288,"FALSE",,"59bcddc43a9ab600011197f5",,2225917,135,,"evan-feature22",
136,,,,1,1,1,0,1,0,,"0.0-138.0",,1,740.495,1,0.407549562,0,0.38026053,1,0.8,1,0.748827916,"FALSE",,"59bcddc43a9ab600011197f5",,2236433,136,,"evan-feature22",
137,,,,1,1,1,0,1,0,,"0.0-139.0",,1,1043.76,1,0.431247381,0,0.379641728,1,0.75733039,0,0.78666299,"FALSE",,"59bcddc43a9ab600011197f5",,2247254,137,,"evan-feature22",
138,,,,1,1,0,0,1,0,,"0.0-140.0",,0,701.07,0,0.398103829,0,0.361918892,1,0.8,1,0.8,"FALSE",,"59bcddc43a9ab600011197f5",,2257727,138,,"evan-feature22",
139,,,,1,1,0,0,0,-1,,"0.0-141.0",,0,2004.73,0,0.358933837,0,0.420001005,1,0.8,1,0.760034896,"FALSE",,"59bcddc43a9ab600011197f5",,2269511,139,,"evan-feature22",
140,,,,1,1,0,1,1,0,,"0.0-142.0",,0,1744.36,0,0.315146737,1,0.472877564,0,0.8,1,0.724544076,"FALSE",,"59bcddc43a9ab600011197f5",,2281028,140,,"evan-feature22",
141,,,,2,2,1,0,1,0,,"0.0-143.0",,1,1032.53,0,0.311027138,0,0.426347557,1,0.779387071,0,0.702445579,"FALSE",,"59bcddc43a9ab600011197f5",,2291837,141,,"evan-feature22",
142,,,,1,1,1,1,1,0,,"0.0-144.0",,1,1125.255,1,0.330974778,1,0.528633881,0,0.8,0,0.733885767,"FALSE",,"59bcddc43a9ab600011197f5",,2302737,142,,"evan-feature22",
143,,,,1,1,0,1,1,0,,"0.0-145.0",,0,844.515,0,0.311747957,1,0.571262299,0,0.719957003,1,0.733342969,"FALSE",,"59bcddc43a9ab600011197f5",,2313357,143,,"evan-feature22",
144,,,,2,2,0,1,0,-1,,"0.0-146.0",,-1,434.945,1,0.3312975,1,0.637148948,0,0.794592668,1,0.730573814,"FALSE",,"59bcddc43a9ab600011197f5",,2323569,144,,"evan-feature22",
145,,,,2,2,1,0,1,0,,"0.0-147.0",,1,1235.58,1,0.320701745,1,0.599776138,1,0.8,0,0.739114496,"FALSE",,"59bcddc43a9ab600011197f5",,2334583,145,,"evan-feature22",
146,,,,1,1,0,0,1,0,,"0.0-148.0",,0,1545,0,0.388045514,0,0.564238847,1,0.726841947,0,0.720015904,"FALSE",,"59bcddc43a9ab600011197f5",,2345906,146,,"evan-feature22",
147,,,,2,2,1,1,1,0,,"0.0-149.0",,1,696.86,0,0.344142597,1,0.56543745,1,0.763438647,1,0.726727589,"FALSE",,"59bcddc43a9ab600011197f5",,2356382,147,,"evan-feature22",
148,,,,1,1,1,0,0,-1,,"0.0-150.0",,0,1427.895,1,0.388970542,0,0.567453633,0,0.683588074,0,0.722632945,"FALSE",,"59bcddc43a9ab600011197f5",,2367585,148,,"evan-feature22",
149,,,,2,2,1,0,0,-1,,"0.0-151.0",,0,680.82,0,0.322991325,1,0.562377934,1,0.7234406,0,0.699632035,"FALSE",,"59bcddc43a9ab600011197f5",,2378040,149,,"evan-feature22",
150,,,,1,1,0,1,0,-1,,"0.0-152.0",,-1,2737.545,0,0.327575607,1,0.614124007,1,0.766310246,1,0.706266544,"FALSE",,"59bcddc43a9ab600011197f5",,2390552,150,,"evan-feature22",
151,,,,1,1,0,1,1,0,,"0.0-153.0",,0,570.745,0,0.307253769,1,0.625616624,1,0.766156052,1,0.691343484,"FALSE",,"59bcddc43a9ab600011197f5",,2400902,151,,"evan-feature22",
152,,,,1,1,0,0,1,0,,"0.0-154.0",,0,1341.645,0,0.270434491,0,0.582288488,1,0.747456207,1,0.644724024,"FALSE",,"59bcddc43a9ab600011197f5",,2412024,152,,"evan-feature22",
153,,,,2,2,0,0,1,0,,"0.0-155.0",,0,650.45,0,0.238851324,1,0.58944423,0,0.705759073,0,0.69687762,"FALSE",,"59bcddc43a9ab600011197f5",,2422450,153,,"evan-feature22",
154,,,,1,1,1,0,1,0,,"0.0-156.0",,1,1977.795,1,0.273035279,0,0.653244432,1,0.737985066,1,0.680041152,"FALSE",,"59bcddc43a9ab600011197f5",,2434208,154,,"evan-feature22",
155,,,,2,2,1,0,1,0,,"0.0-157.0",,1,669.82,1,0.316190693,0,0.652685892,1,0.779116839,0,0.669352924,"FALSE",,"59bcddc43a9ab600011197f5",,2444653,155,,"evan-feature22",
156,,,,2,2,1,0,0,-1,,"0.0-158.0",,0,1591.985,0,0.282759714,0,0.670973046,1,0.772579312,0,0.706898462,"FALSE",,"59bcddc43a9ab600011197f5",,2456024,156,,"evan-feature22",
157,,,,1,1,0,1,0,-1,,"0.0-159.0",,-1,1038.57,0,0.311304958,1,0.664496179,1,0.770911936,1,0.662452385,"FALSE",,"59bcddc43a9ab600011197f5",,2466842,157,,"evan-feature22",
158,,,,2,2,1,0,1,0,,"0.0-160.0",,1,1304.665,0,0.231028401,0,0.665682142,1,0.8,0,0.723915728,"FALSE",,"59bcddc43a9ab600011197f5",,2477921,158,,"evan-feature22",
159,,,,2,2,1,1,0,-1,,"0.0-161.0",,-1,1155.985,1,0.284822916,0,0.677059392,1,0.777978516,1,0.773090789,"FALSE",,"59bcddc43a9ab600011197f5",,2488852,159,,"evan-feature22",
160,,,,1,1,0,1,1,0,,"0.0-162.0",,0,655.32,0,0.281805339,1,0.709430661,1,0.734681215,0,0.791611711,"FALSE",,"59bcddc43a9ab600011197f5",,2499284,160,,"evan-feature22",
161,,,,2,2,0,0,0,-1,,"0.0-163.0",,0,1449.67,0,0.271779094,1,0.725329391,0,0.667430043,0,0.746594107,"FALSE",,"59bcddc43a9ab600011197f5",,2510510,161,,"evan-feature22",
162,,,,1,1,0,1,1,0,,"0.0-164.0",,0,921.67,0,0.300513275,1,0.781288774,1,0.762000842,1,0.681217126,"FALSE",,"59bcddc43a9ab600011197f5",,2521212,162,,"evan-feature22",
163,,,,2,2,1,1,1,0,,"0.0-165.0",,1,941.315,0,0.285291337,1,0.792315016,1,0.792446219,1,0.676388503,"FALSE",,"59bcddc43a9ab600011197f5",,2531932,163,,"evan-feature22",
164,,,,1,1,0,0,1,0,,"0.0-166.0",,0,1183.695,0,0.318404507,0,0.798621938,1,0.8,0,0.586973186,"FALSE",,"59bcddc43a9ab600011197f5",,2542889,164,,"evan-feature22",
165,,,,1,1,0,1,0,-1,,"0.0-167.0",,-1,1068.055,0,0.318395874,1,0.8,1,0.8,1,0.591939169,"FALSE",,"59bcddc43a9ab600011197f5",,2553733,165,,"evan-feature22",
166,,,,2,2,0,0,0,-1,,"0.0-168.0",,0,1249.85,0,0.318235741,1,0.8,0,0.776403022,0,0.537290213,"FALSE",,"59bcddc43a9ab600011197f5",,2564757,166,,"evan-feature22",
167,,,,1,1,1,1,0,-1,,"0.0-169.0",,-1,635.88,1,0.264600799,1,0.8,1,0.8,1,0.555094982,"FALSE",,"59bcddc43a9ab600011197f5",,2575174,167,,"evan-feature22",
168,,,,2,2,1,0,1,0,,"0.0-170.0",,1,569.07,0,0.2,1,0.8,1,0.748932513,0,0.556644326,"FALSE",,"59bcddc43a9ab600011197f5",,2585522,168,,"evan-feature22",
169,,,,2,2,0,0,0,-1,,"0.0-171.0",,0,1729.46,0,0.2,1,0.759658482,0,0.709749046,0,0.523498068,"FALSE",,"59bcddc43a9ab600011197f5",,2597030,169,,"evan-feature22",
170,,,,1,1,0,0,1,0,,"0.0-172.0",,0,809.425,0,0.22718354,0,0.779429488,1,0.689430329,0,0.444999056,"FALSE",,"59bcddc43a9ab600011197f5",,2607619,170,,"evan-feature22",
171,,,,1,1,0,0,0,-1,,"0.0-173.0",,0,1041.66,0,0.249891553,0,0.790984417,1,0.724563167,1,0.401944281,"FALSE",,"59bcddc43a9ab600011197f5",,2618437,171,,"evan-feature22",
172,,,,2,2,1,1,1,0,,"0.0-174.0",,1,549.73,1,0.265281474,1,0.8,1,0.748463215,1,0.314270227,"FALSE",,"59bcddc43a9ab600011197f5",,2628767,172,,"evan-feature22",
173,,,,2,2,1,1,1,0,,"0.0-175.0",,1,837.705,0,0.262909345,0,0.776997346,1,0.727316387,1,0.296676442,"FALSE",,"59bcddc43a9ab600011197f5",,2639381,173,,"evan-feature22",
174,,,,2,2,0,0,1,0,,"0.0-176.0",,0,643.22,0,0.276612486,1,0.768502158,0,0.719051618,0,0.287033897,"FALSE",,"59bcddc43a9ab600011197f5",,2649802,174,,"evan-feature22",
175,,,,2,2,0,0,0,-1,,"0.0-177.0",,0,899.56,1,0.312468593,1,0.8,0,0.669738485,0,0.254799584,"FALSE",,"59bcddc43a9ab600011197f5",,2660480,175,,"evan-feature22",
176,,,,1,1,1,1,1,0,,"0.0-178.0",,1,1131.075,1,0.327451556,1,0.8,1,0.709398745,0,0.201453599,"FALSE",,"59bcddc43a9ab600011197f5",,2671385,176,,"evan-feature22",
177,,,,1,1,0,1,1,0,,"0.0-179.0",,0,851.975,0,0.367895585,1,0.8,1,0.730120444,1,0.215433128,"FALSE",,"59bcddc43a9ab600011197f5",,2682017,177,,"evan-feature22",
178,,,,2,2,1,0,1,0,,"0.0-180.0",,1,476.13,0,0.424226322,1,0.8,1,0.8,0,0.215904592,"FALSE",,"59bcddc43a9ab600011197f5",,2692270,178,,"evan-feature22",
179,,,,2,2,1,0,1,0,,"0.0-181.0",,1,736.87,0,0.387639646,1,0.741064276,1,0.8,0,0.274811465,"FALSE",,"59bcddc43a9ab600011197f5",,2702780,179,,"evan-feature22",
180,,,,1,1,1,1,1,0,,"0.0-182.0",,1,441.235,1,0.397008989,1,0.699026188,1,0.8,0,0.263811886,"FALSE",,"59bcddc43a9ab600011197f5",,2712999,180,,"evan-feature22",
181,,,,1,1,1,1,0,-1,,"0.0-183.0",,-1,903.135,1,0.391423358,1,0.663298252,1,0.8,0,0.2,"FALSE",,"59bcddc43a9ab600011197f5",,2723678,181,,"evan-feature22",
182,,,,1,1,0,1,0,-1,,"0.0-184.0",,-1,882.915,0,0.424555502,1,0.670214687,0,0.720478215,0,0.229312684,"FALSE",,"59bcddc43a9ab600011197f5",,2734336,182,,"evan-feature22",
183,,,,2,2,1,0,0,-1,,"0.0-185.0",,0,900.075,0,0.422321959,1,0.697007526,1,0.773056416,0,0.212995684,"FALSE",,"59bcddc43a9ab600011197f5",,2745015,183,,"evan-feature22",
184,,,,1,1,0,1,0,-1,,"0.0-186.0",,-1,749.535,0,0.34468955,1,0.713492603,1,0.747935676,1,0.2,"FALSE",,"59bcddc43a9ab600011197f5",,2755536,184,,"evan-feature22",
185,,,,2,2,0,0,1,0,,"0.0-187.0",,0,884.38,1,0.358154558,1,0.690058294,0,0.770945531,0,0.205267264,"FALSE",,"59bcddc43a9ab600011197f5",,2766198,185,,"evan-feature22",
186,"notice",,,,,,,,,,"0.0-188.0","{""Q0"":""the weighting seemed to change from left to right""}",,20912,,,,,,,,,"FALSE",,"59bcddc43a9ab600011197f5",,2787113,186,"Q","survey-text",
187,"track1",,"[1]",,,,,,,,"0.0-189.0","{""Q0"":""no""}",,3811,,,,,,,,,"FALSE",,"59bcddc43a9ab600011197f5",,2790927,187,"Q","evan-quiz",
188,"track2",,"[0]",,,,,,,,"0.0-190.0","{""Q0"":""yes""}",,3971,,,,,,,,,"FALSE",,"59bcddc43a9ab600011197f5",,2794900,188,"Q","evan-quiz",
189,"strat",,,,,,,,,,"0.0-191.0","{""Q0"":""I tried to spot a pattern and where the positive aliens were most and then try to choose that one ""}",,24240,,,,,,,,,"FALSE",,"59bcddc43a9ab600011197f5",,2819141,189,"Q","survey-text",
0,,,,,,,,,,,"0.0-0.0",,,,,,,,,,,,"FALSE",,"5e48650a58056201024f6ec6","TRUE",3308,0,,"fullscreen",
1,,0,,,,,,,,,"0.0-1.0",,,3251,,,,,,,,,"FALSE","Welcome to the task. Before starting the main task, we would like you to answer a few questionnaires.  Please try to answer as accurately as you can.","5e48650a58056201024f6ec6",,6563,1,,"html-button-response",
2,"anx_aro",,,,,,,,,,"0.0-2.0","{""Q0"":1,""Q1"":1,""Q2"":3,""Q3"":2,""Q4"":0,""Q5"":2,""Q6"":3,""Q7"":0,""Q8"":0,""Q9"":0}",,34322,,,,,,,,,"FALSE",,"5e48650a58056201024f6ec6",,40889,2,"Q","survey-likert",
3,"worry",,,,,,,,,,"0.0-3.0","{""Q0"":0,""Q1"":4,""Q2"":0,""Q3"":4,""Q4"":4,""Q5"":4,""Q6"":4,""Q7"":0,""Q8"":4,""Q9"":0,""Q10"":0,""Q11"":4,""Q12"":4,""Q13"":4,""Q14"":4,""Q15"":4}",,48225,,,,,,,,,"FALSE",,"5e48650a58056201024f6ec6",,89118,3,"Q","survey-likert",
4,,,,,,,,,,,"0.0-4.0",,,61915,,,,,,,,,"FALSE",,"5e48650a58056201024f6ec6",,151035,4,,"instructions","[{""page_index"":0,""viewing_time"":3409},{""page_index"":1,""viewing_time"":30215},{""page_index"":2,""viewing_time"":28290}]"
5,,,,2,2,0,0,1,-1,,"0.0-5.0",,0,605.375,0,0.6,1,0.4,0,0.3,0,0.7,"FALSE",,"5e48650a58056201024f6ec6",,157913,5,,"evan-feature22",
6,,,,2,2,1,1,1,-1,,"0.0-6.0",,0,2763.55,1,0.6,0,0.4,1,0.3,1,0.7,"FALSE",,"5e48650a58056201024f6ec6",,166939,6,,"evan-feature22",
7,,,,2,2,0,1,1,-1,,"0.0-7.0",,-1,1309.925,0,0.6,0,0.4,0,0.3,1,0.7,"FALSE",,"5e48650a58056201024f6ec6",,174509,7,,"evan-feature22",
8,,,,2,2,0,1,1,-1,,"0.0-8.0",,-1,528.1,0,0.6,1,0.4,0,0.3,1,0.7,"FALSE",,"5e48650a58056201024f6ec6",,181297,8,,"evan-feature22",
9,,,,2,2,0,1,1,-1,,"0.0-9.0",,-1,367.6200002,0,0.6,1,0.4,0,0.3,1,0.7,"FALSE",,"5e48650a58056201024f6ec6",,187930,9,,"evan-feature22",
10,,,,2,2,1,1,1,-1,,"0.0-10.0",,0,539.205,0,0.6,0,0.4,1,0.3,1,0.7,"FALSE",,"5e48650a58056201024f6ec6",,194730,10,,"evan-feature22",
11,,,,2,2,0,1,1,-1,,"0.0-11.0",,-1,329.9150001,1,0.6,0,0.4,0,0.3,1,0.7,"FALSE",,"5e48650a58056201024f6ec6",,201323,11,,"evan-feature22",
12,,,,2,2,0,1,1,-1,,"0.0-12.0",,-1,424.75,0,0.6,0,0.4,0,0.3,1,0.7,"FALSE",,"5e48650a58056201024f6ec6",,208008,12,,"evan-feature22",
13,,,,2,2,0,1,1,-1,,"0.0-13.0",,-1,517.305,0,0.6,1,0.4,0,0.3,1,0.7,"FALSE",,"5e48650a58056201024f6ec6",,214786,13,,"evan-feature22",
14,,,,2,2,0,1,1,-1,,"0.0-14.0",,-1,374.8550001,1,0.6,1,0.4,0,0.3,1,0.7,"FALSE",,"5e48650a58056201024f6ec6",,221423,14,,"evan-feature22",
15,,,,,,,,,,,"0.0-15.0",,,85605,,,,,,,,,"FALSE",,"5e48650a58056201024f6ec6",,307028,15,,"instructions","[{""page_index"":0,""viewing_time"":19073},{""page_index"":1,""viewing_time"":33500},{""page_index"":2,""viewing_time"":13690},{""page_index"":1,""viewing_time"":5532},{""page_index"":2,""viewing_time"":6188},{""page_index"":3,""viewing_time"":7622}]"
16,,,,1,1,0,0,1,0,,"0.0-16.0",,0,2124.945,0,0.6,0,0.3,0,0.3,1,0.5,"FALSE",,"5e48650a58056201024f6ec6",,318925,16,,"evan-feature22",
17,,,,2,2,1,1,0,-1,,"0.0-17.0",,-1,555.0099998,1,0.6,0,0.3,1,0.3,1,0.5,"FALSE",,"5e48650a58056201024f6ec6",,329253,17,,"evan-feature22",
18,,,,1,1,0,0,0,-1,,"0.0-18.0",,0,3340.165,0,0.6,0,0.3,0,0.3,1,0.5,"FALSE",,"5e48650a58056201024f6ec6",,342361,18,,"evan-feature22",
19,,,,1,1,0,0,1,0,,"0.0-19.0",,0,2387.94,0,0.6,0,0.3,0,0.3,1,0.5,"FALSE",,"5e48650a58056201024f6ec6",,354515,19,,"evan-feature22",
20,,,,1,1,1,1,1,0,,"0.0-20.0",,1,1726.18,1,0.6,1,0.3,0,0.3,1,0.5,"FALSE",,"5e48650a58056201024f6ec6",,366014,20,,"evan-feature22",
21,,,,,,,,,,,"0.0-21.0",,,14925,,,,,,,,,"FALSE",,"5e48650a58056201024f6ec6",,380940,21,,"instructions","[{""page_index"":0,""viewing_time"":14925}]"
22,,,"[1, 1, 0, 0]",,,,,,,,"0.0-22.0","{""Q0"":""2"",""Q1"":""The number of minerals gained minus the number of minerals lost on 5 randomly selected decisions."",""Q2"":""Yes."",""Q3"":""The number of minerals that the gold alien will provide (if positive) or take away (if negative)""}",,28390,,,,,,,,,"FALSE",,"5e48650a58056201024f6ec6",,409337,22,,"evan-quiz",
23,,0,,,,,,,,,"0.0-25.0",,,2577,,,,,,,,,"FALSE","You passed the quiz! Great work. The task will take about 30 minutes. Press the button to begin.","5e48650a58056201024f6ec6",,411916,23,,"html-button-response",
24,,,,1,1,1,1,0,-1,,"0.0-26.0",,-1,1635.42,1,0.6,1,0.4,1,0.4,1,0.6,"FALSE",,"5e48650a58056201024f6ec6",,423322,24,,"evan-feature22",
25,,,,1,1,1,1,0,-1,,"0.0-27.0",,-1,2080.485,1,0.625928423,1,0.395903568,1,0.416361855,1,0.636279196,"FALSE",,"5e48650a58056201024f6ec6",,435179,25,,"evan-feature22",
26,,,,1,1,0,0,0,-1,,"0.0-28.0",,0,1513.3,0,0.632185889,0,0.379409997,1,0.510461374,1,0.636053735,"FALSE",,"5e48650a58056201024f6ec6",,446458,26,,"evan-feature22",
27,,,,1,1,0,1,0,-1,,"0.0-29.0",,-1,1026.04,0,0.650098956,1,0.437690015,0,0.513165207,1,0.594219782,"FALSE",,"5e48650a58056201024f6ec6",,457253,27,,"evan-feature22",
28,,,,1,1,1,0,0,-1,,"0.0-30.0",,0,1030.085,1,0.718427004,0,0.461759895,1,0.466591374,0,0.557006706,"FALSE",,"5e48650a58056201024f6ec6",,468053,28,,"evan-feature22",
29,,,,1,1,1,1,0,-1,,"0.0-31.0",,-1,343.6700001,1,0.762929561,1,0.487475291,0,0.437729423,1,0.574463924,"FALSE",,"5e48650a58056201024f6ec6",,478172,29,,"evan-feature22",
30,,,,1,1,1,0,0,-1,,"0.0-32.0",,0,647.135,1,0.763717037,0,0.435099549,0,0.465087572,0,0.60565513,"FALSE",,"5e48650a58056201024f6ec6",,488583,30,,"evan-feature22",
31,,,,1,1,1,1,1,0,,"0.0-33.0",,1,936.4400001,1,0.77229152,1,0.364439775,1,0.401053115,1,0.658123444,"FALSE",,"5e48650a58056201024f6ec6",,499291,31,,"evan-feature22",
32,,,,1,1,0,0,0,-1,,"0.0-34.0",,0,373.5849999,0,0.744772498,0,0.353486627,0,0.357677552,1,0.650421367,"FALSE",,"5e48650a58056201024f6ec6",,509429,32,,"evan-feature22",
33,,,,1,1,1,0,0,-1,,"0.0-35.0",,0,1620.655,1,0.674079628,0,0.341841772,0,0.364878884,1,0.720326902,"FALSE",,"5e48650a58056201024f6ec6",,520815,33,,"evan-feature22",
34,,,,1,1,0,0,1,0,,"0.0-36.0",,0,422.8649999,0,0.661527729,0,0.347257661,0,0.301580406,0,0.757279221,"FALSE",,"5e48650a58056201024f6ec6",,531004,34,,"evan-feature22",
35,,,,1,1,1,0,1,0,,"0.0-37.0",,1,794.7600002,1,0.660815217,0,0.379489547,0,0.266362694,1,0.8,"FALSE",,"5e48650a58056201024f6ec6",,541565,35,,"evan-feature22",
36,,,,1,1,1,0,0,-1,,"0.0-38.0",,0,410.9750001,1,0.645840989,0,0.303961219,0,0.227276622,1,0.8,"FALSE",,"5e48650a58056201024f6ec6",,551744,36,,"evan-feature22",
37,,,,1,1,0,0,0,-1,,"0.0-39.0",,0,972.2699998,0,0.653475024,0,0.330387001,0,0.216413453,1,0.761410571,"FALSE",,"5e48650a58056201024f6ec6",,562483,37,,"evan-feature22",
38,,,,1,1,0,1,0,-1,,"0.0-40.0",,-1,929.2400002,0,0.641284007,1,0.3333084,0,0.240310726,1,0.8,"FALSE",,"5e48650a58056201024f6ec6",,573179,38,,"evan-feature22",
39,,,,1,1,1,1,0,-1,,"0.0-41.0",,-1,400.8450001,1,0.613358121,1,0.297219209,0,0.298906785,1,0.781296249,"FALSE",,"5e48650a58056201024f6ec6",,583349,39,,"evan-feature22",
40,,,,1,1,1,0,1,0,,"0.0-42.0",,1,1067.125,1,0.560222979,0,0.260871998,0,0.246708996,1,0.792830946,"FALSE",,"5e48650a58056201024f6ec6",,594185,40,,"evan-feature22",
41,,,,1,1,0,0,0,-1,,"0.0-43.0",,0,1454.76,0,0.536912134,0,0.250417104,1,0.2,1,0.765101149,"FALSE",,"5e48650a58056201024f6ec6",,605409,41,,"evan-feature22",
42,,,,1,1,0,0,1,0,,"0.0-44.0",,0,511.2399999,0,0.49919695,0,0.2,1,0.2,1,0.773279061,"FALSE",,"5e48650a58056201024f6ec6",,615689,42,,"evan-feature22",
43,,,,1,1,0,1,1,0,,"0.0-45.0",,0,2515.53,0,0.459627509,1,0.212216909,0,0.2,1,0.662061311,"FALSE",,"5e48650a58056201024f6ec6",,627970,43,,"evan-feature22",
44,,,,1,1,1,0,0,-1,,"0.0-46.0",,0,525.3899998,1,0.417845724,0,0.22682277,1,0.2,1,0.709165356,"FALSE",,"5e48650a58056201024f6ec6",,638263,44,,"evan-feature22",
45,,,,1,1,1,0,0,-1,,"0.0-47.0",,0,1074.275,1,0.494962775,0,0.2,0,0.2,0,0.716798403,"FALSE",,"5e48650a58056201024f6ec6",,649110,45,,"evan-feature22",
46,,,,1,1,0,0,0,-1,,"0.0-48.0",,0,2233.81,0,0.545506958,0,0.235437513,0,0.2,1,0.645567591,"FALSE",,"5e48650a58056201024f6ec6",,661110,46,,"evan-feature22",
47,,,,1,1,1,0,0,-1,,"0.0-49.0",,0,1114.425,1,0.588847237,0,0.274305745,0,0.2,0,0.647011113,"FALSE",,"5e48650a58056201024f6ec6",,671988,47,,"evan-feature22",
48,,,,1,1,1,1,0,-1,,"0.0-50.0",,-1,951.9450001,1,0.541102968,1,0.22645371,0,0.236325635,1,0.667273806,"FALSE",,"5e48650a58056201024f6ec6",,682712,48,,"evan-feature22",
49,,,,1,1,1,0,1,0,,"0.0-51.0",,1,623.4500001,1,0.490387594,0,0.2,0,0.209906961,0,0.658487389,"FALSE",,"5e48650a58056201024f6ec6",,693104,49,,"evan-feature22",
50,,,,1,1,1,1,0,-1,,"0.0-52.0",,-1,938.6550002,1,0.549336464,1,0.223311399,0,0.215427269,1,0.699424853,"FALSE",,"5e48650a58056201024f6ec6",,703813,50,,"evan-feature22",
51,,,,1,1,1,0,0,-1,,"0.0-53.0",,0,2102.675,1,0.616387033,0,0.242050882,0,0.236831238,0,0.660702856,"FALSE",,"5e48650a58056201024f6ec6",,715682,51,,"evan-feature22",
52,,,,1,1,1,1,0,-1,,"0.0-54.0",,-1,906.2350001,1,0.632533083,1,0.236756329,0,0.239558776,1,0.626572575,"FALSE",,"5e48650a58056201024f6ec6",,726357,52,,"evan-feature22",
53,,,,1,1,0,0,0,-1,,"0.0-55.0",,0,414.7900001,0,0.585128523,0,0.211085127,0,0.242964243,1,0.646247017,"FALSE",,"5e48650a58056201024f6ec6",,736537,53,,"evan-feature22",
54,,,,1,1,1,0,0,-1,,"0.0-56.0",,0,810.91,1,0.631279052,0,0.208261881,0,0.2,0,0.598661374,"FALSE",,"5e48650a58056201024f6ec6",,747114,54,,"evan-feature22",
55,,,,1,1,1,0,1,0,,"0.0-57.0",,1,616.35,1,0.645601188,0,0.2,0,0.2,1,0.604309462,"FALSE",,"5e48650a58056201024f6ec6",,757498,55,,"evan-feature22",
56,,,,1,1,1,0,1,0,,"0.0-58.0",,1,381.9250001,1,0.618753278,0,0.2,0,0.2,1,0.59705541,"FALSE",,"5e48650a58056201024f6ec6",,767650,56,,"evan-feature22",
57,,,,1,1,1,0,1,0,,"0.0-59.0",,1,640.93,1,0.62382752,0,0.2,0,0.223636049,1,0.626809609,"FALSE",,"5e48650a58056201024f6ec6",,778059,57,,"evan-feature22",
58,,,,1,1,0,1,0,-1,,"0.0-60.0",,-1,760.1700001,0,0.673200992,1,0.2,0,0.240142729,1,0.610360914,"FALSE",,"5e48650a58056201024f6ec6",,788586,58,,"evan-feature22",
59,,,,1,1,1,0,1,0,,"0.0-61.0",,1,2217.575,1,0.610898111,0,0.250157064,0,0.250884274,0,0.664171968,"FALSE",,"5e48650a58056201024f6ec6",,800570,59,,"evan-feature22",
60,,,,1,1,1,0,1,0,,"0.0-62.0",,1,710.0849999,1,0.598301898,0,0.248311053,0,0.296388488,1,0.63425056,"FALSE",,"5e48650a58056201024f6ec6",,811050,60,,"evan-feature22",
61,,,,1,1,0,0,0,-1,,"0.0-63.0",,0,1324.89,0,0.588894116,0,0.256357363,0,0.253003051,0,0.552032601,"FALSE",,"5e48650a58056201024f6ec6",,822141,61,,"evan-feature22",
62,,,,1,1,1,0,1,0,,"0.0-64.0",,1,2755.13,1,0.568426,0,0.236770987,1,0.303107977,1,0.515870586,"FALSE",,"5e48650a58056201024f6ec6",,834666,62,,"evan-feature22",
63,,,,1,1,0,0,1,0,,"0.0-65.0",,0,1981.08,0,0.579014883,0,0.221214946,0,0.302005511,1,0.544151758,"FALSE",,"5e48650a58056201024f6ec6",,846412,63,,"evan-feature22",
64,,,,1,1,1,1,0,-1,,"0.0-66.0",,-1,1367.5,1,0.565697181,1,0.216910924,0,0.329714007,0,0.548125478,"FALSE",,"5e48650a58056201024f6ec6",,857547,64,,"evan-feature22",
65,,,,2,2,0,1,0,-1,,"0.0-67.0",,-1,2506.535,1,0.557218295,0,0.235275726,0,0.310280339,1,0.601635125,"FALSE",,"5e48650a58056201024f6ec6",,869821,65,,"evan-feature22",
66,,,,1,1,1,1,1,0,,"0.0-68.0",,1,1049.905,1,0.503661609,1,0.316001204,1,0.359065097,1,0.606103889,"FALSE",,"5e48650a58056201024f6ec6",,880645,66,,"evan-feature22",
67,,,,1,1,1,1,0,-1,,"0.0-69.0",,-1,1477.475,1,0.52124269,1,0.247744411,1,0.336491959,0,0.569669564,"FALSE",,"5e48650a58056201024f6ec6",,891895,67,,"evan-feature22",
68,,,,2,2,1,1,1,0,,"0.0-70.0",,1,491.59,1,0.476715291,0,0.252307362,1,0.361290845,1,0.696552654,"FALSE",,"5e48650a58056201024f6ec6",,902163,68,,"evan-feature22",
69,,,,2,2,0,1,0,-1,,"0.0-71.0",,-1,333.6800002,1,0.522125232,1,0.263652623,0,0.416704449,1,0.757101488,"FALSE",,"5e48650a58056201024f6ec6",,912263,69,,"evan-feature22",
70,,,,1,1,0,0,1,0,,"0.0-72.0",,0,491.9749999,0,0.530909247,0,0.285803841,0,0.349236593,1,0.743130233,"FALSE",,"5e48650a58056201024f6ec6",,922519,70,,"evan-feature22",
71,,,,1,1,1,0,0,-1,,"0.0-73.0",,0,448.32,1,0.491973806,0,0.274503571,0,0.387175478,1,0.796399836,"FALSE",,"5e48650a58056201024f6ec6",,932733,71,,"evan-feature22",
72,,,,1,1,1,1,0,-1,,"0.0-74.0",,-1,2862.725,1,0.440335822,1,0.284677433,1,0.362895033,1,0.8,"FALSE",,"5e48650a58056201024f6ec6",,945366,72,,"evan-feature22",
73,,,,1,1,1,1,0,-1,,"0.0-75.0",,-1,1161.395,1,0.479074501,1,0.294004891,0,0.298101769,1,0.8,"FALSE",,"5e48650a58056201024f6ec6",,956298,73,,"evan-feature22",
74,,,,1,1,0,0,1,0,,"0.0-76.0",,0,468.6700001,0,0.4932447,0,0.209806217,0,0.349105487,0,0.768530393,"FALSE",,"5e48650a58056201024f6ec6",,966533,74,,"evan-feature22",
75,,,,1,1,1,0,1,0,,"0.0-77.0",,1,989.4650001,1,0.478325964,0,0.232650109,0,0.397575193,0,0.759970785,"FALSE",,"5e48650a58056201024f6ec6",,977293,75,,"evan-feature22",
76,,,,1,1,0,0,1,0,,"0.0-78.0",,0,643.2450002,0,0.495116819,0,0.262830049,0,0.395442465,1,0.757900997,"FALSE",,"5e48650a58056201024f6ec6",,987700,76,,"evan-feature22",
77,,,,1,1,0,0,0,-1,,"0.0-79.0",,0,438.9249999,0,0.46826402,0,0.299520002,0,0.367897658,1,0.8,"FALSE",,"5e48650a58056201024f6ec6",,997905,77,,"evan-feature22",
78,,0,,,,,,,,,"0.0-80.0",,,2174,,,,,,,,,"FALSE","Great work. You are a third of the way through the task.","5e48650a58056201024f6ec6",,1000082,78,,"html-button-response",
79,,,,1,1,1,0,0,-1,,"0.0-81.0",,0,562.3049999,1,0.429692185,0,0.290259512,1,0.38417303,1,0.8,"FALSE",,"5e48650a58056201024f6ec6",,1010413,79,,"evan-feature22",
80,,,,1,1,0,0,0,-1,,"0.0-82.0",,0,762.255,0,0.448544348,0,0.218902463,1,0.359121131,0,0.8,"FALSE",,"5e48650a58056201024f6ec6",,1020944,80,,"evan-feature22",
81,,,,2,2,0,1,1,0,,"0.0-83.0",,0,758.2100001,0,0.404634243,0,0.2,0,0.331168384,1,0.8,"FALSE",,"5e48650a58056201024f6ec6",,1031471,81,,"evan-feature22",
82,,,,2,2,1,1,0,-1,,"0.0-84.0",,-1,1041.32,0,0.460808469,1,0.226932935,1,0.426844185,1,0.779158574,"FALSE",,"5e48650a58056201024f6ec6",,1042285,82,,"evan-feature22",
83,,,,2,2,0,1,0,-1,,"0.0-85.0",,-1,304.86,0,0.507328748,0,0.225628596,0,0.491272617,1,0.779171318,"FALSE",,"5e48650a58056201024f6ec6",,1052358,83,,"evan-feature22",
84,,,,1,1,0,0,0,-1,,"0.0-86.0",,0,297.8400001,0,0.475398868,0,0.210546691,1,0.548946291,1,0.8,"FALSE",,"5e48650a58056201024f6ec6",,1062421,84,,"evan-feature22",
85,,,,1,1,1,0,1,0,,"0.0-87.0",,1,549.1299999,1,0.577366958,0,0.210025267,0,0.517663827,0,0.667149461,"FALSE",,"5e48650a58056201024f6ec6",,1072738,85,,"evan-feature22",
86,,,,1,1,0,1,0,-1,,"0.0-88.0",,-1,307.45,0,0.59689526,1,0.2,1,0.457089543,0,0.695501237,"FALSE",,"5e48650a58056201024f6ec6",,1082817,86,,"evan-feature22",
87,,,,2,2,1,1,0,-1,,"0.0-89.0",,-1,255.6449999,1,0.634631385,0,0.2,1,0.424596711,1,0.677506484,"FALSE",,"5e48650a58056201024f6ec6",,1092842,87,,"evan-feature22",
88,,,,1,1,1,0,1,0,,"0.0-90.0",,1,461.7050001,1,0.65654557,0,0.221934702,0,0.445639003,1,0.673381668,"FALSE",,"5e48650a58056201024f6ec6",,1103072,88,,"evan-feature22",
89,,,,1,1,1,0,1,0,,"0.0-91.0",,1,335.835,1,0.681977797,0,0.242148743,1,0.493866451,1,0.662437964,"FALSE",,"5e48650a58056201024f6ec6",,1113175,89,,"evan-feature22",
90,,,,1,1,1,0,1,0,,"0.0-92.0",,1,712.325,1,0.650328273,0,0.20706394,1,0.470045369,1,0.691556057,"FALSE",,"5e48650a58056201024f6ec6",,1123655,90,,"evan-feature22",
91,,,,1,1,0,1,0,-1,,"0.0-93.0",,-1,281.2900001,0,0.652406904,1,0.2,0,0.46602527,1,0.718680015,"FALSE",,"5e48650a58056201024f6ec6",,1133700,91,,"evan-feature22",
92,,,,1,1,0,0,0,-1,,"0.0-94.0",,0,414.81,0,0.618106018,0,0.21862797,1,0.494718723,1,0.771952271,"FALSE",,"5e48650a58056201024f6ec6",,1143879,92,,"evan-feature22",
93,,,,1,1,1,0,0,-1,,"0.0-95.0",,0,1140.38,1,0.61569103,0,0.257594422,1,0.514741772,0,0.750874695,"FALSE",,"5e48650a58056201024f6ec6",,1154786,93,,"evan-feature22",
94,,,,1,1,0,0,0,-1,,"0.0-96.0",,0,381.9549999,0,0.598889253,0,0.32643588,1,0.573899692,1,0.765464495,"FALSE",,"5e48650a58056201024f6ec6",,1164933,94,,"evan-feature22",
95,,,,1,1,1,0,1,0,,"0.0-97.0",,1,2418.015,1,0.604148234,0,0.31179723,0,0.605084543,1,0.717556355,"FALSE",,"5e48650a58056201024f6ec6",,1177119,95,,"evan-feature22",
96,,,,1,1,1,0,0,-1,,"0.0-98.0",,0,1173.945,1,0.60914345,0,0.304089194,0,0.587413745,1,0.762510786,"FALSE",,"5e48650a58056201024f6ec6",,1188065,96,,"evan-feature22",
97,,,,1,1,1,0,1,0,,"0.0-99.0",,1,1786.51,1,0.556011004,0,0.297212656,0,0.615215204,0,0.688835497,"FALSE",,"5e48650a58056201024f6ec6",,1199618,97,,"evan-feature22",
98,,,,1,1,1,0,1,0,,"0.0-100.0",,1,1074.84,1,0.538989836,0,0.259288265,1,0.63117526,1,0.622387272,"FALSE",,"5e48650a58056201024f6ec6",,1210458,98,,"evan-feature22",
99,,,,1,1,0,1,0,-1,,"0.0-101.0",,-1,1538.015,0,0.477391925,1,0.286964716,1,0.607192834,1,0.630914953,"FALSE",,"5e48650a58056201024f6ec6",,1221764,99,,"evan-feature22",
100,,,,1,1,1,1,0,-1,,"0.0-102.0",,-1,1179.505,1,0.481844581,1,0.318018092,0,0.606517823,1,0.554718886,"FALSE",,"5e48650a58056201024f6ec6",,1232716,100,,"evan-feature22",
101,,,,1,1,0,0,0,-1,,"0.0-103.0",,0,273.275,0,0.546807353,0,0.271400321,0,0.611358728,1,0.583214152,"FALSE",,"5e48650a58056201024f6ec6",,1242758,101,,"evan-feature22",
102,,,,1,1,1,1,0,-1,,"0.0-104.0",,-1,612.3550001,1,0.559747181,1,0.2,1,0.602012293,1,0.59294636,"FALSE",,"5e48650a58056201024f6ec6",,1253140,102,,"evan-feature22",
103,,,,1,1,1,0,0,-1,,"0.0-105.0",,0,559.02,1,0.50773535,0,0.2,1,0.627190004,1,0.57015433,"FALSE",,"5e48650a58056201024f6ec6",,1263468,103,,"evan-feature22",
104,,,,1,1,1,0,0,-1,,"0.0-106.0",,0,378.5550001,1,0.517936872,0,0.24316099,0,0.593253697,0,0.59982907,"FALSE",,"5e48650a58056201024f6ec6",,1273611,104,,"evan-feature22",
105,,,,1,1,0,0,1,0,,"0.0-107.0",,0,363.54,0,0.517936872,0,0.24316099,1,0.593253697,0,0.59982907,"FALSE",,"5e48650a58056201024f6ec6",,1283741,105,,"evan-feature22",
106,,,,1,1,1,0,1,0,,"0.0-108.0",,1,1084.07,1,0.545406358,0,0.235308725,1,0.60269625,1,0.585108204,"FALSE",,"5e48650a58056201024f6ec6",,1294597,106,,"evan-feature22",
107,,,,1,1,1,0,1,0,,"0.0-109.0",,1,431.5899999,1,0.56855096,0,0.257056033,0,0.654037276,0,0.575303131,"FALSE",,"5e48650a58056201024f6ec6",,1304797,107,,"evan-feature22",
108,,,,1,1,0,0,1,0,,"0.0-110.0",,0,3078.61,0,0.551159479,0,0.293219958,0,0.709807256,1,0.581356956,"FALSE",,"5e48650a58056201024f6ec6",,1317637,108,,"evan-feature22",
109,,,,1,1,1,1,0,-1,,"0.0-111.0",,-1,1192.73,1,0.555545184,1,0.266790717,0,0.709570383,1,0.605721509,"FALSE",,"5e48650a58056201024f6ec6",,1328601,109,,"evan-feature22",
110,,,,1,1,1,0,0,-1,,"0.0-112.0",,0,1166.255,1,0.548890444,0,0.227627465,1,0.710537366,0,0.651867006,"FALSE",,"5e48650a58056201024f6ec6",,1339533,110,,"evan-feature22",
111,,,,1,1,0,1,1,0,,"0.0-113.0",,0,1273.68,0,0.492628039,1,0.2,1,0.697910418,0,0.550421355,"FALSE",,"5e48650a58056201024f6ec6",,1350576,111,,"evan-feature22",
112,,,,2,2,1,0,1,0,,"0.0-114.0",,1,1894.88,1,0.472347617,0,0.2,1,0.697241764,0,0.563979944,"FALSE",,"5e48650a58056201024f6ec6",,1362239,112,,"evan-feature22",
113,,,,2,2,0,1,0,-1,,"0.0-115.0",,-1,363.9949998,1,0.491942424,1,0.211831634,0,0.711485281,1,0.545873024,"FALSE",,"5e48650a58056201024f6ec6",,1372369,113,,"evan-feature22",
114,,,,1,1,0,0,0,-1,,"0.0-116.0",,0,297.455,0,0.470991332,0,0.21466666,1,0.709895341,0,0.512353759,"FALSE",,"5e48650a58056201024f6ec6",,1382430,114,,"evan-feature22",
115,,,,2,2,0,0,1,0,,"0.0-117.0",,0,414.775,1,0.511181511,1,0.2,0,0.684302564,0,0.489101207,"FALSE",,"5e48650a58056201024f6ec6",,1392611,115,,"evan-feature22",
116,,,,2,2,1,0,0,-1,,"0.0-118.0",,0,345.3250001,0,0.427471732,1,0.2,1,0.725747096,0,0.442443554,"FALSE",,"5e48650a58056201024f6ec6",,1402724,116,,"evan-feature22",
117,,,,2,2,0,1,1,0,,"0.0-119.0",,0,1214.535,0,0.391559647,0,0.202341271,0,0.8,1,0.498487669,"FALSE",,"5e48650a58056201024f6ec6",,1413704,117,,"evan-feature22",
118,,,,2,2,1,1,1,0,,"0.0-120.0",,1,564.765,1,0.338934629,0,0.201024594,1,0.8,1,0.599172933,"FALSE",,"5e48650a58056201024f6ec6",,1424037,118,,"evan-feature22",
119,,,,2,2,1,1,1,0,,"0.0-121.0",,1,501.74,0,0.272438107,0,0.2,1,0.8,1,0.582195177,"FALSE",,"5e48650a58056201024f6ec6",,1434305,119,,"evan-feature22",
120,,,,2,2,1,0,1,0,,"0.0-122.0",,1,353.1149998,0,0.208731131,0,0.2,1,0.782881242,0,0.574527637,"FALSE",,"5e48650a58056201024f6ec6",,1444421,120,,"evan-feature22",
121,,,,2,2,1,0,1,0,,"0.0-123.0",,1,1573.92,1,0.213789486,0,0.239588933,1,0.794481966,0,0.646756856,"FALSE",,"5e48650a58056201024f6ec6",,1455761,121,,"evan-feature22",
122,,,,2,2,0,0,1,0,,"0.0-124.0",,0,1698.415,0,0.234300481,0,0.236977303,0,0.8,0,0.692508186,"FALSE",,"5e48650a58056201024f6ec6",,1467224,122,,"evan-feature22",
123,,,,2,2,1,1,1,0,,"0.0-125.0",,1,579.3649999,1,0.2,0,0.253327382,1,0.8,1,0.715382988,"FALSE",,"5e48650a58056201024f6ec6",,1477575,123,,"evan-feature22",
124,,,,2,2,1,1,0,-1,,"0.0-126.0",,-1,1930.98,1,0.2,1,0.316819226,1,0.768248569,1,0.635039647,"FALSE",,"5e48650a58056201024f6ec6",,1489280,124,,"evan-feature22",
125,,,,2,2,1,1,1,0,,"0.0-127.0",,1,1156.285,0,0.2,0,0.304331711,1,0.743690074,1,0.570285467,"FALSE",,"5e48650a58056201024f6ec6",,1500209,125,,"evan-feature22",
126,,,,2,2,1,1,1,0,,"0.0-128.0",,1,1330.245,0,0.2,0,0.344426757,1,0.782947142,1,0.58883072,"FALSE",,"5e48650a58056201024f6ec6",,1511310,126,,"evan-feature22",
127,,,,2,2,1,1,1,0,,"0.0-129.0",,1,511.9449999,0,0.2,1,0.333764469,1,0.74909275,1,0.597660698,"FALSE",,"5e48650a58056201024f6ec6",,1521591,127,,"evan-feature22",
128,,,,2,2,1,1,0,-1,,"0.0-130.0",,-1,439.125,0,0.211822571,1,0.333071143,1,0.731321896,1,0.586049322,"FALSE",,"5e48650a58056201024f6ec6",,1531798,128,,"evan-feature22",
129,,,,2,2,0,0,0,-1,,"0.0-131.0",,0,496.3400001,0,0.324383244,0,0.281169443,0,0.764387082,0,0.560261518,"FALSE",,"5e48650a58056201024f6ec6",,1542063,129,,"evan-feature22",
130,,,,2,2,1,1,0,-1,,"0.0-132.0",,-1,600.2749999,1,0.323030459,1,0.343874174,1,0.768897514,1,0.611131737,"FALSE",,"5e48650a58056201024f6ec6",,1552433,130,,"evan-feature22",
131,,,,2,2,1,1,1,0,,"0.0-133.0",,1,1653.84,0,0.269643308,0,0.356809403,1,0.750347165,1,0.637401914,"FALSE",,"5e48650a58056201024f6ec6",,1563856,131,,"evan-feature22",
132,,,,2,2,1,1,1,0,,"0.0-134.0",,1,1415.275,0,0.348625307,1,0.398334159,1,0.746241999,1,0.616321674,"FALSE",,"5e48650a58056201024f6ec6",,1575042,132,,"evan-feature22",
133,,0,,,,,,,,,"0.0-135.0",,,2067,,,,,,,,,"FALSE","Great work. You are two thirds of the way through the task.","5e48650a58056201024f6ec6",,1577111,133,,"html-button-response",
134,,,,2,2,1,1,1,0,,"0.0-136.0",,1,668.2549999,1,0.349511741,0,0.354602362,1,0.744822232,1,0.625552076,"FALSE",,"5e48650a58056201024f6ec6",,1587549,134,,"evan-feature22",
135,,,,2,2,1,0,1,0,,"0.0-137.0",,1,738.935,0,0.421284319,0,0.338837396,1,0.8,0,0.677864288,"FALSE",,"5e48650a58056201024f6ec6",,1598054,135,,"evan-feature22",
136,,,,2,2,1,1,1,0,,"0.0-138.0",,1,1044.985,1,0.407549562,0,0.38026053,1,0.8,1,0.748827916,"FALSE",,"5e48650a58056201024f6ec6",,1608871,136,,"evan-feature22",
137,,,,2,2,0,1,1,0,,"0.0-139.0",,0,2665.04,0,0.431247381,0,0.379641728,0,0.75733039,1,0.78666299,"FALSE",,"5e48650a58056201024f6ec6",,1621303,137,,"evan-feature22",
138,,,,2,2,0,1,1,0,,"0.0-140.0",,0,880.505,0,0.398103829,0,0.361918892,0,0.8,1,0.8,"FALSE",,"5e48650a58056201024f6ec6",,1631947,138,,"evan-feature22",
139,,,,2,2,1,1,0,-1,,"0.0-141.0",,-1,503.4150002,0,0.358933837,0,0.420001005,1,0.8,1,0.760034896,"FALSE",,"5e48650a58056201024f6ec6",,1642219,139,,"evan-feature22",
140,,,,1,1,1,0,1,0,,"0.0-142.0",,1,555.0149998,1,0.315146737,0,0.472877564,1,0.8,1,0.724544076,"FALSE",,"5e48650a58056201024f6ec6",,1652542,140,,"evan-feature22",
141,,,,1,1,0,1,1,0,,"0.0-143.0",,0,1268.275,0,0.311027138,1,0.426347557,0,0.779387071,0,0.702445579,"FALSE",,"5e48650a58056201024f6ec6",,1663574,141,,"evan-feature22",
142,,,,1,1,0,1,1,0,,"0.0-144.0",,0,613.895,0,0.330974778,1,0.528633881,1,0.8,1,0.733885767,"FALSE",,"5e48650a58056201024f6ec6",,1673964,142,,"evan-feature22",
143,,,,1,1,1,1,1,0,,"0.0-145.0",,1,1058.18,1,0.311747957,1,0.571262299,0,0.719957003,0,0.733342969,"FALSE",,"5e48650a58056201024f6ec6",,1684793,143,,"evan-feature22",
144,,,,1,1,1,1,0,-1,,"0.0-146.0",,-1,570.385,1,0.3312975,1,0.637148948,1,0.794592668,1,0.730573814,"FALSE",,"5e48650a58056201024f6ec6",,1695132,144,,"evan-feature22",
145,,,,1,1,0,1,1,0,,"0.0-147.0",,0,993.52,0,0.320701745,1,0.599776138,0,0.8,1,0.739114496,"FALSE",,"5e48650a58056201024f6ec6",,1705893,145,,"evan-feature22",
146,,,,1,1,0,1,1,0,,"0.0-148.0",,0,529.5799999,0,0.388045514,1,0.564238847,0,0.726841947,1,0.720015904,"FALSE",,"5e48650a58056201024f6ec6",,1716187,146,,"evan-feature22",
147,,,,1,1,0,1,1,0,,"0.0-149.0",,0,409.1800002,0,0.344142597,1,0.56543745,1,0.763438647,0,0.726727589,"FALSE",,"5e48650a58056201024f6ec6",,1726368,147,,"evan-feature22",
148,,,,1,1,0,1,0,-1,,"0.0-150.0",,-1,626.4599999,0,0.388970542,1,0.567453633,0,0.683588074,1,0.722632945,"FALSE",,"5e48650a58056201024f6ec6",,1736761,148,,"evan-feature22",
149,,,,1,1,1,0,0,-1,,"0.0-151.0",,0,440.98,1,0.322991325,0,0.562377934,0,0.7234406,1,0.699632035,"FALSE",,"5e48650a58056201024f6ec6",,1746970,149,,"evan-feature22",
150,,,,1,1,1,1,0,-1,,"0.0-152.0",,-1,371.9800001,1,0.327575607,1,0.614124007,0,0.766310246,0,0.706266544,"FALSE",,"5e48650a58056201024f6ec6",,1757114,150,,"evan-feature22",
151,,,,2,2,1,1,1,0,,"0.0-153.0",,1,1239.81,1,0.307253769,1,0.625616624,1,0.766156052,1,0.691343484,"FALSE",,"5e48650a58056201024f6ec6",,1768126,151,,"evan-feature22",
152,,,,2,2,1,1,1,0,,"0.0-154.0",,1,424.1299999,1,0.270434491,1,0.582288488,1,0.747456207,1,0.644724024,"FALSE",,"5e48650a58056201024f6ec6",,1778319,152,,"evan-feature22",
153,,,,2,2,0,1,1,0,,"0.0-155.0",,0,675.4449999,0,0.238851324,0,0.58944423,0,0.705759073,1,0.69687762,"FALSE",,"5e48650a58056201024f6ec6",,1788759,153,,"evan-feature22",
154,,,,2,2,0,1,1,0,,"0.0-156.0",,0,1438.825,1,0.273035279,0,0.653244432,0,0.737985066,1,0.680041152,"FALSE",,"5e48650a58056201024f6ec6",,1799964,154,,"evan-feature22",
155,,,,1,1,1,1,1,0,,"0.0-157.0",,1,342.3849999,1,0.316190693,1,0.652685892,0,0.779116839,1,0.669352924,"FALSE",,"5e48650a58056201024f6ec6",,1810078,155,,"evan-feature22",
156,,,,1,1,0,0,0,-1,,"0.0-158.0",,0,629.2450002,0,0.282759714,0,0.670973046,1,0.772579312,1,0.706898462,"FALSE",,"5e48650a58056201024f6ec6",,1820474,156,,"evan-feature22",
157,,,,1,1,0,1,0,-1,,"0.0-159.0",,-1,392.8100001,0,0.311304958,1,0.664496179,1,0.770911936,1,0.662452385,"FALSE",,"5e48650a58056201024f6ec6",,1830635,157,,"evan-feature22",
158,,,,1,1,0,1,1,0,,"0.0-160.0",,0,1025.51,0,0.231028401,1,0.665682142,1,0.8,1,0.723915728,"FALSE",,"5e48650a58056201024f6ec6",,1841426,158,,"evan-feature22",
159,,,,2,2,1,1,0,-1,,"0.0-161.0",,-1,2352.555,0,0.284822916,1,0.677059392,1,0.777978516,1,0.773090789,"FALSE",,"5e48650a58056201024f6ec6",,1853549,159,,"evan-feature22",
160,,,,2,2,0,1,1,0,,"0.0-162.0",,0,473.5450002,0,0.281805339,1,0.709430661,0,0.734681215,1,0.791611711,"FALSE",,"5e48650a58056201024f6ec6",,1863787,160,,"evan-feature22",
161,,,,2,2,1,0,0,-1,,"0.0-163.0",,0,362.89,0,0.271779094,1,0.725329391,1,0.667430043,0,0.746594107,"FALSE",,"5e48650a58056201024f6ec6",,1873917,161,,"evan-feature22",
162,,,,2,2,0,1,1,0,,"0.0-164.0",,0,441.0600001,0,0.300513275,0,0.781288774,0,0.762000842,1,0.681217126,"FALSE",,"5e48650a58056201024f6ec6",,1884124,162,,"evan-feature22",
163,,,,2,2,1,1,1,0,,"0.0-165.0",,1,689.585,0,0.285291337,1,0.792315016,1,0.792446219,1,0.676388503,"FALSE",,"5e48650a58056201024f6ec6",,1894584,163,,"evan-feature22",
164,,,,2,2,1,1,1,0,,"0.0-166.0",,1,1450.055,0,0.318404507,0,0.798621938,1,0.8,1,0.586973186,"FALSE",,"5e48650a58056201024f6ec6",,1905804,164,,"evan-feature22",
165,,,,2,2,1,1,0,-1,,"0.0-167.0",,-1,350.1949999,0,0.318395874,1,0.8,1,0.8,1,0.591939169,"FALSE",,"5e48650a58056201024f6ec6",,1915927,165,,"evan-feature22",
166,,,,2,2,0,1,0,-1,,"0.0-168.0",,-1,721.595,0,0.318235741,1,0.8,0,0.776403022,1,0.537290213,"FALSE",,"5e48650a58056201024f6ec6",,1926417,166,,"evan-feature22",
167,,,,2,2,1,1,0,-1,,"0.0-169.0",,-1,459.8449999,0,0.264600799,0,0.8,1,0.8,1,0.555094982,"FALSE",,"5e48650a58056201024f6ec6",,1936652,167,,"evan-feature22",
168,,,,1,1,1,1,1,0,,"0.0-170.0",,1,413.3350002,1,0.2,1,0.8,1,0.748932513,1,0.556644326,"FALSE",,"5e48650a58056201024f6ec6",,1946836,168,,"evan-feature22",
169,,,,1,1,0,0,0,-1,,"0.0-171.0",,0,770.1099999,0,0.2,0,0.759658482,0,0.709749046,1,0.523498068,"FALSE",,"5e48650a58056201024f6ec6",,1957371,169,,"evan-feature22",
170,,,,1,1,1,0,1,0,,"0.0-172.0",,1,560.6249999,1,0.22718354,0,0.779429488,1,0.689430329,1,0.444999056,"FALSE",,"5e48650a58056201024f6ec6",,1967698,170,,"evan-feature22",
171,,,,1,1,1,0,0,-1,,"0.0-173.0",,0,284.5350001,1,0.249891553,0,0.790984417,0,0.724563167,0,0.401944281,"FALSE",,"5e48650a58056201024f6ec6",,1977747,171,,"evan-feature22",
172,,,,1,1,1,1,1,0,,"0.0-174.0",,1,628.1300001,1,0.265281474,1,0.8,1,0.748463215,0,0.314270227,"FALSE",,"5e48650a58056201024f6ec6",,1988143,172,,"evan-feature22",
173,,,,1,1,0,1,1,0,,"0.0-175.0",,0,686.765,0,0.262909345,1,0.776997346,1,0.727316387,0,0.296676442,"FALSE",,"5e48650a58056201024f6ec6",,1998597,173,,"evan-feature22",
174,,,,2,2,1,1,1,0,,"0.0-176.0",,1,464.9349998,0,0.276612486,1,0.768502158,1,0.719051618,1,0.287033897,"FALSE",,"5e48650a58056201024f6ec6",,2008829,174,,"evan-feature22",
175,,,,2,2,1,0,0,-1,,"0.0-177.0",,0,1485,1,0.312468593,0,0.8,1,0.669738485,0,0.254799584,"FALSE",,"5e48650a58056201024f6ec6",,2020080,175,,"evan-feature22",
176,,,,2,2,1,0,1,0,,"0.0-178.0",,1,349.805,0,0.327451556,1,0.8,1,0.709398745,0,0.201453599,"FALSE",,"5e48650a58056201024f6ec6",,2030198,176,,"evan-feature22",
177,,,,2,2,1,1,1,0,,"0.0-179.0",,1,443.62,0,0.367895585,1,0.8,1,0.730120444,1,0.215433128,"FALSE",,"5e48650a58056201024f6ec6",,2040416,177,,"evan-feature22",
178,,,,2,2,1,0,1,0,,"0.0-180.0",,1,1597.005,1,0.424226322,0,0.8,1,0.8,0,0.215904592,"FALSE",,"5e48650a58056201024f6ec6",,2051780,178,,"evan-feature22",
179,,,,2,2,1,1,1,0,,"0.0-181.0",,1,337.5550001,0,0.387639646,1,0.741064276,1,0.8,1,0.274811465,"FALSE",,"5e48650a58056201024f6ec6",,2061887,179,,"evan-feature22",
180,,,,2,2,1,0,1,0,,"0.0-182.0",,1,605.4849999,0,0.397008989,1,0.699026188,1,0.8,0,0.263811886,"FALSE",,"5e48650a58056201024f6ec6",,2072260,180,,"evan-feature22",
181,,,,2,2,0,0,0,-1,,"0.0-183.0",,0,321.9000001,0,0.391423358,0,0.663298252,0,0.8,0,0.2,"FALSE",,"5e48650a58056201024f6ec6",,2082345,181,,"evan-feature22",
182,,,,2,2,0,1,0,-1,,"0.0-184.0",,-1,309.0300001,0,0.424555502,1,0.670214687,0,0.720478215,1,0.229312684,"FALSE",,"5e48650a58056201024f6ec6",,2092425,182,,"evan-feature22",
183,,,,2,2,1,0,0,-1,,"0.0-185.0",,0,613.2,0,0.422321959,0,0.697007526,1,0.773056416,0,0.212995684,"FALSE",,"5e48650a58056201024f6ec6",,2102806,183,,"evan-feature22",
184,,,,2,2,0,0,0,-1,,"0.0-186.0",,0,277.005,0,0.34468955,1,0.713492603,0,0.747935676,0,0.2,"FALSE",,"5e48650a58056201024f6ec6",,2112846,184,,"evan-feature22",
185,,,,2,2,1,0,1,0,,"0.0-187.0",,1,308.89,1,0.358154558,1,0.690058294,1,0.770945531,0,0.205267264,"FALSE",,"5e48650a58056201024f6ec6",,2122921,185,,"evan-feature22",
186,"notice",,,,,,,,,,"0.0-188.0","{""Q0"":""The right door was more fruitful in the second half""}",,31599,,,,,,,,,"FALSE",,"5e48650a58056201024f6ec6",,2154523,186,"Q","survey-text",
187,"track1",,"[0]",,,,,,,,"0.0-189.0","{""Q0"":""yes""}",,6685,,,,,,,,,"FALSE",,"5e48650a58056201024f6ec6",,2161211,187,"Q","evan-quiz",
188,"track2",,"[0]",,,,,,,,"0.0-190.0","{""Q0"":""yes""}",,8203,,,,,,,,,"FALSE",,"5e48650a58056201024f6ec6",,2169417,188,"Q","evan-quiz",
189,"strat",,,,,,,,,,"0.0-191.0","{""Q0"":""Memory""}",,10822,,,,,,,,,"FALSE",,"5e48650a58056201024f6ec6",,2180240,189,"Q","survey-text",
0,,,,,,,,,,,"0.0-0.0",,,,,,,,,,,,"TRUE",,"5f1e0fd32c833f35ed5e93ac","TRUE",2962,0,,"fullscreen",
1,,0,,,,,,,,,"0.0-1.0",,,3434,,,,,,,,,"TRUE","Welcome to the task. Before starting the main task, we would like you to answer a few questionnaires.  Please try to answer as accurately as you can.","5f1e0fd32c833f35ed5e93ac",,6400,1,,"html-button-response",
2,"anx_aro",,,,,,,,,,"0.0-2.0","{""Q0"":1,""Q1"":0,""Q2"":0,""Q3"":0,""Q4"":0,""Q5"":0,""Q6"":0,""Q7"":1,""Q8"":0,""Q9"":0}",,40170,,,,,,,,,"TRUE",,"5f1e0fd32c833f35ed5e93ac",,46574,2,"Q","survey-likert",
3,"worry",,,,,,,,,,"0.0-3.0","{""Q0"":1,""Q1"":0,""Q2"":2,""Q3"":1,""Q4"":1,""Q5"":2,""Q6"":0,""Q7"":1,""Q8"":0,""Q9"":0,""Q10"":3,""Q11"":0,""Q12"":0,""Q13"":1,""Q14"":0,""Q15"":1}",,132321,,,,,,,,,"TRUE",,"5f1e0fd32c833f35ed5e93ac",,178904,3,"Q","survey-likert",
4,,,,,,,,,,,"0.0-4.0",,,117719,,,,,,,,,"TRUE",,"5f1e0fd32c833f35ed5e93ac",,296625,4,,"instructions","[{""page_index"":0,""viewing_time"":3452},{""page_index"":1,""viewing_time"":69273},{""page_index"":2,""viewing_time"":44993}]"
5,,,,2,2,1,0,1,-1,,"0.0-5.0",,1,982.51,1,0.6,1,0.4,1,0.3,0,0.7,"TRUE",,"5f1e0fd32c833f35ed5e93ac",,303898,5,,"evan-feature22",
6,,,,2,2,0,1,1,-1,,"0.0-6.0",,-1,2379.57,1,0.6,0,0.4,0,0.3,1,0.7,"TRUE",,"5f1e0fd32c833f35ed5e93ac",,312556,6,,"evan-feature22",
7,,,,2,2,0,1,1,-1,,"0.0-7.0",,-1,1630.945,1,0.6,0,0.4,0,0.3,1,0.7,"TRUE",,"5f1e0fd32c833f35ed5e93ac",,320466,7,,"evan-feature22",
8,,,,2,2,0,1,1,-1,,"0.0-8.0",,-1,1138.14,1,0.6,0,0.4,0,0.3,1,0.7,"TRUE",,"5f1e0fd32c833f35ed5e93ac",,327875,8,,"evan-feature22",
9,,,,2,2,1,0,1,-1,,"0.0-9.0",,1,1326.46,1,0.6,1,0.4,1,0.3,0,0.7,"TRUE",,"5f1e0fd32c833f35ed5e93ac",,335479,9,,"evan-feature22",
10,,,,2,2,0,1,1,-1,,"0.0-10.0",,-1,1159.69,0,0.6,1,0.4,0,0.3,1,0.7,"TRUE",,"5f1e0fd32c833f35ed5e93ac",,342911,10,,"evan-feature22",
11,,,,2,2,1,1,1,-1,,"0.0-11.0",,0,965.125,1,0.6,1,0.4,1,0.3,1,0.7,"TRUE",,"5f1e0fd32c833f35ed5e93ac",,350155,11,,"evan-feature22",
12,,,,2,2,0,1,1,-1,,"0.0-12.0",,-1,1254.785,1,0.6,0,0.4,0,0.3,1,0.7,"TRUE",,"5f1e0fd32c833f35ed5e93ac",,357682,12,,"evan-feature22",
13,,,,2,2,1,1,1,-1,,"0.0-13.0",,0,1098.93,1,0.6,1,0.4,1,0.3,1,0.7,"TRUE",,"5f1e0fd32c833f35ed5e93ac",,365060,13,,"evan-feature22",
14,,,,2,2,1,1,1,-1,,"0.0-14.0",,0,2710.07,1,0.6,0,0.4,1,0.3,1,0.7,"TRUE",,"5f1e0fd32c833f35ed5e93ac",,374047,14,,"evan-feature22",
15,,,,,,,,,,,"0.0-15.0",,,134780,,,,,,,,,"TRUE",,"5f1e0fd32c833f35ed5e93ac",,508827,15,,"instructions","[{""page_index"":0,""viewing_time"":26904},{""page_index"":1,""viewing_time"":78161},{""page_index"":2,""viewing_time"":17884},{""page_index"":3,""viewing_time"":11830}]"
16,,,,"SLOW","SLOW",,,1,0,,"0.0-16.0",,-3,,0,0.6,1,0.3,1,0.3,0,0.5,"TRUE",,"5f1e0fd32c833f35ed5e93ac",,514643,16,,"evan-feature22",
17,,,,2,2,0,1,0,-1,,"0.0-17.0",,-1,1897.77,0,0.6,1,0.3,0,0.3,1,0.5,"TRUE",,"5f1e0fd32c833f35ed5e93ac",,526336,17,,"evan-feature22",
18,,,,1,1,0,0,0,-1,,"0.0-18.0",,0,1584.11,0,0.6,0,0.3,0,0.3,0,0.5,"TRUE",,"5f1e0fd32c833f35ed5e93ac",,537705,18,,"evan-feature22",
19,,,,2,2,0,1,1,0,,"0.0-19.0",,0,1546.505,0,0.6,0,0.3,0,0.3,1,0.5,"TRUE",,"5f1e0fd32c833f35ed5e93ac",,549043,19,,"evan-feature22",
20,,,,1,1,0,1,1,0,,"0.0-20.0",,0,810.59,0,0.6,1,0.3,0,0.3,1,0.5,"TRUE",,"5f1e0fd32c833f35ed5e93ac",,559641,20,,"evan-feature22",
21,,,,,,,,,,,"0.0-21.0",,,25139,,,,,,,,,"TRUE",,"5f1e0fd32c833f35ed5e93ac",,584781,21,,"instructions","[{""page_index"":0,""viewing_time"":25138}]"
22,,,"[1, 1, 0, 0]",,,,,,,,"0.0-22.0","{""Q0"":""2"",""Q1"":""The number of minerals gained minus the number of minerals lost on 5 randomly selected decisions."",""Q2"":""Yes."",""Q3"":""The number of minerals that the gold alien will provide (if positive) or take away (if negative)""}",,20653,,,,,,,,,"TRUE",,"5f1e0fd32c833f35ed5e93ac",,605444,22,,"evan-quiz",
23,,0,,,,,,,,,"0.0-25.0",,,5392,,,,,,,,,"TRUE","You passed the quiz! Great work. The task will take about 30 minutes. Press the button to begin.","5f1e0fd32c833f35ed5e93ac",,610839,23,,"html-button-response",
24,,,,1,1,1,1,1,0,,"0.0-26.0",,1,1081.765,1,0.758395892,1,0.666783589,0,0.398933966,0,0.29433458,"TRUE",,"5f1e0fd32c833f35ed5e93ac",,621708,24,,"evan-feature22",
25,,,,1,1,1,0,1,0,,"0.0-27.0",,1,463.44,1,0.749113302,0,0.641033464,0,0.374554754,1,0.32429597,"TRUE",,"5f1e0fd32c833f35ed5e93ac",,631957,25,,"evan-feature22",
26,,,,1,1,1,0,1,0,,"0.0-28.0",,1,893.06,1,0.769229366,0,0.673489452,0,0.389363363,1,0.408054843,"TRUE",,"5f1e0fd32c833f35ed5e93ac",,642634,26,,"evan-feature22",
27,,,,1,1,1,0,1,0,,"0.0-29.0",,1,688.055,1,0.794299593,0,0.705691456,0,0.452628219,1,0.42653274,"TRUE",,"5f1e0fd32c833f35ed5e93ac",,653105,27,,"evan-feature22",
28,,,,1,1,1,1,0,-1,,"0.0-30.0",,-1,1895.25,1,0.8,1,0.734276581,0,0.423370724,0,0.432069981,"TRUE",,"5f1e0fd32c833f35ed5e93ac",,664789,28,,"evan-feature22",
29,,,,1,1,1,1,0,-1,,"0.0-31.0",,-1,597.72,1,0.77615632,1,0.671157041,1,0.457156974,1,0.464632121,"TRUE",,"5f1e0fd32c833f35ed5e93ac",,675172,29,,"evan-feature22",
30,,,,2,2,0,1,1,0,,"0.0-32.0",,0,738.755,1,0.760618163,0,0.645939761,0,0.471572527,1,0.372324295,"TRUE",,"5f1e0fd32c833f35ed5e93ac",,685694,30,,"evan-feature22",
31,,,,1,1,1,1,1,0,,"0.0-33.0",,1,1053.24,1,0.747676711,1,0.596965425,0,0.461284093,1,0.348031934,"TRUE",,"5f1e0fd32c833f35ed5e93ac",,696528,31,,"evan-feature22",
32,,,,1,1,1,1,0,-1,,"0.0-34.0",,-1,485.66,1,0.758959969,1,0.576201125,1,0.508614774,0,0.366452805,"TRUE",,"5f1e0fd32c833f35ed5e93ac",,706804,32,,"evan-feature22",
33,,,,2,2,0,1,0,-1,,"0.0-35.0",,-1,1148.375,0,0.8,0,0.561117359,0,0.552349312,1,0.38521346,"TRUE",,"5f1e0fd32c833f35ed5e93ac",,717738,33,,"evan-feature22",
34,,,,1,1,1,1,1,0,,"0.0-36.0",,1,923.565,1,0.771310656,1,0.61964539,0,0.596823475,1,0.429321641,"TRUE",,"5f1e0fd32c833f35ed5e93ac",,728441,34,,"evan-feature22",
35,,,,2,2,1,1,0,-1,,"0.0-37.0",,-1,1556.275,1,0.8,0,0.626226927,1,0.60332109,1,0.378687767,"TRUE",,"5f1e0fd32c833f35ed5e93ac",,739783,35,,"evan-feature22",
36,,,,1,1,1,0,1,0,,"0.0-38.0",,1,412.855,1,0.8,0,0.625397042,0,0.617889353,0,0.385361015,"TRUE",,"5f1e0fd32c833f35ed5e93ac",,749979,36,,"evan-feature22",
37,,,,1,1,0,1,1,0,,"0.0-39.0",,0,957.3,0,0.8,1,0.634158766,0,0.593227747,0,0.347942274,"TRUE",,"5f1e0fd32c833f35ed5e93ac",,760721,37,,"evan-feature22",
38,,,,1,1,1,1,1,0,,"0.0-40.0",,1,1276.185,1,0.780131997,1,0.63264508,1,0.554391083,1,0.406807912,"TRUE",,"5f1e0fd32c833f35ed5e93ac",,771775,38,,"evan-feature22",
39,,,,1,1,1,1,1,0,,"0.0-41.0",,1,2436.385,1,0.8,1,0.648202298,0,0.515718575,0,0.427451178,"TRUE",,"5f1e0fd32c833f35ed5e93ac",,783997,39,,"evan-feature22",
40,,,,1,1,0,0,1,0,,"0.0-42.0",,0,778.03,0,0.78377078,0,0.67965253,0,0.537109201,0,0.432193959,"TRUE",,"5f1e0fd32c833f35ed5e93ac",,794554,40,,"evan-feature22",
41,,,,1,1,1,1,1,0,,"0.0-43.0",,1,596.85,1,0.8,1,0.677757129,1,0.525795655,0,0.419026663,"TRUE",,"5f1e0fd32c833f35ed5e93ac",,804924,41,,"evan-feature22",
42,,,,1,1,0,1,1,0,,"0.0-44.0",,0,707.01,0,0.754949303,1,0.650138104,1,0.528431942,0,0.404639057,"TRUE",,"5f1e0fd32c833f35ed5e93ac",,815416,42,,"evan-feature22",
43,,,,2,2,1,0,0,-1,,"0.0-45.0",,0,2464.89,1,0.8,1,0.655926243,1,0.477718095,0,0.382683792,"TRUE",,"5f1e0fd32c833f35ed5e93ac",,827672,43,,"evan-feature22",
44,,,,1,1,1,0,1,0,,"0.0-46.0",,1,1741.305,1,0.743293998,0,0.612656833,1,0.458332775,0,0.437340995,"TRUE",,"5f1e0fd32c833f35ed5e93ac",,839201,44,,"evan-feature22",
45,,,,1,1,1,0,1,0,,"0.0-47.0",,1,716.475,1,0.741055284,0,0.619286527,1,0.472797571,1,0.531525128,"TRUE",,"5f1e0fd32c833f35ed5e93ac",,849706,45,,"evan-feature22",
46,,,,1,1,1,1,1,0,,"0.0-48.0",,1,1004.03,1,0.727897085,1,0.622832152,0,0.39601617,0,0.576213652,"TRUE",,"5f1e0fd32c833f35ed5e93ac",,860496,46,,"evan-feature22",
47,,,,2,2,0,0,0,-1,,"0.0-49.0",,0,1489.91,0,0.742532732,0,0.609740775,0,0.391742951,0,0.521061141,"TRUE",,"5f1e0fd32c833f35ed5e93ac",,871776,47,,"evan-feature22",
48,,,,2,2,1,1,0,-1,,"0.0-50.0",,-1,835.275,0,0.678330362,1,0.664637619,1,0.361203638,1,0.520299591,"TRUE",,"5f1e0fd32c833f35ed5e93ac",,882400,48,,"evan-feature22",
49,,,,2,2,1,1,0,-1,,"0.0-51.0",,-1,842.705,1,0.694249946,0,0.666792648,1,0.323890969,1,0.572468191,"TRUE",,"5f1e0fd32c833f35ed5e93ac",,893028,49,,"evan-feature22",
50,,,,1,1,0,0,1,0,,"0.0-52.0",,0,1467.855,0,0.712534733,0,0.623869494,0,0.31056222,0,0.537072927,"TRUE",,"5f1e0fd32c833f35ed5e93ac",,904278,50,,"evan-feature22",
51,,,,2,2,1,0,1,0,,"0.0-53.0",,1,1089.28,1,0.798095036,0,0.631149357,1,0.257255386,0,0.580461963,"TRUE",,"5f1e0fd32c833f35ed5e93ac",,915158,51,,"evan-feature22",
52,,,,2,2,0,1,1,0,,"0.0-54.0",,0,612.305,1,0.777435118,1,0.598930454,0,0.251420798,1,0.588308898,"TRUE",,"5f1e0fd32c833f35ed5e93ac",,925559,52,,"evan-feature22",
53,,,,1,1,1,0,1,0,,"0.0-55.0",,1,631.68,1,0.759582808,0,0.532501002,0,0.244240244,0,0.57555856,"TRUE",,"5f1e0fd32c833f35ed5e93ac",,935980,53,,"evan-feature22",
54,,,,1,1,1,0,1,0,,"0.0-56.0",,1,723.19,1,0.731730696,0,0.507277796,0,0.281049518,1,0.563427294,"TRUE",,"5f1e0fd32c833f35ed5e93ac",,946484,54,,"evan-feature22",
55,,,,1,1,0,0,1,0,,"0.0-57.0",,0,623.895,0,0.755387223,0,0.53317231,1,0.2,0,0.61479993,"TRUE",,"5f1e0fd32c833f35ed5e93ac",,956877,55,,"evan-feature22",
56,,,,2,2,0,1,1,0,,"0.0-58.0",,0,959.38,0,0.69513931,1,0.482219891,0,0.2,1,0.630595346,"TRUE",,"5f1e0fd32c833f35ed5e93ac",,967617,56,,"evan-feature22",
57,,,,1,1,1,1,0,-1,,"0.0-59.0",,-1,2027.01,1,0.760055032,1,0.522648599,0,0.21430818,1,0.588619069,"TRUE",,"5f1e0fd32c833f35ed5e93ac",,979424,57,,"evan-feature22",
58,,,,1,1,1,0,1,0,,"0.0-60.0",,1,1818.3,1,0.766163824,0,0.501297504,0,0.270138439,0,0.61055715,"TRUE",,"5f1e0fd32c833f35ed5e93ac",,991031,58,,"evan-feature22",
59,,,,1,1,1,0,1,0,,"0.0-61.0",,1,1414.53,1,0.745170882,0,0.461483376,1,0.2,1,0.675926643,"TRUE",,"5f1e0fd32c833f35ed5e93ac",,1002232,59,,"evan-feature22",
60,,,,1,1,1,1,1,0,,"0.0-62.0",,1,1043.1,1,0.735704894,1,0.56650936,0,0.2,0,0.649759555,"TRUE",,"5f1e0fd32c833f35ed5e93ac",,1013058,60,,"evan-feature22",
61,,,,1,1,1,1,1,0,,"0.0-63.0",,1,720.725,1,0.75135719,1,0.601996106,0,0.2,1,0.721739204,"TRUE",,"5f1e0fd32c833f35ed5e93ac",,1023562,61,,"evan-feature22",
62,,,,1,1,1,1,0,-1,,"0.0-64.0",,-1,2306.525,1,0.8,1,0.577883646,0,0.227956694,0,0.700850404,"TRUE",,"5f1e0fd32c833f35ed5e93ac",,1035655,62,,"evan-feature22",
63,,,,1,1,1,1,1,0,,"0.0-65.0",,1,1004.8,1,0.782146585,1,0.535638393,1,0.240522467,1,0.660896764,"TRUE",,"5f1e0fd32c833f35ed5e93ac",,1046447,63,,"evan-feature22",
64,,,,1,1,1,0,1,0,,"0.0-66.0",,1,745.43,1,0.695950925,0,0.51509141,0,0.33377865,0,0.634283682,"TRUE",,"5f1e0fd32c833f35ed5e93ac",,1056973,64,,"evan-feature22",
65,,,,1,1,1,1,1,0,,"0.0-67.0",,1,901.985,1,0.726659747,1,0.483460542,0,0.402086283,1,0.581694384,"TRUE",,"5f1e0fd32c833f35ed5e93ac",,1067664,65,,"evan-feature22",
66,,,,2,2,0,0,0,-1,,"0.0-68.0",,0,1517.195,0,0.705913111,0,0.537600217,0,0.448943518,0,0.595217351,"TRUE",,"5f1e0fd32c833f35ed5e93ac",,1078968,66,,"evan-feature22",
67,,,,2,2,1,1,0,-1,,"0.0-69.0",,-1,613.825,1,0.756267718,1,0.559166276,1,0.510197367,1,0.561023256,"TRUE",,"5f1e0fd32c833f35ed5e93ac",,1089368,67,,"evan-feature22",
68,,,,2,2,0,0,0,-1,,"0.0-70.0",,0,1069.16,1,0.710907644,1,0.613388908,0,0.450785694,0,0.6265858,"TRUE",,"5f1e0fd32c833f35ed5e93ac",,1100227,68,,"evan-feature22",
69,,,,1,1,1,1,1,0,,"0.0-71.0",,1,803.355,1,0.751726306,1,0.575132706,0,0.43515056,1,0.63871568,"TRUE",,"5f1e0fd32c833f35ed5e93ac",,1110817,69,,"evan-feature22",
70,,,,1,1,0,0,1,0,,"0.0-72.0",,0,965.21,0,0.757179437,0,0.593620551,1,0.454073093,1,0.626973291,"TRUE",,"5f1e0fd32c833f35ed5e93ac",,1121553,70,,"evan-feature22",
71,,,,1,1,1,1,1,0,,"0.0-73.0",,1,638.455,1,0.748038451,1,0.6098695,1,0.383276903,1,0.684561392,"TRUE",,"5f1e0fd32c833f35ed5e93ac",,1131973,71,,"evan-feature22",
72,,,,1,1,1,1,1,0,,"0.0-74.0",,1,563.435,1,0.678564593,1,0.611654848,0,0.456257338,0,0.619523947,"TRUE",,"5f1e0fd32c833f35ed5e93ac",,1142321,72,,"evan-feature22",
73,,,,1,1,1,1,1,0,,"0.0-75.0",,1,879.065,1,0.624895127,1,0.619112572,1,0.534506586,1,0.6286811,"TRUE",,"5f1e0fd32c833f35ed5e93ac",,1152989,73,,"evan-feature22",
74,,,,2,2,1,1,0,-1,,"0.0-76.0",,-1,1482.395,1,0.626598995,1,0.561681832,1,0.533834553,1,0.699225106,"TRUE",,"5f1e0fd32c833f35ed5e93ac",,1164256,74,,"evan-feature22",
75,,,,2,2,1,1,0,-1,,"0.0-77.0",,-1,835.02,1,0.619791351,0,0.648089067,1,0.554773755,1,0.719829837,"TRUE",,"5f1e0fd32c833f35ed5e93ac",,1174878,75,,"evan-feature22",
76,,,,1,1,1,1,1,0,,"0.0-78.0",,1,1302.635,1,0.631881247,1,0.584052341,1,0.567943017,1,0.741700023,"TRUE",,"5f1e0fd32c833f35ed5e93ac",,1185967,76,,"evan-feature22",
77,,,,2,2,0,0,0,-1,,"0.0-79.0",,0,1348.725,1,0.64968251,1,0.568222121,0,0.629368633,0,0.8,"TRUE",,"5f1e0fd32c833f35ed5e93ac",,1197105,77,,"evan-feature22",
78,,0,,,,,,,,,"0.0-80.0",,,8824,,,,,,,,,"TRUE","Great work. You are a third of the way through the task.","5f1e0fd32c833f35ed5e93ac",,1205930,78,,"html-button-response",
79,,,,1,1,1,0,1,0,,"0.0-81.0",,1,1609.555,1,0.663645983,0,0.608852351,1,0.61806748,1,0.8,"TRUE",,"5f1e0fd32c833f35ed5e93ac",,1217324,79,,"evan-feature22",
80,,,,1,1,0,1,0,-1,,"0.0-82.0",,-1,1713.335,0,0.667073374,1,0.622694241,1,0.605227886,1,0.783313017,"TRUE",,"5f1e0fd32c833f35ed5e93ac",,1228830,80,,"evan-feature22",
81,,,,1,1,1,0,1,0,,"0.0-83.0",,1,1240.46,1,0.760558908,0,0.633434416,1,0.59379959,0,0.73861361,"TRUE",,"5f1e0fd32c833f35ed5e93ac",,1239861,81,,"evan-feature22",
82,,,,1,1,1,1,1,0,,"0.0-84.0",,1,553.62,1,0.754483124,1,0.660936699,1,0.509492795,1,0.646214691,"TRUE",,"5f1e0fd32c833f35ed5e93ac",,1250193,82,,"evan-feature22",
83,,,,1,1,0,1,1,0,,"0.0-85.0",,0,596.295,0,0.727478943,1,0.662769615,1,0.544926524,1,0.688483132,"TRUE",,"5f1e0fd32c833f35ed5e93ac",,1260567,83,,"evan-feature22",
84,,,,1,1,0,1,0,-1,,"0.0-86.0",,-1,2728.095,0,0.8,1,0.623524457,1,0.564838832,1,0.681239038,"TRUE",,"5f1e0fd32c833f35ed5e93ac",,1273080,84,,"evan-feature22",
85,,,,2,2,0,0,0,-1,,"0.0-87.0",,0,960.595,1,0.8,0,0.670753133,0,0.5158076,0,0.627836146,"TRUE",,"5f1e0fd32c833f35ed5e93ac",,1283822,85,,"evan-feature22",
86,,,,2,2,1,1,0,-1,,"0.0-88.0",,-1,716.08,1,0.775527162,1,0.681016775,1,0.51377463,1,0.626808982,"TRUE",,"5f1e0fd32c833f35ed5e93ac",,1294325,86,,"evan-feature22",
87,,,,1,1,0,1,1,0,,"0.0-89.0",,0,1234.49,0,0.759686899,1,0.656386777,1,0.507155515,1,0.657587271,"TRUE",,"5f1e0fd32c833f35ed5e93ac",,1305344,87,,"evan-feature22",
88,,,,2,2,0,1,0,-1,,"0.0-90.0",,-1,2185.675,1,0.769773043,1,0.669629428,0,0.405621956,1,0.632466576,"TRUE",,"5f1e0fd32c833f35ed5e93ac",,1317317,88,,"evan-feature22",
89,,,,1,1,1,1,1,0,,"0.0-91.0",,1,1691.87,1,0.733077865,1,0.589734488,0,0.352229968,0,0.605848783,"TRUE",,"5f1e0fd32c833f35ed5e93ac",,1328790,89,,"evan-feature22",
90,,,,2,2,1,1,0,-1,,"0.0-92.0",,-1,1468.39,1,0.751695326,0,0.571952819,1,0.356004788,1,0.555608563,"TRUE",,"5f1e0fd32c833f35ed5e93ac",,1340042,90,,"evan-feature22",
91,,,,1,1,0,1,1,0,,"0.0-93.0",,0,1268.445,0,0.733522446,1,0.653241856,1,0.343718615,0,0.494468134,"TRUE",,"5f1e0fd32c833f35ed5e93ac",,1351093,91,,"evan-feature22",
92,,,,2,2,0,0,1,0,,"0.0-94.0",,0,1079.09,0,0.712481759,1,0.639077481,0,0.339057567,0,0.470845749,"TRUE",,"5f1e0fd32c833f35ed5e93ac",,1361955,92,,"evan-feature22",
93,,,,2,2,0,0,1,0,,"0.0-95.0",,0,1056.54,1,0.678438287,1,0.619313665,0,0.307093978,0,0.551459799,"TRUE",,"5f1e0fd32c833f35ed5e93ac",,1372798,93,,"evan-feature22",
94,,,,2,2,0,1,0,-1,,"0.0-96.0",,-1,1219.745,1,0.665208313,0,0.597460688,0,0.350217528,1,0.539363545,"TRUE",,"5f1e0fd32c833f35ed5e93ac",,1383805,94,,"evan-feature22",
95,,,,1,1,0,1,1,0,,"0.0-97.0",,0,1001.08,0,0.661769563,1,0.623726622,1,0.432847002,0,0.527128728,"TRUE",,"5f1e0fd32c833f35ed5e93ac",,1394591,95,,"evan-feature22",
96,,,,2,2,1,1,1,0,,"0.0-98.0",,1,1652.185,0,0.655523738,1,0.630055609,1,0.430599471,1,0.516819818,"TRUE",,"5f1e0fd32c833f35ed5e93ac",,1406029,96,,"evan-feature22",
97,,,,2,2,0,1,1,0,,"0.0-99.0",,0,716.005,1,0.584426545,0,0.629494017,0,0.482109399,1,0.493102323,"TRUE",,"5f1e0fd32c833f35ed5e93ac",,1416527,97,,"evan-feature22",
98,,,,1,1,1,1,1,0,,"0.0-100.0",,1,911.835,1,0.593661942,1,0.598116517,0,0.494812571,0,0.515932226,"TRUE",,"5f1e0fd32c833f35ed5e93ac",,1427225,98,,"evan-feature22",
99,,,,1,1,1,0,1,0,,"0.0-101.0",,1,1195.225,1,0.592880538,0,0.621605935,1,0.389458958,0,0.561640435,"TRUE",,"5f1e0fd32c833f35ed5e93ac",,1438210,99,,"evan-feature22",
100,,,,2,2,0,0,0,-1,,"0.0-102.0",,0,1275.82,1,0.601007589,1,0.608277141,0,0.343764503,0,0.470029965,"TRUE",,"5f1e0fd32c833f35ed5e93ac",,1449274,100,,"evan-feature22",
101,,,,2,2,0,0,0,-1,,"0.0-103.0",,0,725.36,1,0.646855036,1,0.662806372,0,0.256603314,0,0.519482362,"TRUE",,"5f1e0fd32c833f35ed5e93ac",,1459789,101,,"evan-feature22",
102,,,,2,2,0,1,0,-1,,"0.0-104.0",,-1,1166.155,1,0.642867724,0,0.632049246,0,0.256760691,1,0.595191797,"TRUE",,"5f1e0fd32c833f35ed5e93ac",,1470739,102,,"evan-feature22",
103,,,,2,2,0,0,0,-1,,"0.0-105.0",,0,1487.35,0,0.645698706,1,0.606934848,0,0.253726265,0,0.605564476,"TRUE",,"5f1e0fd32c833f35ed5e93ac",,1482007,103,,"evan-feature22",
104,,,,1,1,1,1,1,0,,"0.0-106.0",,1,1612.815,1,0.57365172,1,0.644616344,0,0.235666944,1,0.542830548,"TRUE",,"5f1e0fd32c833f35ed5e93ac",,1493409,104,,"evan-feature22",
105,,,,2,2,0,1,0,-1,,"0.0-107.0",,-1,1651.505,1,0.57365172,0,0.644616344,0,0.235666944,1,0.542830548,"TRUE",,"5f1e0fd32c833f35ed5e93ac",,1504850,105,,"evan-feature22",
106,,,,2,2,1,0,0,-1,,"0.0-108.0",,0,1247.655,0,0.571544656,1,0.605228935,1,0.254414551,0,0.54267317,"TRUE",,"5f1e0fd32c833f35ed5e93ac",,1515877,106,,"evan-feature22",
107,,,,2,2,0,1,0,-1,,"0.0-109.0",,-1,799.025,0,0.594079321,1,0.627731245,0,0.271045457,1,0.498184461,"TRUE",,"5f1e0fd32c833f35ed5e93ac",,1526464,107,,"evan-feature22",
108,,,,2,2,0,0,0,-1,,"0.0-110.0",,0,1378.795,1,0.581490524,1,0.61543522,0,0.2867983,0,0.473349121,"TRUE",,"5f1e0fd32c833f35ed5e93ac",,1537629,108,,"evan-feature22",
109,,,,2,2,0,0,0,-1,,"0.0-111.0",,0,1243.565,1,0.508659922,0,0.678348122,0,0.293557647,0,0.436686776,"TRUE",,"5f1e0fd32c833f35ed5e93ac",,1548659,109,,"evan-feature22",
110,,,,2,2,0,0,0,-1,,"0.0-112.0",,0,1192.085,1,0.548020127,1,0.661356152,0,0.339399752,0,0.43098076,"TRUE",,"5f1e0fd32c833f35ed5e93ac",,1559639,110,,"evan-feature22",
111,,,,2,2,1,0,0,-1,,"0.0-113.0",,0,1286.095,1,0.502987702,1,0.612211104,1,0.433915344,0,0.422555327,"TRUE",,"5f1e0fd32c833f35ed5e93ac",,1570713,111,,"evan-feature22",
112,,,,1,1,0,1,1,0,,"0.0-114.0",,0,1562.545,0,0.459245451,1,0.688192936,0,0.456638147,1,0.458186455,"TRUE",,"5f1e0fd32c833f35ed5e93ac",,1582053,112,,"evan-feature22",
113,,,,2,2,1,1,0,-1,,"0.0-115.0",,-1,1137.335,0,0.421342325,0,0.739800042,1,0.422428723,1,0.494450621,"TRUE",,"5f1e0fd32c833f35ed5e93ac",,1592979,113,,"evan-feature22",
114,,,,2,2,0,0,0,-1,,"0.0-116.0",,0,1159.95,0,0.471458304,0,0.640586494,0,0.412771813,0,0.410586692,"TRUE",,"5f1e0fd32c833f35ed5e93ac",,1603921,114,,"evan-feature22",
115,,,,1,1,0,0,1,0,,"0.0-117.0",,0,1466.425,0,0.528101475,0,0.657202834,1,0.439859203,0,0.406763248,"TRUE",,"5f1e0fd32c833f35ed5e93ac",,1615175,115,,"evan-feature22",
116,,,,2,2,1,0,1,0,,"0.0-118.0",,1,1099.72,1,0.469923117,0,0.717492971,1,0.467198621,0,0.395737313,"TRUE",,"5f1e0fd32c833f35ed5e93ac",,1626067,116,,"evan-feature22",
117,,,,1,1,1,1,0,-1,,"0.0-119.0",,-1,1801.065,1,0.543261297,1,0.722989301,1,0.534165048,0,0.44477015,"TRUE",,"5f1e0fd32c833f35ed5e93ac",,1637656,117,,"evan-feature22",
118,,,,2,2,1,0,0,-1,,"0.0-120.0",,0,1213.02,1,0.560921892,0,0.77155319,1,0.49136644,0,0.427878965,"TRUE",,"5f1e0fd32c833f35ed5e93ac",,1648653,118,,"evan-feature22",
119,,,,2,2,0,0,0,-1,,"0.0-121.0",,0,1277.83,1,0.589437632,1,0.774431052,0,0.518505645,0,0.445182506,"TRUE",,"5f1e0fd32c833f35ed5e93ac",,1659716,119,,"evan-feature22",
120,,,,2,2,0,0,0,-1,,"0.0-122.0",,0,1020.3,1,0.600165861,1,0.8,0,0.58903051,0,0.484870217,"TRUE",,"5f1e0fd32c833f35ed5e93ac",,1670516,120,,"evan-feature22",
121,,,,1,1,0,1,1,0,,"0.0-123.0",,0,1488.86,0,0.541751569,1,0.793817715,0,0.557327736,1,0.555026485,"TRUE",,"5f1e0fd32c833f35ed5e93ac",,1681792,121,,"evan-feature22",
122,,,,2,2,1,1,0,-1,,"0.0-124.0",,-1,989.195,1,0.522867554,1,0.8,1,0.608505506,1,0.616047291,"TRUE",,"5f1e0fd32c833f35ed5e93ac",,1692566,122,,"evan-feature22",
123,,,,1,1,1,1,1,0,,"0.0-125.0",,1,1047.085,1,0.453515211,1,0.78455201,1,0.670932262,1,0.593464967,"TRUE",,"5f1e0fd32c833f35ed5e93ac",,1703394,123,,"evan-feature22",
124,,,,1,1,0,1,1,0,,"0.0-126.0",,0,1461.935,0,0.450138637,1,0.736691069,0,0.702905088,1,0.596869092,"TRUE",,"5f1e0fd32c833f35ed5e93ac",,1714641,124,,"evan-feature22",
125,,,,2,2,0,1,0,-1,,"0.0-127.0",,-1,1360.36,0,0.442857928,1,0.714711078,0,0.649779325,1,0.545811756,"TRUE",,"5f1e0fd32c833f35ed5e93ac",,1725791,125,,"evan-feature22",
126,,,,2,2,1,1,0,-1,,"0.0-128.0",,-1,1136.44,0,0.417312257,0,0.720948173,1,0.691894307,1,0.549258578,"TRUE",,"5f1e0fd32c833f35ed5e93ac",,1736707,126,,"evan-feature22",
127,,,,1,1,0,1,0,-1,,"0.0-129.0",,-1,1718.57,0,0.420190754,1,0.689348107,1,0.705027363,0,0.58076903,"TRUE",,"5f1e0fd32c833f35ed5e93ac",,1748214,127,,"evan-feature22",
128,,,,2,2,1,1,0,-1,,"0.0-130.0",,-1,1204.59,1,0.415163563,1,0.647513976,1,0.726234795,1,0.579861853,"TRUE",,"5f1e0fd32c833f35ed5e93ac",,1759209,128,,"evan-feature22",
129,,,,2,2,1,0,0,-1,,"0.0-131.0",,0,1405.785,1,0.46818417,1,0.64492679,1,0.735142794,0,0.558277769,"TRUE",,"5f1e0fd32c833f35ed5e93ac",,1770404,129,,"evan-feature22",
130,,,,1,1,0,0,1,0,,"0.0-132.0",,0,1825.455,0,0.448388753,0,0.663704595,1,0.700255481,1,0.594726058,"TRUE",,"5f1e0fd32c833f35ed5e93ac",,1782018,130,,"evan-feature22",
131,,,,2,2,1,0,0,-1,,"0.0-133.0",,0,1448.425,0,0.424161122,0,0.657439579,1,0.692158941,0,0.595924053,"TRUE",,"5f1e0fd32c833f35ed5e93ac",,1793249,131,,"evan-feature22",
132,,,,2,2,1,0,0,-1,,"0.0-134.0",,0,1192.195,1,0.450587321,0,0.642879398,1,0.698342934,0,0.535776631,"TRUE",,"5f1e0fd32c833f35ed5e93ac",,1804230,132,,"evan-feature22",
133,,0,,,,,,,,,"0.0-135.0",,,2291,,,,,,,,,"TRUE","Great work. You are two thirds of the way through the task.","5f1e0fd32c833f35ed5e93ac",,1806523,133,,"html-button-response",
134,,,,2,2,1,0,0,-1,,"0.0-136.0",,0,1457.25,1,0.440202744,0,0.647931102,1,0.699455708,0,0.51418479,"TRUE",,"5f1e0fd32c833f35ed5e93ac",,1817764,134,,"evan-feature22",
135,,,,2,2,0,1,0,-1,,"0.0-137.0",,-1,805.99,0,0.424722829,0,0.675537871,0,0.634863839,1,0.459461854,"TRUE",,"5f1e0fd32c833f35ed5e93ac",,1828355,135,,"evan-feature22",
136,,,,2,2,0,1,0,-1,,"0.0-138.0",,-1,908.54,0,0.467897387,0,0.666761613,0,0.557834235,1,0.406021707,"TRUE",,"5f1e0fd32c833f35ed5e93ac",,1839053,136,,"evan-feature22",
137,,,,2,2,1,1,1,0,,"0.0-139.0",,1,1622.655,1,0.491082877,1,0.696258134,1,0.553173036,1,0.442306878,"TRUE",,"5f1e0fd32c833f35ed5e93ac",,1850467,137,,"evan-feature22",
138,,,,2,2,0,1,1,0,,"0.0-140.0",,0,1053.645,1,0.434873764,1,0.69471374,0,0.52567306,1,0.451201079,"TRUE",,"5f1e0fd32c833f35ed5e93ac",,1861303,138,,"evan-feature22",
139,,,,2,2,0,0,1,0,,"0.0-141.0",,0,629.455,1,0.415828557,1,0.673983653,0,0.600953273,0,0.428385991,"TRUE",,"5f1e0fd32c833f35ed5e93ac",,1871716,139,,"evan-feature22",
140,,,,2,2,0,1,0,-1,,"0.0-142.0",,-1,1000.05,0,0.377123729,0,0.630198112,0,0.562734756,1,0.407202471,"TRUE",,"5f1e0fd32c833f35ed5e93ac",,1882500,140,,"evan-feature22",
141,,,,1,1,1,1,1,0,,"0.0-143.0",,1,1290.715,1,0.377186155,1,0.595965762,0,0.52895806,1,0.401631361,"TRUE",,"5f1e0fd32c833f35ed5e93ac",,1893578,141,,"evan-feature22",
142,,,,1,1,0,1,1,0,,"0.0-144.0",,0,908.045,0,0.405178624,1,0.624033539,1,0.53541358,0,0.434812775,"TRUE",,"5f1e0fd32c833f35ed5e93ac",,1904274,142,,"evan-feature22",
143,,,,2,2,1,1,0,-1,,"0.0-145.0",,-1,1152.79,0,0.404718697,1,0.653871557,1,0.498644573,1,0.361797146,"TRUE",,"5f1e0fd32c833f35ed5e93ac",,1915218,143,,"evan-feature22",
144,,,,1,1,1,0,1,0,,"0.0-146.0",,1,1125.245,1,0.363457837,0,0.648906829,0,0.485453793,1,0.333175953,"TRUE",,"5f1e0fd32c833f35ed5e93ac",,1926130,144,,"evan-feature22",
145,,,,1,1,0,1,1,0,,"0.0-147.0",,0,889.3,0,0.423884324,1,0.651328541,1,0.496333188,0,0.308923503,"TRUE",,"5f1e0fd32c833f35ed5e93ac",,1936806,145,,"evan-feature22",
146,,,,1,1,1,0,0,-1,,"0.0-148.0",,0,1872.345,1,0.404780047,0,0.668069396,0,0.530694065,0,0.303372258,"TRUE",,"5f1e0fd32c833f35ed5e93ac",,1948462,146,,"evan-feature22",
147,,,,2,2,0,1,0,-1,,"0.0-149.0",,-1,703.165,1,0.408237701,0,0.652244224,0,0.494298509,1,0.27352694,"TRUE",,"5f1e0fd32c833f35ed5e93ac",,1958956,147,,"evan-feature22",
148,,,,1,1,0,1,1,0,,"0.0-150.0",,0,907.15,0,0.434170521,1,0.621703112,1,0.532882118,0,0.366099599,"TRUE",,"5f1e0fd32c833f35ed5e93ac",,1969653,148,,"evan-feature22",
149,,,,2,2,1,0,0,-1,,"0.0-151.0",,0,1944.235,0,0.400114798,1,0.64330682,1,0.48520862,0,0.350370153,"TRUE",,"5f1e0fd32c833f35ed5e93ac",,1981388,149,,"evan-feature22",
150,,,,2,2,0,1,1,0,,"0.0-152.0",,0,987.43,1,0.438131197,0,0.663773443,0,0.512595314,1,0.381923363,"TRUE",,"5f1e0fd32c833f35ed5e93ac",,1992164,150,,"evan-feature22",
151,,,,1,1,0,0,0,-1,,"0.0-153.0",,0,1158.125,0,0.430197337,0,0.650033231,0,0.490575498,0,0.359341831,"TRUE",,"5f1e0fd32c833f35ed5e93ac",,2003100,151,,"evan-feature22",
152,,,,1,1,0,0,1,0,,"0.0-154.0",,0,1278.79,0,0.416179465,0,0.621958212,0,0.517879556,1,0.399884406,"TRUE",,"5f1e0fd32c833f35ed5e93ac",,2014163,152,,"evan-feature22",
153,,,,1,1,0,1,0,-1,,"0.0-155.0",,-1,1134.82,0,0.409186383,1,0.619469024,1,0.548536182,1,0.443160476,"TRUE",,"5f1e0fd32c833f35ed5e93ac",,2025087,153,,"evan-feature22",
154,,,,1,1,0,1,0,-1,,"0.0-156.0",,-1,1218.15,0,0.403195997,1,0.622009579,0,0.518893608,1,0.446572471,"TRUE",,"5f1e0fd32c833f35ed5e93ac",,2036091,154,,"evan-feature22",
155,,,,1,1,1,0,0,-1,,"0.0-157.0",,0,863.255,1,0.395386991,0,0.548557236,1,0.59630008,1,0.522331806,"TRUE",,"5f1e0fd32c833f35ed5e93ac",,2046745,155,,"evan-feature22",
156,,,,1,1,1,1,1,0,,"0.0-158.0",,1,700.68,1,0.44115573,1,0.51147772,0,0.505130314,1,0.515364918,"TRUE",,"5f1e0fd32c833f35ed5e93ac",,2057228,156,,"evan-feature22",
157,,,,1,1,0,0,1,0,,"0.0-159.0",,0,629.99,0,0.481465132,0,0.469505158,0,0.503556947,1,0.5412637,"TRUE",,"5f1e0fd32c833f35ed5e93ac",,2067647,157,,"evan-feature22",
158,,,,1,1,0,0,1,0,,"0.0-160.0",,0,654.745,0,0.409059378,0,0.424577068,1,0.524588487,1,0.559907526,"TRUE",,"5f1e0fd32c833f35ed5e93ac",,2078085,158,,"evan-feature22",
159,,,,1,1,0,1,0,-1,,"0.0-161.0",,-1,1130.345,0,0.477684421,1,0.404895864,0,0.468799653,0,0.56906593,"TRUE",,"5f1e0fd32c833f35ed5e93ac",,2088995,159,,"evan-feature22",
160,,,,1,1,1,0,0,-1,,"0.0-162.0",,0,577.515,1,0.433077372,0,0.373753255,1,0.504699014,0,0.503739023,"TRUE",,"5f1e0fd32c833f35ed5e93ac",,2099354,160,,"evan-feature22",
161,,,,1,1,0,0,0,-1,,"0.0-163.0",,0,1089.505,0,0.450233393,0,0.347828788,0,0.519377428,1,0.459960231,"TRUE",,"5f1e0fd32c833f35ed5e93ac",,2110229,161,,"evan-feature22",
162,,,,1,1,1,0,1,0,,"0.0-164.0",,1,500.265,1,0.417567247,0,0.38393217,0,0.514983777,0,0.443744598,"TRUE",,"5f1e0fd32c833f35ed5e93ac",,2120516,162,,"evan-feature22",
163,,,,1,1,0,0,0,-1,,"0.0-165.0",,0,668.85,0,0.452958907,0,0.371002723,1,0.518114176,0,0.46633015,"TRUE",,"5f1e0fd32c833f35ed5e93ac",,2130961,163,,"evan-feature22",
164,,,,1,1,1,0,0,-1,,"0.0-166.0",,0,1173.545,1,0.455702623,0,0.315954408,1,0.572320188,1,0.508909504,"TRUE",,"5f1e0fd32c833f35ed5e93ac",,2141920,164,,"evan-feature22",
165,,,,1,1,0,1,0,-1,,"0.0-167.0",,-1,793.45,0,0.491313581,1,0.239933369,0,0.570199715,1,0.51473836,"TRUE",,"5f1e0fd32c833f35ed5e93ac",,2152500,165,,"evan-feature22",
166,,,,1,1,1,1,1,0,,"0.0-168.0",,1,681.54,1,0.484298936,1,0.272504197,0,0.555130822,0,0.523038425,"TRUE",,"5f1e0fd32c833f35ed5e93ac",,2162965,166,,"evan-feature22",
167,,,,1,1,1,0,0,-1,,"0.0-169.0",,0,847.985,1,0.528381235,0,0.28023429,0,0.539462327,1,0.504301989,"TRUE",,"5f1e0fd32c833f35ed5e93ac",,2173602,167,,"evan-feature22",
168,,,,1,1,1,0,0,-1,,"0.0-170.0",,0,979.625,1,0.524592254,0,0.339136603,0,0.519993692,1,0.489381881,"TRUE",,"5f1e0fd32c833f35ed5e93ac",,2184372,168,,"evan-feature22",
169,,,,1,1,0,0,1,0,,"0.0-171.0",,0,1358.9,0,0.53960939,0,0.333467381,1,0.599370383,0,0.458922188,"TRUE",,"5f1e0fd32c833f35ed5e93ac",,2195509,169,,"evan-feature22",
170,,,,1,1,1,1,1,0,,"0.0-172.0",,1,758.355,1,0.518775918,1,0.369047819,1,0.606902578,1,0.523049137,"TRUE",,"5f1e0fd32c833f35ed5e93ac",,2206046,170,,"evan-feature22",
171,,,,1,1,0,0,1,0,,"0.0-173.0",,0,1399.6,0,0.5158566,0,0.303652601,0,0.601512204,0,0.574601328,"TRUE",,"5f1e0fd32c833f35ed5e93ac",,2217233,171,,"evan-feature22",
172,,,,1,1,1,0,0,-1,,"0.0-174.0",,0,896.685,1,0.505585493,0,0.308345924,1,0.632117198,0,0.555815534,"TRUE",,"5f1e0fd32c833f35ed5e93ac",,2227915,172,,"evan-feature22",
173,,,,1,1,1,0,0,-1,,"0.0-175.0",,0,783.73,1,0.559543567,0,0.340395712,1,0.636974751,1,0.503532934,"TRUE",,"5f1e0fd32c833f35ed5e93ac",,2238483,173,,"evan-feature22",
174,,,,1,1,1,0,0,-1,,"0.0-176.0",,0,1106.72,1,0.558799372,0,0.359748544,0,0.554097844,1,0.472189123,"TRUE",,"5f1e0fd32c833f35ed5e93ac",,2249379,174,,"evan-feature22",
175,,,,1,1,0,1,0,-1,,"0.0-177.0",,-1,829.605,0,0.480072877,1,0.362302106,0,0.600846495,1,0.437253042,"TRUE",,"5f1e0fd32c833f35ed5e93ac",,2259991,175,,"evan-feature22",
176,,,,1,1,0,0,1,0,,"0.0-178.0",,0,974.17,0,0.511210085,0,0.401676175,0,0.622052944,0,0.391753592,"TRUE",,"5f1e0fd32c833f35ed5e93ac",,2270756,176,,"evan-feature22",
177,,,,1,1,0,1,0,-1,,"0.0-179.0",,-1,887.295,0,0.554470352,1,0.379424096,1,0.625581595,1,0.288670951,"TRUE",,"5f1e0fd32c833f35ed5e93ac",,2281427,177,,"evan-feature22",
178,,,,1,1,0,1,1,0,,"0.0-180.0",,0,1217.51,0,0.627627927,1,0.305241403,0,0.604387985,0,0.291361327,"TRUE",,"5f1e0fd32c833f35ed5e93ac",,2292435,178,,"evan-feature22",
179,,,,1,1,1,1,1,0,,"0.0-181.0",,1,1048.105,1,0.675991423,1,0.300284541,0,0.558798166,0,0.244353946,"TRUE",,"5f1e0fd32c833f35ed5e93ac",,2303271,179,,"evan-feature22",
180,,,,1,1,0,0,0,-1,,"0.0-182.0",,0,1308.6,0,0.717265504,0,0.286249108,0,0.50383286,0,0.257050468,"TRUE",,"5f1e0fd32c833f35ed5e93ac",,2314369,180,,"evan-feature22",
181,,,,1,1,1,1,0,-1,,"0.0-183.0",,-1,1296.98,1,0.74495062,1,0.280392699,1,0.477457466,1,0.274782477,"TRUE",,"5f1e0fd32c833f35ed5e93ac",,2325456,181,,"evan-feature22",
182,,,,1,1,1,1,0,-1,,"0.0-184.0",,-1,1314.48,1,0.759426302,1,0.345762728,0,0.487077864,0,0.292243279,"TRUE",,"5f1e0fd32c833f35ed5e93ac",,2336555,182,,"evan-feature22",
183,,,,2,2,1,0,0,-1,,"0.0-185.0",,0,590.18,1,0.699175667,0,0.342105414,1,0.561402254,0,0.316565075,"TRUE",,"5f1e0fd32c833f35ed5e93ac",,2346932,183,,"evan-feature22",
184,,,,2,2,0,1,0,-1,,"0.0-186.0",,-1,717.975,1,0.631985397,1,0.307880471,0,0.570750211,1,0.310017617,"TRUE",,"5f1e0fd32c833f35ed5e93ac",,2357435,184,,"evan-feature22",
185,,,,2,2,1,1,0,-1,,"0.0-187.0",,-1,662.295,0,0.6,0,0.3,1,0.6,1,0.3,"TRUE",,"5f1e0fd32c833f35ed5e93ac",,2367885,185,,"evan-feature22",
186,"notice",,,,,,,,,,"0.0-188.0","{""Q0"":""Of the last third or of the whole thing? Unclear""}",,35311,,,,,,,,,"TRUE",,"5f1e0fd32c833f35ed5e93ac",,2403197,186,"Q","survey-text",
187,"track1",,"[1]",,,,,,,,"0.0-189.0","{""Q0"":""no""}",,3769,,,,,,,,,"TRUE",,"5f1e0fd32c833f35ed5e93ac",,2406971,187,"Q","evan-quiz",
188,"track2",,"[0]",,,,,,,,"0.0-190.0","{""Q0"":""yes""}",,6481,,,,,,,,,"TRUE",,"5f1e0fd32c833f35ed5e93ac",,2413457,188,"Q","evan-quiz",
189,"strat",,,,,,,,,,"0.0-191.0","{""Q0"":""Look at probability of 1, 2 or no aliens on each side. high probability of 2 then choose for times when it was plus one gold and zero for black, if it's higher probability of one or zero then choose when its minus one black and zero gold""}",,97852,,,,,,,,,"TRUE",,"5f1e0fd32c833f35ed5e93ac",,2511312,189,"Q","survey-text",
0,,,,,,,,,,,"0.0-0.0",,,,,,,,,,,,"TRUE",,"5ae82944a0e4390001f090fd","TRUE",3219,0,,"fullscreen",
1,,0,,,,,,,,,"0.0-1.0",,,2600,,,,,,,,,"TRUE","Welcome to the task. Before starting the main task, we would like you to answer a few questionnaires.  Please try to answer as accurately as you can.","5ae82944a0e4390001f090fd",,5821,1,,"html-button-response",
2,"anx_aro",,,,,,,,,,"0.0-2.0","{""Q0"":0,""Q1"":1,""Q2"":2,""Q3"":2,""Q4"":0,""Q5"":0,""Q6"":0,""Q7"":0,""Q8"":0,""Q9"":0}",,32696,,,,,,,,,"TRUE",,"5ae82944a0e4390001f090fd",,38520,2,"Q","survey-likert",
3,"worry",,,,,,,,,,"0.0-3.0","{""Q0"":2,""Q1"":3,""Q2"":1,""Q3"":3,""Q4"":3,""Q5"":3,""Q6"":3,""Q7"":0,""Q8"":2,""Q9"":0,""Q10"":0,""Q11"":3,""Q12"":3,""Q13"":3,""Q14"":3,""Q15"":3}",,49270,,,,,,,,,"TRUE",,"5ae82944a0e4390001f090fd",,87795,3,"Q","survey-likert",
4,,,,,,,,,,,"0.0-4.0",,,75871,,,,,,,,,"TRUE",,"5ae82944a0e4390001f090fd",,163668,4,,"instructions","[{""page_index"":0,""viewing_time"":3519},{""page_index"":1,""viewing_time"":52245},{""page_index"":2,""viewing_time"":20105}]"
5,,,,2,2,0,1,1,-1,,"0.0-5.0",,-1,1293.765,0,0.6,0,0.4,0,0.3,1,0.7,"TRUE",,"5ae82944a0e4390001f090fd",,171309,5,,"evan-feature22",
6,,,,2,2,0,1,1,-1,,"0.0-6.0",,-1,1091.19,0,0.6,1,0.4,0,0.3,1,0.7,"TRUE",,"5ae82944a0e4390001f090fd",,178703,6,,"evan-feature22",
7,,,,2,2,0,0,1,-1,,"0.0-7.0",,0,519.29,1,0.6,1,0.4,0,0.3,0,0.7,"TRUE",,"5ae82944a0e4390001f090fd",,185518,7,,"evan-feature22",
8,,,,2,2,0,1,1,-1,,"0.0-8.0",,-1,1433.75,1,0.6,1,0.4,0,0.3,1,0.7,"TRUE",,"5ae82944a0e4390001f090fd",,193246,8,,"evan-feature22",
9,,,,2,2,0,1,1,-1,,"0.0-9.0",,-1,340.015,0,0.6,0,0.4,0,0.3,1,0.7,"TRUE",,"5ae82944a0e4390001f090fd",,199896,9,,"evan-feature22",
10,,,,2,2,0,0,1,-1,,"0.0-10.0",,0,220.71,0,0.6,1,0.4,0,0.3,0,0.7,"TRUE",,"5ae82944a0e4390001f090fd",,206426,10,,"evan-feature22",
11,,,,2,2,0,1,1,-1,,"0.0-11.0",,-1,923.925,1,0.6,0,0.4,0,0.3,1,0.7,"TRUE",,"5ae82944a0e4390001f090fd",,213631,11,,"evan-feature22",
12,,,,2,2,0,0,1,-1,,"0.0-12.0",,0,1040.125,1,0.6,0,0.4,0,0.3,0,0.7,"TRUE",,"5ae82944a0e4390001f090fd",,220980,12,,"evan-feature22",
13,,,,2,2,0,1,1,-1,,"0.0-13.0",,-1,585.535,0,0.6,0,0.4,0,0.3,1,0.7,"TRUE",,"5ae82944a0e4390001f090fd",,227846,13,,"evan-feature22",
14,,,,2,2,0,1,1,-1,,"0.0-14.0",,-1,407.905,1,0.6,0,0.4,0,0.3,1,0.7,"TRUE",,"5ae82944a0e4390001f090fd",,234554,14,,"evan-feature22",
15,,,,,,,,,,,"0.0-15.0",,,33721,,,,,,,,,"TRUE",,"5ae82944a0e4390001f090fd",,268276,15,,"instructions","[{""page_index"":0,""viewing_time"":8620},{""page_index"":1,""viewing_time"":12969},{""page_index"":2,""viewing_time"":7543},{""page_index"":3,""viewing_time"":4589}]"
16,,,,"SLOW","SLOW",,,1,0,,"0.0-16.0",,-3,,1,0.6,1,0.3,0,0.3,1,0.5,"TRUE",,"5ae82944a0e4390001f090fd",,274108,16,,"evan-feature22",
17,,,,1,1,0,0,0,-1,,"0.0-17.0",,0,798.525,0,0.6,0,0.3,0,0.3,1,0.5,"TRUE",,"5ae82944a0e4390001f090fd",,284742,17,,"evan-feature22",
18,,,,2,2,0,0,0,-1,,"0.0-18.0",,0,945.665,0,0.6,0,0.3,0,0.3,0,0.5,"TRUE",,"5ae82944a0e4390001f090fd",,295486,18,,"evan-feature22",
19,,,,1,1,1,1,1,0,,"0.0-19.0",,1,427.87,1,0.6,1,0.3,1,0.3,0,0.5,"TRUE",,"5ae82944a0e4390001f090fd",,305725,19,,"evan-feature22",
20,,,,1,1,1,0,1,0,,"0.0-20.0",,1,533.515,1,0.6,0,0.3,0,0.3,1,0.5,"TRUE",,"5ae82944a0e4390001f090fd",,316089,20,,"evan-feature22",
21,,,,,,,,,,,"0.0-21.0",,,9166,,,,,,,,,"TRUE",,"5ae82944a0e4390001f090fd",,325256,21,,"instructions","[{""page_index"":0,""viewing_time"":9166}]"
22,,,"[1, 1, 0, 0]",,,,,,,,"0.0-22.0","{""Q0"":""2"",""Q1"":""The number of minerals gained minus the number of minerals lost on 5 randomly selected decisions."",""Q2"":""Yes."",""Q3"":""The number of minerals that the gold alien will provide (if positive) or take away (if negative)""}",,36702,,,,,,,,,"TRUE",,"5ae82944a0e4390001f090fd",,361968,22,,"evan-quiz",
23,,0,,,,,,,,,"0.0-25.0",,,8398,,,,,,,,,"TRUE","You passed the quiz! Great work. The task will take about 30 minutes. Press the button to begin.","5ae82944a0e4390001f090fd",,370368,23,,"html-button-response",
24,,,,1,1,0,0,1,0,,"0.0-26.0",,0,967.28,0,0.758395892,0,0.666783589,1,0.398933966,0,0.29433458,"TRUE",,"5ae82944a0e4390001f090fd",,381168,24,,"evan-feature22",
25,,,,1,1,1,0,1,0,,"0.0-27.0",,1,698.93,1,0.749113302,0,0.641033464,0,0.374554754,0,0.32429597,"TRUE",,"5ae82944a0e4390001f090fd",,391655,25,,"evan-feature22",
26,,,,1,1,1,1,1,0,,"0.0-28.0",,1,453.975,1,0.769229366,1,0.673489452,0,0.389363363,1,0.408054843,"TRUE",,"5ae82944a0e4390001f090fd",,401926,26,,"evan-feature22",
27,,,,2,2,1,0,1,0,,"0.0-29.0",,1,466.025,1,0.794299593,0,0.705691456,1,0.452628219,0,0.42653274,"TRUE",,"5ae82944a0e4390001f090fd",,412219,27,,"evan-feature22",
28,,,,1,1,1,0,0,-1,,"0.0-30.0",,0,537.13,1,0.8,0,0.734276581,0,0.423370724,0,0.432069981,"TRUE",,"5ae82944a0e4390001f090fd",,422571,28,,"evan-feature22",
29,,,,1,1,0,1,0,-1,,"0.0-31.0",,-1,527.9,0,0.77615632,1,0.671157041,0,0.457156974,0,0.464632121,"TRUE",,"5ae82944a0e4390001f090fd",,432897,29,,"evan-feature22",
30,,,,1,1,1,0,1,0,,"0.0-32.0",,1,484.485,1,0.760618163,0,0.645939761,1,0.471572527,0,0.372324295,"TRUE",,"5ae82944a0e4390001f090fd",,443196,30,,"evan-feature22",
31,,,,2,2,0,0,1,0,,"0.0-33.0",,0,411.26,1,0.747676711,1,0.596965425,0,0.461284093,0,0.348031934,"TRUE",,"5ae82944a0e4390001f090fd",,453387,31,,"evan-feature22",
32,,,,2,2,0,1,0,-1,,"0.0-34.0",,-1,456.715,1,0.758959969,0,0.576201125,0,0.508614774,1,0.366452805,"TRUE",,"5ae82944a0e4390001f090fd",,463655,32,,"evan-feature22",
33,,,,2,2,0,0,0,-1,,"0.0-35.0",,0,448.115,1,0.8,0,0.561117359,0,0.552349312,0,0.38521346,"TRUE",,"5ae82944a0e4390001f090fd",,473885,33,,"evan-feature22",
34,,,,1,1,0,1,1,0,,"0.0-36.0",,0,362.365,0,0.771310656,1,0.61964539,0,0.596823475,0,0.429321641,"TRUE",,"5ae82944a0e4390001f090fd",,484062,34,,"evan-feature22",
35,,,,1,1,0,1,0,-1,,"0.0-37.0",,-1,349.95,0,0.8,1,0.626226927,1,0.60332109,0,0.378687767,"TRUE",,"5ae82944a0e4390001f090fd",,494233,35,,"evan-feature22",
