,index,Unnamed: 0,Q_name,button_pressed,choice_idxs,chosen_pos,chosen_state,chosen_state_f_1_outcome,chosen_state_f_2_outcome,f_1_reward,f_2_reward,incor_questions,internal_node_id,responses,reward_received,rt,s_1_f_1_outcome,s_1_f_1_prob,s_1_f_2_outcome,s_1_f_2_prob,s_2_f_1_outcome,s_2_f_1_prob,s_2_f_2_outcome,s_2_f_2_prob,safe_first,stimulus,subjectID,success,time_elapsed,trial_index,trial_num,trial_type,view_history,switching
0,2882,29,,,,2,2,0.0,1.0,1.0,0.0,,0.0-26.0,,0.0,508.64,1.0,0.758395892,0.0,0.666783589,0.0,0.39893396600000003,1.0,0.29433458,True,,5c94ee77c70dc500019c7f0f,,552821,29,,evan-feature22,,0
1,2883,30,,,,2,2,0.0,1.0,1.0,0.0,,0.0-27.0,,0.0,1793.62,1.0,0.749113302,1.0,0.6410334639999999,0.0,0.374554754,1.0,0.32429597,True,,5c94ee77c70dc500019c7f0f,,564400,30,,evan-feature22,,0
2,2884,31,,,,1,1,1.0,1.0,1.0,0.0,,0.0-28.0,,1.0,359.58,1.0,0.7692293659999999,1.0,0.673489452,0.0,0.38936336299999996,1.0,0.40805484299999994,True,,5c94ee77c70dc500019c7f0f,,574551,31,,evan-feature22,,1
3,2885,32,,,,2,2,0.0,0.0,1.0,0.0,,0.0-29.0,,0.0,376.455,1.0,0.794299593,1.0,0.7056914559999999,0.0,0.452628219,0.0,0.42653274,True,,5c94ee77c70dc500019c7f0f,,582431,32,,evan-feature22,,1
4,2886,33,,,,1,1,0.0,1.0,0.0,-1.0,,0.0-30.0,,-1.0,339.46,0.0,0.8,1.0,0.7342765809999999,0.0,0.423370724,1.0,0.432069981,True,,5c94ee77c70dc500019c7f0f,,592556,33,,evan-feature22,,1
5,2887,34,,,,1,1,1.0,1.0,0.0,-1.0,,0.0-31.0,,-1.0,493.725,1.0,0.77615632,1.0,0.671157041,1.0,0.457156974,1.0,0.464632121,True,,5c94ee77c70dc500019c7f0f,,602836,34,,evan-feature22,,0
6,2888,35,,,,2,2,1.0,0.0,1.0,0.0,,0.0-32.0,,1.0,241.685,1.0,0.760618163,1.0,0.6459397610000001,1.0,0.471572527,0.0,0.372324295,True,,5c94ee77c70dc500019c7f0f,,612857,35,,evan-feature22,,1
7,2889,36,,,,2,2,1.0,1.0,1.0,0.0,,0.0-33.0,,1.0,447.305,1.0,0.747676711,1.0,0.596965425,1.0,0.46128409299999995,1.0,0.348031934,True,,5c94ee77c70dc500019c7f0f,,623095,36,,evan-feature22,,0
8,2890,37,,,,1,1,1.0,1.0,0.0,-1.0,,0.0-34.0,,-1.0,617.505,1.0,0.7589599690000001,1.0,0.576201125,1.0,0.508614774,0.0,0.366452805,True,,5c94ee77c70dc500019c7f0f,,633499,37,,evan-feature22,,1
9,2891,38,,,,1,1,1.0,1.0,0.0,-1.0,,0.0-35.0,,-1.0,373.42,1.0,0.8,1.0,0.561117359,1.0,0.552349312,1.0,0.38521346,True,,5c94ee77c70dc500019c7f0f,,643654,38,,evan-feature22,,0
10,2892,39,,,,2,2,0.0,0.0,1.0,0.0,,0.0-36.0,,0.0,361.86,0.0,0.7713106559999999,0.0,0.61964539,0.0,0.596823475,0.0,0.42932164100000003,True,,5c94ee77c70dc500019c7f0f,,653801,39,,evan-feature22,,1
11,2893,40,,,,1,1,1.0,0.0,0.0,-1.0,,0.0-37.0,,0.0,350.645,1.0,0.8,0.0,0.626226927,1.0,0.60332109,0.0,0.378687767,True,,5c94ee77c70dc500019c7f0f,,663937,40,,evan-feature22,,1
12,2894,41,,,,1,1,1.0,1.0,1.0,0.0,,0.0-38.0,,1.0,238.975,1.0,0.8,1.0,0.625397042,1.0,0.6178893529999999,0.0,0.385361015,True,,5c94ee77c70dc500019c7f0f,,673960,41,,evan-feature22,,0
13,2895,42,,,,2,2,1.0,1.0,1.0,0.0,,0.0-39.0,,1.0,697.51,1.0,0.8,0.0,0.634158766,1.0,0.593227747,1.0,0.347942274,True,,5c94ee77c70dc500019c7f0f,,684448,42,,evan-feature22,,1
14,2896,43,,,,2,2,0.0,1.0,1.0,0.0,,0.0-40.0,,0.0,804.715,1.0,0.780131997,0.0,0.63264508,0.0,0.554391083,1.0,0.40680791200000005,True,,5c94ee77c70dc500019c7f0f,,695038,43,,evan-feature22,,0
15,2897,44,,,,1,1,1.0,1.0,1.0,0.0,,0.0-41.0,,1.0,589.205,1.0,0.8,1.0,0.648202298,1.0,0.515718575,0.0,0.427451178,True,,5c94ee77c70dc500019c7f0f,,705408,44,,evan-feature22,,1
16,2898,45,,,,1,1,1.0,0.0,1.0,0.0,,0.0-42.0,,1.0,379.145,1.0,0.78377078,0.0,0.67965253,1.0,0.537109201,0.0,0.43219395899999996,True,,5c94ee77c70dc500019c7f0f,,715576,45,,evan-feature22,,0
17,2899,46,,,,2,2,0.0,0.0,1.0,0.0,,0.0-43.0,,0.0,462.72,1.0,0.8,0.0,0.6777571290000001,0.0,0.525795655,0.0,0.41902666299999997,True,,5c94ee77c70dc500019c7f0f,,725825,46,,evan-feature22,,1
18,2900,47,,,,2,2,0.0,1.0,1.0,0.0,,0.0-44.0,,0.0,351.12,1.0,0.754949303,0.0,0.6501381039999999,0.0,0.528431942,1.0,0.404639057,True,,5c94ee77c70dc500019c7f0f,,735955,47,,evan-feature22,,0
19,2901,48,,,,SLOW,SLOW,,,0.0,-1.0,,0.0-45.0,,-3.0,,0.0,0.8,1.0,0.655926243,1.0,0.477718095,1.0,0.382683792,True,,5c94ee77c70dc500019c7f0f,,741768,48,,evan-feature22,,1
20,2902,49,,,,SLOW,SLOW,,,1.0,0.0,,0.0-46.0,,-3.0,,0.0,0.743293998,1.0,0.612656833,1.0,0.458332775,1.0,0.437340995,True,,5c94ee77c70dc500019c7f0f,,747583,49,,evan-feature22,,0
21,2903,50,,,,2,2,1.0,1.0,1.0,0.0,,0.0-47.0,,1.0,2906.63,0.0,0.7410552840000001,1.0,0.619286527,1.0,0.472797571,1.0,0.531525128,True,,5c94ee77c70dc500019c7f0f,,760265,50,,evan-feature22,,1
22,2904,51,,,,1,1,1.0,1.0,1.0,0.0,,0.0-48.0,,1.0,22.115,1.0,0.727897085,1.0,0.6228321520000001,1.0,0.39601617,0.0,0.5762136520000001,True,,5c94ee77c70dc500019c7f0f,,770057,51,,evan-feature22,,1
23,2905,52,,,,1,1,0.0,1.0,0.0,-1.0,,0.0-49.0,,-1.0,837.705,0.0,0.742532732,1.0,0.609740775,0.0,0.391742951,1.0,0.521061141,True,,5c94ee77c70dc500019c7f0f,,780672,52,,evan-feature22,,0
24,2906,53,,,,2,2,1.0,0.0,0.0,-1.0,,0.0-50.0,,0.0,359.585,1.0,0.6783303620000001,1.0,0.664637619,1.0,0.361203638,0.0,0.520299591,True,,5c94ee77c70dc500019c7f0f,,790806,53,,evan-feature22,,1
25,2907,54,,,,2,2,1.0,0.0,0.0,-1.0,,0.0-51.0,,0.0,349.605,1.0,0.6942499459999999,1.0,0.6667926479999999,1.0,0.323890969,0.0,0.572468191,True,,5c94ee77c70dc500019c7f0f,,800918,54,,evan-feature22,,0
26,2908,55,,,,1,1,1.0,1.0,1.0,0.0,,0.0-52.0,,1.0,3537.62,1.0,0.7125347329999999,1.0,0.623869494,0.0,0.31056222,1.0,0.537072927,True,,5c94ee77c70dc500019c7f0f,,814240,55,,evan-feature22,,1
27,2909,56,,,,1,1,1.0,0.0,1.0,0.0,,0.0-53.0,,1.0,568.275,1.0,0.798095036,0.0,0.6311493570000001,0.0,0.25725538600000003,0.0,0.580461963,True,,5c94ee77c70dc500019c7f0f,,824589,56,,evan-feature22,,0
28,2910,57,,,,1,1,0.0,1.0,1.0,0.0,,0.0-54.0,,0.0,505.015,0.0,0.777435118,1.0,0.598930454,0.0,0.251420798,1.0,0.588308898,True,,5c94ee77c70dc500019c7f0f,,834874,57,,evan-feature22,,0
29,2911,58,,,,2,2,0.0,1.0,1.0,0.0,,0.0-55.0,,0.0,408.67,1.0,0.759582808,0.0,0.5325010020000001,0.0,0.244240244,1.0,0.57555856,True,,5c94ee77c70dc500019c7f0f,,845070,58,,evan-feature22,,1
30,2912,59,,,,1,1,1.0,0.0,1.0,0.0,,0.0-56.0,,1.0,429.445,1.0,0.731730696,0.0,0.507277796,1.0,0.281049518,0.0,0.563427294,True,,5c94ee77c70dc500019c7f0f,,855286,59,,evan-feature22,,1
31,2913,60,,,,2,2,0.0,1.0,1.0,0.0,,0.0-57.0,,0.0,924.345,1.0,0.7553872229999999,0.0,0.53317231,0.0,0.2,1.0,0.61479993,True,,5c94ee77c70dc500019c7f0f,,865998,60,,evan-feature22,,1
32,2914,61,,,,2,2,0.0,0.0,1.0,0.0,,0.0-58.0,,0.0,470.825,0.0,0.69513931,1.0,0.482219891,0.0,0.2,0.0,0.630595346,True,,5c94ee77c70dc500019c7f0f,,876259,61,,evan-feature22,,0
33,2915,62,,,,2,2,0.0,1.0,0.0,-1.0,,0.0-59.0,,-1.0,446.505,1.0,0.760055032,0.0,0.5226485989999999,0.0,0.21430818,1.0,0.5886190689999999,True,,5c94ee77c70dc500019c7f0f,,886493,62,,evan-feature22,,0
34,2916,63,,,,1,1,0.0,0.0,1.0,0.0,,0.0-60.0,,0.0,316.575,0.0,0.766163824,0.0,0.501297504,0.0,0.270138439,1.0,0.61055715,True,,5c94ee77c70dc500019c7f0f,,896595,63,,evan-feature22,,1
35,2917,64,,,,2,2,1.0,1.0,1.0,0.0,,0.0-61.0,,1.0,156.24,1.0,0.745170882,0.0,0.461483376,1.0,0.2,1.0,0.6759266429999999,True,,5c94ee77c70dc500019c7f0f,,906541,64,,evan-feature22,,1
36,2918,65,,,,1,1,1.0,1.0,1.0,0.0,,0.0-62.0,,1.0,455.695,1.0,0.735704894,1.0,0.56650936,0.0,0.2,1.0,0.649759555,True,,5c94ee77c70dc500019c7f0f,,916782,65,,evan-feature22,,1
37,2919,66,,,,1,1,1.0,1.0,1.0,0.0,,0.0-63.0,,1.0,1215.095,1.0,0.75135719,1.0,0.601996106,0.0,0.2,1.0,0.721739204,True,,5c94ee77c70dc500019c7f0f,,927777,66,,evan-feature22,,0
38,2920,67,,,,2,2,0.0,1.0,0.0,-1.0,,0.0-64.0,,-1.0,3716.665,1.0,0.8,0.0,0.577883646,0.0,0.227956694,1.0,0.7008504040000001,True,,5c94ee77c70dc500019c7f0f,,941271,67,,evan-feature22,,1
39,2921,68,,,,1,1,1.0,1.0,1.0,0.0,,0.0-65.0,,1.0,685.105,1.0,0.782146585,1.0,0.5356383929999999,1.0,0.240522467,1.0,0.660896764,True,,5c94ee77c70dc500019c7f0f,,951747,68,,evan-feature22,,1
40,2922,69,,,,2,2,0.0,0.0,1.0,0.0,,0.0-66.0,,0.0,1217.31,0.0,0.695950925,1.0,0.51509141,0.0,0.33377865,0.0,0.6342836820000001,True,,5c94ee77c70dc500019c7f0f,,962749,69,,evan-feature22,,1
41,2923,70,,,,1,1,1.0,1.0,1.0,0.0,,0.0-67.0,,1.0,895.115,1.0,0.726659747,1.0,0.48346054200000005,0.0,0.402086283,0.0,0.581694384,True,,5c94ee77c70dc500019c7f0f,,973428,70,,evan-feature22,,1
42,2924,71,,,,2,2,0.0,0.0,0.0,-1.0,,0.0-68.0,,0.0,875.38,1.0,0.705913111,0.0,0.537600217,0.0,0.448943518,0.0,0.5952173510000001,True,,5c94ee77c70dc500019c7f0f,,984080,71,,evan-feature22,,1
43,2925,72,,,,1,1,0.0,0.0,0.0,-1.0,,0.0-69.0,,0.0,420.095,0.0,0.7562677179999999,0.0,0.559166276,1.0,0.5101973670000001,0.0,0.561023256,True,,5c94ee77c70dc500019c7f0f,,994266,72,,evan-feature22,,1
44,2926,73,,,,2,2,0.0,1.0,0.0,-1.0,,0.0-70.0,,-1.0,2261.945,1.0,0.7109076440000001,0.0,0.613388908,0.0,0.45078569399999996,1.0,0.6265858,True,,5c94ee77c70dc500019c7f0f,,1006310,73,,evan-feature22,,1
45,2927,74,,,,1,1,0.0,1.0,1.0,0.0,,0.0-71.0,,0.0,2391.875,0.0,0.7517263059999999,1.0,0.575132706,1.0,0.43515056,1.0,0.63871568,True,,5c94ee77c70dc500019c7f0f,,1018492,74,,evan-feature22,,1
46,2928,75,,,,2,2,0.0,0.0,1.0,0.0,,0.0-72.0,,0.0,172.525,0.0,0.757179437,1.0,0.593620551,0.0,0.454073093,0.0,0.626973291,True,,5c94ee77c70dc500019c7f0f,,1028454,75,,evan-feature22,,1
47,2929,76,,,,1,1,1.0,1.0,1.0,0.0,,0.0-73.0,,1.0,400.115,1.0,0.748038451,1.0,0.6098695,0.0,0.38327690299999995,0.0,0.684561392,True,,5c94ee77c70dc500019c7f0f,,1038644,76,,evan-feature22,,1
48,2930,77,,,,2,2,0.0,1.0,1.0,0.0,,0.0-74.0,,0.0,598.565,1.0,0.6785645929999999,1.0,0.6116548479999999,0.0,0.45625733799999996,1.0,0.619523947,True,,5c94ee77c70dc500019c7f0f,,1049026,77,,evan-feature22,,1
49,2931,78,,,,1,1,1.0,1.0,1.0,0.0,,0.0-75.0,,1.0,688.585,1.0,0.624895127,1.0,0.619112572,0.0,0.534506586,0.0,0.6286811,True,,5c94ee77c70dc500019c7f0f,,1059497,78,,evan-feature22,,1
50,2932,79,,,,2,2,0.0,1.0,0.0,-1.0,,0.0-76.0,,-1.0,656.275,0.0,0.626598995,0.0,0.561681832,0.0,0.5338345529999999,1.0,0.699225106,True,,5c94ee77c70dc500019c7f0f,,1069940,79,,evan-feature22,,1
51,2933,80,,,,1,1,1.0,0.0,0.0,-1.0,,0.0-77.0,,0.0,611.465,1.0,0.619791351,0.0,0.648089067,1.0,0.554773755,1.0,0.719829837,True,,5c94ee77c70dc500019c7f0f,,1080334,80,,evan-feature22,,1
52,2934,81,,,,2,2,1.0,1.0,1.0,0.0,,0.0-78.0,,1.0,2628.89,1.0,0.631881247,0.0,0.584052341,1.0,0.567943017,1.0,0.7417000229999999,True,,5c94ee77c70dc500019c7f0f,,1092750,81,,evan-feature22,,1
53,2935,82,,,,1,1,1.0,1.0,0.0,-1.0,,0.0-79.0,,-1.0,1480.635,1.0,0.64968251,1.0,0.568222121,1.0,0.629368633,1.0,0.8,True,,5c94ee77c70dc500019c7f0f,,1104014,82,,evan-feature22,,1
54,2937,84,,,,2,2,1.0,1.0,1.0,0.0,,0.0-81.0,,1.0,600.145,1.0,0.663645983,0.0,0.608852351,1.0,0.61806748,1.0,0.8,True,,5c94ee77c70dc500019c7f0f,,1117260,84,,evan-feature22,,1
55,2938,85,,,,1,1,1.0,0.0,0.0,-1.0,,0.0-82.0,,0.0,69.305,1.0,0.667073374,0.0,0.622694241,1.0,0.605227886,1.0,0.783313017,True,,5c94ee77c70dc500019c7f0f,,1127113,85,,evan-feature22,,1
56,2939,86,,,,1,1,1.0,0.0,1.0,0.0,,0.0-83.0,,1.0,392.61,1.0,0.7605589079999999,0.0,0.6334344160000001,1.0,0.59379959,1.0,0.73861361,True,,5c94ee77c70dc500019c7f0f,,1137295,86,,evan-feature22,,0
57,2940,87,,,,2,2,0.0,0.0,1.0,0.0,,0.0-84.0,,0.0,453.145,1.0,0.7544831240000001,1.0,0.660936699,0.0,0.509492795,0.0,0.6462146910000001,True,,5c94ee77c70dc500019c7f0f,,1147532,87,,evan-feature22,,1
58,2941,88,,,,2,2,1.0,1.0,1.0,0.0,,0.0-85.0,,1.0,738.27,1.0,0.7274789429999999,0.0,0.662769615,1.0,0.544926524,1.0,0.688483132,True,,5c94ee77c70dc500019c7f0f,,1158056,88,,evan-feature22,,0
59,2942,89,,,,SLOW,SLOW,,,0.0,-1.0,,0.0-86.0,,-3.0,,1.0,0.8,1.0,0.623524457,1.0,0.5648388320000001,0.0,0.681239038,True,,5c94ee77c70dc500019c7f0f,,1163874,89,,evan-feature22,,1
60,2943,90,,,,2,2,1.0,1.0,0.0,-1.0,,0.0-87.0,,-1.0,410.04,1.0,0.8,0.0,0.670753133,1.0,0.5158076,1.0,0.627836146,True,,5c94ee77c70dc500019c7f0f,,1174075,90,,evan-feature22,,1
61,2944,91,,,,1,1,1.0,0.0,0.0,-1.0,,0.0-88.0,,0.0,26.565,1.0,0.775527162,0.0,0.681016775,1.0,0.51377463,1.0,0.626808982,True,,5c94ee77c70dc500019c7f0f,,1183888,91,,evan-feature22,,1
62,2945,92,,,,1,1,1.0,1.0,1.0,0.0,,0.0-89.0,,1.0,571.32,1.0,0.7596868990000001,1.0,0.656386777,0.0,0.507155515,0.0,0.657587271,True,,5c94ee77c70dc500019c7f0f,,1194249,92,,evan-feature22,,0
63,2946,93,,,,2,2,1.0,0.0,0.0,-1.0,,0.0-90.0,,0.0,367.82,0.0,0.7697730429999999,1.0,0.6696294279999999,1.0,0.405621956,0.0,0.632466576,True,,5c94ee77c70dc500019c7f0f,,1204404,93,,evan-feature22,,1
64,2947,94,,,,1,1,1.0,1.0,1.0,0.0,,0.0-91.0,,1.0,284.295,1.0,0.733077865,1.0,0.589734488,0.0,0.35222996799999995,0.0,0.605848783,True,,5c94ee77c70dc500019c7f0f,,1214473,94,,evan-feature22,,1
65,2948,95,,,,1,1,0.0,1.0,0.0,-1.0,,0.0-92.0,,-1.0,81.385,0.0,0.7516953259999999,1.0,0.571952819,1.0,0.35600478799999996,1.0,0.5556085629999999,True,,5c94ee77c70dc500019c7f0f,,1224339,95,,evan-feature22,,0
66,2949,96,,,,1,1,1.0,1.0,1.0,0.0,,0.0-93.0,,1.0,268.66,1.0,0.7335224459999999,1.0,0.6532418560000001,1.0,0.343718615,1.0,0.494468134,True,,5c94ee77c70dc500019c7f0f,,1234391,96,,evan-feature22,,0
67,2950,97,,,,2,2,0.0,0.0,1.0,0.0,,0.0-94.0,,0.0,394.645,1.0,0.7124817590000001,1.0,0.6390774810000001,0.0,0.339057567,0.0,0.470845749,True,,5c94ee77c70dc500019c7f0f,,1244573,97,,evan-feature22,,1
68,2951,98,,,,1,1,1.0,0.0,1.0,0.0,,0.0-95.0,,1.0,530.49,1.0,0.6784382870000001,0.0,0.619313665,0.0,0.307093978,0.0,0.551459799,True,,5c94ee77c70dc500019c7f0f,,1254894,98,,evan-feature22,,1
69,2952,99,,,,2,2,1.0,0.0,0.0,-1.0,,0.0-96.0,,0.0,498.31,1.0,0.6652083129999999,0.0,0.597460688,1.0,0.35021752799999994,0.0,0.539363545,True,,5c94ee77c70dc500019c7f0f,,1265181,99,,evan-feature22,,1
70,2953,100,,,,2,2,1.0,0.0,1.0,0.0,,0.0-97.0,,1.0,511.615,1.0,0.661769563,0.0,0.6237266220000001,1.0,0.43284700200000004,0.0,0.527128728,True,,5c94ee77c70dc500019c7f0f,,1275480,100,,evan-feature22,,0
71,2954,101,,,,1,1,1.0,1.0,1.0,0.0,,0.0-98.0,,1.0,50.27,1.0,0.655523738,1.0,0.630055609,1.0,0.430599471,0.0,0.516819818,True,,5c94ee77c70dc500019c7f0f,,1285321,101,,evan-feature22,,1
72,2955,102,,,,2,2,1.0,1.0,1.0,0.0,,0.0-99.0,,1.0,387.06,0.0,0.584426545,1.0,0.6294940170000001,1.0,0.482109399,1.0,0.49310232299999995,True,,5c94ee77c70dc500019c7f0f,,1295494,102,,evan-feature22,,1
73,2956,103,,,,2,2,0.0,1.0,1.0,0.0,,0.0-100.0,,0.0,709.855,1.0,0.593661942,0.0,0.598116517,0.0,0.49481257100000003,1.0,0.515932226,True,,5c94ee77c70dc500019c7f0f,,1305993,103,,evan-feature22,,0
74,2957,104,,,,1,1,1.0,1.0,1.0,0.0,,0.0-101.0,,1.0,402.52,1.0,0.592880538,1.0,0.621605935,0.0,0.38945895799999997,1.0,0.561640435,True,,5c94ee77c70dc500019c7f0f,,1316182,104,,evan-feature22,,1
75,2958,105,,,,2,2,0.0,1.0,0.0,-1.0,,0.0-102.0,,-1.0,454.565,1.0,0.601007589,0.0,0.608277141,0.0,0.34376450299999994,1.0,0.470029965,True,,5c94ee77c70dc500019c7f0f,,1326422,105,,evan-feature22,,1
76,2959,106,,,,1,1,0.0,1.0,0.0,-1.0,,0.0-103.0,,-1.0,468.12,0.0,0.646855036,1.0,0.662806372,0.0,0.25660331399999997,0.0,0.519482362,True,,5c94ee77c70dc500019c7f0f,,1336676,106,,evan-feature22,,1
77,2960,107,,,,2,2,1.0,0.0,0.0,-1.0,,0.0-104.0,,0.0,127.58,0.0,0.642867724,1.0,0.632049246,1.0,0.25676069100000004,0.0,0.595191797,True,,5c94ee77c70dc500019c7f0f,,1346594,107,,evan-feature22,,1
78,2961,108,,,,2,2,1.0,1.0,0.0,-1.0,,0.0-105.0,,-1.0,482.885,1.0,0.645698706,1.0,0.606934848,1.0,0.253726265,1.0,0.605564476,True,,5c94ee77c70dc500019c7f0f,,1356865,108,,evan-feature22,,0
79,2962,109,,,,2,2,0.0,0.0,1.0,0.0,,0.0-106.0,,0.0,1193.55,1.0,0.57365172,1.0,0.644616344,0.0,0.235666944,0.0,0.542830548,True,,5c94ee77c70dc500019c7f0f,,1367847,109,,evan-feature22,,0
80,2963,110,,,,2,2,0.0,1.0,0.0,-1.0,,0.0-107.0,,-1.0,532.885,0.0,0.57365172,1.0,0.644616344,0.0,0.235666944,1.0,0.542830548,True,,5c94ee77c70dc500019c7f0f,,1378163,110,,evan-feature22,,0
81,2964,111,,,,1,1,1.0,1.0,0.0,-1.0,,0.0-108.0,,-1.0,246.405,1.0,0.571544656,1.0,0.605228935,1.0,0.254414551,1.0,0.54267317,True,,5c94ee77c70dc500019c7f0f,,1388192,111,,evan-feature22,,1
82,2965,112,,,,1,1,0.0,0.0,0.0,-1.0,,0.0-109.0,,0.0,281.575,0.0,0.594079321,0.0,0.627731245,0.0,0.271045457,1.0,0.498184461,True,,5c94ee77c70dc500019c7f0f,,1398255,112,,evan-feature22,,0
83,2966,113,,,,2,2,1.0,1.0,0.0,-1.0,,0.0-110.0,,-1.0,921.435,0.0,0.581490524,0.0,0.61543522,1.0,0.28679829999999995,1.0,0.47334912100000004,True,,5c94ee77c70dc500019c7f0f,,1408962,113,,evan-feature22,,1
84,2967,114,,,,2,2,0.0,1.0,0.0,-1.0,,0.0-111.0,,-1.0,394.675,0.0,0.508659922,0.0,0.678348122,0.0,0.293557647,1.0,0.436686776,True,,5c94ee77c70dc500019c7f0f,,1419144,114,,evan-feature22,,0
85,2968,115,,,,2,2,0.0,1.0,0.0,-1.0,,0.0-112.0,,-1.0,503.275,1.0,0.548020127,0.0,0.661356152,0.0,0.33939975200000005,1.0,0.43098076,True,,5c94ee77c70dc500019c7f0f,,1429433,115,,evan-feature22,,0
86,2969,116,,,,1,1,1.0,1.0,0.0,-1.0,,0.0-113.0,,-1.0,665.27,1.0,0.502987702,1.0,0.612211104,1.0,0.433915344,0.0,0.42255532700000004,True,,5c94ee77c70dc500019c7f0f,,1439888,116,,evan-feature22,,1
87,2970,117,,,,1,1,1.0,0.0,1.0,0.0,,0.0-114.0,,1.0,387.325,1.0,0.459245451,0.0,0.688192936,0.0,0.45663814700000005,1.0,0.458186455,True,,5c94ee77c70dc500019c7f0f,,1450060,117,,evan-feature22,,0
88,2971,118,,,,2,2,0.0,1.0,0.0,-1.0,,0.0-115.0,,-1.0,435.835,1.0,0.421342325,1.0,0.739800042,0.0,0.42242872299999995,1.0,0.49445062100000003,True,,5c94ee77c70dc500019c7f0f,,1460281,118,,evan-feature22,,1
89,2972,119,,,,1,1,1.0,0.0,0.0,-1.0,,0.0-116.0,,0.0,2512.0,1.0,0.471458304,0.0,0.640586494,0.0,0.412771813,0.0,0.41058669200000003,True,,5c94ee77c70dc500019c7f0f,,1472581,119,,evan-feature22,,1
90,2973,120,,,,2,2,1.0,1.0,1.0,0.0,,0.0-117.0,,1.0,142.445,1.0,0.528101475,1.0,0.657202834,1.0,0.439859203,1.0,0.40676324799999997,True,,5c94ee77c70dc500019c7f0f,,1482511,120,,evan-feature22,,1
91,2974,121,,,,2,2,0.0,1.0,1.0,0.0,,0.0-118.0,,0.0,1008.0,1.0,0.46992311700000006,1.0,0.717492971,0.0,0.46719862100000004,1.0,0.395737313,True,,5c94ee77c70dc500019c7f0f,,1493306,121,,evan-feature22,,0
92,2975,122,,,,2,2,0.0,0.0,0.0,-1.0,,0.0-119.0,,0.0,673.35,1.0,0.543261297,0.0,0.7229893009999999,0.0,0.534165048,0.0,0.44477015,True,,5c94ee77c70dc500019c7f0f,,1503754,122,,evan-feature22,,0
93,2976,123,,,,2,2,0.0,0.0,0.0,-1.0,,0.0-120.0,,0.0,289.11,1.0,0.560921892,1.0,0.77155319,0.0,0.49136644,0.0,0.427878965,True,,5c94ee77c70dc500019c7f0f,,1513826,123,,evan-feature22,,0
94,2977,124,,,,1,1,1.0,1.0,0.0,-1.0,,0.0-121.0,,-1.0,623.495,1.0,0.589437632,1.0,0.7744310520000001,0.0,0.518505645,1.0,0.44518250600000003,True,,5c94ee77c70dc500019c7f0f,,1524240,124,,evan-feature22,,1
95,2978,125,,,,2,2,1.0,0.0,0.0,-1.0,,0.0-122.0,,0.0,564.33,1.0,0.600165861,0.0,0.8,1.0,0.58903051,0.0,0.48487021700000005,True,,5c94ee77c70dc500019c7f0f,,1534594,125,,evan-feature22,,1
96,2979,126,,,,2,2,0.0,1.0,1.0,0.0,,0.0-123.0,,0.0,705.065,0.0,0.541751569,1.0,0.793817715,0.0,0.557327736,1.0,0.555026485,True,,5c94ee77c70dc500019c7f0f,,1545088,126,,evan-feature22,,0
97,2980,127,,,,1,1,0.0,1.0,0.0,-1.0,,0.0-124.0,,-1.0,515.225,0.0,0.522867554,1.0,0.8,0.0,0.608505506,1.0,0.616047291,True,,5c94ee77c70dc500019c7f0f,,1555384,127,,evan-feature22,,1
98,2981,128,,,,2,2,1.0,0.0,1.0,0.0,,0.0-125.0,,1.0,726.78,0.0,0.45351521100000003,1.0,0.78455201,1.0,0.670932262,0.0,0.5934649670000001,True,,5c94ee77c70dc500019c7f0f,,1565894,128,,evan-feature22,,1
99,2982,129,,,,1,1,0.0,0.0,1.0,0.0,,0.0-126.0,,0.0,418.645,0.0,0.450138637,0.0,0.736691069,1.0,0.702905088,1.0,0.596869092,True,,5c94ee77c70dc500019c7f0f,,1576099,129,,evan-feature22,,1
100,2983,130,,,,1,1,0.0,1.0,0.0,-1.0,,0.0-127.0,,-1.0,1062.08,0.0,0.44285792799999996,1.0,0.714711078,1.0,0.649779325,0.0,0.545811756,True,,5c94ee77c70dc500019c7f0f,,1586949,130,,evan-feature22,,0
101,2984,131,,,,2,2,1.0,1.0,0.0,-1.0,,0.0-128.0,,-1.0,582.19,1.0,0.417312257,1.0,0.720948173,1.0,0.691894307,1.0,0.549258578,True,,5c94ee77c70dc500019c7f0f,,1597316,131,,evan-feature22,,1
102,2985,132,,,,1,1,0.0,1.0,0.0,-1.0,,0.0-129.0,,-1.0,343.64,0.0,0.420190754,1.0,0.689348107,1.0,0.705027363,1.0,0.58076903,True,,5c94ee77c70dc500019c7f0f,,1607445,132,,evan-feature22,,1
103,2986,133,,,,2,2,1.0,1.0,0.0,-1.0,,0.0-130.0,,-1.0,567.395,0.0,0.41516356299999996,1.0,0.647513976,1.0,0.726234795,1.0,0.5798618529999999,True,,5c94ee77c70dc500019c7f0f,,1617801,133,,evan-feature22,,1
104,2987,134,,,,1,1,0.0,0.0,0.0,-1.0,,0.0-131.0,,0.0,321.605,0.0,0.46818417,0.0,0.64492679,1.0,0.735142794,1.0,0.558277769,True,,5c94ee77c70dc500019c7f0f,,1627913,134,,evan-feature22,,1
105,2988,135,,,,2,2,1.0,1.0,1.0,0.0,,0.0-132.0,,1.0,505.295,1.0,0.448388753,1.0,0.663704595,1.0,0.7002554809999999,1.0,0.594726058,True,,5c94ee77c70dc500019c7f0f,,1638206,135,,evan-feature22,,1
106,2989,136,,,,1,1,1.0,0.0,0.0,-1.0,,0.0-133.0,,0.0,313.795,1.0,0.42416112200000006,0.0,0.6574395789999999,1.0,0.692158941,0.0,0.595924053,True,,5c94ee77c70dc500019c7f0f,,1648304,136,,evan-feature22,,1
107,2990,137,,,,2,2,1.0,0.0,0.0,-1.0,,0.0-134.0,,0.0,484.055,1.0,0.45058732100000004,0.0,0.6428793979999999,1.0,0.698342934,0.0,0.5357766310000001,True,,5c94ee77c70dc500019c7f0f,,1658565,137,,evan-feature22,,1
108,2992,139,,,,2,2,0.0,0.0,0.0,-1.0,,0.0-136.0,,0.0,359.66,1.0,0.440202744,1.0,0.647931102,0.0,0.699455708,0.0,0.51418479,True,,5c94ee77c70dc500019c7f0f,,1749664,139,,evan-feature22,,0
109,2993,140,,,,SLOW,SLOW,,,0.0,-1.0,,0.0-137.0,,-3.0,,0.0,0.42472282899999997,0.0,0.675537871,1.0,0.634863839,1.0,0.459461854,True,,5c94ee77c70dc500019c7f0f,,1755482,140,,evan-feature22,,1
110,2994,141,,,,1,1,0.0,1.0,0.0,-1.0,,0.0-138.0,,-1.0,82.025,0.0,0.46789738700000005,1.0,0.6667616129999999,0.0,0.557834235,1.0,0.406021707,True,,5c94ee77c70dc500019c7f0f,,1765352,141,,evan-feature22,,1
111,2995,142,,,,2,2,1.0,0.0,1.0,0.0,,0.0-139.0,,1.0,504.41,1.0,0.49108287700000003,0.0,0.696258134,1.0,0.553173036,0.0,0.44230687799999996,True,,5c94ee77c70dc500019c7f0f,,1775643,142,,evan-feature22,,1
112,2996,143,,,,2,2,0.0,1.0,1.0,0.0,,0.0-140.0,,0.0,486.535,0.0,0.434873764,1.0,0.69471374,0.0,0.52567306,1.0,0.451201079,True,,5c94ee77c70dc500019c7f0f,,1785912,143,,evan-feature22,,0
113,2997,144,,,,1,1,1.0,1.0,1.0,0.0,,0.0-141.0,,1.0,151.335,1.0,0.41582855700000004,1.0,0.673983653,0.0,0.600953273,0.0,0.428385991,True,,5c94ee77c70dc500019c7f0f,,1795848,144,,evan-feature22,,1
114,2998,145,,,,1,1,0.0,0.0,0.0,-1.0,,0.0-142.0,,0.0,944.785,0.0,0.37712372899999996,0.0,0.630198112,0.0,0.562734756,1.0,0.407202471,True,,5c94ee77c70dc500019c7f0f,,1806584,145,,evan-feature22,,0
115,2999,146,,,,2,2,1.0,0.0,1.0,0.0,,0.0-143.0,,1.0,441.17,0.0,0.377186155,0.0,0.5959657620000001,1.0,0.52895806,0.0,0.401631361,True,,5c94ee77c70dc500019c7f0f,,1816815,146,,evan-feature22,,1
116,3000,147,,,,2,2,0.0,1.0,1.0,0.0,,0.0-144.0,,0.0,500.09,0.0,0.405178624,1.0,0.624033539,0.0,0.53541358,1.0,0.434812775,True,,5c94ee77c70dc500019c7f0f,,1827098,147,,evan-feature22,,0
117,3001,148,,,,1,1,0.0,1.0,0.0,-1.0,,0.0-145.0,,-1.0,598.5,0.0,0.404718697,1.0,0.653871557,1.0,0.498644573,0.0,0.361797146,True,,5c94ee77c70dc500019c7f0f,,1837486,148,,evan-feature22,,1
118,3002,149,,,,2,2,1.0,0.0,1.0,0.0,,0.0-146.0,,1.0,1237.88,0.0,0.363457837,1.0,0.648906829,1.0,0.48545379299999997,0.0,0.333175953,True,,5c94ee77c70dc500019c7f0f,,1848510,149,,evan-feature22,,1
119,3003,150,,,,1,1,1.0,1.0,1.0,0.0,,0.0-147.0,,1.0,449.79,1.0,0.423884324,1.0,0.651328541,1.0,0.496333188,0.0,0.308923503,True,,5c94ee77c70dc500019c7f0f,,1858746,150,,evan-feature22,,1
120,3004,151,,,,2,2,1.0,0.0,0.0,-1.0,,0.0-148.0,,0.0,660.72,1.0,0.40478004700000003,1.0,0.668069396,1.0,0.530694065,0.0,0.303372258,True,,5c94ee77c70dc500019c7f0f,,1869188,151,,evan-feature22,,1
121,3005,152,,,,2,2,0.0,1.0,0.0,-1.0,,0.0-149.0,,-1.0,337.29,0.0,0.408237701,1.0,0.652244224,0.0,0.494298509,1.0,0.27352694,True,,5c94ee77c70dc500019c7f0f,,1879309,152,,evan-feature22,,0
122,3006,153,,,,1,1,0.0,1.0,1.0,0.0,,0.0-150.0,,0.0,1310.55,0.0,0.43417052100000003,1.0,0.6217031120000001,1.0,0.532882118,0.0,0.366099599,True,,5c94ee77c70dc500019c7f0f,,1890397,153,,evan-feature22,,1
123,3007,154,,,,1,1,1.0,0.0,0.0,-1.0,,0.0-151.0,,0.0,457.445,1.0,0.400114798,0.0,0.64330682,0.0,0.48520862,0.0,0.35037015299999996,True,,5c94ee77c70dc500019c7f0f,,1900633,154,,evan-feature22,,0
124,3008,155,,,,2,2,1.0,1.0,1.0,0.0,,0.0-152.0,,1.0,697.74,0.0,0.43813119700000003,1.0,0.663773443,1.0,0.512595314,1.0,0.38192336299999996,True,,5c94ee77c70dc500019c7f0f,,1911112,155,,evan-feature22,,1
125,3009,156,,,,2,2,0.0,0.0,0.0,-1.0,,0.0-153.0,,0.0,733.5,0.0,0.430197337,1.0,0.650033231,0.0,0.49057549799999994,0.0,0.359341831,True,,5c94ee77c70dc500019c7f0f,,1921626,156,,evan-feature22,,0
126,3010,157,,,,1,1,0.0,1.0,1.0,0.0,,0.0-154.0,,0.0,351.14,0.0,0.416179465,1.0,0.621958212,1.0,0.517879556,0.0,0.399884406,True,,5c94ee77c70dc500019c7f0f,,1931755,157,,evan-feature22,,1
127,3011,158,,,,2,2,0.0,0.0,0.0,-1.0,,0.0-155.0,,0.0,370.605,0.0,0.409186383,1.0,0.619469024,0.0,0.548536182,0.0,0.443160476,True,,5c94ee77c70dc500019c7f0f,,1941915,158,,evan-feature22,,1
128,3012,159,,,,1,1,1.0,0.0,0.0,-1.0,,0.0-156.0,,0.0,515.86,1.0,0.40319599700000003,0.0,0.622009579,0.0,0.518893608,1.0,0.446572471,True,,5c94ee77c70dc500019c7f0f,,1952214,159,,evan-feature22,,1
129,3013,160,,,,2,2,1.0,0.0,0.0,-1.0,,0.0-157.0,,0.0,438.505,0.0,0.395386991,1.0,0.5485572360000001,1.0,0.59630008,0.0,0.5223318060000001,True,,5c94ee77c70dc500019c7f0f,,1962434,160,,evan-feature22,,1
130,3014,161,,,,2,2,1.0,1.0,1.0,0.0,,0.0-158.0,,1.0,770.595,1.0,0.44115573,0.0,0.51147772,1.0,0.505130314,1.0,0.515364918,True,,5c94ee77c70dc500019c7f0f,,1972992,161,,evan-feature22,,0
131,3015,162,,,,1,1,0.0,0.0,1.0,0.0,,0.0-159.0,,0.0,418.9,0.0,0.481465132,0.0,0.469505158,0.0,0.503556947,0.0,0.5412637,True,,5c94ee77c70dc500019c7f0f,,1983199,162,,evan-feature22,,1
132,3016,163,,,,2,2,1.0,0.0,1.0,0.0,,0.0-160.0,,1.0,204.05,1.0,0.409059378,0.0,0.42457706799999995,1.0,0.524588487,0.0,0.559907526,True,,5c94ee77c70dc500019c7f0f,,1993189,163,,evan-feature22,,1
133,3017,164,,,,1,1,0.0,0.0,0.0,-1.0,,0.0-161.0,,0.0,368.395,0.0,0.477684421,0.0,0.404895864,1.0,0.468799653,1.0,0.56906593,True,,5c94ee77c70dc500019c7f0f,,2003341,164,,evan-feature22,,1
134,3018,165,,,,2,2,0.0,0.0,0.0,-1.0,,0.0-162.0,,0.0,614.42,1.0,0.433077372,1.0,0.373753255,0.0,0.504699014,0.0,0.503739023,True,,5c94ee77c70dc500019c7f0f,,2013736,165,,evan-feature22,,1
135,3019,166,,,,1,1,0.0,0.0,0.0,-1.0,,0.0-163.0,,0.0,1010.905,0.0,0.450233393,0.0,0.34782878799999994,0.0,0.519377428,0.0,0.459960231,True,,5c94ee77c70dc500019c7f0f,,2024533,166,,evan-feature22,,1
136,3020,167,,,,1,1,0.0,0.0,1.0,0.0,,0.0-164.0,,0.0,389.905,0.0,0.41756724700000003,0.0,0.38393217,1.0,0.514983777,0.0,0.443744598,True,,5c94ee77c70dc500019c7f0f,,2034708,167,,evan-feature22,,0
137,3021,168,,,,2,2,1.0,1.0,0.0,-1.0,,0.0-165.0,,-1.0,375.235,0.0,0.452958907,1.0,0.371002723,1.0,0.518114176,1.0,0.46633015,True,,5c94ee77c70dc500019c7f0f,,2044862,168,,evan-feature22,,1
138,3022,169,,,,SLOW,SLOW,,,0.0,-1.0,,0.0-166.0,,-3.0,,0.0,0.455702623,0.0,0.315954408,1.0,0.572320188,0.0,0.508909504,True,,5c94ee77c70dc500019c7f0f,,2050669,169,,evan-feature22,,1
139,3023,170,,,,2,2,0.0,0.0,0.0,-1.0,,0.0-167.0,,0.0,205.09,1.0,0.491313581,0.0,0.23993336899999998,0.0,0.570199715,0.0,0.51473836,True,,5c94ee77c70dc500019c7f0f,,2060651,170,,evan-feature22,,1
140,3024,171,,,,2,2,0.0,0.0,1.0,0.0,,0.0-168.0,,0.0,307.53,1.0,0.484298936,0.0,0.272504197,0.0,0.5551308220000001,0.0,0.523038425,True,,5c94ee77c70dc500019c7f0f,,2070738,171,,evan-feature22,,0
141,3025,172,,,,1,1,0.0,1.0,0.0,-1.0,,0.0-169.0,,-1.0,789.67,0.0,0.528381235,1.0,0.28023429,1.0,0.5394623270000001,1.0,0.504301989,True,,5c94ee77c70dc500019c7f0f,,2081316,172,,evan-feature22,,1
142,3026,173,,,,2,2,1.0,0.0,0.0,-1.0,,0.0-170.0,,0.0,709.15,1.0,0.524592254,0.0,0.339136603,1.0,0.519993692,0.0,0.489381881,True,,5c94ee77c70dc500019c7f0f,,2091815,173,,evan-feature22,,1
143,3027,174,,,,1,1,0.0,0.0,1.0,0.0,,0.0-171.0,,0.0,404.935,0.0,0.53960939,0.0,0.333467381,0.0,0.599370383,1.0,0.45892218799999995,True,,5c94ee77c70dc500019c7f0f,,2102002,174,,evan-feature22,,1
144,3028,175,,,,2,2,1.0,1.0,1.0,0.0,,0.0-172.0,,1.0,462.71,0.0,0.518775918,1.0,0.369047819,1.0,0.6069025779999999,1.0,0.523049137,True,,5c94ee77c70dc500019c7f0f,,2112250,175,,evan-feature22,,1
145,3029,176,,,,1,1,1.0,0.0,1.0,0.0,,0.0-173.0,,1.0,542.565,1.0,0.5158566,0.0,0.303652601,1.0,0.6015122039999999,1.0,0.574601328,True,,5c94ee77c70dc500019c7f0f,,2122581,176,,evan-feature22,,1
146,3030,177,,,,2,2,1.0,0.0,0.0,-1.0,,0.0-174.0,,0.0,346.99,1.0,0.505585493,1.0,0.308345924,1.0,0.632117198,0.0,0.5558155339999999,True,,5c94ee77c70dc500019c7f0f,,2132709,177,,evan-feature22,,1
147,3031,178,,,,1,1,0.0,0.0,0.0,-1.0,,0.0-175.0,,0.0,563.14,0.0,0.5595435670000001,0.0,0.340395712,1.0,0.636974751,1.0,0.503532934,True,,5c94ee77c70dc500019c7f0f,,2143055,178,,evan-feature22,,1
148,3032,179,,,,1,1,0.0,0.0,0.0,-1.0,,0.0-176.0,,0.0,88.575,0.0,0.5587993720000001,0.0,0.359748544,0.0,0.554097844,1.0,0.472189123,True,,5c94ee77c70dc500019c7f0f,,2152933,179,,evan-feature22,,0
149,3033,180,,,,2,2,1.0,1.0,0.0,-1.0,,0.0-177.0,,-1.0,554.625,1.0,0.480072877,0.0,0.362302106,1.0,0.600846495,1.0,0.43725304200000004,True,,5c94ee77c70dc500019c7f0f,,2163273,180,,evan-feature22,,1
150,3034,181,,,,2,2,1.0,0.0,1.0,0.0,,0.0-178.0,,1.0,245.99,0.0,0.511210085,0.0,0.401676175,1.0,0.622052944,0.0,0.39175359200000004,True,,5c94ee77c70dc500019c7f0f,,2173299,181,,evan-feature22,,0
151,3035,182,,,,1,1,1.0,0.0,0.0,-1.0,,0.0-179.0,,0.0,465.925,1.0,0.554470352,0.0,0.379424096,1.0,0.625581595,0.0,0.288670951,True,,5c94ee77c70dc500019c7f0f,,2183557,182,,evan-feature22,,1
152,3036,183,,,,2,2,1.0,0.0,1.0,0.0,,0.0-180.0,,1.0,121.6,0.0,0.627627927,0.0,0.305241403,1.0,0.604387985,0.0,0.291361327,True,,5c94ee77c70dc500019c7f0f,,2193461,183,,evan-feature22,,1
153,3037,184,,,,2,2,1.0,0.0,1.0,0.0,,0.0-181.0,,1.0,224.85,1.0,0.6759914229999999,0.0,0.300284541,1.0,0.558798166,0.0,0.24435394600000002,True,,5c94ee77c70dc500019c7f0f,,2203476,184,,evan-feature22,,0
154,3038,185,,,,1,1,0.0,0.0,0.0,-1.0,,0.0-182.0,,0.0,897.415,0.0,0.7172655040000001,0.0,0.28624910800000003,1.0,0.50383286,1.0,0.25705046800000003,True,,5c94ee77c70dc500019c7f0f,,2214163,185,,evan-feature22,,1
155,3039,186,,,,2,2,0.0,0.0,0.0,-1.0,,0.0-183.0,,0.0,531.16,1.0,0.74495062,0.0,0.28039269899999997,0.0,0.477457466,0.0,0.27478247699999997,True,,5c94ee77c70dc500019c7f0f,,2224483,186,,evan-feature22,,1
156,3040,187,,,,2,2,1.0,0.0,0.0,-1.0,,0.0-184.0,,0.0,418.16,1.0,0.759426302,0.0,0.34576272799999996,1.0,0.48707786399999997,0.0,0.29224327899999997,True,,5c94ee77c70dc500019c7f0f,,2234691,187,,evan-feature22,,0
157,3041,188,,,,1,1,1.0,0.0,0.0,-1.0,,0.0-185.0,,0.0,530.02,1.0,0.699175667,0.0,0.342105414,0.0,0.561402254,1.0,0.316565075,True,,5c94ee77c70dc500019c7f0f,,2245011,188,,evan-feature22,,1
158,3042,189,,,,1,1,1.0,1.0,0.0,-1.0,,0.0-186.0,,-1.0,345.64,1.0,0.631985397,1.0,0.307880471,0.0,0.570750211,1.0,0.31001761699999997,True,,5c94ee77c70dc500019c7f0f,,2255147,189,,evan-feature22,,0
159,3043,190,,,,2,2,1.0,0.0,0.0,-1.0,,0.0-187.0,,0.0,433.22,0.0,0.6,0.0,0.3,1.0,0.6,0.0,0.3,True,,5c94ee77c70dc500019c7f0f,,2265370,190,,evan-feature22,,1
160,3044,191,notice,,,,,,,,,,0.0-188.0,"{""Q0"":""Felt like no matter the decision I was unable to obtain minerals""}",,32154.0,,,,,,,,,True,,5c94ee77c70dc500019c7f0f,,2297525,191,Q,survey-text,,1
161,3045,192,track1,,[1],,,,,,,,0.0-189.0,"{""Q0"":""no""}",,3600.0,,,,,,,,,True,,5c94ee77c70dc500019c7f0f,,2301128,192,Q,evan-quiz,,1
162,3046,193,track2,,[1],,,,,,,,0.0-190.0,"{""Q0"":""no""}",,9888.0,,,,,,,,,True,,5c94ee77c70dc500019c7f0f,,2311018,193,Q,evan-quiz,,1
163,3047,194,strat,,,,,,,,,,0.0-191.0,"{""Q0"":""Tried to follow a pattern of where I thought the aliens might be""}",,20333.0,,,,,,,,,True,,5c94ee77c70dc500019c7f0f,,2331353,194,Q,survey-text,,1
