,index,Unnamed: 0,Q_name,button_pressed,choice_idxs,chosen_pos,chosen_state,chosen_state_f_1_outcome,chosen_state_f_2_outcome,f_1_reward,f_2_reward,incor_questions,internal_node_id,responses,reward_received,rt,s_1_f_1_outcome,s_1_f_1_prob,s_1_f_2_outcome,s_1_f_2_prob,s_2_f_1_outcome,s_2_f_1_prob,s_2_f_2_outcome,s_2_f_2_prob,safe_first,stimulus,subjectID,success,time_elapsed,trial_index,trial_num,trial_type,view_history,switching
0,1378,24,,,,1,1,1.0,1.0,0.0,-1.0,,0.0-26.0,,-1.0,1198.8,1.0,0.6,1.0,0.4,0.0,0.4,1.0,0.6,False,,5f179c9df58992147642ac71,,795316,24,,evan-feature22,,0
1,1379,25,,,,1,1,0.0,0.0,0.0,-1.0,,0.0-27.0,,0.0,706.7,0.0,0.625928423,0.0,0.395903568,0.0,0.416361855,0.0,0.636279196,False,,5f179c9df58992147642ac71,,805801,25,,evan-feature22,,0
2,1380,26,,,,1,1,1.0,1.0,0.0,-1.0,,0.0-28.0,,-1.0,749.68,1.0,0.632185889,1.0,0.37940999700000005,0.0,0.510461374,1.0,0.636053735,False,,5f179c9df58992147642ac71,,816320,26,,evan-feature22,,0
3,1381,27,,,,1,1,1.0,1.0,0.0,-1.0,,0.0-29.0,,-1.0,468.01,1.0,0.650098956,1.0,0.437690015,1.0,0.513165207,0.0,0.594219782,False,,5f179c9df58992147642ac71,,826566,27,,evan-feature22,,0
4,1382,28,,,,2,2,1.0,0.0,0.0,-1.0,,0.0-30.0,,0.0,266.525,0.0,0.718427004,1.0,0.461759895,1.0,0.466591374,0.0,0.557006706,False,,5f179c9df58992147642ac71,,836610,28,,evan-feature22,,1
5,1383,29,,,,2,2,0.0,1.0,0.0,-1.0,,0.0-31.0,,-1.0,873.135,0.0,0.762929561,0.0,0.48747529100000003,0.0,0.43772942299999995,1.0,0.574463924,False,,5f179c9df58992147642ac71,,847262,29,,evan-feature22,,0
6,1384,30,,,,1,1,1.0,1.0,0.0,-1.0,,0.0-32.0,,-1.0,500.185,1.0,0.763717037,1.0,0.435099549,1.0,0.465087572,1.0,0.60565513,False,,5f179c9df58992147642ac71,,857534,30,,evan-feature22,,1
7,1385,31,,,,1,1,1.0,0.0,1.0,0.0,,0.0-33.0,,1.0,394.35,1.0,0.77229152,0.0,0.364439775,0.0,0.401053115,1.0,0.658123444,False,,5f179c9df58992147642ac71,,867704,31,,evan-feature22,,0
8,1386,32,,,,1,1,0.0,1.0,0.0,-1.0,,0.0-34.0,,-1.0,101.6599999,0.0,0.744772498,1.0,0.35348662700000005,0.0,0.357677552,1.0,0.6504213670000001,False,,5f179c9df58992147642ac71,,877583,32,,evan-feature22,,0
9,1387,33,,,,2,2,0.0,0.0,0.0,-1.0,,0.0-35.0,,0.0,325.2000001,1.0,0.674079628,1.0,0.34184177200000004,0.0,0.36487888399999996,0.0,0.720326902,False,,5f179c9df58992147642ac71,,887683,33,,evan-feature22,,1
10,1388,34,,,,2,2,0.0,1.0,1.0,0.0,,0.0-36.0,,0.0,518.21,1.0,0.661527729,0.0,0.347257661,0.0,0.301580406,1.0,0.7572792209999999,False,,5f179c9df58992147642ac71,,897977,34,,evan-feature22,,0
11,1389,35,,,,1,1,0.0,1.0,1.0,0.0,,0.0-37.0,,0.0,688.495,0.0,0.660815217,1.0,0.37948954700000004,0.0,0.266362694,0.0,0.8,False,,5f179c9df58992147642ac71,,908444,35,,evan-feature22,,1
12,1390,36,,,,2,2,0.0,1.0,0.0,-1.0,,0.0-38.0,,-1.0,78.07000005,1.0,0.645840989,0.0,0.303961219,0.0,0.22727662199999998,1.0,0.8,False,,5f179c9df58992147642ac71,,918295,36,,evan-feature22,,1
13,1391,37,,,,1,1,0.0,0.0,0.0,-1.0,,0.0-39.0,,0.0,408.575,0.0,0.653475024,0.0,0.330387001,0.0,0.216413453,1.0,0.761410571,False,,5f179c9df58992147642ac71,,928475,37,,evan-feature22,,1
14,1392,38,,,,1,1,0.0,0.0,0.0,-1.0,,0.0-40.0,,0.0,194.1750001,0.0,0.641284007,0.0,0.3333084,0.0,0.240310726,1.0,0.8,False,,5f179c9df58992147642ac71,,938445,38,,evan-feature22,,0
15,1393,39,,,,1,1,0.0,1.0,0.0,-1.0,,0.0-41.0,,-1.0,448.15,0.0,0.613358121,1.0,0.297219209,0.0,0.298906785,0.0,0.781296249,False,,5f179c9df58992147642ac71,,948667,39,,evan-feature22,,0
16,1394,40,,,,2,2,0.0,1.0,1.0,0.0,,0.0-42.0,,0.0,21.14499989,1.0,0.560222979,0.0,0.260871998,0.0,0.246708996,1.0,0.7928309459999999,False,,5f179c9df58992147642ac71,,958468,40,,evan-feature22,,1
17,1395,41,,,,1,1,0.0,0.0,0.0,-1.0,,0.0-43.0,,0.0,149.02,0.0,0.5369121339999999,0.0,0.250417104,0.0,0.2,1.0,0.765101149,False,,5f179c9df58992147642ac71,,968388,41,,evan-feature22,,1
18,1396,42,,,,1,1,0.0,0.0,1.0,0.0,,0.0-44.0,,0.0,396.77,0.0,0.49919695,0.0,0.2,0.0,0.2,0.0,0.773279061,False,,5f179c9df58992147642ac71,,978559,42,,evan-feature22,,0
19,1397,43,,,,1,1,0.0,0.0,1.0,0.0,,0.0-45.0,,0.0,462.54,0.0,0.459627509,0.0,0.21221690899999998,0.0,0.2,0.0,0.662061311,False,,5f179c9df58992147642ac71,,988795,43,,evan-feature22,,0
20,1398,44,,,,1,1,1.0,0.0,0.0,-1.0,,0.0-46.0,,0.0,313.2849999,1.0,0.417845724,0.0,0.22682277,1.0,0.2,0.0,0.709165356,False,,5f179c9df58992147642ac71,,998869,44,,evan-feature22,,0
21,1399,45,,,,1,1,0.0,0.0,0.0,-1.0,,0.0-47.0,,0.0,403.0,0.0,0.494962775,0.0,0.2,0.0,0.2,1.0,0.716798403,False,,5f179c9df58992147642ac71,,1009047,45,,evan-feature22,,0
22,1400,46,,,,1,1,0.0,0.0,0.0,-1.0,,0.0-48.0,,0.0,2458.895,0.0,0.5455069579999999,0.0,0.23543751300000001,0.0,0.2,1.0,0.645567591,False,,5f179c9df58992147642ac71,,1021272,46,,evan-feature22,,0
23,1401,47,,,,1,1,1.0,0.0,0.0,-1.0,,0.0-49.0,,0.0,362.33,1.0,0.5888472370000001,0.0,0.274305745,1.0,0.2,1.0,0.6470111129999999,False,,5f179c9df58992147642ac71,,1031406,47,,evan-feature22,,0
24,1402,48,,,,1,1,0.0,0.0,0.0,-1.0,,0.0-50.0,,0.0,454.3,0.0,0.541102968,0.0,0.22645371,0.0,0.236325635,1.0,0.667273806,False,,5f179c9df58992147642ac71,,1041635,48,,evan-feature22,,0
25,1403,49,,,,1,1,0.0,0.0,1.0,0.0,,0.0-51.0,,0.0,728.58,0.0,0.490387594,0.0,0.2,0.0,0.209906961,0.0,0.658487389,False,,5f179c9df58992147642ac71,,1052132,49,,evan-feature22,,0
26,1404,50,,,,1,1,1.0,1.0,0.0,-1.0,,0.0-52.0,,-1.0,724.7,1.0,0.549336464,1.0,0.223311399,0.0,0.21542726899999998,1.0,0.699424853,False,,5f179c9df58992147642ac71,,1062627,50,,evan-feature22,,0
27,1405,51,,,,1,1,1.0,0.0,0.0,-1.0,,0.0-53.0,,0.0,26.97999997,1.0,0.616387033,0.0,0.242050882,1.0,0.236831238,0.0,0.660702856,False,,5f179c9df58992147642ac71,,1072434,51,,evan-feature22,,0
28,1406,52,,,,1,1,1.0,0.0,0.0,-1.0,,0.0-54.0,,0.0,495.855,1.0,0.632533083,0.0,0.236756329,1.0,0.239558776,1.0,0.626572575,False,,5f179c9df58992147642ac71,,1082706,52,,evan-feature22,,0
29,1407,53,,,,2,2,0.0,0.0,0.0,-1.0,,0.0-55.0,,0.0,884.005,1.0,0.585128523,0.0,0.21108512699999998,0.0,0.242964243,0.0,0.646247017,False,,5f179c9df58992147642ac71,,1093362,53,,evan-feature22,,1
30,1408,54,,,,2,2,0.0,0.0,0.0,-1.0,,0.0-56.0,,0.0,1549.87,0.0,0.631279052,0.0,0.208261881,0.0,0.2,0.0,0.598661374,False,,5f179c9df58992147642ac71,,1104679,54,,evan-feature22,,0
31,1409,55,,,,1,1,1.0,0.0,1.0,0.0,,0.0-57.0,,1.0,496.9349999,1.0,0.645601188,0.0,0.2,1.0,0.2,1.0,0.604309462,False,,5f179c9df58992147642ac71,,1114951,55,,evan-feature22,,1
32,1410,56,,,,1,1,1.0,0.0,1.0,0.0,,0.0-58.0,,1.0,710.3599998999999,1.0,0.618753278,0.0,0.2,0.0,0.2,1.0,0.59705541,False,,5f179c9df58992147642ac71,,1125441,56,,evan-feature22,,0
33,1411,57,,,,1,1,1.0,0.0,1.0,0.0,,0.0-59.0,,1.0,833.95,1.0,0.62382752,0.0,0.2,1.0,0.22363604899999998,0.0,0.6268096089999999,False,,5f179c9df58992147642ac71,,1136042,57,,evan-feature22,,0
34,1412,58,,,,1,1,1.0,1.0,0.0,-1.0,,0.0-60.0,,-1.0,3318.03,1.0,0.673200992,1.0,0.2,0.0,0.24014272899999997,1.0,0.610360914,False,,5f179c9df58992147642ac71,,1149135,58,,evan-feature22,,0
35,1413,59,,,,2,2,0.0,1.0,1.0,0.0,,0.0-61.0,,0.0,197.4749999,1.0,0.610898111,0.0,0.250157064,0.0,0.25088427399999996,1.0,0.664171968,False,,5f179c9df58992147642ac71,,1159109,59,,evan-feature22,,1
36,1414,60,,,,1,1,1.0,0.0,1.0,0.0,,0.0-62.0,,1.0,809.3600001,1.0,0.598301898,0.0,0.248311053,1.0,0.296388488,0.0,0.63425056,False,,5f179c9df58992147642ac71,,1169696,60,,evan-feature22,,1
37,1415,61,,,,1,1,0.0,0.0,0.0,-1.0,,0.0-63.0,,0.0,463.78,0.0,0.588894116,0.0,0.256357363,0.0,0.25300305100000003,0.0,0.5520326010000001,False,,5f179c9df58992147642ac71,,1179933,61,,evan-feature22,,0
38,1416,62,,,,1,1,1.0,1.0,1.0,0.0,,0.0-64.0,,1.0,415.54,1.0,0.568426,1.0,0.236770987,0.0,0.303107977,1.0,0.515870586,False,,5f179c9df58992147642ac71,,1190127,62,,evan-feature22,,0
39,1417,63,,,,1,1,1.0,0.0,1.0,0.0,,0.0-65.0,,1.0,1189.435,1.0,0.5790148829999999,0.0,0.22121494600000002,0.0,0.302005511,1.0,0.5441517579999999,False,,5f179c9df58992147642ac71,,1201093,63,,evan-feature22,,0
40,1418,64,,,,1,1,1.0,0.0,0.0,-1.0,,0.0-66.0,,0.0,1264.395,1.0,0.565697181,0.0,0.21691092399999998,0.0,0.329714007,0.0,0.548125478,False,,5f179c9df58992147642ac71,,1212129,64,,evan-feature22,,0
41,1419,65,,,,1,1,1.0,0.0,0.0,-1.0,,0.0-67.0,,0.0,1267.675,1.0,0.557218295,0.0,0.23527572600000002,0.0,0.31028033899999996,0.0,0.601635125,False,,5f179c9df58992147642ac71,,1223175,65,,evan-feature22,,0
42,1420,66,,,,1,1,0.0,0.0,1.0,0.0,,0.0-68.0,,0.0,1195.21,0.0,0.503661609,0.0,0.316001204,0.0,0.35906509700000006,0.0,0.606103889,False,,5f179c9df58992147642ac71,,1234142,66,,evan-feature22,,0
43,1421,67,,,,1,1,0.0,0.0,0.0,-1.0,,0.0-69.0,,0.0,2098.89,0.0,0.52124269,0.0,0.24774441100000003,1.0,0.336491959,0.0,0.569669564,False,,5f179c9df58992147642ac71,,1246014,67,,evan-feature22,,0
44,1422,68,,,,2,2,0.0,1.0,1.0,0.0,,0.0-70.0,,0.0,1193.585,0.0,0.47671529100000004,1.0,0.252307362,0.0,0.361290845,1.0,0.6965526540000001,False,,5f179c9df58992147642ac71,,1256983,68,,evan-feature22,,1
45,1423,69,,,,1,1,0.0,0.0,0.0,-1.0,,0.0-71.0,,0.0,2600.465,0.0,0.522125232,0.0,0.26365262300000003,1.0,0.416704449,1.0,0.757101488,False,,5f179c9df58992147642ac71,,1269356,69,,evan-feature22,,1
46,1424,70,,,,1,1,1.0,1.0,1.0,0.0,,0.0-72.0,,1.0,1816.325,1.0,0.5309092470000001,1.0,0.285803841,0.0,0.349236593,1.0,0.7431302329999999,False,,5f179c9df58992147642ac71,,1280953,70,,evan-feature22,,0
47,1425,71,,,,1,1,0.0,0.0,0.0,-1.0,,0.0-73.0,,0.0,743.4250001,0.0,0.491973806,0.0,0.274503571,0.0,0.38717547799999996,1.0,0.796399836,False,,5f179c9df58992147642ac71,,1291470,71,,evan-feature22,,0
48,1426,72,,,,1,1,1.0,0.0,0.0,-1.0,,0.0-74.0,,0.0,976.715,1.0,0.44033582200000004,0.0,0.284677433,0.0,0.362895033,1.0,0.8,False,,5f179c9df58992147642ac71,,1302224,72,,evan-feature22,,0
49,1427,73,,,,1,1,0.0,0.0,0.0,-1.0,,0.0-75.0,,0.0,2434.71,0.0,0.47907450100000004,0.0,0.294004891,0.0,0.29810176899999996,1.0,0.8,False,,5f179c9df58992147642ac71,,1314434,73,,evan-feature22,,0
50,1428,74,,,,1,1,0.0,0.0,1.0,0.0,,0.0-76.0,,0.0,1538.925,0.0,0.49324470000000004,0.0,0.209806217,0.0,0.34910548700000005,0.0,0.7685303929999999,False,,5f179c9df58992147642ac71,,1325750,74,,evan-feature22,,0
51,1429,75,,,,1,1,0.0,0.0,1.0,0.0,,0.0-77.0,,0.0,1068.125,0.0,0.478325964,0.0,0.232650109,0.0,0.397575193,1.0,0.759970785,False,,5f179c9df58992147642ac71,,1336589,75,,evan-feature22,,0
52,1430,76,,,,1,1,1.0,0.0,1.0,0.0,,0.0-78.0,,1.0,1697.365,1.0,0.495116819,0.0,0.262830049,0.0,0.395442465,0.0,0.757900997,False,,5f179c9df58992147642ac71,,1348066,76,,evan-feature22,,0
53,1431,77,,,,1,1,0.0,1.0,0.0,-1.0,,0.0-79.0,,-1.0,1203.53,0.0,0.46826402,1.0,0.299520002,0.0,0.36789765799999996,1.0,0.8,False,,5f179c9df58992147642ac71,,1359048,77,,evan-feature22,,0
54,1433,79,,,,1,1,0.0,0.0,0.0,-1.0,,0.0-81.0,,0.0,117.2150001,0.0,0.429692185,0.0,0.290259512,1.0,0.38417303,1.0,0.8,False,,5f179c9df58992147642ac71,,1370657,79,,evan-feature22,,0
55,1434,80,,,,1,1,0.0,0.0,0.0,-1.0,,0.0-82.0,,0.0,880.935,0.0,0.448544348,0.0,0.21890246300000002,0.0,0.35912113100000004,0.0,0.8,False,,5f179c9df58992147642ac71,,1381317,80,,evan-feature22,,0
56,1435,81,,,,1,1,0.0,1.0,1.0,0.0,,0.0-83.0,,0.0,365.855,0.0,0.40463424299999995,1.0,0.2,1.0,0.331168384,0.0,0.8,False,,5f179c9df58992147642ac71,,1391457,81,,evan-feature22,,0
57,1436,82,,,,2,2,0.0,1.0,0.0,-1.0,,0.0-84.0,,-1.0,1011.59,1.0,0.460808469,1.0,0.226932935,0.0,0.426844185,1.0,0.7791585740000001,False,,5f179c9df58992147642ac71,,1402238,82,,evan-feature22,,1
58,1437,83,,,,2,2,1.0,0.0,0.0,-1.0,,0.0-85.0,,0.0,927.5400001,0.0,0.5073287479999999,1.0,0.22562859600000001,1.0,0.491272617,0.0,0.779171318,False,,5f179c9df58992147642ac71,,1412943,83,,evan-feature22,,0
59,1438,84,,,,2,2,1.0,1.0,0.0,-1.0,,0.0-86.0,,-1.0,733.6500001,1.0,0.475398868,0.0,0.210546691,1.0,0.548946291,1.0,0.8,False,,5f179c9df58992147642ac71,,1423452,84,,evan-feature22,,0
60,1439,85,,,,1,1,1.0,0.0,1.0,0.0,,0.0-87.0,,1.0,9.545000037000001,1.0,0.5773669579999999,0.0,0.210025267,1.0,0.517663827,1.0,0.667149461,False,,5f179c9df58992147642ac71,,1433241,85,,evan-feature22,,1
61,1440,86,,,,1,1,1.0,0.0,0.0,-1.0,,0.0-88.0,,0.0,1417.45,1.0,0.59689526,0.0,0.2,1.0,0.457089543,0.0,0.695501237,False,,5f179c9df58992147642ac71,,1444439,86,,evan-feature22,,0
62,1441,87,,,,1,1,0.0,0.0,0.0,-1.0,,0.0-89.0,,0.0,865.8350001,0.0,0.634631385,0.0,0.2,0.0,0.424596711,1.0,0.677506484,False,,5f179c9df58992147642ac71,,1455080,87,,evan-feature22,,0
63,1442,88,,,,1,1,0.0,0.0,1.0,0.0,,0.0-90.0,,0.0,280.105,0.0,0.65654557,0.0,0.22193470199999998,0.0,0.445639003,1.0,0.673381668,False,,5f179c9df58992147642ac71,,1465132,88,,evan-feature22,,0
64,1443,89,,,,1,1,0.0,0.0,1.0,0.0,,0.0-91.0,,0.0,466.8150001,0.0,0.681977797,0.0,0.242148743,0.0,0.49386645100000004,1.0,0.662437964,False,,5f179c9df58992147642ac71,,1475368,89,,evan-feature22,,0
65,1444,90,,,,1,1,0.0,1.0,1.0,0.0,,0.0-92.0,,0.0,2219.875,0.0,0.650328273,1.0,0.20706394,0.0,0.470045369,0.0,0.691556057,False,,5f179c9df58992147642ac71,,1487370,90,,evan-feature22,,0
66,1445,91,,,,1,1,0.0,0.0,0.0,-1.0,,0.0-93.0,,0.0,168.11000009999998,0.0,0.652406904,0.0,0.2,1.0,0.46602527,1.0,0.718680015,False,,5f179c9df58992147642ac71,,1497304,91,,evan-feature22,,0
67,1446,92,,,,1,1,1.0,0.0,0.0,-1.0,,0.0-94.0,,0.0,367.79,1.0,0.618106018,0.0,0.21862797,0.0,0.49471872299999997,1.0,0.771952271,False,,5f179c9df58992147642ac71,,1507444,92,,evan-feature22,,0
68,1447,93,,,,1,1,1.0,0.0,0.0,-1.0,,0.0-95.0,,0.0,936.2,1.0,0.61569103,0.0,0.257594422,1.0,0.514741772,0.0,0.750874695,False,,5f179c9df58992147642ac71,,1518155,93,,evan-feature22,,0
69,1448,94,,,,1,1,0.0,0.0,0.0,-1.0,,0.0-96.0,,0.0,427.77,0.0,0.598889253,0.0,0.32643588,0.0,0.573899692,1.0,0.765464495,False,,5f179c9df58992147642ac71,,1528362,94,,evan-feature22,,0
70,1449,95,,,,SLOW,SLOW,,,1.0,0.0,,0.0-97.0,,-3.0,,0.0,0.604148234,0.0,0.31179723,1.0,0.6050845429999999,1.0,0.717556355,False,,5f179c9df58992147642ac71,,1535460,95,,evan-feature22,,1
71,1450,96,,,,SLOW,SLOW,,,0.0,-1.0,,0.0-98.0,,-3.0,,1.0,0.60914345,1.0,0.304089194,0.0,0.587413745,1.0,0.7625107859999999,False,,5f179c9df58992147642ac71,,1541345,96,,evan-feature22,,0
72,1451,97,,,,1,1,0.0,0.0,1.0,0.0,,0.0-99.0,,0.0,358.07999989999996,0.0,0.556011004,0.0,0.297212656,0.0,0.615215204,1.0,0.688835497,False,,5f179c9df58992147642ac71,,1551483,97,,evan-feature22,,1
73,1452,98,,,,1,1,1.0,1.0,1.0,0.0,,0.0-100.0,,1.0,554.3249999,1.0,0.538989836,1.0,0.259288265,0.0,0.63117526,1.0,0.622387272,False,,5f179c9df58992147642ac71,,1561815,98,,evan-feature22,,0
74,1453,99,,,,1,1,0.0,0.0,0.0,-1.0,,0.0-101.0,,0.0,716.44,0.0,0.477391925,0.0,0.286964716,0.0,0.607192834,1.0,0.630914953,False,,5f179c9df58992147642ac71,,1572315,99,,evan-feature22,,0
75,1454,100,,,,1,1,0.0,0.0,0.0,-1.0,,0.0-102.0,,0.0,483.98500010000004,0.0,0.481844581,0.0,0.318018092,1.0,0.606517823,1.0,0.554718886,False,,5f179c9df58992147642ac71,,1582565,100,,evan-feature22,,0
76,1455,101,,,,1,1,1.0,1.0,0.0,-1.0,,0.0-103.0,,-1.0,576.34,1.0,0.5468073529999999,1.0,0.271400321,1.0,0.611358728,1.0,0.583214152,False,,5f179c9df58992147642ac71,,1592923,101,,evan-feature22,,0
77,1456,102,,,,1,1,0.0,0.0,0.0,-1.0,,0.0-104.0,,0.0,373.0200001,0.0,0.559747181,0.0,0.2,1.0,0.6020122929999999,1.0,0.59294636,False,,5f179c9df58992147642ac71,,1603067,102,,evan-feature22,,0
78,1457,103,,,,2,2,1.0,0.0,0.0,-1.0,,0.0-105.0,,0.0,1798.45,1.0,0.50773535,0.0,0.2,1.0,0.627190004,0.0,0.57015433,False,,5f179c9df58992147642ac71,,1614639,103,,evan-feature22,,1
79,1458,104,,,,2,2,1.0,1.0,0.0,-1.0,,0.0-106.0,,-1.0,871.73,1.0,0.517936872,0.0,0.24316099,1.0,0.5932536970000001,1.0,0.59982907,False,,5f179c9df58992147642ac71,,1625287,104,,evan-feature22,,0
80,1459,105,,,,1,1,0.0,0.0,1.0,0.0,,0.0-107.0,,0.0,67.23000004,0.0,0.517936872,0.0,0.24316099,0.0,0.5932536970000001,1.0,0.59982907,False,,5f179c9df58992147642ac71,,1635122,105,,evan-feature22,,1
81,1460,106,,,,1,1,1.0,1.0,1.0,0.0,,0.0-108.0,,1.0,1896.32,1.0,0.5454063579999999,1.0,0.235308725,1.0,0.60269625,1.0,0.585108204,False,,5f179c9df58992147642ac71,,1646799,106,,evan-feature22,,0
82,1461,107,,,,1,1,1.0,0.0,1.0,0.0,,0.0-109.0,,1.0,1373.95,1.0,0.56855096,0.0,0.257056033,1.0,0.6540372760000001,0.0,0.575303131,False,,5f179c9df58992147642ac71,,1657946,107,,evan-feature22,,0
83,1462,108,,,,1,1,1.0,0.0,1.0,0.0,,0.0-110.0,,1.0,400.99,1.0,0.551159479,0.0,0.293219958,1.0,0.7098072559999999,1.0,0.581356956,False,,5f179c9df58992147642ac71,,1668118,108,,evan-feature22,,0
84,1463,109,,,,1,1,1.0,0.0,0.0,-1.0,,0.0-111.0,,0.0,1702.3,1.0,0.555545184,0.0,0.266790717,1.0,0.709570383,1.0,0.605721509,False,,5f179c9df58992147642ac71,,1679596,109,,evan-feature22,,0
85,1464,110,,,,1,1,1.0,0.0,0.0,-1.0,,0.0-112.0,,0.0,1872.455,1.0,0.548890444,0.0,0.227627465,1.0,0.710537366,1.0,0.651867006,False,,5f179c9df58992147642ac71,,1691243,110,,evan-feature22,,0
86,1465,111,,,,1,1,0.0,0.0,1.0,0.0,,0.0-113.0,,0.0,935.53,0.0,0.49262803899999996,0.0,0.2,1.0,0.697910418,1.0,0.550421355,False,,5f179c9df58992147642ac71,,1701957,111,,evan-feature22,,0
87,1466,112,,,,1,1,0.0,0.0,1.0,0.0,,0.0-114.0,,0.0,3474.245,0.0,0.47234761700000005,0.0,0.2,1.0,0.697241764,0.0,0.563979944,False,,5f179c9df58992147642ac71,,1715200,112,,evan-feature22,,0
88,1467,113,,,,2,2,0.0,1.0,0.0,-1.0,,0.0-115.0,,-1.0,587.445,0.0,0.491942424,1.0,0.211831634,0.0,0.711485281,1.0,0.545873024,False,,5f179c9df58992147642ac71,,1725561,113,,evan-feature22,,1
89,1468,114,,,,2,2,1.0,1.0,0.0,-1.0,,0.0-116.0,,-1.0,575.3950001000001,1.0,0.47099133200000004,0.0,0.21466666,1.0,0.709895341,1.0,0.512353759,False,,5f179c9df58992147642ac71,,1735904,114,,evan-feature22,,0
90,1469,115,,,,1,1,0.0,0.0,1.0,0.0,,0.0-117.0,,0.0,244.6,0.0,0.511181511,0.0,0.2,0.0,0.6843025640000001,0.0,0.48910120700000004,False,,5f179c9df58992147642ac71,,1745921,115,,evan-feature22,,1
91,1470,116,,,,1,1,0.0,1.0,0.0,-1.0,,0.0-118.0,,-1.0,33.69499999,0.0,0.42747173200000005,1.0,0.2,0.0,0.725747096,0.0,0.44244355399999996,False,,5f179c9df58992147642ac71,,1755734,116,,evan-feature22,,0
92,1471,117,,,,2,2,1.0,1.0,1.0,0.0,,0.0-119.0,,1.0,360.75,1.0,0.391559647,0.0,0.20234127100000002,1.0,0.8,1.0,0.49848766899999997,False,,5f179c9df58992147642ac71,,1765871,117,,evan-feature22,,1
93,1472,118,,,,2,2,1.0,0.0,1.0,0.0,,0.0-120.0,,1.0,579.315,0.0,0.338934629,0.0,0.20102459399999997,1.0,0.8,0.0,0.599172933,False,,5f179c9df58992147642ac71,,1776227,118,,evan-feature22,,0
94,1473,119,,,,2,2,1.0,0.0,1.0,0.0,,0.0-121.0,,1.0,1552.55,0.0,0.272438107,0.0,0.2,1.0,0.8,0.0,0.582195177,False,,5f179c9df58992147642ac71,,1787554,119,,evan-feature22,,0
95,1474,120,,,,2,2,0.0,1.0,1.0,0.0,,0.0-122.0,,0.0,693.7299998999999,0.0,0.20873113100000001,0.0,0.2,0.0,0.782881242,1.0,0.574527637,False,,5f179c9df58992147642ac71,,1798031,120,,evan-feature22,,0
96,1475,121,,,,1,1,0.0,0.0,1.0,0.0,,0.0-123.0,,0.0,441.26,0.0,0.21378948600000003,0.0,0.239588933,1.0,0.794481966,0.0,0.646756856,False,,5f179c9df58992147642ac71,,1808244,121,,evan-feature22,,1
97,1476,122,,,,2,2,1.0,1.0,1.0,0.0,,0.0-124.0,,1.0,266.5,0.0,0.234300481,1.0,0.236977303,1.0,0.8,1.0,0.692508186,False,,5f179c9df58992147642ac71,,1818289,122,,evan-feature22,,1
98,1477,123,,,,2,2,0.0,1.0,1.0,0.0,,0.0-125.0,,0.0,719.12,0.0,0.2,0.0,0.253327382,0.0,0.8,1.0,0.715382988,False,,5f179c9df58992147642ac71,,1828784,123,,evan-feature22,,0
99,1478,124,,,,2,2,1.0,1.0,0.0,-1.0,,0.0-126.0,,-1.0,413.985,0.0,0.2,0.0,0.316819226,1.0,0.768248569,1.0,0.635039647,False,,5f179c9df58992147642ac71,,1838973,124,,evan-feature22,,0
100,1479,125,,,,2,2,1.0,1.0,1.0,0.0,,0.0-127.0,,1.0,1174.565,0.0,0.2,0.0,0.304331711,1.0,0.7436900740000001,1.0,0.570285467,False,,5f179c9df58992147642ac71,,1849928,125,,evan-feature22,,0
101,1480,126,,,,2,2,1.0,0.0,1.0,0.0,,0.0-128.0,,1.0,909.02,0.0,0.2,1.0,0.34442675700000003,1.0,0.782947142,0.0,0.58883072,False,,5f179c9df58992147642ac71,,1860614,126,,evan-feature22,,0
102,1481,127,,,,2,2,1.0,0.0,1.0,0.0,,0.0-129.0,,1.0,1128.955,0.0,0.2,0.0,0.333764469,1.0,0.74909275,0.0,0.597660698,False,,5f179c9df58992147642ac71,,1871514,127,,evan-feature22,,0
103,1482,128,,,,2,2,0.0,0.0,0.0,-1.0,,0.0-130.0,,0.0,784.2549999,1.0,0.21182257100000002,0.0,0.333071143,0.0,0.731321896,0.0,0.586049322,False,,5f179c9df58992147642ac71,,1882063,128,,evan-feature22,,0
104,1483,129,,,,1,1,0.0,0.0,0.0,-1.0,,0.0-131.0,,0.0,1674.735,0.0,0.32438324399999996,0.0,0.281169443,1.0,0.764387082,0.0,0.560261518,False,,5f179c9df58992147642ac71,,1893505,129,,evan-feature22,,1
105,1484,130,,,,2,2,0.0,0.0,0.0,-1.0,,0.0-132.0,,0.0,477.8,1.0,0.323030459,1.0,0.343874174,0.0,0.7688975140000001,0.0,0.611131737,False,,5f179c9df58992147642ac71,,1903757,130,,evan-feature22,,1
106,1485,131,,,,2,2,1.0,1.0,1.0,0.0,,0.0-133.0,,1.0,642.9,0.0,0.269643308,0.0,0.35680940299999997,1.0,0.750347165,1.0,0.637401914,False,,5f179c9df58992147642ac71,,1914170,131,,evan-feature22,,0
107,1486,132,,,,2,2,1.0,1.0,1.0,0.0,,0.0-134.0,,1.0,384.8400001,1.0,0.34862530700000005,0.0,0.39833415899999997,1.0,0.7462419990000001,1.0,0.6163216739999999,False,,5f179c9df58992147642ac71,,1924329,132,,evan-feature22,,0
108,1488,134,,,,2,2,1.0,0.0,1.0,0.0,,0.0-136.0,,1.0,714.865,0.0,0.34951174100000004,0.0,0.354602362,1.0,0.7448222320000001,0.0,0.6255520760000001,False,,5f179c9df58992147642ac71,,1937554,134,,evan-feature22,,0
109,1489,135,,,,2,2,1.0,1.0,1.0,0.0,,0.0-137.0,,1.0,503.0649999,0.0,0.42128431899999996,0.0,0.338837396,1.0,0.8,1.0,0.677864288,False,,5f179c9df58992147642ac71,,1947835,135,,evan-feature22,,0
110,1490,136,,,,2,2,1.0,1.0,1.0,0.0,,0.0-138.0,,1.0,720.095,1.0,0.40754956200000003,1.0,0.38026053,1.0,0.8,1.0,0.748827916,False,,5f179c9df58992147642ac71,,1958338,136,,evan-feature22,,0
111,1491,137,,,,2,2,1.0,1.0,1.0,0.0,,0.0-139.0,,1.0,697.815,1.0,0.43124738100000004,0.0,0.37964172799999996,1.0,0.75733039,1.0,0.78666299,False,,5f179c9df58992147642ac71,,1968819,137,,evan-feature22,,0
112,1492,138,,,,2,2,1.0,1.0,1.0,0.0,,0.0-140.0,,1.0,566.955,0.0,0.39810382899999996,0.0,0.36191889200000005,1.0,0.8,1.0,0.8,False,,5f179c9df58992147642ac71,,1979160,138,,evan-feature22,,0
113,1493,139,,,,2,2,1.0,1.0,0.0,-1.0,,0.0-141.0,,-1.0,661.305,0.0,0.35893383700000003,0.0,0.420001005,1.0,0.8,1.0,0.760034896,False,,5f179c9df58992147642ac71,,1989594,139,,evan-feature22,,0
114,1494,140,,,,2,2,0.0,1.0,1.0,0.0,,0.0-142.0,,0.0,672.15,0.0,0.315146737,1.0,0.472877564,0.0,0.8,1.0,0.7245440759999999,False,,5f179c9df58992147642ac71,,2000038,140,,evan-feature22,,0
115,1495,141,,,,2,2,1.0,1.0,1.0,0.0,,0.0-143.0,,1.0,955.0899999,1.0,0.311027138,0.0,0.42634755700000004,1.0,0.7793870709999999,1.0,0.702445579,False,,5f179c9df58992147642ac71,,2010768,141,,evan-feature22,,0
116,1496,142,,,,2,2,1.0,0.0,1.0,0.0,,0.0-144.0,,1.0,1330.535,1.0,0.330974778,1.0,0.528633881,1.0,0.8,0.0,0.7338857670000001,False,,5f179c9df58992147642ac71,,2021869,142,,evan-feature22,,0
117,1497,143,,,,2,2,0.0,1.0,1.0,0.0,,0.0-145.0,,0.0,721.21,1.0,0.311747957,0.0,0.571262299,0.0,0.719957003,1.0,0.7333429690000001,False,,5f179c9df58992147642ac71,,2032357,143,,evan-feature22,,0
118,1498,144,,,,1,1,1.0,0.0,0.0,-1.0,,0.0-146.0,,0.0,624.54,1.0,0.33129749999999997,0.0,0.637148948,1.0,0.794592668,1.0,0.7305738140000001,False,,5f179c9df58992147642ac71,,2042760,144,,evan-feature22,,1
119,1499,145,,,,1,1,0.0,1.0,1.0,0.0,,0.0-147.0,,0.0,802.96,0.0,0.320701745,1.0,0.599776138,1.0,0.8,1.0,0.7391144959999999,False,,5f179c9df58992147642ac71,,2053336,145,,evan-feature22,,0
120,1500,146,,,,1,1,0.0,0.0,1.0,0.0,,0.0-148.0,,0.0,1746.96,0.0,0.388045514,0.0,0.564238847,0.0,0.726841947,1.0,0.720015904,False,,5f179c9df58992147642ac71,,2064849,146,,evan-feature22,,0
121,1501,147,,,,1,1,0.0,1.0,1.0,0.0,,0.0-149.0,,0.0,308.995,0.0,0.34414259700000005,1.0,0.56543745,1.0,0.7634386470000001,1.0,0.726727589,False,,5f179c9df58992147642ac71,,2074939,147,,evan-feature22,,0
122,1502,148,,,,2,2,0.0,1.0,0.0,-1.0,,0.0-150.0,,-1.0,940.21,1.0,0.38897054200000003,1.0,0.567453633,0.0,0.6835880740000001,1.0,0.722632945,False,,5f179c9df58992147642ac71,,2085649,148,,evan-feature22,,1
123,1503,149,,,,2,2,1.0,1.0,0.0,-1.0,,0.0-151.0,,-1.0,1675.555,0.0,0.322991325,0.0,0.562377934,1.0,0.7234406,1.0,0.699632035,False,,5f179c9df58992147642ac71,,2097097,149,,evan-feature22,,0
124,1504,150,,,,1,1,1.0,0.0,0.0,-1.0,,0.0-152.0,,0.0,653.7049999,1.0,0.327575607,0.0,0.614124007,1.0,0.766310246,1.0,0.7062665440000001,False,,5f179c9df58992147642ac71,,2107527,150,,evan-feature22,,1
125,1505,151,,,,1,1,1.0,1.0,1.0,0.0,,0.0-153.0,,1.0,818.84,1.0,0.307253769,1.0,0.625616624,1.0,0.766156052,1.0,0.691343484,False,,5f179c9df58992147642ac71,,2118122,151,,evan-feature22,,0
126,1506,152,,,,2,2,1.0,0.0,1.0,0.0,,0.0-154.0,,1.0,587.33,0.0,0.270434491,1.0,0.582288488,1.0,0.747456207,0.0,0.644724024,False,,5f179c9df58992147642ac71,,2128478,152,,evan-feature22,,1
127,1507,153,,,,2,2,1.0,1.0,1.0,0.0,,0.0-155.0,,1.0,356.95,0.0,0.23885132399999998,1.0,0.58944423,1.0,0.705759073,1.0,0.69687762,False,,5f179c9df58992147642ac71,,2138612,153,,evan-feature22,,0
128,1508,154,,,,2,2,0.0,1.0,1.0,0.0,,0.0-156.0,,0.0,693.19,0.0,0.27303527899999996,1.0,0.653244432,0.0,0.7379850659999999,1.0,0.680041152,False,,5f179c9df58992147642ac71,,2149087,154,,evan-feature22,,0
129,1509,155,,,,2,2,1.0,0.0,1.0,0.0,,0.0-157.0,,1.0,703.315,1.0,0.316190693,0.0,0.652685892,1.0,0.7791168390000001,0.0,0.669352924,False,,5f179c9df58992147642ac71,,2159564,155,,evan-feature22,,0
130,1510,156,,,,2,2,0.0,1.0,0.0,-1.0,,0.0-158.0,,-1.0,1184.25,0.0,0.282759714,1.0,0.670973046,0.0,0.7725793120000001,1.0,0.7068984620000001,False,,5f179c9df58992147642ac71,,2170523,156,,evan-feature22,,0
131,1511,157,,,,2,2,1.0,1.0,0.0,-1.0,,0.0-159.0,,-1.0,570.2749999,1.0,0.311304958,1.0,0.664496179,1.0,0.770911936,1.0,0.662452385,False,,5f179c9df58992147642ac71,,2180872,157,,evan-feature22,,0
132,1512,158,,,,2,2,0.0,0.0,1.0,0.0,,0.0-160.0,,0.0,836.385,0.0,0.23102840100000002,1.0,0.665682142,0.0,0.8,0.0,0.7239157279999999,False,,5f179c9df58992147642ac71,,2191484,158,,evan-feature22,,0
133,1513,159,,,,1,1,0.0,1.0,0.0,-1.0,,0.0-161.0,,-1.0,2354.005,0.0,0.28482291600000004,1.0,0.677059392,1.0,0.7779785159999999,1.0,0.7730907890000001,False,,5f179c9df58992147642ac71,,2203612,159,,evan-feature22,,1
134,1514,160,,,,2,2,1.0,0.0,1.0,0.0,,0.0-162.0,,1.0,1085.22,0.0,0.281805339,0.0,0.709430661,1.0,0.734681215,0.0,0.7916117109999999,False,,5f179c9df58992147642ac71,,2214470,160,,evan-feature22,,1
135,1515,161,,,,2,2,1.0,1.0,0.0,-1.0,,0.0-163.0,,-1.0,642.4649999,0.0,0.271779094,1.0,0.7253293909999999,1.0,0.667430043,1.0,0.7465941070000001,False,,5f179c9df58992147642ac71,,2224880,161,,evan-feature22,,0
136,1516,162,,,,2,2,1.0,1.0,1.0,0.0,,0.0-164.0,,1.0,840.115,0.0,0.300513275,1.0,0.7812887740000001,1.0,0.7620008420000001,1.0,0.681217126,False,,5f179c9df58992147642ac71,,2235496,162,,evan-feature22,,0
137,1517,163,,,,2,2,1.0,1.0,1.0,0.0,,0.0-165.0,,1.0,756.085,1.0,0.285291337,1.0,0.792315016,1.0,0.792446219,1.0,0.676388503,False,,5f179c9df58992147642ac71,,2246025,163,,evan-feature22,,0
138,1518,164,,,,2,2,1.0,1.0,1.0,0.0,,0.0-166.0,,1.0,714.5499999,0.0,0.318404507,1.0,0.7986219379999999,1.0,0.8,1.0,0.586973186,False,,5f179c9df58992147642ac71,,2256516,164,,evan-feature22,,0
139,1519,165,,,,2,2,1.0,0.0,0.0,-1.0,,0.0-167.0,,0.0,676.125,1.0,0.31839587399999997,1.0,0.8,1.0,0.8,0.0,0.591939169,False,,5f179c9df58992147642ac71,,2266966,165,,evan-feature22,,0
140,1520,166,,,,2,2,1.0,1.0,0.0,-1.0,,0.0-168.0,,-1.0,936.5549999,0.0,0.318235741,0.0,0.8,1.0,0.776403022,1.0,0.537290213,False,,5f179c9df58992147642ac71,,2277675,166,,evan-feature22,,0
141,1521,167,,,,1,1,0.0,1.0,0.0,-1.0,,0.0-169.0,,-1.0,901.955,0.0,0.264600799,1.0,0.8,0.0,0.8,1.0,0.5550949820000001,False,,5f179c9df58992147642ac71,,2288346,167,,evan-feature22,,1
142,1522,168,,,,1,1,0.0,1.0,1.0,0.0,,0.0-170.0,,0.0,308.93000010000003,0.0,0.2,1.0,0.8,1.0,0.748932513,0.0,0.556644326,False,,5f179c9df58992147642ac71,,2298422,168,,evan-feature22,,0
143,1523,169,,,,2,2,0.0,1.0,0.0,-1.0,,0.0-171.0,,-1.0,751.305,0.0,0.2,1.0,0.7596584820000001,0.0,0.709749046,1.0,0.523498068,False,,5f179c9df58992147642ac71,,2308947,169,,evan-feature22,,1
144,1524,170,,,,2,2,1.0,0.0,1.0,0.0,,0.0-172.0,,1.0,466.36,0.0,0.22718354,1.0,0.779429488,1.0,0.689430329,0.0,0.444999056,False,,5f179c9df58992147642ac71,,2319187,170,,evan-feature22,,0
145,1525,171,,,,2,2,1.0,1.0,0.0,-1.0,,0.0-173.0,,-1.0,311.195,0.0,0.24989155300000002,1.0,0.790984417,1.0,0.724563167,1.0,0.401944281,False,,5f179c9df58992147642ac71,,2329268,171,,evan-feature22,,0
146,1526,172,,,,2,2,1.0,1.0,1.0,0.0,,0.0-174.0,,1.0,458.18,0.0,0.26528147399999996,1.0,0.8,1.0,0.748463215,1.0,0.314270227,False,,5f179c9df58992147642ac71,,2339500,172,,evan-feature22,,0
147,1527,173,,,,2,2,0.0,0.0,1.0,0.0,,0.0-175.0,,0.0,301.32999989999996,1.0,0.262909345,1.0,0.7769973459999999,0.0,0.727316387,0.0,0.296676442,False,,5f179c9df58992147642ac71,,2349573,173,,evan-feature22,,0
148,1528,174,,,,2,2,1.0,0.0,1.0,0.0,,0.0-176.0,,1.0,452.305,0.0,0.276612486,1.0,0.768502158,1.0,0.719051618,0.0,0.287033897,False,,5f179c9df58992147642ac71,,2359801,174,,evan-feature22,,0
149,1529,175,,,,2,2,1.0,1.0,0.0,-1.0,,0.0-177.0,,-1.0,371.81,0.0,0.312468593,1.0,0.8,1.0,0.669738485,1.0,0.25479958399999997,False,,5f179c9df58992147642ac71,,2369947,175,,evan-feature22,,0
150,1530,176,,,,2,2,1.0,0.0,1.0,0.0,,0.0-178.0,,1.0,371.04,0.0,0.32745155600000003,1.0,0.8,1.0,0.709398745,0.0,0.20145359899999998,False,,5f179c9df58992147642ac71,,2380088,176,,evan-feature22,,0
151,1531,177,,,,2,2,1.0,0.0,1.0,0.0,,0.0-179.0,,1.0,248.16000010000002,1.0,0.367895585,1.0,0.8,1.0,0.7301204440000001,0.0,0.215433128,False,,5f179c9df58992147642ac71,,2390104,177,,evan-feature22,,0
152,1532,178,,,,2,2,1.0,0.0,1.0,0.0,,0.0-180.0,,1.0,250.245,0.0,0.42422632200000004,1.0,0.8,1.0,0.8,0.0,0.215904592,False,,5f179c9df58992147642ac71,,2400126,178,,evan-feature22,,0
153,1533,179,,,,2,2,1.0,1.0,1.0,0.0,,0.0-181.0,,1.0,2009.73,0.0,0.387639646,1.0,0.7410642759999999,1.0,0.8,1.0,0.274811465,False,,5f179c9df58992147642ac71,,2411907,179,,evan-feature22,,0
154,1534,180,,,,2,2,0.0,0.0,1.0,0.0,,0.0-182.0,,0.0,415.8750001,0.0,0.397008989,1.0,0.6990261879999999,0.0,0.8,0.0,0.263811886,False,,5f179c9df58992147642ac71,,2422092,180,,evan-feature22,,0
155,1535,181,,,,2,2,1.0,0.0,0.0,-1.0,,0.0-183.0,,0.0,540.075,0.0,0.39142335799999994,1.0,0.663298252,1.0,0.8,0.0,0.2,False,,5f179c9df58992147642ac71,,2432400,181,,evan-feature22,,0
156,1536,182,,,,2,2,0.0,1.0,0.0,-1.0,,0.0-184.0,,-1.0,626.375,0.0,0.42455550200000003,0.0,0.670214687,0.0,0.720478215,1.0,0.229312684,False,,5f179c9df58992147642ac71,,2442801,182,,evan-feature22,,0
157,1537,183,,,,2,2,1.0,0.0,0.0,-1.0,,0.0-185.0,,0.0,1265.36,1.0,0.42232195899999997,0.0,0.6970075259999999,1.0,0.773056416,0.0,0.212995684,False,,5f179c9df58992147642ac71,,2453836,183,,evan-feature22,,0
158,1538,184,,,,2,2,1.0,0.0,0.0,-1.0,,0.0-186.0,,0.0,639.325,0.0,0.34468955,1.0,0.713492603,1.0,0.747935676,0.0,0.2,False,,5f179c9df58992147642ac71,,2464258,184,,evan-feature22,,0
159,1539,185,,,,2,2,1.0,1.0,1.0,0.0,,0.0-187.0,,1.0,501.8999999,0.0,0.35815455799999996,1.0,0.6900582940000001,1.0,0.770945531,1.0,0.20526726399999998,False,,5f179c9df58992147642ac71,,2474534,185,,evan-feature22,,0
160,1540,186,notice,,,,,,,,,,0.0-188.0,"{""Q0"":""There was a switch from g to j""}",,19705.0,,,,,,,,,False,,5f179c9df58992147642ac71,,2494240,186,Q,survey-text,,1
161,1541,187,track1,,[0],,,,,,,,0.0-189.0,"{""Q0"":""yes""}",,5708.0,,,,,,,,,False,,5f179c9df58992147642ac71,,2499952,187,Q,evan-quiz,,1
162,1542,188,track2,,[2],,,,,,,,0.0-190.0,"{""Q0"":""N/A""}",,9465.0,,,,,,,,,False,,5f179c9df58992147642ac71,,2509423,188,Q,evan-quiz,,1
163,1543,189,strat,,,,,,,,,,0.0-191.0,"{""Q0"":""See which side had each alien appear more often and then chose based on the value (e.g. if gold is +1 and black is 0, I would go for the door with highest chance of gold regardless of black whereas if black was -1, I would focus on avoiding black)""}",,66200.0,,,,,,,,,False,,5f179c9df58992147642ac71,,2575625,189,Q,survey-text,,1
