,index,Unnamed: 0,Q_name,button_pressed,choice_idxs,chosen_pos,chosen_state,chosen_state_f_1_outcome,chosen_state_f_2_outcome,f_1_reward,f_2_reward,incor_questions,internal_node_id,responses,reward_received,rt,s_1_f_1_outcome,s_1_f_1_prob,s_1_f_2_outcome,s_1_f_2_prob,s_2_f_1_outcome,s_2_f_1_prob,s_2_f_2_outcome,s_2_f_2_prob,safe_first,stimulus,subjectID,success,time_elapsed,trial_index,trial_num,trial_type,view_history,switching
0,404,24,,,,1,1,1.0,1.0,1.0,0.0,,0.0-26.0,,1.0,1081.765,1.0,0.758395892,1.0,0.666783589,0.0,0.39893396600000003,0.0,0.29433458,True,,5f1e0fd32c833f35ed5e93ac,,621708,24,,evan-feature22,,0
1,405,25,,,,1,1,1.0,0.0,1.0,0.0,,0.0-27.0,,1.0,463.44,1.0,0.749113302,0.0,0.6410334639999999,0.0,0.374554754,1.0,0.32429597,True,,5f1e0fd32c833f35ed5e93ac,,631957,25,,evan-feature22,,0
2,406,26,,,,1,1,1.0,0.0,1.0,0.0,,0.0-28.0,,1.0,893.06,1.0,0.7692293659999999,0.0,0.673489452,0.0,0.38936336299999996,1.0,0.40805484299999994,True,,5f1e0fd32c833f35ed5e93ac,,642634,26,,evan-feature22,,0
3,407,27,,,,1,1,1.0,0.0,1.0,0.0,,0.0-29.0,,1.0,688.055,1.0,0.794299593,0.0,0.7056914559999999,0.0,0.452628219,1.0,0.42653274,True,,5f1e0fd32c833f35ed5e93ac,,653105,27,,evan-feature22,,0
4,408,28,,,,1,1,1.0,1.0,0.0,-1.0,,0.0-30.0,,-1.0,1895.25,1.0,0.8,1.0,0.7342765809999999,0.0,0.423370724,0.0,0.432069981,True,,5f1e0fd32c833f35ed5e93ac,,664789,28,,evan-feature22,,0
5,409,29,,,,1,1,1.0,1.0,0.0,-1.0,,0.0-31.0,,-1.0,597.72,1.0,0.77615632,1.0,0.671157041,1.0,0.457156974,1.0,0.464632121,True,,5f1e0fd32c833f35ed5e93ac,,675172,29,,evan-feature22,,0
6,410,30,,,,2,2,0.0,1.0,1.0,0.0,,0.0-32.0,,0.0,738.755,1.0,0.760618163,0.0,0.6459397610000001,0.0,0.471572527,1.0,0.372324295,True,,5f1e0fd32c833f35ed5e93ac,,685694,30,,evan-feature22,,1
7,411,31,,,,1,1,1.0,1.0,1.0,0.0,,0.0-33.0,,1.0,1053.24,1.0,0.747676711,1.0,0.596965425,0.0,0.46128409299999995,1.0,0.348031934,True,,5f1e0fd32c833f35ed5e93ac,,696528,31,,evan-feature22,,1
8,412,32,,,,1,1,1.0,1.0,0.0,-1.0,,0.0-34.0,,-1.0,485.66,1.0,0.7589599690000001,1.0,0.576201125,1.0,0.508614774,0.0,0.366452805,True,,5f1e0fd32c833f35ed5e93ac,,706804,32,,evan-feature22,,0
9,413,33,,,,2,2,0.0,1.0,0.0,-1.0,,0.0-35.0,,-1.0,1148.375,0.0,0.8,0.0,0.561117359,0.0,0.552349312,1.0,0.38521346,True,,5f1e0fd32c833f35ed5e93ac,,717738,33,,evan-feature22,,1
10,414,34,,,,1,1,1.0,1.0,1.0,0.0,,0.0-36.0,,1.0,923.565,1.0,0.7713106559999999,1.0,0.61964539,0.0,0.596823475,1.0,0.42932164100000003,True,,5f1e0fd32c833f35ed5e93ac,,728441,34,,evan-feature22,,1
11,415,35,,,,2,2,1.0,1.0,0.0,-1.0,,0.0-37.0,,-1.0,1556.275,1.0,0.8,0.0,0.626226927,1.0,0.60332109,1.0,0.378687767,True,,5f1e0fd32c833f35ed5e93ac,,739783,35,,evan-feature22,,1
12,416,36,,,,1,1,1.0,0.0,1.0,0.0,,0.0-38.0,,1.0,412.855,1.0,0.8,0.0,0.625397042,0.0,0.6178893529999999,0.0,0.385361015,True,,5f1e0fd32c833f35ed5e93ac,,749979,36,,evan-feature22,,1
13,417,37,,,,1,1,0.0,1.0,1.0,0.0,,0.0-39.0,,0.0,957.3,0.0,0.8,1.0,0.634158766,0.0,0.593227747,0.0,0.347942274,True,,5f1e0fd32c833f35ed5e93ac,,760721,37,,evan-feature22,,0
14,418,38,,,,1,1,1.0,1.0,1.0,0.0,,0.0-40.0,,1.0,1276.185,1.0,0.780131997,1.0,0.63264508,1.0,0.554391083,1.0,0.40680791200000005,True,,5f1e0fd32c833f35ed5e93ac,,771775,38,,evan-feature22,,0
15,419,39,,,,1,1,1.0,1.0,1.0,0.0,,0.0-41.0,,1.0,2436.385,1.0,0.8,1.0,0.648202298,0.0,0.515718575,0.0,0.427451178,True,,5f1e0fd32c833f35ed5e93ac,,783997,39,,evan-feature22,,0
16,420,40,,,,1,1,0.0,0.0,1.0,0.0,,0.0-42.0,,0.0,778.03,0.0,0.78377078,0.0,0.67965253,0.0,0.537109201,0.0,0.43219395899999996,True,,5f1e0fd32c833f35ed5e93ac,,794554,40,,evan-feature22,,0
17,421,41,,,,1,1,1.0,1.0,1.0,0.0,,0.0-43.0,,1.0,596.85,1.0,0.8,1.0,0.6777571290000001,1.0,0.525795655,0.0,0.41902666299999997,True,,5f1e0fd32c833f35ed5e93ac,,804924,41,,evan-feature22,,0
18,422,42,,,,1,1,0.0,1.0,1.0,0.0,,0.0-44.0,,0.0,707.01,0.0,0.754949303,1.0,0.6501381039999999,1.0,0.528431942,0.0,0.404639057,True,,5f1e0fd32c833f35ed5e93ac,,815416,42,,evan-feature22,,0
19,423,43,,,,2,2,1.0,0.0,0.0,-1.0,,0.0-45.0,,0.0,2464.89,1.0,0.8,1.0,0.655926243,1.0,0.477718095,0.0,0.382683792,True,,5f1e0fd32c833f35ed5e93ac,,827672,43,,evan-feature22,,1
20,424,44,,,,1,1,1.0,0.0,1.0,0.0,,0.0-46.0,,1.0,1741.305,1.0,0.743293998,0.0,0.612656833,1.0,0.458332775,0.0,0.437340995,True,,5f1e0fd32c833f35ed5e93ac,,839201,44,,evan-feature22,,1
21,425,45,,,,1,1,1.0,0.0,1.0,0.0,,0.0-47.0,,1.0,716.475,1.0,0.7410552840000001,0.0,0.619286527,1.0,0.472797571,1.0,0.531525128,True,,5f1e0fd32c833f35ed5e93ac,,849706,45,,evan-feature22,,0
22,426,46,,,,1,1,1.0,1.0,1.0,0.0,,0.0-48.0,,1.0,1004.03,1.0,0.727897085,1.0,0.6228321520000001,0.0,0.39601617,0.0,0.5762136520000001,True,,5f1e0fd32c833f35ed5e93ac,,860496,46,,evan-feature22,,0
23,427,47,,,,2,2,0.0,0.0,0.0,-1.0,,0.0-49.0,,0.0,1489.91,0.0,0.742532732,0.0,0.609740775,0.0,0.391742951,0.0,0.521061141,True,,5f1e0fd32c833f35ed5e93ac,,871776,47,,evan-feature22,,1
24,428,48,,,,2,2,1.0,1.0,0.0,-1.0,,0.0-50.0,,-1.0,835.275,0.0,0.6783303620000001,1.0,0.664637619,1.0,0.361203638,1.0,0.520299591,True,,5f1e0fd32c833f35ed5e93ac,,882400,48,,evan-feature22,,0
25,429,49,,,,2,2,1.0,1.0,0.0,-1.0,,0.0-51.0,,-1.0,842.705,1.0,0.6942499459999999,0.0,0.6667926479999999,1.0,0.323890969,1.0,0.572468191,True,,5f1e0fd32c833f35ed5e93ac,,893028,49,,evan-feature22,,0
26,430,50,,,,1,1,0.0,0.0,1.0,0.0,,0.0-52.0,,0.0,1467.855,0.0,0.7125347329999999,0.0,0.623869494,0.0,0.31056222,0.0,0.537072927,True,,5f1e0fd32c833f35ed5e93ac,,904278,50,,evan-feature22,,1
27,431,51,,,,2,2,1.0,0.0,1.0,0.0,,0.0-53.0,,1.0,1089.28,1.0,0.798095036,0.0,0.6311493570000001,1.0,0.25725538600000003,0.0,0.580461963,True,,5f1e0fd32c833f35ed5e93ac,,915158,51,,evan-feature22,,1
28,432,52,,,,2,2,0.0,1.0,1.0,0.0,,0.0-54.0,,0.0,612.305,1.0,0.777435118,1.0,0.598930454,0.0,0.251420798,1.0,0.588308898,True,,5f1e0fd32c833f35ed5e93ac,,925559,52,,evan-feature22,,0
29,433,53,,,,1,1,1.0,0.0,1.0,0.0,,0.0-55.0,,1.0,631.68,1.0,0.759582808,0.0,0.5325010020000001,0.0,0.244240244,0.0,0.57555856,True,,5f1e0fd32c833f35ed5e93ac,,935980,53,,evan-feature22,,1
30,434,54,,,,1,1,1.0,0.0,1.0,0.0,,0.0-56.0,,1.0,723.19,1.0,0.731730696,0.0,0.507277796,0.0,0.281049518,1.0,0.563427294,True,,5f1e0fd32c833f35ed5e93ac,,946484,54,,evan-feature22,,0
31,435,55,,,,1,1,0.0,0.0,1.0,0.0,,0.0-57.0,,0.0,623.895,0.0,0.7553872229999999,0.0,0.53317231,1.0,0.2,0.0,0.61479993,True,,5f1e0fd32c833f35ed5e93ac,,956877,55,,evan-feature22,,0
32,436,56,,,,2,2,0.0,1.0,1.0,0.0,,0.0-58.0,,0.0,959.38,0.0,0.69513931,1.0,0.482219891,0.0,0.2,1.0,0.630595346,True,,5f1e0fd32c833f35ed5e93ac,,967617,56,,evan-feature22,,1
33,437,57,,,,1,1,1.0,1.0,0.0,-1.0,,0.0-59.0,,-1.0,2027.01,1.0,0.760055032,1.0,0.5226485989999999,0.0,0.21430818,1.0,0.5886190689999999,True,,5f1e0fd32c833f35ed5e93ac,,979424,57,,evan-feature22,,1
34,438,58,,,,1,1,1.0,0.0,1.0,0.0,,0.0-60.0,,1.0,1818.3,1.0,0.766163824,0.0,0.501297504,0.0,0.270138439,0.0,0.61055715,True,,5f1e0fd32c833f35ed5e93ac,,991031,58,,evan-feature22,,0
35,439,59,,,,1,1,1.0,0.0,1.0,0.0,,0.0-61.0,,1.0,1414.53,1.0,0.745170882,0.0,0.461483376,1.0,0.2,1.0,0.6759266429999999,True,,5f1e0fd32c833f35ed5e93ac,,1002232,59,,evan-feature22,,0
36,440,60,,,,1,1,1.0,1.0,1.0,0.0,,0.0-62.0,,1.0,1043.1,1.0,0.735704894,1.0,0.56650936,0.0,0.2,0.0,0.649759555,True,,5f1e0fd32c833f35ed5e93ac,,1013058,60,,evan-feature22,,0
37,441,61,,,,1,1,1.0,1.0,1.0,0.0,,0.0-63.0,,1.0,720.725,1.0,0.75135719,1.0,0.601996106,0.0,0.2,1.0,0.721739204,True,,5f1e0fd32c833f35ed5e93ac,,1023562,61,,evan-feature22,,0
38,442,62,,,,1,1,1.0,1.0,0.0,-1.0,,0.0-64.0,,-1.0,2306.525,1.0,0.8,1.0,0.577883646,0.0,0.227956694,0.0,0.7008504040000001,True,,5f1e0fd32c833f35ed5e93ac,,1035655,62,,evan-feature22,,0
39,443,63,,,,1,1,1.0,1.0,1.0,0.0,,0.0-65.0,,1.0,1004.8,1.0,0.782146585,1.0,0.5356383929999999,1.0,0.240522467,1.0,0.660896764,True,,5f1e0fd32c833f35ed5e93ac,,1046447,63,,evan-feature22,,0
40,444,64,,,,1,1,1.0,0.0,1.0,0.0,,0.0-66.0,,1.0,745.43,1.0,0.695950925,0.0,0.51509141,0.0,0.33377865,0.0,0.6342836820000001,True,,5f1e0fd32c833f35ed5e93ac,,1056973,64,,evan-feature22,,0
41,445,65,,,,1,1,1.0,1.0,1.0,0.0,,0.0-67.0,,1.0,901.985,1.0,0.726659747,1.0,0.48346054200000005,0.0,0.402086283,1.0,0.581694384,True,,5f1e0fd32c833f35ed5e93ac,,1067664,65,,evan-feature22,,0
42,446,66,,,,2,2,0.0,0.0,0.0,-1.0,,0.0-68.0,,0.0,1517.195,0.0,0.705913111,0.0,0.537600217,0.0,0.448943518,0.0,0.5952173510000001,True,,5f1e0fd32c833f35ed5e93ac,,1078968,66,,evan-feature22,,1
43,447,67,,,,2,2,1.0,1.0,0.0,-1.0,,0.0-69.0,,-1.0,613.825,1.0,0.7562677179999999,1.0,0.559166276,1.0,0.5101973670000001,1.0,0.561023256,True,,5f1e0fd32c833f35ed5e93ac,,1089368,67,,evan-feature22,,0
44,448,68,,,,2,2,0.0,0.0,0.0,-1.0,,0.0-70.0,,0.0,1069.16,1.0,0.7109076440000001,1.0,0.613388908,0.0,0.45078569399999996,0.0,0.6265858,True,,5f1e0fd32c833f35ed5e93ac,,1100227,68,,evan-feature22,,0
45,449,69,,,,1,1,1.0,1.0,1.0,0.0,,0.0-71.0,,1.0,803.355,1.0,0.7517263059999999,1.0,0.575132706,0.0,0.43515056,1.0,0.63871568,True,,5f1e0fd32c833f35ed5e93ac,,1110817,69,,evan-feature22,,1
46,450,70,,,,1,1,0.0,0.0,1.0,0.0,,0.0-72.0,,0.0,965.21,0.0,0.757179437,0.0,0.593620551,1.0,0.454073093,1.0,0.626973291,True,,5f1e0fd32c833f35ed5e93ac,,1121553,70,,evan-feature22,,0
47,451,71,,,,1,1,1.0,1.0,1.0,0.0,,0.0-73.0,,1.0,638.455,1.0,0.748038451,1.0,0.6098695,1.0,0.38327690299999995,1.0,0.684561392,True,,5f1e0fd32c833f35ed5e93ac,,1131973,71,,evan-feature22,,0
48,452,72,,,,1,1,1.0,1.0,1.0,0.0,,0.0-74.0,,1.0,563.435,1.0,0.6785645929999999,1.0,0.6116548479999999,0.0,0.45625733799999996,0.0,0.619523947,True,,5f1e0fd32c833f35ed5e93ac,,1142321,72,,evan-feature22,,0
49,453,73,,,,1,1,1.0,1.0,1.0,0.0,,0.0-75.0,,1.0,879.065,1.0,0.624895127,1.0,0.619112572,1.0,0.534506586,1.0,0.6286811,True,,5f1e0fd32c833f35ed5e93ac,,1152989,73,,evan-feature22,,0
50,454,74,,,,2,2,1.0,1.0,0.0,-1.0,,0.0-76.0,,-1.0,1482.395,1.0,0.626598995,1.0,0.561681832,1.0,0.5338345529999999,1.0,0.699225106,True,,5f1e0fd32c833f35ed5e93ac,,1164256,74,,evan-feature22,,1
51,455,75,,,,2,2,1.0,1.0,0.0,-1.0,,0.0-77.0,,-1.0,835.02,1.0,0.619791351,0.0,0.648089067,1.0,0.554773755,1.0,0.719829837,True,,5f1e0fd32c833f35ed5e93ac,,1174878,75,,evan-feature22,,0
52,456,76,,,,1,1,1.0,1.0,1.0,0.0,,0.0-78.0,,1.0,1302.635,1.0,0.631881247,1.0,0.584052341,1.0,0.567943017,1.0,0.7417000229999999,True,,5f1e0fd32c833f35ed5e93ac,,1185967,76,,evan-feature22,,1
53,457,77,,,,2,2,0.0,0.0,0.0,-1.0,,0.0-79.0,,0.0,1348.725,1.0,0.64968251,1.0,0.568222121,0.0,0.629368633,0.0,0.8,True,,5f1e0fd32c833f35ed5e93ac,,1197105,77,,evan-feature22,,1
54,459,79,,,,1,1,1.0,0.0,1.0,0.0,,0.0-81.0,,1.0,1609.555,1.0,0.663645983,0.0,0.608852351,1.0,0.61806748,1.0,0.8,True,,5f1e0fd32c833f35ed5e93ac,,1217324,79,,evan-feature22,,1
55,460,80,,,,1,1,0.0,1.0,0.0,-1.0,,0.0-82.0,,-1.0,1713.335,0.0,0.667073374,1.0,0.622694241,1.0,0.605227886,1.0,0.783313017,True,,5f1e0fd32c833f35ed5e93ac,,1228830,80,,evan-feature22,,0
56,461,81,,,,1,1,1.0,0.0,1.0,0.0,,0.0-83.0,,1.0,1240.46,1.0,0.7605589079999999,0.0,0.6334344160000001,1.0,0.59379959,0.0,0.73861361,True,,5f1e0fd32c833f35ed5e93ac,,1239861,81,,evan-feature22,,0
57,462,82,,,,1,1,1.0,1.0,1.0,0.0,,0.0-84.0,,1.0,553.62,1.0,0.7544831240000001,1.0,0.660936699,1.0,0.509492795,1.0,0.6462146910000001,True,,5f1e0fd32c833f35ed5e93ac,,1250193,82,,evan-feature22,,0
58,463,83,,,,1,1,0.0,1.0,1.0,0.0,,0.0-85.0,,0.0,596.295,0.0,0.7274789429999999,1.0,0.662769615,1.0,0.544926524,1.0,0.688483132,True,,5f1e0fd32c833f35ed5e93ac,,1260567,83,,evan-feature22,,0
59,464,84,,,,1,1,0.0,1.0,0.0,-1.0,,0.0-86.0,,-1.0,2728.095,0.0,0.8,1.0,0.623524457,1.0,0.5648388320000001,1.0,0.681239038,True,,5f1e0fd32c833f35ed5e93ac,,1273080,84,,evan-feature22,,0
60,465,85,,,,2,2,0.0,0.0,0.0,-1.0,,0.0-87.0,,0.0,960.595,1.0,0.8,0.0,0.670753133,0.0,0.5158076,0.0,0.627836146,True,,5f1e0fd32c833f35ed5e93ac,,1283822,85,,evan-feature22,,1
61,466,86,,,,2,2,1.0,1.0,0.0,-1.0,,0.0-88.0,,-1.0,716.08,1.0,0.775527162,1.0,0.681016775,1.0,0.51377463,1.0,0.626808982,True,,5f1e0fd32c833f35ed5e93ac,,1294325,86,,evan-feature22,,0
62,467,87,,,,1,1,0.0,1.0,1.0,0.0,,0.0-89.0,,0.0,1234.49,0.0,0.7596868990000001,1.0,0.656386777,1.0,0.507155515,1.0,0.657587271,True,,5f1e0fd32c833f35ed5e93ac,,1305344,87,,evan-feature22,,1
63,468,88,,,,2,2,0.0,1.0,0.0,-1.0,,0.0-90.0,,-1.0,2185.675,1.0,0.7697730429999999,1.0,0.6696294279999999,0.0,0.405621956,1.0,0.632466576,True,,5f1e0fd32c833f35ed5e93ac,,1317317,88,,evan-feature22,,1
64,469,89,,,,1,1,1.0,1.0,1.0,0.0,,0.0-91.0,,1.0,1691.87,1.0,0.733077865,1.0,0.589734488,0.0,0.35222996799999995,0.0,0.605848783,True,,5f1e0fd32c833f35ed5e93ac,,1328790,89,,evan-feature22,,1
65,470,90,,,,2,2,1.0,1.0,0.0,-1.0,,0.0-92.0,,-1.0,1468.39,1.0,0.7516953259999999,0.0,0.571952819,1.0,0.35600478799999996,1.0,0.5556085629999999,True,,5f1e0fd32c833f35ed5e93ac,,1340042,90,,evan-feature22,,1
66,471,91,,,,1,1,0.0,1.0,1.0,0.0,,0.0-93.0,,0.0,1268.445,0.0,0.7335224459999999,1.0,0.6532418560000001,1.0,0.343718615,0.0,0.494468134,True,,5f1e0fd32c833f35ed5e93ac,,1351093,91,,evan-feature22,,1
67,472,92,,,,2,2,0.0,0.0,1.0,0.0,,0.0-94.0,,0.0,1079.09,0.0,0.7124817590000001,1.0,0.6390774810000001,0.0,0.339057567,0.0,0.470845749,True,,5f1e0fd32c833f35ed5e93ac,,1361955,92,,evan-feature22,,1
68,473,93,,,,2,2,0.0,0.0,1.0,0.0,,0.0-95.0,,0.0,1056.54,1.0,0.6784382870000001,1.0,0.619313665,0.0,0.307093978,0.0,0.551459799,True,,5f1e0fd32c833f35ed5e93ac,,1372798,93,,evan-feature22,,0
69,474,94,,,,2,2,0.0,1.0,0.0,-1.0,,0.0-96.0,,-1.0,1219.745,1.0,0.6652083129999999,0.0,0.597460688,0.0,0.35021752799999994,1.0,0.539363545,True,,5f1e0fd32c833f35ed5e93ac,,1383805,94,,evan-feature22,,0
70,475,95,,,,1,1,0.0,1.0,1.0,0.0,,0.0-97.0,,0.0,1001.08,0.0,0.661769563,1.0,0.6237266220000001,1.0,0.43284700200000004,0.0,0.527128728,True,,5f1e0fd32c833f35ed5e93ac,,1394591,95,,evan-feature22,,1
71,476,96,,,,2,2,1.0,1.0,1.0,0.0,,0.0-98.0,,1.0,1652.185,0.0,0.655523738,1.0,0.630055609,1.0,0.430599471,1.0,0.516819818,True,,5f1e0fd32c833f35ed5e93ac,,1406029,96,,evan-feature22,,1
72,477,97,,,,2,2,0.0,1.0,1.0,0.0,,0.0-99.0,,0.0,716.005,1.0,0.584426545,0.0,0.6294940170000001,0.0,0.482109399,1.0,0.49310232299999995,True,,5f1e0fd32c833f35ed5e93ac,,1416527,97,,evan-feature22,,0
73,478,98,,,,1,1,1.0,1.0,1.0,0.0,,0.0-100.0,,1.0,911.835,1.0,0.593661942,1.0,0.598116517,0.0,0.49481257100000003,0.0,0.515932226,True,,5f1e0fd32c833f35ed5e93ac,,1427225,98,,evan-feature22,,1
74,479,99,,,,1,1,1.0,0.0,1.0,0.0,,0.0-101.0,,1.0,1195.225,1.0,0.592880538,0.0,0.621605935,1.0,0.38945895799999997,0.0,0.561640435,True,,5f1e0fd32c833f35ed5e93ac,,1438210,99,,evan-feature22,,0
75,480,100,,,,2,2,0.0,0.0,0.0,-1.0,,0.0-102.0,,0.0,1275.82,1.0,0.601007589,1.0,0.608277141,0.0,0.34376450299999994,0.0,0.470029965,True,,5f1e0fd32c833f35ed5e93ac,,1449274,100,,evan-feature22,,1
76,481,101,,,,2,2,0.0,0.0,0.0,-1.0,,0.0-103.0,,0.0,725.36,1.0,0.646855036,1.0,0.662806372,0.0,0.25660331399999997,0.0,0.519482362,True,,5f1e0fd32c833f35ed5e93ac,,1459789,101,,evan-feature22,,0
77,482,102,,,,2,2,0.0,1.0,0.0,-1.0,,0.0-104.0,,-1.0,1166.155,1.0,0.642867724,0.0,0.632049246,0.0,0.25676069100000004,1.0,0.595191797,True,,5f1e0fd32c833f35ed5e93ac,,1470739,102,,evan-feature22,,0
78,483,103,,,,2,2,0.0,0.0,0.0,-1.0,,0.0-105.0,,0.0,1487.35,0.0,0.645698706,1.0,0.606934848,0.0,0.253726265,0.0,0.605564476,True,,5f1e0fd32c833f35ed5e93ac,,1482007,103,,evan-feature22,,0
79,484,104,,,,1,1,1.0,1.0,1.0,0.0,,0.0-106.0,,1.0,1612.815,1.0,0.57365172,1.0,0.644616344,0.0,0.235666944,1.0,0.542830548,True,,5f1e0fd32c833f35ed5e93ac,,1493409,104,,evan-feature22,,1
80,485,105,,,,2,2,0.0,1.0,0.0,-1.0,,0.0-107.0,,-1.0,1651.505,1.0,0.57365172,0.0,0.644616344,0.0,0.235666944,1.0,0.542830548,True,,5f1e0fd32c833f35ed5e93ac,,1504850,105,,evan-feature22,,1
81,486,106,,,,2,2,1.0,0.0,0.0,-1.0,,0.0-108.0,,0.0,1247.655,0.0,0.571544656,1.0,0.605228935,1.0,0.254414551,0.0,0.54267317,True,,5f1e0fd32c833f35ed5e93ac,,1515877,106,,evan-feature22,,0
82,487,107,,,,2,2,0.0,1.0,0.0,-1.0,,0.0-109.0,,-1.0,799.025,0.0,0.594079321,1.0,0.627731245,0.0,0.271045457,1.0,0.498184461,True,,5f1e0fd32c833f35ed5e93ac,,1526464,107,,evan-feature22,,0
83,488,108,,,,2,2,0.0,0.0,0.0,-1.0,,0.0-110.0,,0.0,1378.795,1.0,0.581490524,1.0,0.61543522,0.0,0.28679829999999995,0.0,0.47334912100000004,True,,5f1e0fd32c833f35ed5e93ac,,1537629,108,,evan-feature22,,0
84,489,109,,,,2,2,0.0,0.0,0.0,-1.0,,0.0-111.0,,0.0,1243.565,1.0,0.508659922,0.0,0.678348122,0.0,0.293557647,0.0,0.436686776,True,,5f1e0fd32c833f35ed5e93ac,,1548659,109,,evan-feature22,,0
85,490,110,,,,2,2,0.0,0.0,0.0,-1.0,,0.0-112.0,,0.0,1192.085,1.0,0.548020127,1.0,0.661356152,0.0,0.33939975200000005,0.0,0.43098076,True,,5f1e0fd32c833f35ed5e93ac,,1559639,110,,evan-feature22,,0
86,491,111,,,,2,2,1.0,0.0,0.0,-1.0,,0.0-113.0,,0.0,1286.095,1.0,0.502987702,1.0,0.612211104,1.0,0.433915344,0.0,0.42255532700000004,True,,5f1e0fd32c833f35ed5e93ac,,1570713,111,,evan-feature22,,0
87,492,112,,,,1,1,0.0,1.0,1.0,0.0,,0.0-114.0,,0.0,1562.545,0.0,0.459245451,1.0,0.688192936,0.0,0.45663814700000005,1.0,0.458186455,True,,5f1e0fd32c833f35ed5e93ac,,1582053,112,,evan-feature22,,1
88,493,113,,,,2,2,1.0,1.0,0.0,-1.0,,0.0-115.0,,-1.0,1137.335,0.0,0.421342325,0.0,0.739800042,1.0,0.42242872299999995,1.0,0.49445062100000003,True,,5f1e0fd32c833f35ed5e93ac,,1592979,113,,evan-feature22,,1
89,494,114,,,,2,2,0.0,0.0,0.0,-1.0,,0.0-116.0,,0.0,1159.95,0.0,0.471458304,0.0,0.640586494,0.0,0.412771813,0.0,0.41058669200000003,True,,5f1e0fd32c833f35ed5e93ac,,1603921,114,,evan-feature22,,0
90,495,115,,,,1,1,0.0,0.0,1.0,0.0,,0.0-117.0,,0.0,1466.425,0.0,0.528101475,0.0,0.657202834,1.0,0.439859203,0.0,0.40676324799999997,True,,5f1e0fd32c833f35ed5e93ac,,1615175,115,,evan-feature22,,1
91,496,116,,,,2,2,1.0,0.0,1.0,0.0,,0.0-118.0,,1.0,1099.72,1.0,0.46992311700000006,0.0,0.717492971,1.0,0.46719862100000004,0.0,0.395737313,True,,5f1e0fd32c833f35ed5e93ac,,1626067,116,,evan-feature22,,1
92,497,117,,,,1,1,1.0,1.0,0.0,-1.0,,0.0-119.0,,-1.0,1801.065,1.0,0.543261297,1.0,0.7229893009999999,1.0,0.534165048,0.0,0.44477015,True,,5f1e0fd32c833f35ed5e93ac,,1637656,117,,evan-feature22,,1
93,498,118,,,,2,2,1.0,0.0,0.0,-1.0,,0.0-120.0,,0.0,1213.02,1.0,0.560921892,0.0,0.77155319,1.0,0.49136644,0.0,0.427878965,True,,5f1e0fd32c833f35ed5e93ac,,1648653,118,,evan-feature22,,1
94,499,119,,,,2,2,0.0,0.0,0.0,-1.0,,0.0-121.0,,0.0,1277.83,1.0,0.589437632,1.0,0.7744310520000001,0.0,0.518505645,0.0,0.44518250600000003,True,,5f1e0fd32c833f35ed5e93ac,,1659716,119,,evan-feature22,,0
95,500,120,,,,2,2,0.0,0.0,0.0,-1.0,,0.0-122.0,,0.0,1020.3,1.0,0.600165861,1.0,0.8,0.0,0.58903051,0.0,0.48487021700000005,True,,5f1e0fd32c833f35ed5e93ac,,1670516,120,,evan-feature22,,0
96,501,121,,,,1,1,0.0,1.0,1.0,0.0,,0.0-123.0,,0.0,1488.86,0.0,0.541751569,1.0,0.793817715,0.0,0.557327736,1.0,0.555026485,True,,5f1e0fd32c833f35ed5e93ac,,1681792,121,,evan-feature22,,1
97,502,122,,,,2,2,1.0,1.0,0.0,-1.0,,0.0-124.0,,-1.0,989.195,1.0,0.522867554,1.0,0.8,1.0,0.608505506,1.0,0.616047291,True,,5f1e0fd32c833f35ed5e93ac,,1692566,122,,evan-feature22,,1
98,503,123,,,,1,1,1.0,1.0,1.0,0.0,,0.0-125.0,,1.0,1047.085,1.0,0.45351521100000003,1.0,0.78455201,1.0,0.670932262,1.0,0.5934649670000001,True,,5f1e0fd32c833f35ed5e93ac,,1703394,123,,evan-feature22,,1
99,504,124,,,,1,1,0.0,1.0,1.0,0.0,,0.0-126.0,,0.0,1461.935,0.0,0.450138637,1.0,0.736691069,0.0,0.702905088,1.0,0.596869092,True,,5f1e0fd32c833f35ed5e93ac,,1714641,124,,evan-feature22,,0
100,505,125,,,,2,2,0.0,1.0,0.0,-1.0,,0.0-127.0,,-1.0,1360.36,0.0,0.44285792799999996,1.0,0.714711078,0.0,0.649779325,1.0,0.545811756,True,,5f1e0fd32c833f35ed5e93ac,,1725791,125,,evan-feature22,,1
101,506,126,,,,2,2,1.0,1.0,0.0,-1.0,,0.0-128.0,,-1.0,1136.44,0.0,0.417312257,0.0,0.720948173,1.0,0.691894307,1.0,0.549258578,True,,5f1e0fd32c833f35ed5e93ac,,1736707,126,,evan-feature22,,0
102,507,127,,,,1,1,0.0,1.0,0.0,-1.0,,0.0-129.0,,-1.0,1718.57,0.0,0.420190754,1.0,0.689348107,1.0,0.705027363,0.0,0.58076903,True,,5f1e0fd32c833f35ed5e93ac,,1748214,127,,evan-feature22,,1
103,508,128,,,,2,2,1.0,1.0,0.0,-1.0,,0.0-130.0,,-1.0,1204.59,1.0,0.41516356299999996,1.0,0.647513976,1.0,0.726234795,1.0,0.5798618529999999,True,,5f1e0fd32c833f35ed5e93ac,,1759209,128,,evan-feature22,,1
104,509,129,,,,2,2,1.0,0.0,0.0,-1.0,,0.0-131.0,,0.0,1405.785,1.0,0.46818417,1.0,0.64492679,1.0,0.735142794,0.0,0.558277769,True,,5f1e0fd32c833f35ed5e93ac,,1770404,129,,evan-feature22,,0
105,510,130,,,,1,1,0.0,0.0,1.0,0.0,,0.0-132.0,,0.0,1825.455,0.0,0.448388753,0.0,0.663704595,1.0,0.7002554809999999,1.0,0.594726058,True,,5f1e0fd32c833f35ed5e93ac,,1782018,130,,evan-feature22,,1
106,511,131,,,,2,2,1.0,0.0,0.0,-1.0,,0.0-133.0,,0.0,1448.425,0.0,0.42416112200000006,0.0,0.6574395789999999,1.0,0.692158941,0.0,0.595924053,True,,5f1e0fd32c833f35ed5e93ac,,1793249,131,,evan-feature22,,1
107,512,132,,,,2,2,1.0,0.0,0.0,-1.0,,0.0-134.0,,0.0,1192.195,1.0,0.45058732100000004,0.0,0.6428793979999999,1.0,0.698342934,0.0,0.5357766310000001,True,,5f1e0fd32c833f35ed5e93ac,,1804230,132,,evan-feature22,,0
108,514,134,,,,2,2,1.0,0.0,0.0,-1.0,,0.0-136.0,,0.0,1457.25,1.0,0.440202744,0.0,0.647931102,1.0,0.699455708,0.0,0.51418479,True,,5f1e0fd32c833f35ed5e93ac,,1817764,134,,evan-feature22,,0
109,515,135,,,,2,2,0.0,1.0,0.0,-1.0,,0.0-137.0,,-1.0,805.99,0.0,0.42472282899999997,0.0,0.675537871,0.0,0.634863839,1.0,0.459461854,True,,5f1e0fd32c833f35ed5e93ac,,1828355,135,,evan-feature22,,0
110,516,136,,,,2,2,0.0,1.0,0.0,-1.0,,0.0-138.0,,-1.0,908.54,0.0,0.46789738700000005,0.0,0.6667616129999999,0.0,0.557834235,1.0,0.406021707,True,,5f1e0fd32c833f35ed5e93ac,,1839053,136,,evan-feature22,,0
111,517,137,,,,2,2,1.0,1.0,1.0,0.0,,0.0-139.0,,1.0,1622.655,1.0,0.49108287700000003,1.0,0.696258134,1.0,0.553173036,1.0,0.44230687799999996,True,,5f1e0fd32c833f35ed5e93ac,,1850467,137,,evan-feature22,,0
112,518,138,,,,2,2,0.0,1.0,1.0,0.0,,0.0-140.0,,0.0,1053.645,1.0,0.434873764,1.0,0.69471374,0.0,0.52567306,1.0,0.451201079,True,,5f1e0fd32c833f35ed5e93ac,,1861303,138,,evan-feature22,,0
113,519,139,,,,2,2,0.0,0.0,1.0,0.0,,0.0-141.0,,0.0,629.455,1.0,0.41582855700000004,1.0,0.673983653,0.0,0.600953273,0.0,0.428385991,True,,5f1e0fd32c833f35ed5e93ac,,1871716,139,,evan-feature22,,0
114,520,140,,,,2,2,0.0,1.0,0.0,-1.0,,0.0-142.0,,-1.0,1000.05,0.0,0.37712372899999996,0.0,0.630198112,0.0,0.562734756,1.0,0.407202471,True,,5f1e0fd32c833f35ed5e93ac,,1882500,140,,evan-feature22,,0
115,521,141,,,,1,1,1.0,1.0,1.0,0.0,,0.0-143.0,,1.0,1290.715,1.0,0.377186155,1.0,0.5959657620000001,0.0,0.52895806,1.0,0.401631361,True,,5f1e0fd32c833f35ed5e93ac,,1893578,141,,evan-feature22,,1
116,522,142,,,,1,1,0.0,1.0,1.0,0.0,,0.0-144.0,,0.0,908.045,0.0,0.405178624,1.0,0.624033539,1.0,0.53541358,0.0,0.434812775,True,,5f1e0fd32c833f35ed5e93ac,,1904274,142,,evan-feature22,,0
117,523,143,,,,2,2,1.0,1.0,0.0,-1.0,,0.0-145.0,,-1.0,1152.79,0.0,0.404718697,1.0,0.653871557,1.0,0.498644573,1.0,0.361797146,True,,5f1e0fd32c833f35ed5e93ac,,1915218,143,,evan-feature22,,1
118,524,144,,,,1,1,1.0,0.0,1.0,0.0,,0.0-146.0,,1.0,1125.245,1.0,0.363457837,0.0,0.648906829,0.0,0.48545379299999997,1.0,0.333175953,True,,5f1e0fd32c833f35ed5e93ac,,1926130,144,,evan-feature22,,1
119,525,145,,,,1,1,0.0,1.0,1.0,0.0,,0.0-147.0,,0.0,889.3,0.0,0.423884324,1.0,0.651328541,1.0,0.496333188,0.0,0.308923503,True,,5f1e0fd32c833f35ed5e93ac,,1936806,145,,evan-feature22,,0
120,526,146,,,,1,1,1.0,0.0,0.0,-1.0,,0.0-148.0,,0.0,1872.345,1.0,0.40478004700000003,0.0,0.668069396,0.0,0.530694065,0.0,0.303372258,True,,5f1e0fd32c833f35ed5e93ac,,1948462,146,,evan-feature22,,0
121,527,147,,,,2,2,0.0,1.0,0.0,-1.0,,0.0-149.0,,-1.0,703.165,1.0,0.408237701,0.0,0.652244224,0.0,0.494298509,1.0,0.27352694,True,,5f1e0fd32c833f35ed5e93ac,,1958956,147,,evan-feature22,,1
122,528,148,,,,1,1,0.0,1.0,1.0,0.0,,0.0-150.0,,0.0,907.15,0.0,0.43417052100000003,1.0,0.6217031120000001,1.0,0.532882118,0.0,0.366099599,True,,5f1e0fd32c833f35ed5e93ac,,1969653,148,,evan-feature22,,1
123,529,149,,,,2,2,1.0,0.0,0.0,-1.0,,0.0-151.0,,0.0,1944.235,0.0,0.400114798,1.0,0.64330682,1.0,0.48520862,0.0,0.35037015299999996,True,,5f1e0fd32c833f35ed5e93ac,,1981388,149,,evan-feature22,,1
124,530,150,,,,2,2,0.0,1.0,1.0,0.0,,0.0-152.0,,0.0,987.43,1.0,0.43813119700000003,0.0,0.663773443,0.0,0.512595314,1.0,0.38192336299999996,True,,5f1e0fd32c833f35ed5e93ac,,1992164,150,,evan-feature22,,0
125,531,151,,,,1,1,0.0,0.0,0.0,-1.0,,0.0-153.0,,0.0,1158.125,0.0,0.430197337,0.0,0.650033231,0.0,0.49057549799999994,0.0,0.359341831,True,,5f1e0fd32c833f35ed5e93ac,,2003100,151,,evan-feature22,,1
126,532,152,,,,1,1,0.0,0.0,1.0,0.0,,0.0-154.0,,0.0,1278.79,0.0,0.416179465,0.0,0.621958212,0.0,0.517879556,1.0,0.399884406,True,,5f1e0fd32c833f35ed5e93ac,,2014163,152,,evan-feature22,,0
127,533,153,,,,1,1,0.0,1.0,0.0,-1.0,,0.0-155.0,,-1.0,1134.82,0.0,0.409186383,1.0,0.619469024,1.0,0.548536182,1.0,0.443160476,True,,5f1e0fd32c833f35ed5e93ac,,2025087,153,,evan-feature22,,0
128,534,154,,,,1,1,0.0,1.0,0.0,-1.0,,0.0-156.0,,-1.0,1218.15,0.0,0.40319599700000003,1.0,0.622009579,0.0,0.518893608,1.0,0.446572471,True,,5f1e0fd32c833f35ed5e93ac,,2036091,154,,evan-feature22,,0
129,535,155,,,,1,1,1.0,0.0,0.0,-1.0,,0.0-157.0,,0.0,863.255,1.0,0.395386991,0.0,0.5485572360000001,1.0,0.59630008,1.0,0.5223318060000001,True,,5f1e0fd32c833f35ed5e93ac,,2046745,155,,evan-feature22,,0
130,536,156,,,,1,1,1.0,1.0,1.0,0.0,,0.0-158.0,,1.0,700.68,1.0,0.44115573,1.0,0.51147772,0.0,0.505130314,1.0,0.515364918,True,,5f1e0fd32c833f35ed5e93ac,,2057228,156,,evan-feature22,,0
131,537,157,,,,1,1,0.0,0.0,1.0,0.0,,0.0-159.0,,0.0,629.99,0.0,0.481465132,0.0,0.469505158,0.0,0.503556947,1.0,0.5412637,True,,5f1e0fd32c833f35ed5e93ac,,2067647,157,,evan-feature22,,0
132,538,158,,,,1,1,0.0,0.0,1.0,0.0,,0.0-160.0,,0.0,654.745,0.0,0.409059378,0.0,0.42457706799999995,1.0,0.524588487,1.0,0.559907526,True,,5f1e0fd32c833f35ed5e93ac,,2078085,158,,evan-feature22,,0
133,539,159,,,,1,1,0.0,1.0,0.0,-1.0,,0.0-161.0,,-1.0,1130.345,0.0,0.477684421,1.0,0.404895864,0.0,0.468799653,0.0,0.56906593,True,,5f1e0fd32c833f35ed5e93ac,,2088995,159,,evan-feature22,,0
134,540,160,,,,1,1,1.0,0.0,0.0,-1.0,,0.0-162.0,,0.0,577.515,1.0,0.433077372,0.0,0.373753255,1.0,0.504699014,0.0,0.503739023,True,,5f1e0fd32c833f35ed5e93ac,,2099354,160,,evan-feature22,,0
135,541,161,,,,1,1,0.0,0.0,0.0,-1.0,,0.0-163.0,,0.0,1089.505,0.0,0.450233393,0.0,0.34782878799999994,0.0,0.519377428,1.0,0.459960231,True,,5f1e0fd32c833f35ed5e93ac,,2110229,161,,evan-feature22,,0
136,542,162,,,,1,1,1.0,0.0,1.0,0.0,,0.0-164.0,,1.0,500.265,1.0,0.41756724700000003,0.0,0.38393217,0.0,0.514983777,0.0,0.443744598,True,,5f1e0fd32c833f35ed5e93ac,,2120516,162,,evan-feature22,,0
137,543,163,,,,1,1,0.0,0.0,0.0,-1.0,,0.0-165.0,,0.0,668.85,0.0,0.452958907,0.0,0.371002723,1.0,0.518114176,0.0,0.46633015,True,,5f1e0fd32c833f35ed5e93ac,,2130961,163,,evan-feature22,,0
138,544,164,,,,1,1,1.0,0.0,0.0,-1.0,,0.0-166.0,,0.0,1173.545,1.0,0.455702623,0.0,0.315954408,1.0,0.572320188,1.0,0.508909504,True,,5f1e0fd32c833f35ed5e93ac,,2141920,164,,evan-feature22,,0
139,545,165,,,,1,1,0.0,1.0,0.0,-1.0,,0.0-167.0,,-1.0,793.45,0.0,0.491313581,1.0,0.23993336899999998,0.0,0.570199715,1.0,0.51473836,True,,5f1e0fd32c833f35ed5e93ac,,2152500,165,,evan-feature22,,0
140,546,166,,,,1,1,1.0,1.0,1.0,0.0,,0.0-168.0,,1.0,681.54,1.0,0.484298936,1.0,0.272504197,0.0,0.5551308220000001,0.0,0.523038425,True,,5f1e0fd32c833f35ed5e93ac,,2162965,166,,evan-feature22,,0
141,547,167,,,,1,1,1.0,0.0,0.0,-1.0,,0.0-169.0,,0.0,847.985,1.0,0.528381235,0.0,0.28023429,0.0,0.5394623270000001,1.0,0.504301989,True,,5f1e0fd32c833f35ed5e93ac,,2173602,167,,evan-feature22,,0
142,548,168,,,,1,1,1.0,0.0,0.0,-1.0,,0.0-170.0,,0.0,979.625,1.0,0.524592254,0.0,0.339136603,0.0,0.519993692,1.0,0.489381881,True,,5f1e0fd32c833f35ed5e93ac,,2184372,168,,evan-feature22,,0
143,549,169,,,,1,1,0.0,0.0,1.0,0.0,,0.0-171.0,,0.0,1358.9,0.0,0.53960939,0.0,0.333467381,1.0,0.599370383,0.0,0.45892218799999995,True,,5f1e0fd32c833f35ed5e93ac,,2195509,169,,evan-feature22,,0
144,550,170,,,,1,1,1.0,1.0,1.0,0.0,,0.0-172.0,,1.0,758.355,1.0,0.518775918,1.0,0.369047819,1.0,0.6069025779999999,1.0,0.523049137,True,,5f1e0fd32c833f35ed5e93ac,,2206046,170,,evan-feature22,,0
145,551,171,,,,1,1,0.0,0.0,1.0,0.0,,0.0-173.0,,0.0,1399.6,0.0,0.5158566,0.0,0.303652601,0.0,0.6015122039999999,0.0,0.574601328,True,,5f1e0fd32c833f35ed5e93ac,,2217233,171,,evan-feature22,,0
146,552,172,,,,1,1,1.0,0.0,0.0,-1.0,,0.0-174.0,,0.0,896.685,1.0,0.505585493,0.0,0.308345924,1.0,0.632117198,0.0,0.5558155339999999,True,,5f1e0fd32c833f35ed5e93ac,,2227915,172,,evan-feature22,,0
147,553,173,,,,1,1,1.0,0.0,0.0,-1.0,,0.0-175.0,,0.0,783.73,1.0,0.5595435670000001,0.0,0.340395712,1.0,0.636974751,1.0,0.503532934,True,,5f1e0fd32c833f35ed5e93ac,,2238483,173,,evan-feature22,,0
148,554,174,,,,1,1,1.0,0.0,0.0,-1.0,,0.0-176.0,,0.0,1106.72,1.0,0.5587993720000001,0.0,0.359748544,0.0,0.554097844,1.0,0.472189123,True,,5f1e0fd32c833f35ed5e93ac,,2249379,174,,evan-feature22,,0
149,555,175,,,,1,1,0.0,1.0,0.0,-1.0,,0.0-177.0,,-1.0,829.605,0.0,0.480072877,1.0,0.362302106,0.0,0.600846495,1.0,0.43725304200000004,True,,5f1e0fd32c833f35ed5e93ac,,2259991,175,,evan-feature22,,0
150,556,176,,,,1,1,0.0,0.0,1.0,0.0,,0.0-178.0,,0.0,974.17,0.0,0.511210085,0.0,0.401676175,0.0,0.622052944,0.0,0.39175359200000004,True,,5f1e0fd32c833f35ed5e93ac,,2270756,176,,evan-feature22,,0
151,557,177,,,,1,1,0.0,1.0,0.0,-1.0,,0.0-179.0,,-1.0,887.295,0.0,0.554470352,1.0,0.379424096,1.0,0.625581595,1.0,0.288670951,True,,5f1e0fd32c833f35ed5e93ac,,2281427,177,,evan-feature22,,0
152,558,178,,,,1,1,0.0,1.0,1.0,0.0,,0.0-180.0,,0.0,1217.51,0.0,0.627627927,1.0,0.305241403,0.0,0.604387985,0.0,0.291361327,True,,5f1e0fd32c833f35ed5e93ac,,2292435,178,,evan-feature22,,0
153,559,179,,,,1,1,1.0,1.0,1.0,0.0,,0.0-181.0,,1.0,1048.105,1.0,0.6759914229999999,1.0,0.300284541,0.0,0.558798166,0.0,0.24435394600000002,True,,5f1e0fd32c833f35ed5e93ac,,2303271,179,,evan-feature22,,0
154,560,180,,,,1,1,0.0,0.0,0.0,-1.0,,0.0-182.0,,0.0,1308.6,0.0,0.7172655040000001,0.0,0.28624910800000003,0.0,0.50383286,0.0,0.25705046800000003,True,,5f1e0fd32c833f35ed5e93ac,,2314369,180,,evan-feature22,,0
155,561,181,,,,1,1,1.0,1.0,0.0,-1.0,,0.0-183.0,,-1.0,1296.98,1.0,0.74495062,1.0,0.28039269899999997,1.0,0.477457466,1.0,0.27478247699999997,True,,5f1e0fd32c833f35ed5e93ac,,2325456,181,,evan-feature22,,0
156,562,182,,,,1,1,1.0,1.0,0.0,-1.0,,0.0-184.0,,-1.0,1314.48,1.0,0.759426302,1.0,0.34576272799999996,0.0,0.48707786399999997,0.0,0.29224327899999997,True,,5f1e0fd32c833f35ed5e93ac,,2336555,182,,evan-feature22,,0
157,563,183,,,,2,2,1.0,0.0,0.0,-1.0,,0.0-185.0,,0.0,590.18,1.0,0.699175667,0.0,0.342105414,1.0,0.561402254,0.0,0.316565075,True,,5f1e0fd32c833f35ed5e93ac,,2346932,183,,evan-feature22,,1
158,564,184,,,,2,2,0.0,1.0,0.0,-1.0,,0.0-186.0,,-1.0,717.975,1.0,0.631985397,1.0,0.307880471,0.0,0.570750211,1.0,0.31001761699999997,True,,5f1e0fd32c833f35ed5e93ac,,2357435,184,,evan-feature22,,0
159,565,185,,,,2,2,1.0,1.0,0.0,-1.0,,0.0-187.0,,-1.0,662.295,0.0,0.6,0.0,0.3,1.0,0.6,1.0,0.3,True,,5f1e0fd32c833f35ed5e93ac,,2367885,185,,evan-feature22,,0
160,566,186,notice,,,,,,,,,,0.0-188.0,"{""Q0"":""Of the last third or of the whole thing? Unclear""}",,35311.0,,,,,,,,,True,,5f1e0fd32c833f35ed5e93ac,,2403197,186,Q,survey-text,,1
161,567,187,track1,,[1],,,,,,,,0.0-189.0,"{""Q0"":""no""}",,3769.0,,,,,,,,,True,,5f1e0fd32c833f35ed5e93ac,,2406971,187,Q,evan-quiz,,1
162,568,188,track2,,[0],,,,,,,,0.0-190.0,"{""Q0"":""yes""}",,6481.0,,,,,,,,,True,,5f1e0fd32c833f35ed5e93ac,,2413457,188,Q,evan-quiz,,1
163,569,189,strat,,,,,,,,,,0.0-191.0,"{""Q0"":""Look at probability of 1, 2 or no aliens on each side. high probability of 2 then choose for times when it was plus one gold and zero for black, if it's higher probability of one or zero then choose when its minus one black and zero gold""}",,97852.0,,,,,,,,,True,,5f1e0fd32c833f35ed5e93ac,,2511312,189,Q,survey-text,,1
