,index,Unnamed: 0,Q_name,button_pressed,choice_idxs,chosen_pos,chosen_state,chosen_state_f_1_outcome,chosen_state_f_2_outcome,f_1_reward,f_2_reward,incor_questions,internal_node_id,responses,reward_received,rt,s_1_f_1_outcome,s_1_f_1_prob,s_1_f_2_outcome,s_1_f_2_prob,s_2_f_1_outcome,s_2_f_1_prob,s_2_f_2_outcome,s_2_f_2_prob,safe_first,stimulus,subjectID,success,time_elapsed,trial_index,trial_num,trial_type,view_history,switching
0,2117,24,,,,1,1,0.0,0.0,0.0,-1.0,,0.0-26.0,,0.0,1035.81,0.0,0.6,0.0,0.4,0.0,0.4,1.0,0.6,False,,5c3e284ce0ea82000146414b,,590090,24,,evan-feature22,,0
1,2118,25,,,,1,1,1.0,0.0,0.0,-1.0,,0.0-27.0,,0.0,1644.925,1.0,0.625928423,0.0,0.395903568,0.0,0.416361855,0.0,0.636279196,False,,5c3e284ce0ea82000146414b,,601510,25,,evan-feature22,,0
2,2119,26,,,,1,1,1.0,1.0,0.0,-1.0,,0.0-28.0,,-1.0,1409.21,1.0,0.632185889,1.0,0.37940999700000005,1.0,0.510461374,0.0,0.636053735,False,,5c3e284ce0ea82000146414b,,612696,26,,evan-feature22,,0
3,2120,27,,,,2,2,0.0,1.0,0.0,-1.0,,0.0-29.0,,-1.0,1262.59,1.0,0.650098956,0.0,0.437690015,0.0,0.513165207,1.0,0.594219782,False,,5c3e284ce0ea82000146414b,,623756,27,,evan-feature22,,1
4,2121,28,,,,1,1,1.0,1.0,0.0,-1.0,,0.0-30.0,,-1.0,2126.38,1.0,0.718427004,1.0,0.461759895,0.0,0.466591374,1.0,0.557006706,False,,5c3e284ce0ea82000146414b,,635662,28,,evan-feature22,,1
5,2122,29,,,,1,1,1.0,1.0,0.0,-1.0,,0.0-31.0,,-1.0,2494.145,1.0,0.762929561,1.0,0.48747529100000003,0.0,0.43772942299999995,1.0,0.574463924,False,,5c3e284ce0ea82000146414b,,647942,29,,evan-feature22,,0
6,2123,30,,,,2,2,0.0,1.0,0.0,-1.0,,0.0-32.0,,-1.0,2952.075,0.0,0.763717037,0.0,0.435099549,0.0,0.465087572,1.0,0.60565513,False,,5c3e284ce0ea82000146414b,,660738,30,,evan-feature22,,1
7,2124,31,,,,1,1,1.0,0.0,1.0,0.0,,0.0-33.0,,1.0,2270.66,1.0,0.77229152,0.0,0.364439775,0.0,0.401053115,1.0,0.658123444,False,,5c3e284ce0ea82000146414b,,672794,31,,evan-feature22,,1
8,2125,32,,,,1,1,1.0,0.0,0.0,-1.0,,0.0-34.0,,0.0,1509.135,1.0,0.744772498,0.0,0.35348662700000005,0.0,0.357677552,0.0,0.6504213670000001,False,,5c3e284ce0ea82000146414b,,684093,32,,evan-feature22,,0
9,2126,33,,,,1,1,1.0,1.0,0.0,-1.0,,0.0-35.0,,-1.0,2923.025,1.0,0.674079628,1.0,0.34184177200000004,0.0,0.36487888399999996,1.0,0.720326902,False,,5c3e284ce0ea82000146414b,,696805,33,,evan-feature22,,0
10,2127,34,,,,1,1,1.0,0.0,1.0,0.0,,0.0-36.0,,1.0,1716.915,1.0,0.661527729,0.0,0.347257661,0.0,0.301580406,0.0,0.7572792209999999,False,,5c3e284ce0ea82000146414b,,708327,34,,evan-feature22,,0
11,2128,35,,,,1,1,0.0,0.0,1.0,0.0,,0.0-37.0,,0.0,1603.555,0.0,0.660815217,0.0,0.37948954700000004,1.0,0.266362694,1.0,0.8,False,,5c3e284ce0ea82000146414b,,719701,35,,evan-feature22,,0
12,2129,36,,,,1,1,1.0,1.0,0.0,-1.0,,0.0-38.0,,-1.0,3759.505,1.0,0.645840989,1.0,0.303961219,0.0,0.22727662199999998,1.0,0.8,False,,5c3e284ce0ea82000146414b,,733250,36,,evan-feature22,,0
13,2130,37,,,,1,1,0.0,0.0,0.0,-1.0,,0.0-39.0,,0.0,1712.53,0.0,0.653475024,0.0,0.330387001,0.0,0.216413453,1.0,0.761410571,False,,5c3e284ce0ea82000146414b,,744737,37,,evan-feature22,,0
14,2131,38,,,,1,1,1.0,1.0,0.0,-1.0,,0.0-40.0,,-1.0,2167.18,1.0,0.641284007,1.0,0.3333084,0.0,0.240310726,1.0,0.8,False,,5c3e284ce0ea82000146414b,,756715,38,,evan-feature22,,0
15,2132,39,,,,1,1,1.0,1.0,0.0,-1.0,,0.0-41.0,,-1.0,1829.48,1.0,0.613358121,1.0,0.297219209,0.0,0.298906785,0.0,0.781296249,False,,5c3e284ce0ea82000146414b,,768317,39,,evan-feature22,,0
16,2133,40,,,,1,1,0.0,0.0,1.0,0.0,,0.0-42.0,,0.0,2195.48,0.0,0.560222979,0.0,0.260871998,0.0,0.246708996,1.0,0.7928309459999999,False,,5c3e284ce0ea82000146414b,,780288,40,,evan-feature22,,0
17,2134,41,,,,SLOW,SLOW,,,0.0,-1.0,,0.0-43.0,,-3.0,,0.0,0.5369121339999999,0.0,0.250417104,0.0,0.2,1.0,0.765101149,False,,5c3e284ce0ea82000146414b,,786097,41,,evan-feature22,,1
18,2135,42,,,,1,1,1.0,0.0,1.0,0.0,,0.0-44.0,,1.0,1542.855,1.0,0.49919695,0.0,0.2,0.0,0.2,0.0,0.773279061,False,,5c3e284ce0ea82000146414b,,797423,42,,evan-feature22,,1
19,2136,43,,,,1,1,1.0,1.0,1.0,0.0,,0.0-45.0,,1.0,814.67,1.0,0.459627509,1.0,0.21221690899999998,0.0,0.2,1.0,0.662061311,False,,5c3e284ce0ea82000146414b,,808011,43,,evan-feature22,,0
20,2137,44,,,,1,1,1.0,0.0,0.0,-1.0,,0.0-46.0,,0.0,3101.815,1.0,0.417845724,0.0,0.22682277,1.0,0.2,1.0,0.709165356,False,,5c3e284ce0ea82000146414b,,820902,44,,evan-feature22,,0
21,2138,45,,,,1,1,0.0,0.0,0.0,-1.0,,0.0-47.0,,0.0,1216.56,0.0,0.494962775,0.0,0.2,0.0,0.2,0.0,0.716798403,False,,5c3e284ce0ea82000146414b,,831891,45,,evan-feature22,,0
22,2139,46,,,,1,1,0.0,1.0,0.0,-1.0,,0.0-48.0,,-1.0,1442.19,0.0,0.5455069579999999,1.0,0.23543751300000001,0.0,0.2,0.0,0.645567591,False,,5c3e284ce0ea82000146414b,,843117,46,,evan-feature22,,0
23,2140,47,,,,1,1,1.0,0.0,0.0,-1.0,,0.0-49.0,,0.0,1476.895,1.0,0.5888472370000001,0.0,0.274305745,1.0,0.2,0.0,0.6470111129999999,False,,5c3e284ce0ea82000146414b,,854399,47,,evan-feature22,,0
24,2141,48,,,,1,1,1.0,0.0,0.0,-1.0,,0.0-50.0,,0.0,1492.81,1.0,0.541102968,0.0,0.22645371,0.0,0.236325635,1.0,0.667273806,False,,5c3e284ce0ea82000146414b,,865667,48,,evan-feature22,,0
25,2142,49,,,,1,1,0.0,1.0,1.0,0.0,,0.0-51.0,,0.0,1495.66,0.0,0.490387594,1.0,0.2,0.0,0.209906961,0.0,0.658487389,False,,5c3e284ce0ea82000146414b,,876937,49,,evan-feature22,,0
26,2143,50,,,,1,1,1.0,0.0,0.0,-1.0,,0.0-52.0,,0.0,1366.205,1.0,0.549336464,0.0,0.223311399,0.0,0.21542726899999998,1.0,0.699424853,False,,5c3e284ce0ea82000146414b,,888085,50,,evan-feature22,,0
27,2144,51,,,,1,1,1.0,0.0,0.0,-1.0,,0.0-53.0,,0.0,1147.97,1.0,0.616387033,0.0,0.242050882,0.0,0.236831238,1.0,0.660702856,False,,5c3e284ce0ea82000146414b,,899009,51,,evan-feature22,,0
28,2145,52,,,,1,1,0.0,0.0,0.0,-1.0,,0.0-54.0,,0.0,767.3450001,0.0,0.632533083,0.0,0.236756329,0.0,0.239558776,0.0,0.626572575,False,,5c3e284ce0ea82000146414b,,909543,52,,evan-feature22,,0
29,2146,53,,,,1,1,1.0,0.0,0.0,-1.0,,0.0-55.0,,0.0,683.875,1.0,0.585128523,0.0,0.21108512699999998,0.0,0.242964243,1.0,0.646247017,False,,5c3e284ce0ea82000146414b,,919999,53,,evan-feature22,,0
30,2147,54,,,,1,1,1.0,1.0,0.0,-1.0,,0.0-56.0,,-1.0,952.3049999,1.0,0.631279052,1.0,0.208261881,1.0,0.2,1.0,0.598661374,False,,5c3e284ce0ea82000146414b,,930799,54,,evan-feature22,,0
31,2148,55,,,,1,1,1.0,0.0,1.0,0.0,,0.0-57.0,,1.0,3059.64,1.0,0.645601188,0.0,0.2,0.0,0.2,0.0,0.604309462,False,,5c3e284ce0ea82000146414b,,943648,55,,evan-feature22,,0
32,2149,56,,,,1,1,0.0,0.0,1.0,0.0,,0.0-58.0,,0.0,898.3849999,0.0,0.618753278,0.0,0.2,0.0,0.2,0.0,0.59705541,False,,5c3e284ce0ea82000146414b,,954315,56,,evan-feature22,,0
33,2150,57,,,,1,1,1.0,0.0,1.0,0.0,,0.0-59.0,,1.0,463.5299999,1.0,0.62382752,0.0,0.2,0.0,0.22363604899999998,1.0,0.6268096089999999,False,,5c3e284ce0ea82000146414b,,964614,57,,evan-feature22,,0
34,2151,58,,,,1,1,0.0,0.0,0.0,-1.0,,0.0-60.0,,0.0,1860.445,0.0,0.673200992,0.0,0.2,0.0,0.24014272899999997,1.0,0.610360914,False,,5c3e284ce0ea82000146414b,,976248,58,,evan-feature22,,0
35,2152,59,,,,1,1,0.0,0.0,1.0,0.0,,0.0-61.0,,0.0,745.535,0.0,0.610898111,0.0,0.250157064,0.0,0.25088427399999996,1.0,0.664171968,False,,5c3e284ce0ea82000146414b,,986777,59,,evan-feature22,,0
36,2153,60,,,,1,1,1.0,0.0,1.0,0.0,,0.0-62.0,,1.0,649.215,1.0,0.598301898,0.0,0.248311053,0.0,0.296388488,0.0,0.63425056,False,,5c3e284ce0ea82000146414b,,997226,60,,evan-feature22,,0
37,2154,61,,,,1,1,0.0,0.0,0.0,-1.0,,0.0-63.0,,0.0,1394.05,0.0,0.588894116,0.0,0.256357363,1.0,0.25300305100000003,1.0,0.5520326010000001,False,,5c3e284ce0ea82000146414b,,1008390,61,,evan-feature22,,0
38,2155,62,,,,2,2,1.0,0.0,1.0,0.0,,0.0-64.0,,1.0,2956.135,0.0,0.568426,0.0,0.236770987,1.0,0.303107977,0.0,0.515870586,False,,5c3e284ce0ea82000146414b,,1021133,62,,evan-feature22,,1
39,2156,63,,,,2,2,0.0,1.0,1.0,0.0,,0.0-65.0,,0.0,642.2550001,0.0,0.5790148829999999,1.0,0.22121494600000002,0.0,0.302005511,1.0,0.5441517579999999,False,,5c3e284ce0ea82000146414b,,1031561,63,,evan-feature22,,0
40,2157,64,,,,1,1,0.0,0.0,0.0,-1.0,,0.0-66.0,,0.0,1699.59,0.0,0.565697181,0.0,0.21691092399999998,0.0,0.329714007,1.0,0.548125478,False,,5c3e284ce0ea82000146414b,,1043034,64,,evan-feature22,,1
41,2158,65,,,,1,1,1.0,0.0,0.0,-1.0,,0.0-67.0,,0.0,933.0399999,1.0,0.557218295,0.0,0.23527572600000002,0.0,0.31028033899999996,1.0,0.601635125,False,,5c3e284ce0ea82000146414b,,1053776,65,,evan-feature22,,0
42,2159,66,,,,2,2,0.0,1.0,1.0,0.0,,0.0-68.0,,0.0,1534.76,1.0,0.503661609,1.0,0.316001204,0.0,0.35906509700000006,1.0,0.606103889,False,,5c3e284ce0ea82000146414b,,1065088,66,,evan-feature22,,1
43,2160,67,,,,1,1,0.0,1.0,0.0,-1.0,,0.0-69.0,,-1.0,1131.275,0.0,0.52124269,1.0,0.24774441100000003,0.0,0.336491959,0.0,0.569669564,False,,5c3e284ce0ea82000146414b,,1075998,67,,evan-feature22,,1
44,2161,68,,,,2,2,0.0,1.0,1.0,0.0,,0.0-70.0,,0.0,2339.515,1.0,0.47671529100000004,1.0,0.252307362,0.0,0.361290845,1.0,0.6965526540000001,False,,5c3e284ce0ea82000146414b,,1088118,68,,evan-feature22,,1
45,2162,69,,,,1,1,0.0,0.0,0.0,-1.0,,0.0-71.0,,0.0,1883.075,0.0,0.522125232,0.0,0.26365262300000003,0.0,0.416704449,1.0,0.757101488,False,,5c3e284ce0ea82000146414b,,1099768,69,,evan-feature22,,1
46,2163,70,,,,1,1,0.0,0.0,1.0,0.0,,0.0-72.0,,0.0,1309.085,0.0,0.5309092470000001,0.0,0.285803841,0.0,0.349236593,1.0,0.7431302329999999,False,,5c3e284ce0ea82000146414b,,1110853,70,,evan-feature22,,0
47,2164,71,,,,1,1,0.0,1.0,0.0,-1.0,,0.0-73.0,,-1.0,2221.065,0.0,0.491973806,1.0,0.274503571,0.0,0.38717547799999996,0.0,0.796399836,False,,5c3e284ce0ea82000146414b,,1122850,71,,evan-feature22,,0
48,2165,72,,,,2,2,1.0,0.0,0.0,-1.0,,0.0-74.0,,0.0,1453.915,1.0,0.44033582200000004,0.0,0.284677433,1.0,0.362895033,0.0,0.8,False,,5c3e284ce0ea82000146414b,,1134087,72,,evan-feature22,,1
49,2166,73,,,,2,2,1.0,1.0,0.0,-1.0,,0.0-75.0,,-1.0,1209.035,1.0,0.47907450100000004,1.0,0.294004891,1.0,0.29810176899999996,1.0,0.8,False,,5c3e284ce0ea82000146414b,,1145097,73,,evan-feature22,,0
50,2167,74,,,,1,1,1.0,0.0,1.0,0.0,,0.0-76.0,,1.0,2056.975,1.0,0.49324470000000004,0.0,0.209806217,1.0,0.34910548700000005,1.0,0.7685303929999999,False,,5c3e284ce0ea82000146414b,,1156933,74,,evan-feature22,,1
51,2168,75,,,,1,1,1.0,0.0,1.0,0.0,,0.0-77.0,,1.0,793.175,1.0,0.478325964,0.0,0.232650109,0.0,0.397575193,0.0,0.759970785,False,,5c3e284ce0ea82000146414b,,1167506,75,,evan-feature22,,0
52,2169,76,,,,1,1,0.0,1.0,1.0,0.0,,0.0-78.0,,0.0,857.0749999,0.0,0.495116819,1.0,0.262830049,0.0,0.395442465,1.0,0.757900997,False,,5c3e284ce0ea82000146414b,,1178189,76,,evan-feature22,,0
53,2170,77,,,,1,1,1.0,0.0,0.0,-1.0,,0.0-79.0,,0.0,3121.665,1.0,0.46826402,0.0,0.299520002,0.0,0.36789765799999996,0.0,0.8,False,,5c3e284ce0ea82000146414b,,1191087,77,,evan-feature22,,0
54,2172,79,,,,1,1,1.0,1.0,0.0,-1.0,,0.0-81.0,,-1.0,1095.15,1.0,0.429692185,1.0,0.290259512,0.0,0.38417303,1.0,0.8,False,,5c3e284ce0ea82000146414b,,1205022,79,,evan-feature22,,0
55,2173,80,,,,2,2,0.0,0.0,0.0,-1.0,,0.0-82.0,,0.0,954.735,0.0,0.448544348,0.0,0.21890246300000002,0.0,0.35912113100000004,0.0,0.8,False,,5c3e284ce0ea82000146414b,,1215747,80,,evan-feature22,,1
56,2174,81,,,,1,1,1.0,0.0,1.0,0.0,,0.0-83.0,,1.0,1177.155,1.0,0.40463424299999995,0.0,0.2,0.0,0.331168384,1.0,0.8,False,,5c3e284ce0ea82000146414b,,1226701,81,,evan-feature22,,1
57,2175,82,,,,2,2,1.0,1.0,0.0,-1.0,,0.0-84.0,,-1.0,1445.32,1.0,0.460808469,0.0,0.226932935,1.0,0.426844185,1.0,0.7791585740000001,False,,5c3e284ce0ea82000146414b,,1237930,82,,evan-feature22,,1
58,2176,83,,,,1,1,1.0,0.0,0.0,-1.0,,0.0-85.0,,0.0,967.4099999,1.0,0.5073287479999999,0.0,0.22562859600000001,0.0,0.491272617,1.0,0.779171318,False,,5c3e284ce0ea82000146414b,,1248673,83,,evan-feature22,,1
59,2177,84,,,,1,1,0.0,0.0,0.0,-1.0,,0.0-86.0,,0.0,855.595,0.0,0.475398868,0.0,0.210546691,1.0,0.548946291,1.0,0.8,False,,5c3e284ce0ea82000146414b,,1259299,84,,evan-feature22,,0
60,2178,85,,,,2,2,1.0,0.0,1.0,0.0,,0.0-87.0,,1.0,2683.2,0.0,0.5773669579999999,0.0,0.210025267,1.0,0.517663827,0.0,0.667149461,False,,5c3e284ce0ea82000146414b,,1271751,85,,evan-feature22,,1
61,2179,86,,,,1,1,1.0,0.0,0.0,-1.0,,0.0-88.0,,0.0,897.48,1.0,0.59689526,0.0,0.2,0.0,0.457089543,1.0,0.695501237,False,,5c3e284ce0ea82000146414b,,1282426,86,,evan-feature22,,1
62,2180,87,,,,2,2,1.0,1.0,0.0,-1.0,,0.0-89.0,,-1.0,1031.165,1.0,0.634631385,0.0,0.2,1.0,0.424596711,1.0,0.677506484,False,,5c3e284ce0ea82000146414b,,1293228,87,,evan-feature22,,1
63,2181,88,,,,1,1,0.0,0.0,1.0,0.0,,0.0-90.0,,0.0,669.0850001,0.0,0.65654557,0.0,0.22193470199999998,1.0,0.445639003,1.0,0.673381668,False,,5c3e284ce0ea82000146414b,,1303666,88,,evan-feature22,,1
64,2182,89,,,,2,2,0.0,1.0,1.0,0.0,,0.0-91.0,,0.0,567.0449999,1.0,0.681977797,0.0,0.242148743,0.0,0.49386645100000004,1.0,0.662437964,False,,5c3e284ce0ea82000146414b,,1314009,89,,evan-feature22,,1
65,2183,90,,,,1,1,1.0,1.0,1.0,0.0,,0.0-92.0,,1.0,880.9649999,1.0,0.650328273,1.0,0.20706394,1.0,0.470045369,1.0,0.691556057,False,,5c3e284ce0ea82000146414b,,1324723,90,,evan-feature22,,1
66,2184,91,,,,1,1,1.0,0.0,0.0,-1.0,,0.0-93.0,,0.0,2850.225,1.0,0.652406904,0.0,0.2,1.0,0.46602527,1.0,0.718680015,False,,5c3e284ce0ea82000146414b,,1337351,91,,evan-feature22,,0
67,2185,92,,,,1,1,0.0,0.0,0.0,-1.0,,0.0-94.0,,0.0,1025.43,0.0,0.618106018,0.0,0.21862797,0.0,0.49471872299999997,1.0,0.771952271,False,,5c3e284ce0ea82000146414b,,1348149,92,,evan-feature22,,0
68,2186,93,,,,1,1,1.0,0.0,0.0,-1.0,,0.0-95.0,,0.0,953.845,1.0,0.61569103,0.0,0.257594422,0.0,0.514741772,1.0,0.750874695,False,,5c3e284ce0ea82000146414b,,1358881,93,,evan-feature22,,0
69,2187,94,,,,1,1,1.0,0.0,0.0,-1.0,,0.0-96.0,,0.0,763.21,1.0,0.598889253,0.0,0.32643588,0.0,0.573899692,0.0,0.765464495,False,,5c3e284ce0ea82000146414b,,1369430,94,,evan-feature22,,0
70,2188,95,,,,1,1,0.0,1.0,1.0,0.0,,0.0-97.0,,0.0,2237.285,0.0,0.604148234,1.0,0.31179723,0.0,0.6050845429999999,0.0,0.717556355,False,,5c3e284ce0ea82000146414b,,1381441,95,,evan-feature22,,0
71,2189,96,,,,1,1,0.0,0.0,0.0,-1.0,,0.0-98.0,,0.0,972.8199999,0.0,0.60914345,0.0,0.304089194,1.0,0.587413745,0.0,0.7625107859999999,False,,5c3e284ce0ea82000146414b,,1392186,96,,evan-feature22,,0
72,2190,97,,,,1,1,1.0,0.0,1.0,0.0,,0.0-99.0,,1.0,1409.05,1.0,0.556011004,0.0,0.297212656,1.0,0.615215204,1.0,0.688835497,False,,5c3e284ce0ea82000146414b,,1403377,97,,evan-feature22,,0
73,2191,98,,,,1,1,0.0,1.0,1.0,0.0,,0.0-100.0,,0.0,643.255,0.0,0.538989836,1.0,0.259288265,0.0,0.63117526,1.0,0.622387272,False,,5c3e284ce0ea82000146414b,,1413797,98,,evan-feature22,,0
74,2192,99,,,,1,1,0.0,1.0,0.0,-1.0,,0.0-101.0,,-1.0,2469.485,0.0,0.477391925,1.0,0.286964716,1.0,0.607192834,1.0,0.630914953,False,,5c3e284ce0ea82000146414b,,1426047,99,,evan-feature22,,0
75,2193,100,,,,2,2,0.0,0.0,0.0,-1.0,,0.0-102.0,,0.0,1572.195,0.0,0.481844581,1.0,0.318018092,0.0,0.606517823,0.0,0.554718886,False,,5c3e284ce0ea82000146414b,,1437387,100,,evan-feature22,,1
76,2194,101,,,,2,2,1.0,1.0,0.0,-1.0,,0.0-103.0,,-1.0,982.85,1.0,0.5468073529999999,0.0,0.271400321,1.0,0.611358728,1.0,0.583214152,False,,5c3e284ce0ea82000146414b,,1448158,101,,evan-feature22,,0
77,2195,102,,,,1,1,0.0,0.0,0.0,-1.0,,0.0-104.0,,0.0,1444.135,0.0,0.559747181,0.0,0.2,0.0,0.6020122929999999,1.0,0.59294636,False,,5c3e284ce0ea82000146414b,,1459371,102,,evan-feature22,,1
78,2196,103,,,,1,1,1.0,0.0,0.0,-1.0,,0.0-105.0,,0.0,798.1949999,1.0,0.50773535,0.0,0.2,1.0,0.627190004,1.0,0.57015433,False,,5c3e284ce0ea82000146414b,,1469941,103,,evan-feature22,,0
79,2197,104,,,,1,1,0.0,1.0,0.0,-1.0,,0.0-106.0,,-1.0,1919.05,0.0,0.517936872,1.0,0.24316099,1.0,0.5932536970000001,0.0,0.59982907,False,,5c3e284ce0ea82000146414b,,1481634,104,,evan-feature22,,0
80,2198,105,,,,2,2,1.0,1.0,1.0,0.0,,0.0-107.0,,1.0,1062.865,1.0,0.517936872,0.0,0.24316099,1.0,0.5932536970000001,1.0,0.59982907,False,,5c3e284ce0ea82000146414b,,1492529,105,,evan-feature22,,1
81,2199,106,,,,1,1,1.0,0.0,1.0,0.0,,0.0-108.0,,1.0,747.97,1.0,0.5454063579999999,0.0,0.235308725,0.0,0.60269625,1.0,0.585108204,False,,5c3e284ce0ea82000146414b,,1503053,106,,evan-feature22,,1
82,2200,107,,,,1,1,1.0,0.0,1.0,0.0,,0.0-109.0,,1.0,1329.455,1.0,0.56855096,0.0,0.257056033,1.0,0.6540372760000001,1.0,0.575303131,False,,5c3e284ce0ea82000146414b,,1514160,107,,evan-feature22,,0
83,2201,108,,,,1,1,1.0,0.0,1.0,0.0,,0.0-110.0,,1.0,952.265,1.0,0.551159479,0.0,0.293219958,1.0,0.7098072559999999,1.0,0.581356956,False,,5c3e284ce0ea82000146414b,,1524904,108,,evan-feature22,,0
84,2202,109,,,,2,2,1.0,1.0,0.0,-1.0,,0.0-111.0,,-1.0,991.9050001,0.0,0.555545184,1.0,0.266790717,1.0,0.709570383,1.0,0.605721509,False,,5c3e284ce0ea82000146414b,,1535681,109,,evan-feature22,,1
85,2203,110,,,,1,1,1.0,0.0,0.0,-1.0,,0.0-112.0,,0.0,879.25,1.0,0.548890444,0.0,0.227627465,1.0,0.710537366,1.0,0.651867006,False,,5c3e284ce0ea82000146414b,,1546336,110,,evan-feature22,,1
86,2204,111,,,,1,1,1.0,0.0,1.0,0.0,,0.0-113.0,,1.0,936.385,1.0,0.49262803899999996,0.0,0.2,1.0,0.697910418,0.0,0.550421355,False,,5c3e284ce0ea82000146414b,,1557047,111,,evan-feature22,,0
87,2205,112,,,,1,1,0.0,0.0,1.0,0.0,,0.0-114.0,,0.0,978.6599999,0.0,0.47234761700000005,0.0,0.2,1.0,0.697241764,0.0,0.563979944,False,,5c3e284ce0ea82000146414b,,1567798,112,,evan-feature22,,0
88,2206,113,,,,1,1,1.0,0.0,0.0,-1.0,,0.0-115.0,,0.0,1906.865,1.0,0.491942424,0.0,0.211831634,1.0,0.711485281,1.0,0.545873024,False,,5c3e284ce0ea82000146414b,,1579480,113,,evan-feature22,,0
89,2207,114,,,,1,1,0.0,0.0,0.0,-1.0,,0.0-116.0,,0.0,1167.47,0.0,0.47099133200000004,0.0,0.21466666,1.0,0.709895341,0.0,0.512353759,False,,5c3e284ce0ea82000146414b,,1590416,114,,evan-feature22,,0
90,2208,115,,,,1,1,1.0,0.0,1.0,0.0,,0.0-117.0,,1.0,1303.11,1.0,0.511181511,0.0,0.2,0.0,0.6843025640000001,0.0,0.48910120700000004,False,,5c3e284ce0ea82000146414b,,1601496,115,,evan-feature22,,0
91,2209,116,,,,1,1,1.0,0.0,0.0,-1.0,,0.0-118.0,,0.0,2243.395,1.0,0.42747173200000005,0.0,0.2,1.0,0.725747096,1.0,0.44244355399999996,False,,5c3e284ce0ea82000146414b,,1613519,116,,evan-feature22,,0
92,2210,117,,,,1,1,1.0,0.0,1.0,0.0,,0.0-119.0,,1.0,1305.89,1.0,0.391559647,0.0,0.20234127100000002,1.0,0.8,0.0,0.49848766899999997,False,,5c3e284ce0ea82000146414b,,1624600,117,,evan-feature22,,0
93,2211,118,,,,1,1,0.0,0.0,1.0,0.0,,0.0-120.0,,0.0,712.035,0.0,0.338934629,0.0,0.20102459399999997,1.0,0.8,1.0,0.599172933,False,,5c3e284ce0ea82000146414b,,1635082,118,,evan-feature22,,0
94,2212,119,,,,2,2,1.0,0.0,1.0,0.0,,0.0-121.0,,1.0,640.615,0.0,0.272438107,0.0,0.2,1.0,0.8,0.0,0.582195177,False,,5c3e284ce0ea82000146414b,,1645495,119,,evan-feature22,,1
95,2213,120,,,,2,2,1.0,0.0,1.0,0.0,,0.0-122.0,,1.0,785.865,0.0,0.20873113100000001,0.0,0.2,1.0,0.782881242,0.0,0.574527637,False,,5c3e284ce0ea82000146414b,,1656054,120,,evan-feature22,,0
96,2214,121,,,,1,1,1.0,0.0,1.0,0.0,,0.0-123.0,,1.0,2030.26,1.0,0.21378948600000003,0.0,0.239588933,1.0,0.794481966,1.0,0.646756856,False,,5c3e284ce0ea82000146414b,,1667860,121,,evan-feature22,,1
97,2215,122,,,,1,1,0.0,0.0,1.0,0.0,,0.0-124.0,,0.0,1102.2,0.0,0.234300481,0.0,0.236977303,1.0,0.8,1.0,0.692508186,False,,5c3e284ce0ea82000146414b,,1678732,122,,evan-feature22,,0
98,2216,123,,,,2,2,1.0,1.0,1.0,0.0,,0.0-125.0,,1.0,661.05,0.0,0.2,0.0,0.253327382,1.0,0.8,1.0,0.715382988,False,,5c3e284ce0ea82000146414b,,1689224,123,,evan-feature22,,1
99,2217,124,,,,1,1,0.0,1.0,0.0,-1.0,,0.0-126.0,,-1.0,1208.845,0.0,0.2,1.0,0.316819226,1.0,0.768248569,0.0,0.635039647,False,,5c3e284ce0ea82000146414b,,1700210,124,,evan-feature22,,1
100,2218,125,,,,2,2,1.0,0.0,1.0,0.0,,0.0-127.0,,1.0,1951.935,0.0,0.2,0.0,0.304331711,1.0,0.7436900740000001,0.0,0.570285467,False,,5c3e284ce0ea82000146414b,,1711935,125,,evan-feature22,,1
101,2219,126,,,,2,2,0.0,1.0,1.0,0.0,,0.0-128.0,,0.0,650.045,0.0,0.2,0.0,0.34442675700000003,0.0,0.782947142,1.0,0.58883072,False,,5c3e284ce0ea82000146414b,,1722386,126,,evan-feature22,,0
102,2220,127,,,,2,2,0.0,1.0,1.0,0.0,,0.0-129.0,,0.0,521.605,0.0,0.2,0.0,0.333764469,0.0,0.74909275,1.0,0.597660698,False,,5c3e284ce0ea82000146414b,,1732681,127,,evan-feature22,,0
103,2221,128,,,,1,1,0.0,1.0,0.0,-1.0,,0.0-130.0,,-1.0,1465.835,0.0,0.21182257100000002,1.0,0.333071143,1.0,0.731321896,0.0,0.586049322,False,,5c3e284ce0ea82000146414b,,1743924,128,,evan-feature22,,1
104,2222,129,,,,2,2,0.0,1.0,0.0,-1.0,,0.0-131.0,,-1.0,880.7999999,0.0,0.32438324399999996,0.0,0.281169443,0.0,0.764387082,1.0,0.560261518,False,,5c3e284ce0ea82000146414b,,1754577,129,,evan-feature22,,1
105,2223,130,,,,1,1,1.0,1.0,0.0,-1.0,,0.0-132.0,,-1.0,1689.41,1.0,0.323030459,1.0,0.343874174,1.0,0.7688975140000001,1.0,0.611131737,False,,5c3e284ce0ea82000146414b,,1766065,130,,evan-feature22,,1
106,2224,131,,,,2,2,1.0,0.0,1.0,0.0,,0.0-133.0,,1.0,1690.96,0.0,0.269643308,1.0,0.35680940299999997,1.0,0.750347165,0.0,0.637401914,False,,5c3e284ce0ea82000146414b,,1777529,131,,evan-feature22,,1
107,2225,132,,,,2,2,1.0,0.0,1.0,0.0,,0.0-134.0,,1.0,453.865,0.0,0.34862530700000005,0.0,0.39833415899999997,1.0,0.7462419990000001,0.0,0.6163216739999999,False,,5c3e284ce0ea82000146414b,,1787760,132,,evan-feature22,,0
108,2227,134,,,,2,2,0.0,0.0,1.0,0.0,,0.0-136.0,,0.0,1139.05,0.0,0.34951174100000004,0.0,0.354602362,0.0,0.7448222320000001,0.0,0.6255520760000001,False,,5c3e284ce0ea82000146414b,,1801528,134,,evan-feature22,,0
109,2228,135,,,,2,2,1.0,0.0,1.0,0.0,,0.0-137.0,,1.0,418.14,1.0,0.42128431899999996,0.0,0.338837396,1.0,0.8,0.0,0.677864288,False,,5c3e284ce0ea82000146414b,,1811725,135,,evan-feature22,,0
110,2229,136,,,,2,2,0.0,1.0,1.0,0.0,,0.0-138.0,,0.0,893.21,0.0,0.40754956200000003,0.0,0.38026053,0.0,0.8,1.0,0.748827916,False,,5c3e284ce0ea82000146414b,,1822406,136,,evan-feature22,,0
111,2230,137,,,,2,2,1.0,0.0,1.0,0.0,,0.0-139.0,,1.0,962.165,1.0,0.43124738100000004,0.0,0.37964172799999996,1.0,0.75733039,0.0,0.78666299,False,,5c3e284ce0ea82000146414b,,1833176,137,,evan-feature22,,0
112,2231,138,,,,2,2,1.0,0.0,1.0,0.0,,0.0-140.0,,1.0,731.5250001,0.0,0.39810382899999996,0.0,0.36191889200000005,1.0,0.8,0.0,0.8,False,,5c3e284ce0ea82000146414b,,1843686,138,,evan-feature22,,0
113,2232,139,,,,2,2,0.0,0.0,0.0,-1.0,,0.0-141.0,,0.0,1867.885,0.0,0.35893383700000003,0.0,0.420001005,0.0,0.8,0.0,0.760034896,False,,5c3e284ce0ea82000146414b,,1855321,139,,evan-feature22,,0
114,2233,140,,,,2,2,1.0,1.0,1.0,0.0,,0.0-142.0,,1.0,836.075,1.0,0.315146737,0.0,0.472877564,1.0,0.8,1.0,0.7245440759999999,False,,5c3e284ce0ea82000146414b,,1865936,140,,evan-feature22,,0
115,2234,141,,,,2,2,0.0,1.0,1.0,0.0,,0.0-143.0,,0.0,523.655,0.0,0.311027138,0.0,0.42634755700000004,0.0,0.7793870709999999,1.0,0.702445579,False,,5c3e284ce0ea82000146414b,,1876244,141,,evan-feature22,,0
116,2235,142,,,,2,2,1.0,1.0,1.0,0.0,,0.0-144.0,,1.0,406.3799999,0.0,0.330974778,1.0,0.528633881,1.0,0.8,1.0,0.7338857670000001,False,,5c3e284ce0ea82000146414b,,1886438,142,,evan-feature22,,0
117,2236,143,,,,2,2,1.0,1.0,1.0,0.0,,0.0-145.0,,1.0,475.205,0.0,0.311747957,0.0,0.571262299,1.0,0.719957003,1.0,0.7333429690000001,False,,5c3e284ce0ea82000146414b,,1896687,143,,evan-feature22,,0
118,2237,144,,,,2,2,1.0,1.0,0.0,-1.0,,0.0-146.0,,-1.0,1922.835,0.0,0.33129749999999997,0.0,0.637148948,1.0,0.794592668,1.0,0.7305738140000001,False,,5c3e284ce0ea82000146414b,,1908408,144,,evan-feature22,,0
119,2238,145,,,,2,2,1.0,1.0,1.0,0.0,,0.0-147.0,,1.0,963.7750001,1.0,0.320701745,1.0,0.599776138,1.0,0.8,1.0,0.7391144959999999,False,,5c3e284ce0ea82000146414b,,1919146,145,,evan-feature22,,0
120,2239,146,,,,2,2,0.0,1.0,1.0,0.0,,0.0-148.0,,0.0,682.75,0.0,0.388045514,1.0,0.564238847,0.0,0.726841947,1.0,0.720015904,False,,5c3e284ce0ea82000146414b,,1929603,146,,evan-feature22,,0
121,2240,147,,,,2,2,1.0,0.0,1.0,0.0,,0.0-149.0,,1.0,651.45,0.0,0.34414259700000005,0.0,0.56543745,1.0,0.7634386470000001,0.0,0.726727589,False,,5c3e284ce0ea82000146414b,,1940034,147,,evan-feature22,,0
122,2241,148,,,,2,2,1.0,1.0,0.0,-1.0,,0.0-150.0,,-1.0,1883.15,0.0,0.38897054200000003,0.0,0.567453633,1.0,0.6835880740000001,1.0,0.722632945,False,,5c3e284ce0ea82000146414b,,1951707,148,,evan-feature22,,0
123,2242,149,,,,1,1,0.0,0.0,0.0,-1.0,,0.0-151.0,,0.0,625.73,0.0,0.322991325,0.0,0.562377934,1.0,0.7234406,0.0,0.699632035,False,,5c3e284ce0ea82000146414b,,1962102,149,,evan-feature22,,1
124,2243,150,,,,1,1,0.0,1.0,0.0,-1.0,,0.0-152.0,,-1.0,901.5149999,0.0,0.327575607,1.0,0.614124007,0.0,0.766310246,0.0,0.7062665440000001,False,,5c3e284ce0ea82000146414b,,1972775,150,,evan-feature22,,0
125,2244,151,,,,2,2,1.0,0.0,1.0,0.0,,0.0-153.0,,1.0,743.1849999,1.0,0.307253769,1.0,0.625616624,1.0,0.766156052,0.0,0.691343484,False,,5c3e284ce0ea82000146414b,,1983296,151,,evan-feature22,,1
126,2245,152,,,,2,2,1.0,1.0,1.0,0.0,,0.0-154.0,,1.0,690.83,1.0,0.270434491,0.0,0.582288488,1.0,0.747456207,1.0,0.644724024,False,,5c3e284ce0ea82000146414b,,1993796,152,,evan-feature22,,0
127,2246,153,,,,2,2,1.0,0.0,1.0,0.0,,0.0-155.0,,1.0,509.555,0.0,0.23885132399999998,0.0,0.58944423,1.0,0.705759073,0.0,0.69687762,False,,5c3e284ce0ea82000146414b,,2004080,153,,evan-feature22,,0
128,2247,154,,,,2,2,1.0,1.0,1.0,0.0,,0.0-156.0,,1.0,898.83,0.0,0.27303527899999996,0.0,0.653244432,1.0,0.7379850659999999,1.0,0.680041152,False,,5c3e284ce0ea82000146414b,,2014771,154,,evan-feature22,,0
129,2248,155,,,,2,2,1.0,0.0,1.0,0.0,,0.0-157.0,,1.0,777.6349999,1.0,0.316190693,1.0,0.652685892,1.0,0.7791168390000001,0.0,0.669352924,False,,5c3e284ce0ea82000146414b,,2025356,155,,evan-feature22,,0
130,2249,156,,,,2,2,1.0,0.0,0.0,-1.0,,0.0-158.0,,0.0,2278.445,0.0,0.282759714,1.0,0.670973046,1.0,0.7725793120000001,0.0,0.7068984620000001,False,,5c3e284ce0ea82000146414b,,2037411,156,,evan-feature22,,0
131,2250,157,,,,2,2,1.0,1.0,0.0,-1.0,,0.0-159.0,,-1.0,1111.645,1.0,0.311304958,1.0,0.664496179,1.0,0.770911936,1.0,0.662452385,False,,5c3e284ce0ea82000146414b,,2048303,157,,evan-feature22,,0
132,2251,158,,,,2,2,1.0,0.0,1.0,0.0,,0.0-160.0,,1.0,922.3250001,0.0,0.23102840100000002,1.0,0.665682142,1.0,0.8,0.0,0.7239157279999999,False,,5c3e284ce0ea82000146414b,,2059016,158,,evan-feature22,,0
133,2252,159,,,,2,2,1.0,1.0,0.0,-1.0,,0.0-161.0,,-1.0,1755.97,0.0,0.28482291600000004,1.0,0.677059392,1.0,0.7779785159999999,1.0,0.7730907890000001,False,,5c3e284ce0ea82000146414b,,2070547,159,,evan-feature22,,0
134,2253,160,,,,2,2,0.0,1.0,1.0,0.0,,0.0-162.0,,0.0,809.645,1.0,0.281805339,1.0,0.709430661,0.0,0.734681215,1.0,0.7916117109999999,False,,5c3e284ce0ea82000146414b,,2081158,160,,evan-feature22,,0
135,2254,161,,,,2,2,1.0,1.0,0.0,-1.0,,0.0-163.0,,-1.0,1460.24,0.0,0.271779094,0.0,0.7253293909999999,1.0,0.667430043,1.0,0.7465941070000001,False,,5c3e284ce0ea82000146414b,,2092396,161,,evan-feature22,,0
136,2255,162,,,,2,2,0.0,1.0,1.0,0.0,,0.0-164.0,,0.0,1773.77,0.0,0.300513275,1.0,0.7812887740000001,0.0,0.7620008420000001,1.0,0.681217126,False,,5c3e284ce0ea82000146414b,,2103943,162,,evan-feature22,,0
137,2256,163,,,,2,2,1.0,0.0,1.0,0.0,,0.0-165.0,,1.0,738.84,0.0,0.285291337,0.0,0.792315016,1.0,0.792446219,0.0,0.676388503,False,,5c3e284ce0ea82000146414b,,2114454,163,,evan-feature22,,0
138,2257,164,,,,2,2,1.0,0.0,1.0,0.0,,0.0-166.0,,1.0,458.275,0.0,0.318404507,1.0,0.7986219379999999,1.0,0.8,0.0,0.586973186,False,,5c3e284ce0ea82000146414b,,2124693,164,,evan-feature22,,0
139,2258,165,,,,2,2,1.0,1.0,0.0,-1.0,,0.0-167.0,,-1.0,1331.375,0.0,0.31839587399999997,1.0,0.8,1.0,0.8,1.0,0.591939169,False,,5c3e284ce0ea82000146414b,,2135798,165,,evan-feature22,,0
140,2259,166,,,,2,2,0.0,1.0,0.0,-1.0,,0.0-168.0,,-1.0,1125.71,1.0,0.318235741,1.0,0.8,0.0,0.776403022,1.0,0.537290213,False,,5c3e284ce0ea82000146414b,,2146699,166,,evan-feature22,,0
141,2260,167,,,,2,2,1.0,1.0,0.0,-1.0,,0.0-169.0,,-1.0,858.425,0.0,0.264600799,1.0,0.8,1.0,0.8,1.0,0.5550949820000001,False,,5c3e284ce0ea82000146414b,,2157338,167,,evan-feature22,,0
142,2261,168,,,,2,2,1.0,1.0,1.0,0.0,,0.0-170.0,,1.0,1055.925,0.0,0.2,1.0,0.8,1.0,0.748932513,1.0,0.556644326,False,,5c3e284ce0ea82000146414b,,2168190,168,,evan-feature22,,0
143,2262,169,,,,2,2,1.0,0.0,0.0,-1.0,,0.0-171.0,,0.0,1195.87,1.0,0.2,1.0,0.7596584820000001,1.0,0.709749046,0.0,0.523498068,False,,5c3e284ce0ea82000146414b,,2179197,169,,evan-feature22,,0
144,2263,170,,,,2,2,1.0,1.0,1.0,0.0,,0.0-172.0,,1.0,1069.67,0.0,0.22718354,1.0,0.779429488,1.0,0.689430329,1.0,0.444999056,False,,5c3e284ce0ea82000146414b,,2190042,170,,evan-feature22,,0
145,2264,171,,,,2,2,1.0,0.0,0.0,-1.0,,0.0-173.0,,0.0,2670.845,0.0,0.24989155300000002,1.0,0.790984417,1.0,0.724563167,0.0,0.401944281,False,,5c3e284ce0ea82000146414b,,2202492,171,,evan-feature22,,0
146,2265,172,,,,2,2,0.0,0.0,1.0,0.0,,0.0-174.0,,0.0,949.35,0.0,0.26528147399999996,1.0,0.8,0.0,0.748463215,0.0,0.314270227,False,,5c3e284ce0ea82000146414b,,2213212,172,,evan-feature22,,0
147,2266,173,,,,2,2,1.0,0.0,1.0,0.0,,0.0-175.0,,1.0,613.8149999,0.0,0.262909345,1.0,0.7769973459999999,1.0,0.727316387,0.0,0.296676442,False,,5c3e284ce0ea82000146414b,,2223599,173,,evan-feature22,,0
148,2267,174,,,,2,2,1.0,0.0,1.0,0.0,,0.0-176.0,,1.0,937.505,1.0,0.276612486,0.0,0.768502158,1.0,0.719051618,0.0,0.287033897,False,,5c3e284ce0ea82000146414b,,2234312,174,,evan-feature22,,0
149,2268,175,,,,2,2,0.0,0.0,0.0,-1.0,,0.0-177.0,,0.0,1356.31,0.0,0.312468593,0.0,0.8,0.0,0.669738485,0.0,0.25479958399999997,False,,5c3e284ce0ea82000146414b,,2245438,175,,evan-feature22,,0
150,2269,176,,,,2,2,1.0,1.0,1.0,0.0,,0.0-178.0,,1.0,1160.91,0.0,0.32745155600000003,0.0,0.8,1.0,0.709398745,1.0,0.20145359899999998,False,,5c3e284ce0ea82000146414b,,2256391,176,,evan-feature22,,0
151,2270,177,,,,2,2,1.0,0.0,1.0,0.0,,0.0-179.0,,1.0,496.305,1.0,0.367895585,1.0,0.8,1.0,0.7301204440000001,0.0,0.215433128,False,,5c3e284ce0ea82000146414b,,2266684,177,,evan-feature22,,0
152,2271,178,,,,2,2,1.0,0.0,1.0,0.0,,0.0-180.0,,1.0,770.97,0.0,0.42422632200000004,0.0,0.8,1.0,0.8,0.0,0.215904592,False,,5c3e284ce0ea82000146414b,,2277236,178,,evan-feature22,,0
153,2272,179,,,,2,2,1.0,0.0,1.0,0.0,,0.0-181.0,,1.0,592.3349999,0.0,0.387639646,1.0,0.7410642759999999,1.0,0.8,0.0,0.274811465,False,,5c3e284ce0ea82000146414b,,2287602,179,,evan-feature22,,0
154,2273,180,,,,2,2,1.0,0.0,1.0,0.0,,0.0-182.0,,1.0,605.38,0.0,0.397008989,1.0,0.6990261879999999,1.0,0.8,0.0,0.263811886,False,,5c3e284ce0ea82000146414b,,2297996,180,,evan-feature22,,0
155,2274,181,,,,2,2,1.0,0.0,0.0,-1.0,,0.0-183.0,,0.0,1108.975,0.0,0.39142335799999994,1.0,0.663298252,1.0,0.8,0.0,0.2,False,,5c3e284ce0ea82000146414b,,2308879,181,,evan-feature22,,0
156,2275,182,,,,2,2,0.0,0.0,0.0,-1.0,,0.0-184.0,,0.0,986.15,1.0,0.42455550200000003,1.0,0.670214687,0.0,0.720478215,0.0,0.229312684,False,,5c3e284ce0ea82000146414b,,2319637,182,,evan-feature22,,0
157,2276,183,,,,2,2,0.0,0.0,0.0,-1.0,,0.0-185.0,,0.0,772.28,1.0,0.42232195899999997,1.0,0.6970075259999999,0.0,0.773056416,0.0,0.212995684,False,,5c3e284ce0ea82000146414b,,2330181,183,,evan-feature22,,0
158,2277,184,,,,2,2,1.0,0.0,0.0,-1.0,,0.0-186.0,,0.0,619.195,0.0,0.34468955,1.0,0.713492603,1.0,0.747935676,0.0,0.2,False,,5c3e284ce0ea82000146414b,,2340576,184,,evan-feature22,,0
159,2278,185,,,,2,2,1.0,0.0,1.0,0.0,,0.0-187.0,,1.0,913.82,0.0,0.35815455799999996,1.0,0.6900582940000001,1.0,0.770945531,0.0,0.20526726399999998,False,,5c3e284ce0ea82000146414b,,2351269,185,,evan-feature22,,0
160,2279,186,notice,,,,,,,,,,0.0-188.0,"{""Q0"":""the left door seemed the safer bet at first but then in the second half it was the right door""}",,50336.0,,,,,,,,,False,,5c3e284ce0ea82000146414b,,2401608,186,Q,survey-text,,1
161,2280,187,track1,,[0],,,,,,,,0.0-189.0,"{""Q0"":""yes""}",,10077.0,,,,,,,,,False,,5c3e284ce0ea82000146414b,,2411689,187,Q,evan-quiz,,1
162,2281,188,track2,,[2],,,,,,,,0.0-190.0,"{""Q0"":""N/A""}",,12300.0,,,,,,,,,False,,5c3e284ce0ea82000146414b,,2423993,188,Q,evan-quiz,,1
163,2282,189,strat,,,,,,,,,,0.0-191.0,"{""Q0"":""following the trends as best i could. weighing the risk""}",,28012.0,,,,,,,,,False,,5c3e284ce0ea82000146414b,,2452008,189,Q,survey-text,,1
