,index,Unnamed: 0,Q_name,button_pressed,choice_idxs,chosen_pos,chosen_state,chosen_state_f_1_outcome,chosen_state_f_2_outcome,f_1_reward,f_2_reward,incor_questions,internal_node_id,responses,reward_received,rt,s_1_f_1_outcome,s_1_f_1_prob,s_1_f_2_outcome,s_1_f_2_prob,s_2_f_1_outcome,s_2_f_1_prob,s_2_f_2_outcome,s_2_f_2_prob,safe_first,stimulus,subjectID,success,time_elapsed,trial_index,trial_num,trial_type,view_history,switching
0,984,29,,,,1,1,1.0,1.0,1.0,0.0,,0.0-26.0,,1.0,832.0,1.0,0.758395892,1.0,0.666783589,0.0,0.39893396600000003,0.0,0.29433458,True,,5f5213ddca1734052a5f4f3a,,534486,29,,evan-feature22,,0
1,985,30,,,,1,1,1.0,1.0,1.0,0.0,,0.0-27.0,,1.0,672.0,1.0,0.749113302,1.0,0.6410334639999999,1.0,0.374554754,0.0,0.32429597,True,,5f5213ddca1734052a5f4f3a,,544951,30,,evan-feature22,,0
2,986,31,,,,1,1,1.0,1.0,1.0,0.0,,0.0-28.0,,1.0,1078.0,1.0,0.7692293659999999,1.0,0.673489452,0.0,0.38936336299999996,1.0,0.40805484299999994,True,,5f5213ddca1734052a5f4f3a,,555819,31,,evan-feature22,,0
3,987,32,,,,1,1,0.0,0.0,1.0,0.0,,0.0-29.0,,0.0,667.0,0.0,0.794299593,0.0,0.7056914559999999,1.0,0.452628219,1.0,0.42653274,True,,5f5213ddca1734052a5f4f3a,,566275,32,,evan-feature22,,0
4,988,33,,,,1,1,0.0,0.0,0.0,-1.0,,0.0-30.0,,0.0,2195.0,0.0,0.8,0.0,0.7342765809999999,0.0,0.423370724,0.0,0.432069981,True,,5f5213ddca1734052a5f4f3a,,578255,33,,evan-feature22,,0
5,989,34,,,,1,1,0.0,1.0,0.0,-1.0,,0.0-31.0,,-1.0,2081.0,0.0,0.77615632,1.0,0.671157041,1.0,0.457156974,0.0,0.464632121,True,,5f5213ddca1734052a5f4f3a,,590123,34,,evan-feature22,,0
6,990,35,,,,1,1,1.0,1.0,1.0,0.0,,0.0-32.0,,1.0,1254.0,1.0,0.760618163,1.0,0.6459397610000001,0.0,0.471572527,0.0,0.372324295,True,,5f5213ddca1734052a5f4f3a,,601168,35,,evan-feature22,,0
7,991,36,,,,1,1,1.0,1.0,1.0,0.0,,0.0-33.0,,1.0,549.0,1.0,0.747676711,1.0,0.596965425,0.0,0.46128409299999995,0.0,0.348031934,True,,5f5213ddca1734052a5f4f3a,,611491,36,,evan-feature22,,0
8,992,37,,,,1,1,1.0,0.0,0.0,-1.0,,0.0-34.0,,0.0,1736.0,1.0,0.7589599690000001,0.0,0.576201125,0.0,0.508614774,0.0,0.366452805,True,,5f5213ddca1734052a5f4f3a,,623009,37,,evan-feature22,,0
9,993,38,,,,1,1,1.0,0.0,0.0,-1.0,,0.0-35.0,,0.0,1025.0,1.0,0.8,0.0,0.561117359,1.0,0.552349312,1.0,0.38521346,True,,5f5213ddca1734052a5f4f3a,,633818,38,,evan-feature22,,0
10,994,39,,,,1,1,1.0,0.0,1.0,0.0,,0.0-36.0,,1.0,730.0,1.0,0.7713106559999999,0.0,0.61964539,0.0,0.596823475,0.0,0.42932164100000003,True,,5f5213ddca1734052a5f4f3a,,644331,39,,evan-feature22,,0
11,995,40,,,,1,1,1.0,0.0,0.0,-1.0,,0.0-37.0,,0.0,659.0,1.0,0.8,0.0,0.626226927,1.0,0.60332109,0.0,0.378687767,True,,5f5213ddca1734052a5f4f3a,,654771,40,,evan-feature22,,0
12,996,41,,,,1,1,1.0,1.0,1.0,0.0,,0.0-38.0,,1.0,848.0,1.0,0.8,1.0,0.625397042,1.0,0.6178893529999999,1.0,0.385361015,True,,5f5213ddca1734052a5f4f3a,,665402,41,,evan-feature22,,0
13,997,42,,,,1,1,1.0,1.0,1.0,0.0,,0.0-39.0,,1.0,805.0,1.0,0.8,1.0,0.634158766,0.0,0.593227747,1.0,0.347942274,True,,5f5213ddca1734052a5f4f3a,,675998,42,,evan-feature22,,0
14,998,43,,,,1,1,1.0,1.0,1.0,0.0,,0.0-40.0,,1.0,972.0,1.0,0.780131997,1.0,0.63264508,0.0,0.554391083,1.0,0.40680791200000005,True,,5f5213ddca1734052a5f4f3a,,686751,43,,evan-feature22,,0
15,999,44,,,,1,1,1.0,1.0,1.0,0.0,,0.0-41.0,,1.0,443.0,1.0,0.8,1.0,0.648202298,1.0,0.515718575,0.0,0.427451178,True,,5f5213ddca1734052a5f4f3a,,696977,44,,evan-feature22,,0
16,1000,45,,,,1,1,1.0,1.0,1.0,0.0,,0.0-42.0,,1.0,539.0,1.0,0.78377078,1.0,0.67965253,1.0,0.537109201,0.0,0.43219395899999996,True,,5f5213ddca1734052a5f4f3a,,707303,45,,evan-feature22,,0
17,1001,46,,,,1,1,1.0,0.0,1.0,0.0,,0.0-43.0,,1.0,1031.0,1.0,0.8,0.0,0.6777571290000001,1.0,0.525795655,1.0,0.41902666299999997,True,,5f5213ddca1734052a5f4f3a,,718121,46,,evan-feature22,,0
18,1002,47,,,,1,1,1.0,0.0,1.0,0.0,,0.0-44.0,,1.0,3105.0,1.0,0.754949303,0.0,0.6501381039999999,0.0,0.528431942,0.0,0.404639057,True,,5f5213ddca1734052a5f4f3a,,731008,47,,evan-feature22,,0
19,1003,48,,,,1,1,0.0,1.0,0.0,-1.0,,0.0-45.0,,-1.0,724.0,0.0,0.8,1.0,0.655926243,1.0,0.477718095,0.0,0.382683792,True,,5f5213ddca1734052a5f4f3a,,741517,48,,evan-feature22,,0
20,1004,49,,,,1,1,1.0,1.0,1.0,0.0,,0.0-46.0,,1.0,872.0,1.0,0.743293998,1.0,0.612656833,0.0,0.458332775,0.0,0.437340995,True,,5f5213ddca1734052a5f4f3a,,752180,49,,evan-feature22,,0
21,1005,50,,,,1,1,0.0,1.0,1.0,0.0,,0.0-47.0,,0.0,771.0,0.0,0.7410552840000001,1.0,0.619286527,0.0,0.472797571,0.0,0.531525128,True,,5f5213ddca1734052a5f4f3a,,762730,50,,evan-feature22,,0
22,1006,51,,,,1,1,0.0,0.0,1.0,0.0,,0.0-48.0,,0.0,723.0,0.0,0.727897085,0.0,0.6228321520000001,0.0,0.39601617,0.0,0.5762136520000001,True,,5f5213ddca1734052a5f4f3a,,773239,51,,evan-feature22,,0
23,1007,52,,,,1,1,1.0,1.0,0.0,-1.0,,0.0-49.0,,-1.0,1011.0,1.0,0.742532732,1.0,0.609740775,0.0,0.391742951,0.0,0.521061141,True,,5f5213ddca1734052a5f4f3a,,784034,52,,evan-feature22,,0
24,1008,53,,,,1,1,0.0,0.0,0.0,-1.0,,0.0-50.0,,0.0,411.0,0.0,0.6783303620000001,0.0,0.664637619,1.0,0.361203638,1.0,0.520299591,True,,5f5213ddca1734052a5f4f3a,,794233,53,,evan-feature22,,0
25,1009,54,,,,2,2,0.0,1.0,0.0,-1.0,,0.0-51.0,,-1.0,2168.0,0.0,0.6942499459999999,1.0,0.6667926479999999,0.0,0.323890969,1.0,0.572468191,True,,5f5213ddca1734052a5f4f3a,,806183,54,,evan-feature22,,1
26,1010,55,,,,1,1,1.0,0.0,1.0,0.0,,0.0-52.0,,1.0,551.0,1.0,0.7125347329999999,0.0,0.623869494,1.0,0.31056222,1.0,0.537072927,True,,5f5213ddca1734052a5f4f3a,,816522,55,,evan-feature22,,1
27,1011,56,,,,1,1,1.0,1.0,1.0,0.0,,0.0-53.0,,1.0,776.0,1.0,0.798095036,1.0,0.6311493570000001,0.0,0.25725538600000003,0.0,0.580461963,True,,5f5213ddca1734052a5f4f3a,,827082,56,,evan-feature22,,0
28,1012,57,,,,1,1,1.0,0.0,1.0,0.0,,0.0-54.0,,1.0,512.0,1.0,0.777435118,0.0,0.598930454,1.0,0.251420798,1.0,0.588308898,True,,5f5213ddca1734052a5f4f3a,,837384,57,,evan-feature22,,0
29,1013,58,,,,1,1,1.0,0.0,1.0,0.0,,0.0-55.0,,1.0,600.0,1.0,0.759582808,0.0,0.5325010020000001,1.0,0.244240244,1.0,0.57555856,True,,5f5213ddca1734052a5f4f3a,,847759,58,,evan-feature22,,0
30,1014,59,,,,1,1,1.0,1.0,1.0,0.0,,0.0-56.0,,1.0,8.0,1.0,0.731730696,1.0,0.507277796,0.0,0.281049518,1.0,0.563427294,True,,5f5213ddca1734052a5f4f3a,,857540,59,,evan-feature22,,0
31,1015,60,,,,1,1,0.0,1.0,1.0,0.0,,0.0-57.0,,0.0,2437.0,0.0,0.7553872229999999,1.0,0.53317231,0.0,0.2,0.0,0.61479993,True,,5f5213ddca1734052a5f4f3a,,869758,60,,evan-feature22,,0
32,1016,61,,,,1,1,1.0,1.0,1.0,0.0,,0.0-58.0,,1.0,485.0,1.0,0.69513931,1.0,0.482219891,1.0,0.2,1.0,0.630595346,True,,5f5213ddca1734052a5f4f3a,,880035,61,,evan-feature22,,0
33,1017,62,,,,1,1,1.0,1.0,0.0,-1.0,,0.0-59.0,,-1.0,1472.0,1.0,0.760055032,1.0,0.5226485989999999,0.0,0.21430818,1.0,0.5886190689999999,True,,5f5213ddca1734052a5f4f3a,,891296,62,,evan-feature22,,0
34,1018,63,,,,1,1,1.0,0.0,1.0,0.0,,0.0-60.0,,1.0,830.0,1.0,0.766163824,0.0,0.501297504,0.0,0.270138439,1.0,0.61055715,True,,5f5213ddca1734052a5f4f3a,,901905,63,,evan-feature22,,0
35,1019,64,,,,1,1,0.0,0.0,1.0,0.0,,0.0-61.0,,0.0,403.0,0.0,0.745170882,0.0,0.461483376,0.0,0.2,0.0,0.6759266429999999,True,,5f5213ddca1734052a5f4f3a,,912093,64,,evan-feature22,,0
36,1020,65,,,,1,1,1.0,0.0,1.0,0.0,,0.0-62.0,,1.0,917.0,1.0,0.735704894,0.0,0.56650936,0.0,0.2,1.0,0.649759555,True,,5f5213ddca1734052a5f4f3a,,922795,65,,evan-feature22,,0
37,1021,66,,,,1,1,1.0,1.0,1.0,0.0,,0.0-63.0,,1.0,1021.0,1.0,0.75135719,1.0,0.601996106,1.0,0.2,1.0,0.721739204,True,,5f5213ddca1734052a5f4f3a,,933600,66,,evan-feature22,,0
38,1022,67,,,,1,1,0.0,1.0,0.0,-1.0,,0.0-64.0,,-1.0,2064.0,0.0,0.8,1.0,0.577883646,1.0,0.227956694,0.0,0.7008504040000001,True,,5f5213ddca1734052a5f4f3a,,945450,67,,evan-feature22,,0
39,1023,68,,,,1,1,0.0,0.0,1.0,0.0,,0.0-65.0,,0.0,919.0,0.0,0.782146585,0.0,0.5356383929999999,0.0,0.240522467,1.0,0.660896764,True,,5f5213ddca1734052a5f4f3a,,956151,68,,evan-feature22,,0
40,1024,69,,,,1,1,1.0,0.0,1.0,0.0,,0.0-66.0,,1.0,1214.0,1.0,0.695950925,0.0,0.51509141,0.0,0.33377865,1.0,0.6342836820000001,True,,5f5213ddca1734052a5f4f3a,,967148,69,,evan-feature22,,0
41,1025,70,,,,1,1,1.0,1.0,1.0,0.0,,0.0-67.0,,1.0,1101.0,1.0,0.726659747,1.0,0.48346054200000005,1.0,0.402086283,1.0,0.581694384,True,,5f5213ddca1734052a5f4f3a,,978027,70,,evan-feature22,,0
42,1026,71,,,,1,1,1.0,0.0,0.0,-1.0,,0.0-68.0,,0.0,938.0,1.0,0.705913111,0.0,0.537600217,0.0,0.448943518,0.0,0.5952173510000001,True,,5f5213ddca1734052a5f4f3a,,988747,71,,evan-feature22,,0
43,1027,72,,,,1,1,1.0,0.0,0.0,-1.0,,0.0-69.0,,0.0,1109.0,1.0,0.7562677179999999,0.0,0.559166276,1.0,0.5101973670000001,0.0,0.561023256,True,,5f5213ddca1734052a5f4f3a,,999635,72,,evan-feature22,,0
44,1028,73,,,,1,1,0.0,1.0,0.0,-1.0,,0.0-70.0,,-1.0,1096.0,0.0,0.7109076440000001,1.0,0.613388908,0.0,0.45078569399999996,1.0,0.6265858,True,,5f5213ddca1734052a5f4f3a,,1010521,73,,evan-feature22,,0
45,1029,74,,,,1,1,1.0,1.0,1.0,0.0,,0.0-71.0,,1.0,577.0,1.0,0.7517263059999999,1.0,0.575132706,0.0,0.43515056,1.0,0.63871568,True,,5f5213ddca1734052a5f4f3a,,1020879,74,,evan-feature22,,0
46,1030,75,,,,1,1,1.0,1.0,1.0,0.0,,0.0-72.0,,1.0,1849.0,1.0,0.757179437,1.0,0.593620551,0.0,0.454073093,0.0,0.626973291,True,,5f5213ddca1734052a5f4f3a,,1032515,75,,evan-feature22,,0
47,1031,76,,,,1,1,0.0,1.0,1.0,0.0,,0.0-73.0,,0.0,671.0,0.0,0.748038451,1.0,0.6098695,1.0,0.38327690299999995,1.0,0.684561392,True,,5f5213ddca1734052a5f4f3a,,1042966,76,,evan-feature22,,0
48,1032,77,,,,1,1,0.0,1.0,1.0,0.0,,0.0-74.0,,0.0,972.0,0.0,0.6785645929999999,1.0,0.6116548479999999,0.0,0.45625733799999996,1.0,0.619523947,True,,5f5213ddca1734052a5f4f3a,,1053724,77,,evan-feature22,,0
49,1033,78,,,,1,1,0.0,1.0,1.0,0.0,,0.0-75.0,,0.0,2375.0,0.0,0.624895127,1.0,0.619112572,0.0,0.534506586,1.0,0.6286811,True,,5f5213ddca1734052a5f4f3a,,1065881,78,,evan-feature22,,0
50,1034,79,,,,1,1,1.0,0.0,0.0,-1.0,,0.0-76.0,,0.0,1657.0,1.0,0.626598995,0.0,0.561681832,0.0,0.5338345529999999,1.0,0.699225106,True,,5f5213ddca1734052a5f4f3a,,1077323,79,,evan-feature22,,0
51,1035,80,,,,1,1,1.0,1.0,0.0,-1.0,,0.0-77.0,,-1.0,1605.0,1.0,0.619791351,1.0,0.648089067,0.0,0.554773755,1.0,0.719829837,True,,5f5213ddca1734052a5f4f3a,,1088718,80,,evan-feature22,,0
52,1036,81,,,,2,2,1.0,1.0,1.0,0.0,,0.0-78.0,,1.0,1590.0,1.0,0.631881247,1.0,0.584052341,1.0,0.567943017,1.0,0.7417000229999999,True,,5f5213ddca1734052a5f4f3a,,1100098,81,,evan-feature22,,1
53,1037,82,,,,1,1,0.0,1.0,0.0,-1.0,,0.0-79.0,,-1.0,1189.0,0.0,0.64968251,1.0,0.568222121,1.0,0.629368633,1.0,0.8,True,,5f5213ddca1734052a5f4f3a,,1111072,82,,evan-feature22,,1
54,1039,84,,,,1,1,0.0,1.0,1.0,0.0,,0.0-81.0,,0.0,1855.0,0.0,0.663645983,1.0,0.608852351,0.0,0.61806748,1.0,0.8,True,,5f5213ddca1734052a5f4f3a,,1127065,84,,evan-feature22,,0
55,1040,85,,,,1,1,0.0,0.0,0.0,-1.0,,0.0-82.0,,0.0,1841.0,0.0,0.667073374,0.0,0.622694241,0.0,0.605227886,1.0,0.783313017,True,,5f5213ddca1734052a5f4f3a,,1138692,85,,evan-feature22,,0
56,1041,86,,,,1,1,1.0,1.0,1.0,0.0,,0.0-83.0,,1.0,2105.0,1.0,0.7605589079999999,1.0,0.6334344160000001,0.0,0.59379959,1.0,0.73861361,True,,5f5213ddca1734052a5f4f3a,,1150580,86,,evan-feature22,,0
57,1042,87,,,,1,1,1.0,0.0,1.0,0.0,,0.0-84.0,,1.0,3291.0,1.0,0.7544831240000001,0.0,0.660936699,0.0,0.509492795,1.0,0.6462146910000001,True,,5f5213ddca1734052a5f4f3a,,1163655,87,,evan-feature22,,0
58,1043,88,,,,1,1,1.0,0.0,1.0,0.0,,0.0-85.0,,1.0,2623.0,1.0,0.7274789429999999,0.0,0.662769615,0.0,0.544926524,0.0,0.688483132,True,,5f5213ddca1734052a5f4f3a,,1176062,88,,evan-feature22,,0
59,1044,89,,,,1,1,0.0,1.0,0.0,-1.0,,0.0-86.0,,-1.0,1407.0,0.0,0.8,1.0,0.623524457,0.0,0.5648388320000001,1.0,0.681239038,True,,5f5213ddca1734052a5f4f3a,,1187255,89,,evan-feature22,,0
60,1045,90,,,,1,1,0.0,1.0,0.0,-1.0,,0.0-87.0,,-1.0,1148.0,0.0,0.8,1.0,0.670753133,1.0,0.5158076,0.0,0.627836146,True,,5f5213ddca1734052a5f4f3a,,1198185,90,,evan-feature22,,0
61,1046,91,,,,1,1,1.0,0.0,0.0,-1.0,,0.0-88.0,,0.0,2613.0,1.0,0.775527162,0.0,0.681016775,0.0,0.51377463,1.0,0.626808982,True,,5f5213ddca1734052a5f4f3a,,1210583,91,,evan-feature22,,0
62,1047,92,,,,1,1,1.0,0.0,1.0,0.0,,0.0-89.0,,1.0,1586.0,1.0,0.7596868990000001,0.0,0.656386777,0.0,0.507155515,1.0,0.657587271,True,,5f5213ddca1734052a5f4f3a,,1221958,92,,evan-feature22,,0
63,1048,93,,,,1,1,1.0,0.0,0.0,-1.0,,0.0-90.0,,0.0,1412.0,1.0,0.7697730429999999,0.0,0.6696294279999999,0.0,0.405621956,0.0,0.632466576,True,,5f5213ddca1734052a5f4f3a,,1233156,93,,evan-feature22,,0
64,1049,94,,,,1,1,0.0,0.0,1.0,0.0,,0.0-91.0,,0.0,2504.0,0.0,0.733077865,0.0,0.589734488,0.0,0.35222996799999995,1.0,0.605848783,True,,5f5213ddca1734052a5f4f3a,,1245443,94,,evan-feature22,,0
65,1050,95,,,,1,1,1.0,1.0,0.0,-1.0,,0.0-92.0,,-1.0,510.0,1.0,0.7516953259999999,1.0,0.571952819,0.0,0.35600478799999996,1.0,0.5556085629999999,True,,5f5213ddca1734052a5f4f3a,,1255739,95,,evan-feature22,,0
66,1051,96,,,,SLOW,SLOW,,,1.0,0.0,,0.0-93.0,,-3.0,,0.0,0.7335224459999999,1.0,0.6532418560000001,0.0,0.343718615,0.0,0.494468134,True,,5f5213ddca1734052a5f4f3a,,1261554,96,,evan-feature22,,1
67,1052,97,,,,1,1,1.0,1.0,1.0,0.0,,0.0-94.0,,1.0,1220.0,1.0,0.7124817590000001,1.0,0.6390774810000001,0.0,0.339057567,1.0,0.470845749,True,,5f5213ddca1734052a5f4f3a,,1272567,97,,evan-feature22,,1
68,1053,98,,,,1,1,1.0,1.0,1.0,0.0,,0.0-95.0,,1.0,586.0,1.0,0.6784382870000001,1.0,0.619313665,1.0,0.307093978,1.0,0.551459799,True,,5f5213ddca1734052a5f4f3a,,1282937,98,,evan-feature22,,0
69,1054,99,,,,1,1,0.0,1.0,0.0,-1.0,,0.0-96.0,,-1.0,694.0,0.0,0.6652083129999999,1.0,0.597460688,0.0,0.35021752799999994,1.0,0.539363545,True,,5f5213ddca1734052a5f4f3a,,1293419,99,,evan-feature22,,0
70,1055,100,,,,1,1,1.0,1.0,1.0,0.0,,0.0-97.0,,1.0,441.0,1.0,0.661769563,1.0,0.6237266220000001,0.0,0.43284700200000004,1.0,0.527128728,True,,5f5213ddca1734052a5f4f3a,,1303645,100,,evan-feature22,,0
71,1056,101,,,,1,1,0.0,1.0,1.0,0.0,,0.0-98.0,,0.0,548.0,0.0,0.655523738,1.0,0.630055609,1.0,0.430599471,0.0,0.516819818,True,,5f5213ddca1734052a5f4f3a,,1313972,101,,evan-feature22,,0
72,1057,102,,,,1,1,1.0,1.0,1.0,0.0,,0.0-99.0,,1.0,884.0,1.0,0.584426545,1.0,0.6294940170000001,0.0,0.482109399,0.0,0.49310232299999995,True,,5f5213ddca1734052a5f4f3a,,1324638,102,,evan-feature22,,0
73,1058,103,,,,1,1,1.0,0.0,1.0,0.0,,0.0-100.0,,1.0,862.0,1.0,0.593661942,0.0,0.598116517,0.0,0.49481257100000003,0.0,0.515932226,True,,5f5213ddca1734052a5f4f3a,,1335291,103,,evan-feature22,,0
74,1059,104,,,,1,1,0.0,0.0,1.0,0.0,,0.0-101.0,,0.0,980.0,0.0,0.592880538,0.0,0.621605935,1.0,0.38945895799999997,1.0,0.561640435,True,,5f5213ddca1734052a5f4f3a,,1346048,104,,evan-feature22,,0
75,1060,105,,,,1,1,1.0,1.0,0.0,-1.0,,0.0-102.0,,-1.0,556.0,1.0,0.601007589,1.0,0.608277141,0.0,0.34376450299999994,1.0,0.470029965,True,,5f5213ddca1734052a5f4f3a,,1356389,105,,evan-feature22,,0
76,1061,106,,,,1,1,0.0,1.0,0.0,-1.0,,0.0-103.0,,-1.0,849.0,0.0,0.646855036,1.0,0.662806372,0.0,0.25660331399999997,0.0,0.519482362,True,,5f5213ddca1734052a5f4f3a,,1367024,106,,evan-feature22,,0
77,1062,107,,,,1,1,0.0,0.0,0.0,-1.0,,0.0-104.0,,0.0,1381.0,0.0,0.642867724,0.0,0.632049246,0.0,0.25676069100000004,0.0,0.595191797,True,,5f5213ddca1734052a5f4f3a,,1378188,107,,evan-feature22,,0
78,1063,108,,,,1,1,1.0,0.0,0.0,-1.0,,0.0-105.0,,0.0,1991.0,1.0,0.645698706,0.0,0.606934848,0.0,0.253726265,0.0,0.605564476,True,,5f5213ddca1734052a5f4f3a,,1389965,108,,evan-feature22,,0
79,1064,109,,,,1,1,0.0,1.0,1.0,0.0,,0.0-106.0,,0.0,940.0,0.0,0.57365172,1.0,0.644616344,1.0,0.235666944,0.0,0.542830548,True,,5f5213ddca1734052a5f4f3a,,1400697,109,,evan-feature22,,0
80,1065,110,,,,1,1,1.0,1.0,0.0,-1.0,,0.0-107.0,,-1.0,1288.0,1.0,0.57365172,1.0,0.644616344,0.0,0.235666944,1.0,0.542830548,True,,5f5213ddca1734052a5f4f3a,,1411772,110,,evan-feature22,,0
81,1066,111,,,,1,1,0.0,1.0,0.0,-1.0,,0.0-108.0,,-1.0,2525.0,0.0,0.571544656,1.0,0.605228935,0.0,0.254414551,0.0,0.54267317,True,,5f5213ddca1734052a5f4f3a,,1424090,111,,evan-feature22,,0
82,1067,112,,,,1,1,0.0,0.0,0.0,-1.0,,0.0-109.0,,0.0,1018.0,0.0,0.594079321,0.0,0.627731245,0.0,0.271045457,1.0,0.498184461,True,,5f5213ddca1734052a5f4f3a,,1434890,112,,evan-feature22,,0
83,1068,113,,,,1,1,0.0,1.0,0.0,-1.0,,0.0-110.0,,-1.0,462.0,0.0,0.581490524,1.0,0.61543522,1.0,0.28679829999999995,0.0,0.47334912100000004,True,,5f5213ddca1734052a5f4f3a,,1445137,113,,evan-feature22,,0
84,1069,114,,,,1,1,1.0,1.0,0.0,-1.0,,0.0-111.0,,-1.0,1261.0,1.0,0.508659922,1.0,0.678348122,1.0,0.293557647,0.0,0.436686776,True,,5f5213ddca1734052a5f4f3a,,1456177,114,,evan-feature22,,0
85,1070,115,,,,1,1,1.0,0.0,0.0,-1.0,,0.0-112.0,,0.0,1607.0,1.0,0.548020127,0.0,0.661356152,1.0,0.33939975200000005,0.0,0.43098076,True,,5f5213ddca1734052a5f4f3a,,1467572,115,,evan-feature22,,0
86,1071,116,,,,1,1,1.0,0.0,0.0,-1.0,,0.0-113.0,,0.0,1344.0,1.0,0.502987702,0.0,0.612211104,0.0,0.433915344,1.0,0.42255532700000004,True,,5f5213ddca1734052a5f4f3a,,1478706,116,,evan-feature22,,0
87,1072,117,,,,1,1,1.0,1.0,1.0,0.0,,0.0-114.0,,1.0,1597.0,1.0,0.459245451,1.0,0.688192936,0.0,0.45663814700000005,0.0,0.458186455,True,,5f5213ddca1734052a5f4f3a,,1490095,117,,evan-feature22,,0
88,1073,118,,,,1,1,0.0,1.0,0.0,-1.0,,0.0-115.0,,-1.0,2678.0,0.0,0.421342325,1.0,0.739800042,1.0,0.42242872299999995,1.0,0.49445062100000003,True,,5f5213ddca1734052a5f4f3a,,1502564,118,,evan-feature22,,0
89,1074,119,,,,2,2,1.0,0.0,0.0,-1.0,,0.0-116.0,,0.0,1634.0,0.0,0.471458304,1.0,0.640586494,1.0,0.412771813,0.0,0.41058669200000003,True,,5f5213ddca1734052a5f4f3a,,1513989,119,,evan-feature22,,1
90,1075,120,,,,1,1,1.0,1.0,1.0,0.0,,0.0-117.0,,1.0,2369.0,1.0,0.528101475,1.0,0.657202834,0.0,0.439859203,0.0,0.40676324799999997,True,,5f5213ddca1734052a5f4f3a,,1526147,120,,evan-feature22,,1
91,1076,121,,,,1,1,0.0,1.0,1.0,0.0,,0.0-118.0,,0.0,1145.0,0.0,0.46992311700000006,1.0,0.717492971,1.0,0.46719862100000004,0.0,0.395737313,True,,5f5213ddca1734052a5f4f3a,,1537076,121,,evan-feature22,,0
92,1077,122,,,,1,1,1.0,1.0,0.0,-1.0,,0.0-119.0,,-1.0,1419.0,1.0,0.543261297,1.0,0.7229893009999999,0.0,0.534165048,0.0,0.44477015,True,,5f5213ddca1734052a5f4f3a,,1548285,122,,evan-feature22,,0
93,1078,123,,,,1,1,1.0,1.0,0.0,-1.0,,0.0-120.0,,-1.0,3285.0,1.0,0.560921892,1.0,0.77155319,1.0,0.49136644,0.0,0.427878965,True,,5f5213ddca1734052a5f4f3a,,1561355,123,,evan-feature22,,0
94,1079,124,,,,1,1,0.0,0.0,0.0,-1.0,,0.0-121.0,,0.0,1227.0,0.0,0.589437632,0.0,0.7744310520000001,1.0,0.518505645,1.0,0.44518250600000003,True,,5f5213ddca1734052a5f4f3a,,1572367,124,,evan-feature22,,0
95,1080,125,,,,1,1,0.0,1.0,0.0,-1.0,,0.0-122.0,,-1.0,3959.0,0.0,0.600165861,1.0,0.8,0.0,0.58903051,0.0,0.48487021700000005,True,,5f5213ddca1734052a5f4f3a,,1586115,125,,evan-feature22,,0
96,1081,126,,,,2,2,0.0,1.0,1.0,0.0,,0.0-123.0,,0.0,419.0,0.0,0.541751569,1.0,0.793817715,0.0,0.557327736,1.0,0.555026485,True,,5f5213ddca1734052a5f4f3a,,1596316,126,,evan-feature22,,1
97,1082,127,,,,1,1,0.0,1.0,0.0,-1.0,,0.0-124.0,,-1.0,246.0,0.0,0.522867554,1.0,0.8,0.0,0.608505506,0.0,0.616047291,True,,5f5213ddca1734052a5f4f3a,,1606354,127,,evan-feature22,,1
98,1083,128,,,,1,1,0.0,0.0,1.0,0.0,,0.0-125.0,,0.0,1585.0,0.0,0.45351521100000003,0.0,0.78455201,1.0,0.670932262,0.0,0.5934649670000001,True,,5f5213ddca1734052a5f4f3a,,1617726,128,,evan-feature22,,0
99,1084,129,,,,1,1,1.0,1.0,1.0,0.0,,0.0-126.0,,1.0,738.0,1.0,0.450138637,1.0,0.736691069,1.0,0.702905088,0.0,0.596869092,True,,5f5213ddca1734052a5f4f3a,,1628248,129,,evan-feature22,,0
100,1085,130,,,,1,1,0.0,1.0,0.0,-1.0,,0.0-127.0,,-1.0,1293.0,0.0,0.44285792799999996,1.0,0.714711078,0.0,0.649779325,0.0,0.545811756,True,,5f5213ddca1734052a5f4f3a,,1639321,130,,evan-feature22,,0
101,1086,131,,,,2,2,1.0,1.0,0.0,-1.0,,0.0-128.0,,-1.0,2897.0,0.0,0.417312257,1.0,0.720948173,1.0,0.691894307,1.0,0.549258578,True,,5f5213ddca1734052a5f4f3a,,1652004,131,,evan-feature22,,1
102,1087,132,,,,1,1,1.0,1.0,0.0,-1.0,,0.0-129.0,,-1.0,1474.0,1.0,0.420190754,1.0,0.689348107,1.0,0.705027363,1.0,0.58076903,True,,5f5213ddca1734052a5f4f3a,,1663269,132,,evan-feature22,,1
103,1088,133,,,,1,1,0.0,0.0,0.0,-1.0,,0.0-130.0,,0.0,736.0,0.0,0.41516356299999996,0.0,0.647513976,1.0,0.726234795,1.0,0.5798618529999999,True,,5f5213ddca1734052a5f4f3a,,1673791,133,,evan-feature22,,0
104,1089,134,,,,1,1,1.0,1.0,0.0,-1.0,,0.0-131.0,,-1.0,1869.0,1.0,0.46818417,1.0,0.64492679,1.0,0.735142794,1.0,0.558277769,True,,5f5213ddca1734052a5f4f3a,,1685440,134,,evan-feature22,,0
105,1090,135,,,,2,2,1.0,1.0,1.0,0.0,,0.0-132.0,,1.0,79.0,1.0,0.448388753,0.0,0.663704595,1.0,0.7002554809999999,1.0,0.594726058,True,,5f5213ddca1734052a5f4f3a,,1695307,135,,evan-feature22,,1
106,1091,136,,,,2,2,1.0,0.0,0.0,-1.0,,0.0-133.0,,0.0,1938.0,0.0,0.42416112200000006,0.0,0.6574395789999999,1.0,0.692158941,0.0,0.595924053,True,,5f5213ddca1734052a5f4f3a,,1707034,136,,evan-feature22,,0
107,1092,137,,,,1,1,0.0,0.0,0.0,-1.0,,0.0-134.0,,0.0,1724.0,0.0,0.45058732100000004,0.0,0.6428793979999999,0.0,0.698342934,1.0,0.5357766310000001,True,,5f5213ddca1734052a5f4f3a,,1718540,137,,evan-feature22,,1
108,1094,139,,,,2,2,1.0,1.0,0.0,-1.0,,0.0-136.0,,-1.0,1369.0,0.0,0.440202744,1.0,0.647931102,1.0,0.699455708,1.0,0.51418479,True,,5f5213ddca1734052a5f4f3a,,1733005,139,,evan-feature22,,1
109,1095,140,,,,1,1,0.0,1.0,0.0,-1.0,,0.0-137.0,,-1.0,872.0,0.0,0.42472282899999997,1.0,0.675537871,0.0,0.634863839,1.0,0.459461854,True,,5f5213ddca1734052a5f4f3a,,1743654,140,,evan-feature22,,1
110,1096,141,,,,1,1,0.0,1.0,0.0,-1.0,,0.0-138.0,,-1.0,718.0,0.0,0.46789738700000005,1.0,0.6667616129999999,1.0,0.557834235,1.0,0.406021707,True,,5f5213ddca1734052a5f4f3a,,1754160,141,,evan-feature22,,0
111,1097,142,,,,2,2,1.0,0.0,1.0,0.0,,0.0-139.0,,1.0,367.0,0.0,0.49108287700000003,1.0,0.696258134,1.0,0.553173036,0.0,0.44230687799999996,True,,5f5213ddca1734052a5f4f3a,,1764312,142,,evan-feature22,,1
112,1098,143,,,,2,2,0.0,0.0,1.0,0.0,,0.0-140.0,,0.0,908.0,0.0,0.434873764,1.0,0.69471374,0.0,0.52567306,0.0,0.451201079,True,,5f5213ddca1734052a5f4f3a,,1775006,143,,evan-feature22,,0
113,1099,144,,,,2,2,1.0,0.0,1.0,0.0,,0.0-141.0,,1.0,1193.0,0.0,0.41582855700000004,0.0,0.673983653,1.0,0.600953273,0.0,0.428385991,True,,5f5213ddca1734052a5f4f3a,,1785995,144,,evan-feature22,,0
114,1100,145,,,,2,2,1.0,0.0,0.0,-1.0,,0.0-142.0,,0.0,1830.0,1.0,0.37712372899999996,1.0,0.630198112,1.0,0.562734756,0.0,0.407202471,True,,5f5213ddca1734052a5f4f3a,,1797607,145,,evan-feature22,,0
115,1101,146,,,,2,2,1.0,0.0,1.0,0.0,,0.0-143.0,,1.0,1266.0,0.0,0.377186155,1.0,0.5959657620000001,1.0,0.52895806,0.0,0.401631361,True,,5f5213ddca1734052a5f4f3a,,1808660,146,,evan-feature22,,0
116,1102,147,,,,2,2,0.0,0.0,1.0,0.0,,0.0-144.0,,0.0,844.0,0.0,0.405178624,0.0,0.624033539,0.0,0.53541358,0.0,0.434812775,True,,5f5213ddca1734052a5f4f3a,,1819286,147,,evan-feature22,,0
117,1103,148,,,,SLOW,SLOW,,,0.0,-1.0,,0.0-145.0,,-3.0,,1.0,0.404718697,1.0,0.653871557,1.0,0.498644573,0.0,0.361797146,True,,5f5213ddca1734052a5f4f3a,,1825101,148,,evan-feature22,,1
118,1104,149,,,,1,1,0.0,0.0,1.0,0.0,,0.0-146.0,,0.0,958.0,0.0,0.363457837,0.0,0.648906829,0.0,0.48545379299999997,0.0,0.333175953,True,,5f5213ddca1734052a5f4f3a,,1835836,149,,evan-feature22,,1
119,1105,150,,,,2,2,1.0,0.0,1.0,0.0,,0.0-147.0,,1.0,577.0,1.0,0.423884324,1.0,0.651328541,1.0,0.496333188,0.0,0.308923503,True,,5f5213ddca1734052a5f4f3a,,1846198,150,,evan-feature22,,1
120,1106,151,,,,1,1,0.0,0.0,0.0,-1.0,,0.0-148.0,,0.0,763.0,0.0,0.40478004700000003,0.0,0.668069396,1.0,0.530694065,1.0,0.303372258,True,,5f5213ddca1734052a5f4f3a,,1856754,151,,evan-feature22,,1
121,1107,152,,,,2,2,0.0,0.0,0.0,-1.0,,0.0-149.0,,0.0,1190.0,0.0,0.408237701,0.0,0.652244224,0.0,0.494298509,0.0,0.27352694,True,,5f5213ddca1734052a5f4f3a,,1867728,152,,evan-feature22,,1
122,1108,153,,,,2,2,1.0,0.0,1.0,0.0,,0.0-150.0,,1.0,767.0,0.0,0.43417052100000003,1.0,0.6217031120000001,1.0,0.532882118,0.0,0.366099599,True,,5f5213ddca1734052a5f4f3a,,1878267,153,,evan-feature22,,0
123,1109,154,,,,1,1,0.0,0.0,0.0,-1.0,,0.0-151.0,,0.0,2000.0,0.0,0.400114798,0.0,0.64330682,0.0,0.48520862,1.0,0.35037015299999996,True,,5f5213ddca1734052a5f4f3a,,1890053,154,,evan-feature22,,1
124,1110,155,,,,2,2,1.0,0.0,1.0,0.0,,0.0-152.0,,1.0,1263.0,1.0,0.43813119700000003,1.0,0.663773443,1.0,0.512595314,0.0,0.38192336299999996,True,,5f5213ddca1734052a5f4f3a,,1901099,155,,evan-feature22,,1
125,1111,156,,,,2,2,1.0,1.0,0.0,-1.0,,0.0-153.0,,-1.0,1307.0,1.0,0.430197337,1.0,0.650033231,1.0,0.49057549799999994,1.0,0.359341831,True,,5f5213ddca1734052a5f4f3a,,1912185,156,,evan-feature22,,0
126,1112,157,,,,2,2,1.0,0.0,1.0,0.0,,0.0-154.0,,1.0,2904.0,1.0,0.416179465,1.0,0.621958212,1.0,0.517879556,0.0,0.399884406,True,,5f5213ddca1734052a5f4f3a,,1924879,157,,evan-feature22,,0
127,1113,158,,,,1,1,0.0,1.0,0.0,-1.0,,0.0-155.0,,-1.0,1762.0,0.0,0.409186383,1.0,0.619469024,1.0,0.548536182,1.0,0.443160476,True,,5f5213ddca1734052a5f4f3a,,1936431,158,,evan-feature22,,1
128,1114,159,,,,2,2,0.0,1.0,0.0,-1.0,,0.0-156.0,,-1.0,1318.0,0.0,0.40319599700000003,1.0,0.622009579,0.0,0.518893608,1.0,0.446572471,True,,5f5213ddca1734052a5f4f3a,,1947536,159,,evan-feature22,,1
129,1115,160,,,,2,2,0.0,1.0,0.0,-1.0,,0.0-157.0,,-1.0,2419.0,1.0,0.395386991,0.0,0.5485572360000001,0.0,0.59630008,1.0,0.5223318060000001,True,,5f5213ddca1734052a5f4f3a,,1959741,160,,evan-feature22,,0
130,1116,161,,,,1,1,0.0,1.0,1.0,0.0,,0.0-158.0,,0.0,1290.0,0.0,0.44115573,1.0,0.51147772,0.0,0.505130314,1.0,0.515364918,True,,5f5213ddca1734052a5f4f3a,,1970824,161,,evan-feature22,,1
131,1117,162,,,,1,1,1.0,1.0,1.0,0.0,,0.0-159.0,,1.0,1523.0,1.0,0.481465132,1.0,0.469505158,1.0,0.503556947,0.0,0.5412637,True,,5f5213ddca1734052a5f4f3a,,1982138,162,,evan-feature22,,0
132,1118,163,,,,1,1,1.0,1.0,1.0,0.0,,0.0-160.0,,1.0,1500.0,1.0,0.409059378,1.0,0.42457706799999995,1.0,0.524588487,0.0,0.559907526,True,,5f5213ddca1734052a5f4f3a,,1993433,163,,evan-feature22,,0
133,1119,164,,,,1,1,0.0,0.0,0.0,-1.0,,0.0-161.0,,0.0,956.0,0.0,0.477684421,0.0,0.404895864,0.0,0.468799653,1.0,0.56906593,True,,5f5213ddca1734052a5f4f3a,,2004179,164,,evan-feature22,,0
134,1120,165,,,,2,2,1.0,1.0,0.0,-1.0,,0.0-162.0,,-1.0,1771.0,1.0,0.433077372,0.0,0.373753255,1.0,0.504699014,1.0,0.503739023,True,,5f5213ddca1734052a5f4f3a,,2015733,165,,evan-feature22,,1
135,1121,166,,,,1,1,1.0,1.0,0.0,-1.0,,0.0-163.0,,-1.0,3372.0,1.0,0.450233393,1.0,0.34782878799999994,1.0,0.519377428,1.0,0.459960231,True,,5f5213ddca1734052a5f4f3a,,2028894,166,,evan-feature22,,1
136,1122,167,,,,1,1,0.0,0.0,1.0,0.0,,0.0-164.0,,0.0,1628.0,0.0,0.41756724700000003,0.0,0.38393217,1.0,0.514983777,0.0,0.443744598,True,,5f5213ddca1734052a5f4f3a,,2040307,167,,evan-feature22,,0
137,1123,168,,,,1,1,0.0,0.0,0.0,-1.0,,0.0-165.0,,0.0,1514.0,0.0,0.452958907,0.0,0.371002723,0.0,0.518114176,1.0,0.46633015,True,,5f5213ddca1734052a5f4f3a,,2051608,168,,evan-feature22,,0
138,1124,169,,,,2,2,1.0,0.0,0.0,-1.0,,0.0-166.0,,0.0,831.0,1.0,0.455702623,0.0,0.315954408,1.0,0.572320188,0.0,0.508909504,True,,5f5213ddca1734052a5f4f3a,,2062218,169,,evan-feature22,,1
139,1125,170,,,,1,1,0.0,0.0,0.0,-1.0,,0.0-167.0,,0.0,2689.0,0.0,0.491313581,0.0,0.23993336899999998,1.0,0.570199715,1.0,0.51473836,True,,5f5213ddca1734052a5f4f3a,,2074691,170,,evan-feature22,,1
140,1126,171,,,,2,2,1.0,1.0,1.0,0.0,,0.0-168.0,,1.0,2297.0,0.0,0.484298936,0.0,0.272504197,1.0,0.5551308220000001,1.0,0.523038425,True,,5f5213ddca1734052a5f4f3a,,2086775,171,,evan-feature22,,1
141,1127,172,,,,1,1,1.0,0.0,0.0,-1.0,,0.0-169.0,,0.0,3074.0,1.0,0.528381235,0.0,0.28023429,0.0,0.5394623270000001,1.0,0.504301989,True,,5f5213ddca1734052a5f4f3a,,2099642,172,,evan-feature22,,1
142,1128,173,,,,SLOW,SLOW,,,0.0,-1.0,,0.0-170.0,,-3.0,,0.0,0.524592254,1.0,0.339136603,1.0,0.519993692,0.0,0.489381881,True,,5f5213ddca1734052a5f4f3a,,2105458,173,,evan-feature22,,1
143,1129,174,,,,1,1,1.0,0.0,1.0,0.0,,0.0-171.0,,1.0,706.0,1.0,0.53960939,0.0,0.333467381,0.0,0.599370383,0.0,0.45892218799999995,True,,5f5213ddca1734052a5f4f3a,,2115950,174,,evan-feature22,,1
144,1130,175,,,,1,1,1.0,0.0,1.0,0.0,,0.0-172.0,,1.0,810.0,1.0,0.518775918,0.0,0.369047819,1.0,0.6069025779999999,1.0,0.523049137,True,,5f5213ddca1734052a5f4f3a,,2126544,175,,evan-feature22,,0
145,1131,176,,,,1,1,1.0,0.0,1.0,0.0,,0.0-173.0,,1.0,919.0,1.0,0.5158566,0.0,0.303652601,1.0,0.6015122039999999,1.0,0.574601328,True,,5f5213ddca1734052a5f4f3a,,2137250,176,,evan-feature22,,0
146,1132,177,,,,1,1,1.0,0.0,0.0,-1.0,,0.0-174.0,,0.0,815.0,1.0,0.505585493,0.0,0.308345924,0.0,0.632117198,1.0,0.5558155339999999,True,,5f5213ddca1734052a5f4f3a,,2147852,177,,evan-feature22,,0
147,1133,178,,,,1,1,1.0,0.0,0.0,-1.0,,0.0-175.0,,0.0,1162.0,1.0,0.5595435670000001,0.0,0.340395712,0.0,0.636974751,1.0,0.503532934,True,,5f5213ddca1734052a5f4f3a,,2158799,178,,evan-feature22,,0
148,1134,179,,,,1,1,1.0,0.0,0.0,-1.0,,0.0-176.0,,0.0,3287.0,1.0,0.5587993720000001,0.0,0.359748544,1.0,0.554097844,1.0,0.472189123,True,,5f5213ddca1734052a5f4f3a,,2171871,179,,evan-feature22,,0
149,1135,180,,,,1,1,1.0,1.0,0.0,-1.0,,0.0-177.0,,-1.0,1240.0,1.0,0.480072877,1.0,0.362302106,0.0,0.600846495,1.0,0.43725304200000004,True,,5f5213ddca1734052a5f4f3a,,2182900,180,,evan-feature22,,0
150,1136,181,,,,1,1,0.0,1.0,1.0,0.0,,0.0-178.0,,0.0,1278.0,0.0,0.511210085,1.0,0.401676175,1.0,0.622052944,1.0,0.39175359200000004,True,,5f5213ddca1734052a5f4f3a,,2193971,181,,evan-feature22,,0
151,1137,182,,,,2,2,1.0,0.0,0.0,-1.0,,0.0-179.0,,0.0,800.0,0.0,0.554470352,1.0,0.379424096,1.0,0.625581595,0.0,0.288670951,True,,5f5213ddca1734052a5f4f3a,,2204565,182,,evan-feature22,,1
152,1138,183,,,,1,1,1.0,0.0,1.0,0.0,,0.0-180.0,,1.0,1040.0,1.0,0.627627927,0.0,0.305241403,1.0,0.604387985,1.0,0.291361327,True,,5f5213ddca1734052a5f4f3a,,2215392,183,,evan-feature22,,1
153,1139,184,,,,1,1,0.0,1.0,1.0,0.0,,0.0-181.0,,0.0,620.0,0.0,0.6759914229999999,1.0,0.300284541,0.0,0.558798166,1.0,0.24435394600000002,True,,5f5213ddca1734052a5f4f3a,,2225804,184,,evan-feature22,,0
154,1140,185,,,,2,2,1.0,0.0,0.0,-1.0,,0.0-182.0,,0.0,780.0,1.0,0.7172655040000001,0.0,0.28624910800000003,1.0,0.50383286,0.0,0.25705046800000003,True,,5f5213ddca1734052a5f4f3a,,2236364,185,,evan-feature22,,1
155,1141,186,,,,1,1,1.0,0.0,0.0,-1.0,,0.0-183.0,,0.0,690.0,1.0,0.74495062,0.0,0.28039269899999997,0.0,0.477457466,0.0,0.27478247699999997,True,,5f5213ddca1734052a5f4f3a,,2246843,186,,evan-feature22,,1
156,1142,187,,,,1,1,1.0,0.0,0.0,-1.0,,0.0-184.0,,0.0,832.0,1.0,0.759426302,0.0,0.34576272799999996,1.0,0.48707786399999997,0.0,0.29224327899999997,True,,5f5213ddca1734052a5f4f3a,,2257460,187,,evan-feature22,,0
157,1143,188,,,,2,2,1.0,0.0,0.0,-1.0,,0.0-185.0,,0.0,2477.0,1.0,0.699175667,0.0,0.342105414,1.0,0.561402254,0.0,0.316565075,True,,5f5213ddca1734052a5f4f3a,,2269723,188,,evan-feature22,,1
158,1144,189,,,,2,2,0.0,0.0,0.0,-1.0,,0.0-186.0,,0.0,1409.0,1.0,0.631985397,1.0,0.307880471,0.0,0.570750211,0.0,0.31001761699999997,True,,5f5213ddca1734052a5f4f3a,,2280915,189,,evan-feature22,,0
159,1145,190,,,,2,2,1.0,0.0,0.0,-1.0,,0.0-187.0,,0.0,2365.0,1.0,0.6,0.0,0.3,1.0,0.6,0.0,0.3,True,,5f5213ddca1734052a5f4f3a,,2293064,190,,evan-feature22,,0
160,1146,191,notice,,,,,,,,,,0.0-188.0,"{""Q0"":""Yes""}",,14128.0,,,,,,,,,True,,5f5213ddca1734052a5f4f3a,,2307194,191,Q,survey-text,,1
161,1147,192,track1,,[0],,,,,,,,0.0-189.0,"{""Q0"":""yes""}",,7126.0,,,,,,,,,True,,5f5213ddca1734052a5f4f3a,,2314323,192,Q,evan-quiz,,1
162,1148,193,track2,,[0],,,,,,,,0.0-190.0,"{""Q0"":""yes""}",,4831.0,,,,,,,,,True,,5f5213ddca1734052a5f4f3a,,2319156,193,Q,evan-quiz,,1
163,1149,194,strat,,,,,,,,,,0.0-191.0,"{""Q0"":""Process over outcome""}",,8151.0,,,,,,,,,True,,5f5213ddca1734052a5f4f3a,,2327309,194,Q,survey-text,,1
