,index,Unnamed: 0,Q_name,button_pressed,choice_idxs,chosen_pos,chosen_state,chosen_state_f_1_outcome,chosen_state_f_2_outcome,f_1_reward,f_2_reward,incor_questions,internal_node_id,responses,reward_received,rt,s_1_f_1_outcome,s_1_f_1_prob,s_1_f_2_outcome,s_1_f_2_prob,s_2_f_1_outcome,s_2_f_1_prob,s_2_f_2_outcome,s_2_f_2_prob,safe_first,stimulus,subjectID,success,time_elapsed,trial_index,trial_num,trial_type,view_history,switching
0,2307,24,,,,1,1,0.0,0.0,0.0,-1.0,,0.0-26.0,,0.0,1091.975,0.0,0.6,0.0,0.4,1.0,0.4,0.0,0.6,False,,5e94fa6625f03e0bd5d1b12c,,387671,24,,evan-feature22,,0
1,2308,25,,,,2,2,0.0,1.0,0.0,-1.0,,0.0-27.0,,-1.0,1099.83,1.0,0.625928423,1.0,0.395903568,0.0,0.416361855,1.0,0.636279196,False,,5e94fa6625f03e0bd5d1b12c,,398539,25,,evan-feature22,,1
2,2309,26,,,,1,1,1.0,0.0,0.0,-1.0,,0.0-28.0,,0.0,456.365,1.0,0.632185889,0.0,0.37940999700000005,0.0,0.510461374,1.0,0.636053735,False,,5e94fa6625f03e0bd5d1b12c,,408759,26,,evan-feature22,,1
3,2310,27,,,,2,2,0.0,1.0,0.0,-1.0,,0.0-29.0,,-1.0,1613.915,1.0,0.650098956,1.0,0.437690015,0.0,0.513165207,1.0,0.594219782,False,,5e94fa6625f03e0bd5d1b12c,,420139,27,,evan-feature22,,1
4,2311,28,,,,1,1,1.0,0.0,0.0,-1.0,,0.0-30.0,,0.0,1002.465,1.0,0.718427004,0.0,0.461759895,0.0,0.466591374,1.0,0.557006706,False,,5e94fa6625f03e0bd5d1b12c,,430904,28,,evan-feature22,,1
5,2312,29,,,,1,1,1.0,0.0,0.0,-1.0,,0.0-31.0,,0.0,364.695,1.0,0.762929561,0.0,0.48747529100000003,0.0,0.43772942299999995,0.0,0.574463924,False,,5e94fa6625f03e0bd5d1b12c,,441034,29,,evan-feature22,,0
6,2313,30,,,,2,2,1.0,1.0,0.0,-1.0,,0.0-32.0,,-1.0,329.575,1.0,0.763717037,0.0,0.435099549,1.0,0.465087572,1.0,0.60565513,False,,5e94fa6625f03e0bd5d1b12c,,451129,30,,evan-feature22,,1
7,2314,31,,,,1,1,1.0,1.0,1.0,0.0,,0.0-33.0,,1.0,498.71,1.0,0.77229152,1.0,0.364439775,1.0,0.401053115,0.0,0.658123444,False,,5e94fa6625f03e0bd5d1b12c,,461397,31,,evan-feature22,,1
8,2315,32,,,,2,2,0.0,1.0,0.0,-1.0,,0.0-34.0,,-1.0,423.375,0.0,0.744772498,1.0,0.35348662700000005,0.0,0.357677552,1.0,0.6504213670000001,False,,5e94fa6625f03e0bd5d1b12c,,471586,32,,evan-feature22,,1
9,2316,33,,,,1,1,1.0,1.0,0.0,-1.0,,0.0-35.0,,-1.0,728.995,1.0,0.674079628,1.0,0.34184177200000004,0.0,0.36487888399999996,1.0,0.720326902,False,,5e94fa6625f03e0bd5d1b12c,,482082,33,,evan-feature22,,1
10,2317,34,,,,1,1,1.0,0.0,1.0,0.0,,0.0-36.0,,1.0,496.835,1.0,0.661527729,0.0,0.347257661,0.0,0.301580406,1.0,0.7572792209999999,False,,5e94fa6625f03e0bd5d1b12c,,492346,34,,evan-feature22,,0
11,2318,35,,,,1,1,1.0,1.0,1.0,0.0,,0.0-37.0,,1.0,320.265,1.0,0.660815217,1.0,0.37948954700000004,0.0,0.266362694,1.0,0.8,False,,5e94fa6625f03e0bd5d1b12c,,502435,35,,evan-feature22,,0
12,2319,36,,,,2,2,0.0,1.0,0.0,-1.0,,0.0-38.0,,-1.0,712.305,0.0,0.645840989,0.0,0.303961219,0.0,0.22727662199999998,1.0,0.8,False,,5e94fa6625f03e0bd5d1b12c,,512911,36,,evan-feature22,,1
13,2320,37,,,,1,1,0.0,1.0,0.0,-1.0,,0.0-39.0,,-1.0,517.3,0.0,0.653475024,1.0,0.330387001,0.0,0.216413453,1.0,0.761410571,False,,5e94fa6625f03e0bd5d1b12c,,523197,37,,evan-feature22,,1
14,2321,38,,,,2,2,0.0,0.0,0.0,-1.0,,0.0-40.0,,0.0,392.5,1.0,0.641284007,0.0,0.3333084,0.0,0.240310726,0.0,0.8,False,,5e94fa6625f03e0bd5d1b12c,,533352,38,,evan-feature22,,1
15,2322,39,,,,1,1,0.0,0.0,0.0,-1.0,,0.0-41.0,,0.0,1667.405,0.0,0.613358121,0.0,0.297219209,0.0,0.298906785,1.0,0.781296249,False,,5e94fa6625f03e0bd5d1b12c,,544782,39,,evan-feature22,,1
16,2323,40,,,,2,2,0.0,0.0,1.0,0.0,,0.0-42.0,,0.0,1159.685,1.0,0.560222979,0.0,0.260871998,0.0,0.246708996,0.0,0.7928309459999999,False,,5e94fa6625f03e0bd5d1b12c,,555704,40,,evan-feature22,,1
17,2324,41,,,,1,1,0.0,0.0,0.0,-1.0,,0.0-43.0,,0.0,485.545,0.0,0.5369121339999999,0.0,0.250417104,0.0,0.2,1.0,0.765101149,False,,5e94fa6625f03e0bd5d1b12c,,565949,41,,evan-feature22,,1
18,2325,42,,,,2,2,0.0,0.0,1.0,0.0,,0.0-44.0,,0.0,1167.435,0.0,0.49919695,1.0,0.2,0.0,0.2,0.0,0.773279061,False,,5e94fa6625f03e0bd5d1b12c,,576882,42,,evan-feature22,,1
19,2326,43,,,,2,2,0.0,1.0,1.0,0.0,,0.0-45.0,,0.0,1890.09,0.0,0.459627509,0.0,0.21221690899999998,0.0,0.2,1.0,0.662061311,False,,5e94fa6625f03e0bd5d1b12c,,588537,43,,evan-feature22,,0
20,2327,44,,,,1,1,1.0,0.0,0.0,-1.0,,0.0-46.0,,0.0,787.26,1.0,0.417845724,0.0,0.22682277,0.0,0.2,0.0,0.709165356,False,,5e94fa6625f03e0bd5d1b12c,,599087,44,,evan-feature22,,1
21,2328,45,,,,1,1,0.0,1.0,0.0,-1.0,,0.0-47.0,,-1.0,397.56,0.0,0.494962775,1.0,0.2,0.0,0.2,1.0,0.716798403,False,,5e94fa6625f03e0bd5d1b12c,,609251,45,,evan-feature22,,0
22,2329,46,,,,2,2,0.0,1.0,0.0,-1.0,,0.0-48.0,,-1.0,842.5,0.0,0.5455069579999999,0.0,0.23543751300000001,0.0,0.2,1.0,0.645567591,False,,5e94fa6625f03e0bd5d1b12c,,619858,46,,evan-feature22,,1
23,2330,47,,,,1,1,1.0,0.0,0.0,-1.0,,0.0-49.0,,0.0,364.085,1.0,0.5888472370000001,0.0,0.274305745,1.0,0.2,0.0,0.6470111129999999,False,,5e94fa6625f03e0bd5d1b12c,,629986,47,,evan-feature22,,1
24,2331,48,,,,1,1,0.0,0.0,0.0,-1.0,,0.0-50.0,,0.0,1675.255,0.0,0.541102968,0.0,0.22645371,1.0,0.236325635,0.0,0.667273806,False,,5e94fa6625f03e0bd5d1b12c,,641424,48,,evan-feature22,,0
25,2332,49,,,,2,2,0.0,1.0,1.0,0.0,,0.0-51.0,,0.0,445.0,1.0,0.490387594,1.0,0.2,0.0,0.209906961,1.0,0.658487389,False,,5e94fa6625f03e0bd5d1b12c,,651635,49,,evan-feature22,,1
26,2333,50,,,,1,1,0.0,0.0,0.0,-1.0,,0.0-52.0,,0.0,1065.1,0.0,0.549336464,0.0,0.223311399,0.0,0.21542726899999998,1.0,0.699424853,False,,5e94fa6625f03e0bd5d1b12c,,662464,50,,evan-feature22,,1
27,2334,51,,,,2,2,0.0,1.0,0.0,-1.0,,0.0-53.0,,-1.0,356.095,1.0,0.616387033,0.0,0.242050882,0.0,0.236831238,1.0,0.660702856,False,,5e94fa6625f03e0bd5d1b12c,,672583,51,,evan-feature22,,1
28,2335,52,,,,1,1,1.0,0.0,0.0,-1.0,,0.0-54.0,,0.0,421.615,1.0,0.632533083,0.0,0.236756329,1.0,0.239558776,0.0,0.626572575,False,,5e94fa6625f03e0bd5d1b12c,,682769,52,,evan-feature22,,1
29,2336,53,,,,1,1,0.0,0.0,0.0,-1.0,,0.0-55.0,,0.0,971.445,0.0,0.585128523,0.0,0.21108512699999998,0.0,0.242964243,0.0,0.646247017,False,,5e94fa6625f03e0bd5d1b12c,,693504,53,,evan-feature22,,0
30,2337,54,,,,2,2,0.0,1.0,0.0,-1.0,,0.0-56.0,,-1.0,779.865,0.0,0.631279052,0.0,0.208261881,0.0,0.2,1.0,0.598661374,False,,5e94fa6625f03e0bd5d1b12c,,704048,54,,evan-feature22,,1
31,2338,55,,,,1,1,1.0,0.0,1.0,0.0,,0.0-57.0,,1.0,877.01,1.0,0.645601188,0.0,0.2,0.0,0.2,1.0,0.604309462,False,,5e94fa6625f03e0bd5d1b12c,,714690,55,,evan-feature22,,1
32,2339,56,,,,2,2,0.0,0.0,1.0,0.0,,0.0-58.0,,0.0,652.36,1.0,0.618753278,1.0,0.2,0.0,0.2,0.0,0.59705541,False,,5e94fa6625f03e0bd5d1b12c,,725102,56,,evan-feature22,,1
33,2340,57,,,,2,2,0.0,1.0,1.0,0.0,,0.0-59.0,,0.0,528.95,0.0,0.62382752,0.0,0.2,0.0,0.22363604899999998,1.0,0.6268096089999999,False,,5e94fa6625f03e0bd5d1b12c,,735394,57,,evan-feature22,,0
34,2341,58,,,,1,1,1.0,0.0,0.0,-1.0,,0.0-60.0,,0.0,803.51,1.0,0.673200992,0.0,0.2,0.0,0.24014272899999997,0.0,0.610360914,False,,5e94fa6625f03e0bd5d1b12c,,745962,58,,evan-feature22,,1
35,2342,59,,,,2,2,1.0,1.0,1.0,0.0,,0.0-61.0,,1.0,1197.38,1.0,0.610898111,1.0,0.250157064,1.0,0.25088427399999996,1.0,0.664171968,False,,5e94fa6625f03e0bd5d1b12c,,756924,59,,evan-feature22,,1
36,2343,60,,,,1,1,0.0,1.0,1.0,0.0,,0.0-62.0,,0.0,1114.015,0.0,0.598301898,1.0,0.248311053,0.0,0.296388488,1.0,0.63425056,False,,5e94fa6625f03e0bd5d1b12c,,767801,60,,evan-feature22,,1
37,2344,61,,,,2,2,0.0,1.0,0.0,-1.0,,0.0-63.0,,-1.0,1213.05,0.0,0.588894116,0.0,0.256357363,0.0,0.25300305100000003,1.0,0.5520326010000001,False,,5e94fa6625f03e0bd5d1b12c,,778781,61,,evan-feature22,,1
38,2345,62,,,,1,1,0.0,1.0,1.0,0.0,,0.0-64.0,,0.0,642.03,0.0,0.568426,1.0,0.236770987,0.0,0.303107977,0.0,0.515870586,False,,5e94fa6625f03e0bd5d1b12c,,789187,62,,evan-feature22,,1
39,2346,63,,,,1,1,0.0,0.0,1.0,0.0,,0.0-65.0,,0.0,602.79,0.0,0.5790148829999999,0.0,0.22121494600000002,0.0,0.302005511,1.0,0.5441517579999999,False,,5e94fa6625f03e0bd5d1b12c,,799553,63,,evan-feature22,,0
40,2347,64,,,,2,2,1.0,0.0,0.0,-1.0,,0.0-66.0,,0.0,803.98,1.0,0.565697181,1.0,0.21691092399999998,1.0,0.329714007,0.0,0.548125478,False,,5e94fa6625f03e0bd5d1b12c,,810125,64,,evan-feature22,,1
41,2348,65,,,,1,1,0.0,0.0,0.0,-1.0,,0.0-67.0,,0.0,641.215,0.0,0.557218295,0.0,0.23527572600000002,1.0,0.31028033899999996,1.0,0.601635125,False,,5e94fa6625f03e0bd5d1b12c,,820529,65,,evan-feature22,,1
42,2349,66,,,,2,2,0.0,1.0,1.0,0.0,,0.0-68.0,,0.0,693.165,0.0,0.503661609,1.0,0.316001204,0.0,0.35906509700000006,1.0,0.606103889,False,,5e94fa6625f03e0bd5d1b12c,,830986,66,,evan-feature22,,1
43,2350,67,,,,1,1,0.0,0.0,0.0,-1.0,,0.0-69.0,,0.0,1061.27,0.0,0.52124269,0.0,0.24774441100000003,1.0,0.336491959,0.0,0.569669564,False,,5e94fa6625f03e0bd5d1b12c,,841811,67,,evan-feature22,,1
44,2351,68,,,,1,1,1.0,0.0,1.0,0.0,,0.0-70.0,,1.0,642.575,1.0,0.47671529100000004,0.0,0.252307362,1.0,0.361290845,1.0,0.6965526540000001,False,,5e94fa6625f03e0bd5d1b12c,,852219,68,,evan-feature22,,0
45,2352,69,,,,2,2,1.0,1.0,0.0,-1.0,,0.0-71.0,,-1.0,743.35,0.0,0.522125232,0.0,0.26365262300000003,1.0,0.416704449,1.0,0.757101488,False,,5e94fa6625f03e0bd5d1b12c,,862733,69,,evan-feature22,,1
46,2353,70,,,,1,1,1.0,1.0,1.0,0.0,,0.0-72.0,,1.0,929.34,1.0,0.5309092470000001,1.0,0.285803841,0.0,0.349236593,1.0,0.7431302329999999,False,,5e94fa6625f03e0bd5d1b12c,,873427,70,,evan-feature22,,1
47,2354,71,,,,2,2,0.0,1.0,0.0,-1.0,,0.0-73.0,,-1.0,498.775,0.0,0.491973806,0.0,0.274503571,0.0,0.38717547799999996,1.0,0.796399836,False,,5e94fa6625f03e0bd5d1b12c,,883689,71,,evan-feature22,,1
48,2355,72,,,,1,1,1.0,0.0,0.0,-1.0,,0.0-74.0,,0.0,821.425,1.0,0.44033582200000004,0.0,0.284677433,1.0,0.362895033,1.0,0.8,False,,5e94fa6625f03e0bd5d1b12c,,894275,72,,evan-feature22,,1
49,2356,73,,,,1,1,0.0,1.0,0.0,-1.0,,0.0-75.0,,-1.0,924.74,0.0,0.47907450100000004,1.0,0.294004891,0.0,0.29810176899999996,1.0,0.8,False,,5e94fa6625f03e0bd5d1b12c,,904967,73,,evan-feature22,,0
50,2357,74,,,,2,2,1.0,1.0,1.0,0.0,,0.0-76.0,,1.0,702.945,1.0,0.49324470000000004,0.0,0.209806217,1.0,0.34910548700000005,1.0,0.7685303929999999,False,,5e94fa6625f03e0bd5d1b12c,,915437,74,,evan-feature22,,1
51,2358,75,,,,1,1,0.0,0.0,1.0,0.0,,0.0-77.0,,0.0,800.595,0.0,0.478325964,0.0,0.232650109,0.0,0.397575193,1.0,0.759970785,False,,5e94fa6625f03e0bd5d1b12c,,926000,75,,evan-feature22,,1
52,2359,76,,,,1,1,0.0,0.0,1.0,0.0,,0.0-78.0,,0.0,886.72,0.0,0.495116819,0.0,0.262830049,1.0,0.395442465,1.0,0.757900997,False,,5e94fa6625f03e0bd5d1b12c,,936650,76,,evan-feature22,,0
53,2360,77,,,,2,2,1.0,0.0,0.0,-1.0,,0.0-79.0,,0.0,508.9,0.0,0.46826402,0.0,0.299520002,1.0,0.36789765799999996,0.0,0.8,False,,5e94fa6625f03e0bd5d1b12c,,946922,77,,evan-feature22,,1
54,2362,79,,,,1,1,1.0,1.0,0.0,-1.0,,0.0-81.0,,-1.0,1156.815,1.0,0.429692185,1.0,0.290259512,1.0,0.38417303,1.0,0.8,False,,5e94fa6625f03e0bd5d1b12c,,960829,79,,evan-feature22,,1
55,2363,80,,,,2,2,0.0,1.0,0.0,-1.0,,0.0-82.0,,-1.0,378.815,0.0,0.448544348,0.0,0.21890246300000002,0.0,0.35912113100000004,1.0,0.8,False,,5e94fa6625f03e0bd5d1b12c,,970975,80,,evan-feature22,,1
56,2364,81,,,,2,2,1.0,0.0,1.0,0.0,,0.0-83.0,,1.0,384.045,0.0,0.40463424299999995,0.0,0.2,1.0,0.331168384,0.0,0.8,False,,5e94fa6625f03e0bd5d1b12c,,981122,81,,evan-feature22,,0
57,2365,82,,,,2,2,1.0,1.0,0.0,-1.0,,0.0-84.0,,-1.0,389.115,0.0,0.460808469,0.0,0.226932935,1.0,0.426844185,1.0,0.7791585740000001,False,,5e94fa6625f03e0bd5d1b12c,,991277,82,,evan-feature22,,0
58,2366,83,,,,1,1,0.0,0.0,0.0,-1.0,,0.0-85.0,,0.0,651.2,0.0,0.5073287479999999,0.0,0.22562859600000001,0.0,0.491272617,0.0,0.779171318,False,,5e94fa6625f03e0bd5d1b12c,,1001690,83,,evan-feature22,,1
59,2367,84,,,,2,2,0.0,1.0,0.0,-1.0,,0.0-86.0,,-1.0,781.405,0.0,0.475398868,0.0,0.210546691,0.0,0.548946291,1.0,0.8,False,,5e94fa6625f03e0bd5d1b12c,,1012235,84,,evan-feature22,,1
60,2368,85,,,,1,1,1.0,0.0,1.0,0.0,,0.0-87.0,,1.0,1484.645,1.0,0.5773669579999999,0.0,0.210025267,1.0,0.517663827,1.0,0.667149461,False,,5e94fa6625f03e0bd5d1b12c,,1023482,85,,evan-feature22,,1
61,2369,86,,,,2,2,1.0,1.0,0.0,-1.0,,0.0-88.0,,-1.0,540.65,1.0,0.59689526,1.0,0.2,1.0,0.457089543,1.0,0.695501237,False,,5e94fa6625f03e0bd5d1b12c,,1033790,86,,evan-feature22,,1
62,2370,87,,,,SLOW,SLOW,,,0.0,-1.0,,0.0-89.0,,-3.0,,0.0,0.634631385,0.0,0.2,0.0,0.424596711,1.0,0.677506484,False,,5e94fa6625f03e0bd5d1b12c,,1039600,87,,evan-feature22,,1
63,2371,88,,,,1,1,1.0,0.0,1.0,0.0,,0.0-90.0,,1.0,863.84,1.0,0.65654557,0.0,0.22193470199999998,1.0,0.445639003,1.0,0.673381668,False,,5e94fa6625f03e0bd5d1b12c,,1050226,88,,evan-feature22,,1
64,2372,89,,,,2,2,0.0,1.0,1.0,0.0,,0.0-91.0,,0.0,581.965,1.0,0.681977797,0.0,0.242148743,0.0,0.49386645100000004,1.0,0.662437964,False,,5e94fa6625f03e0bd5d1b12c,,1060574,89,,evan-feature22,,1
65,2373,90,,,,1,1,1.0,0.0,1.0,0.0,,0.0-92.0,,1.0,753.785,1.0,0.650328273,0.0,0.20706394,1.0,0.470045369,1.0,0.691556057,False,,5e94fa6625f03e0bd5d1b12c,,1071092,90,,evan-feature22,,1
66,2374,91,,,,2,2,0.0,0.0,0.0,-1.0,,0.0-93.0,,0.0,1227.03,1.0,0.652406904,0.0,0.2,0.0,0.46602527,0.0,0.718680015,False,,5e94fa6625f03e0bd5d1b12c,,1082082,91,,evan-feature22,,1
67,2375,92,,,,1,1,1.0,0.0,0.0,-1.0,,0.0-94.0,,0.0,1076.28,1.0,0.618106018,0.0,0.21862797,1.0,0.49471872299999997,1.0,0.771952271,False,,5e94fa6625f03e0bd5d1b12c,,1092924,92,,evan-feature22,,1
68,2376,93,,,,1,1,1.0,0.0,0.0,-1.0,,0.0-95.0,,0.0,765.12,1.0,0.61569103,0.0,0.257594422,1.0,0.514741772,1.0,0.750874695,False,,5e94fa6625f03e0bd5d1b12c,,1103452,93,,evan-feature22,,0
69,2377,94,,,,2,2,0.0,1.0,0.0,-1.0,,0.0-96.0,,-1.0,580.48,0.0,0.598889253,0.0,0.32643588,0.0,0.573899692,1.0,0.765464495,False,,5e94fa6625f03e0bd5d1b12c,,1113794,94,,evan-feature22,,1
70,2378,95,,,,1,1,1.0,0.0,1.0,0.0,,0.0-97.0,,1.0,621.925,1.0,0.604148234,0.0,0.31179723,0.0,0.6050845429999999,1.0,0.717556355,False,,5e94fa6625f03e0bd5d1b12c,,1124182,95,,evan-feature22,,1
71,2379,96,,,,2,2,0.0,1.0,0.0,-1.0,,0.0-98.0,,-1.0,521.355,1.0,0.60914345,0.0,0.304089194,0.0,0.587413745,1.0,0.7625107859999999,False,,5e94fa6625f03e0bd5d1b12c,,1134467,96,,evan-feature22,,1
72,2380,97,,,,1,1,1.0,0.0,1.0,0.0,,0.0-99.0,,1.0,326.395,1.0,0.556011004,0.0,0.297212656,1.0,0.615215204,1.0,0.688835497,False,,5e94fa6625f03e0bd5d1b12c,,1144554,97,,evan-feature22,,1
73,2381,98,,,,2,2,0.0,1.0,1.0,0.0,,0.0-100.0,,0.0,478.16,1.0,0.538989836,0.0,0.259288265,0.0,0.63117526,1.0,0.622387272,False,,5e94fa6625f03e0bd5d1b12c,,1154796,98,,evan-feature22,,1
74,2382,99,,,,1,1,0.0,0.0,0.0,-1.0,,0.0-101.0,,0.0,677.675,0.0,0.477391925,0.0,0.286964716,1.0,0.607192834,1.0,0.630914953,False,,5e94fa6625f03e0bd5d1b12c,,1165236,99,,evan-feature22,,1
75,2383,100,,,,2,2,0.0,1.0,0.0,-1.0,,0.0-102.0,,-1.0,468.82,0.0,0.481844581,1.0,0.318018092,0.0,0.606517823,1.0,0.554718886,False,,5e94fa6625f03e0bd5d1b12c,,1175469,100,,evan-feature22,,1
76,2384,101,,,,1,1,0.0,0.0,0.0,-1.0,,0.0-103.0,,0.0,723.725,0.0,0.5468073529999999,0.0,0.271400321,1.0,0.611358728,0.0,0.583214152,False,,5e94fa6625f03e0bd5d1b12c,,1185955,101,,evan-feature22,,1
77,2385,102,,,,1,1,1.0,1.0,0.0,-1.0,,0.0-104.0,,-1.0,893.825,1.0,0.559747181,1.0,0.2,0.0,0.6020122929999999,1.0,0.59294636,False,,5e94fa6625f03e0bd5d1b12c,,1196614,102,,evan-feature22,,0
78,2386,103,,,,2,2,0.0,1.0,0.0,-1.0,,0.0-105.0,,-1.0,619.5,1.0,0.50773535,0.0,0.2,0.0,0.627190004,1.0,0.57015433,False,,5e94fa6625f03e0bd5d1b12c,,1206996,103,,evan-feature22,,1
79,2387,104,,,,1,1,1.0,0.0,0.0,-1.0,,0.0-106.0,,0.0,389.45,1.0,0.517936872,0.0,0.24316099,0.0,0.5932536970000001,1.0,0.59982907,False,,5e94fa6625f03e0bd5d1b12c,,1217149,104,,evan-feature22,,1
80,2388,105,,,,2,2,0.0,1.0,1.0,0.0,,0.0-107.0,,0.0,626.73,0.0,0.517936872,0.0,0.24316099,0.0,0.5932536970000001,1.0,0.59982907,False,,5e94fa6625f03e0bd5d1b12c,,1227539,105,,evan-feature22,,1
81,2389,106,,,,1,1,1.0,0.0,1.0,0.0,,0.0-108.0,,1.0,1083.87,1.0,0.5454063579999999,0.0,0.235308725,1.0,0.60269625,0.0,0.585108204,False,,5e94fa6625f03e0bd5d1b12c,,1238387,106,,evan-feature22,,1
82,2390,107,,,,2,2,0.0,0.0,1.0,0.0,,0.0-109.0,,0.0,758.01,1.0,0.56855096,0.0,0.257056033,0.0,0.6540372760000001,0.0,0.575303131,False,,5e94fa6625f03e0bd5d1b12c,,1248905,107,,evan-feature22,,1
83,2391,108,,,,2,2,1.0,1.0,1.0,0.0,,0.0-110.0,,1.0,864.54,1.0,0.551159479,0.0,0.293219958,1.0,0.7098072559999999,1.0,0.581356956,False,,5e94fa6625f03e0bd5d1b12c,,1259535,108,,evan-feature22,,0
84,2392,109,,,,2,2,1.0,1.0,0.0,-1.0,,0.0-111.0,,-1.0,834.465,0.0,0.555545184,0.0,0.266790717,1.0,0.709570383,1.0,0.605721509,False,,5e94fa6625f03e0bd5d1b12c,,1270133,109,,evan-feature22,,0
85,2393,110,,,,1,1,1.0,0.0,0.0,-1.0,,0.0-112.0,,0.0,431.96,1.0,0.548890444,0.0,0.227627465,0.0,0.710537366,1.0,0.651867006,False,,5e94fa6625f03e0bd5d1b12c,,1280333,110,,evan-feature22,,1
86,2394,111,,,,2,2,1.0,1.0,1.0,0.0,,0.0-113.0,,1.0,923.23,0.0,0.49262803899999996,0.0,0.2,1.0,0.697910418,1.0,0.550421355,False,,5e94fa6625f03e0bd5d1b12c,,1291023,111,,evan-feature22,,1
87,2395,112,,,,2,2,1.0,1.0,1.0,0.0,,0.0-114.0,,1.0,481.005,1.0,0.47234761700000005,1.0,0.2,1.0,0.697241764,1.0,0.563979944,False,,5e94fa6625f03e0bd5d1b12c,,1301274,112,,evan-feature22,,0
88,2396,113,,,,2,2,1.0,1.0,0.0,-1.0,,0.0-115.0,,-1.0,534.505,0.0,0.491942424,1.0,0.211831634,1.0,0.711485281,1.0,0.545873024,False,,5e94fa6625f03e0bd5d1b12c,,1311573,113,,evan-feature22,,0
89,2397,114,,,,2,2,0.0,1.0,0.0,-1.0,,0.0-116.0,,-1.0,371.25,0.0,0.47099133200000004,1.0,0.21466666,0.0,0.709895341,1.0,0.512353759,False,,5e94fa6625f03e0bd5d1b12c,,1321706,114,,evan-feature22,,0
90,2398,115,,,,1,1,0.0,0.0,1.0,0.0,,0.0-117.0,,0.0,367.485,0.0,0.511181511,0.0,0.2,1.0,0.6843025640000001,1.0,0.48910120700000004,False,,5e94fa6625f03e0bd5d1b12c,,1331835,115,,evan-feature22,,1
91,2399,116,,,,1,1,0.0,0.0,0.0,-1.0,,0.0-118.0,,0.0,468.87,0.0,0.42747173200000005,0.0,0.2,1.0,0.725747096,1.0,0.44244355399999996,False,,5e94fa6625f03e0bd5d1b12c,,1342072,116,,evan-feature22,,0
92,2400,117,,,,2,2,1.0,1.0,1.0,0.0,,0.0-119.0,,1.0,271.59,0.0,0.391559647,0.0,0.20234127100000002,1.0,0.8,1.0,0.49848766899999997,False,,5e94fa6625f03e0bd5d1b12c,,1352111,117,,evan-feature22,,1
93,2401,118,,,,2,2,0.0,0.0,1.0,0.0,,0.0-120.0,,0.0,458.72,0.0,0.338934629,1.0,0.20102459399999997,0.0,0.8,0.0,0.599172933,False,,5e94fa6625f03e0bd5d1b12c,,1362331,118,,evan-feature22,,0
94,2402,119,,,,2,2,0.0,1.0,1.0,0.0,,0.0-121.0,,0.0,525.9,0.0,0.272438107,0.0,0.2,0.0,0.8,1.0,0.582195177,False,,5e94fa6625f03e0bd5d1b12c,,1372620,119,,evan-feature22,,0
95,2403,120,,,,2,2,0.0,0.0,1.0,0.0,,0.0-122.0,,0.0,557.35,0.0,0.20873113100000001,0.0,0.2,0.0,0.782881242,0.0,0.574527637,False,,5e94fa6625f03e0bd5d1b12c,,1382938,120,,evan-feature22,,0
96,2404,121,,,,1,1,1.0,0.0,1.0,0.0,,0.0-123.0,,1.0,407.605,1.0,0.21378948600000003,0.0,0.239588933,1.0,0.794481966,1.0,0.646756856,False,,5e94fa6625f03e0bd5d1b12c,,1393108,121,,evan-feature22,,1
97,2405,122,,,,2,2,0.0,1.0,1.0,0.0,,0.0-124.0,,0.0,2398.185,0.0,0.234300481,0.0,0.236977303,0.0,0.8,1.0,0.692508186,False,,5e94fa6625f03e0bd5d1b12c,,1405270,122,,evan-feature22,,1
98,2406,123,,,,2,2,1.0,1.0,1.0,0.0,,0.0-125.0,,1.0,572.24,0.0,0.2,0.0,0.253327382,1.0,0.8,1.0,0.715382988,False,,5e94fa6625f03e0bd5d1b12c,,1415607,123,,evan-feature22,,0
99,2407,124,,,,1,1,0.0,0.0,0.0,-1.0,,0.0-126.0,,0.0,378.385,0.0,0.2,0.0,0.316819226,1.0,0.768248569,0.0,0.635039647,False,,5e94fa6625f03e0bd5d1b12c,,1425747,124,,evan-feature22,,1
100,2408,125,,,,2,2,1.0,1.0,1.0,0.0,,0.0-127.0,,1.0,279.055,0.0,0.2,0.0,0.304331711,1.0,0.7436900740000001,1.0,0.570285467,False,,5e94fa6625f03e0bd5d1b12c,,1435795,125,,evan-feature22,,1
101,2409,126,,,,1,1,0.0,0.0,1.0,0.0,,0.0-128.0,,0.0,1725.065,0.0,0.2,0.0,0.34442675700000003,1.0,0.782947142,1.0,0.58883072,False,,5e94fa6625f03e0bd5d1b12c,,1447283,126,,evan-feature22,,1
102,2410,127,,,,2,2,1.0,1.0,1.0,0.0,,0.0-129.0,,1.0,871.45,0.0,0.2,0.0,0.333764469,1.0,0.74909275,1.0,0.597660698,False,,5e94fa6625f03e0bd5d1b12c,,1457917,127,,evan-feature22,,1
103,2411,128,,,,1,1,0.0,0.0,0.0,-1.0,,0.0-130.0,,0.0,491.96,0.0,0.21182257100000002,0.0,0.333071143,1.0,0.731321896,1.0,0.586049322,False,,5e94fa6625f03e0bd5d1b12c,,1468172,128,,evan-feature22,,1
104,2412,129,,,,1,1,0.0,0.0,0.0,-1.0,,0.0-131.0,,0.0,2198.285,0.0,0.32438324399999996,0.0,0.281169443,0.0,0.764387082,0.0,0.560261518,False,,5e94fa6625f03e0bd5d1b12c,,1480133,129,,evan-feature22,,0
105,2413,130,,,,2,2,1.0,1.0,0.0,-1.0,,0.0-132.0,,-1.0,412.22,1.0,0.323030459,1.0,0.343874174,1.0,0.7688975140000001,1.0,0.611131737,False,,5e94fa6625f03e0bd5d1b12c,,1490313,130,,evan-feature22,,1
106,2414,131,,,,1,1,0.0,0.0,1.0,0.0,,0.0-133.0,,0.0,577.32,0.0,0.269643308,0.0,0.35680940299999997,1.0,0.750347165,1.0,0.637401914,False,,5e94fa6625f03e0bd5d1b12c,,1500651,131,,evan-feature22,,1
107,2415,132,,,,2,2,1.0,1.0,1.0,0.0,,0.0-134.0,,1.0,573.635,0.0,0.34862530700000005,1.0,0.39833415899999997,1.0,0.7462419990000001,1.0,0.6163216739999999,False,,5e94fa6625f03e0bd5d1b12c,,1510993,132,,evan-feature22,,1
108,2417,134,,,,1,1,1.0,0.0,1.0,0.0,,0.0-136.0,,1.0,403.275,1.0,0.34951174100000004,0.0,0.354602362,1.0,0.7448222320000001,1.0,0.6255520760000001,False,,5e94fa6625f03e0bd5d1b12c,,1523923,134,,evan-feature22,,1
109,2418,135,,,,2,2,1.0,1.0,1.0,0.0,,0.0-137.0,,1.0,773.59,1.0,0.42128431899999996,0.0,0.338837396,1.0,0.8,1.0,0.677864288,False,,5e94fa6625f03e0bd5d1b12c,,1534463,135,,evan-feature22,,1
110,2419,136,,,,1,1,0.0,0.0,1.0,0.0,,0.0-138.0,,0.0,899.405,0.0,0.40754956200000003,0.0,0.38026053,1.0,0.8,0.0,0.748827916,False,,5e94fa6625f03e0bd5d1b12c,,1545123,136,,evan-feature22,,1
111,2420,137,,,,2,2,0.0,1.0,1.0,0.0,,0.0-139.0,,0.0,405.265,0.0,0.43124738100000004,1.0,0.37964172799999996,0.0,0.75733039,1.0,0.78666299,False,,5e94fa6625f03e0bd5d1b12c,,1555295,137,,evan-feature22,,1
112,2421,138,,,,1,1,1.0,1.0,1.0,0.0,,0.0-140.0,,1.0,1228.29,1.0,0.39810382899999996,1.0,0.36191889200000005,0.0,0.8,1.0,0.8,False,,5e94fa6625f03e0bd5d1b12c,,1566286,138,,evan-feature22,,1
113,2422,139,,,,1,1,0.0,0.0,0.0,-1.0,,0.0-141.0,,0.0,803.35,0.0,0.35893383700000003,0.0,0.420001005,0.0,0.8,0.0,0.760034896,False,,5e94fa6625f03e0bd5d1b12c,,1576851,139,,evan-feature22,,0
114,2423,140,,,,1,1,0.0,0.0,1.0,0.0,,0.0-142.0,,0.0,894.53,0.0,0.315146737,0.0,0.472877564,0.0,0.8,0.0,0.7245440759999999,False,,5e94fa6625f03e0bd5d1b12c,,1587508,140,,evan-feature22,,0
115,2424,141,,,,2,2,1.0,1.0,1.0,0.0,,0.0-143.0,,1.0,871.14,0.0,0.311027138,1.0,0.42634755700000004,1.0,0.7793870709999999,1.0,0.702445579,False,,5e94fa6625f03e0bd5d1b12c,,1598148,141,,evan-feature22,,1
116,2425,142,,,,2,2,1.0,1.0,1.0,0.0,,0.0-144.0,,1.0,870.515,1.0,0.330974778,1.0,0.528633881,1.0,0.8,1.0,0.7338857670000001,False,,5e94fa6625f03e0bd5d1b12c,,1608786,142,,evan-feature22,,0
117,2426,143,,,,2,2,1.0,1.0,1.0,0.0,,0.0-145.0,,1.0,849.695,1.0,0.311747957,1.0,0.571262299,1.0,0.719957003,1.0,0.7333429690000001,False,,5e94fa6625f03e0bd5d1b12c,,1619400,143,,evan-feature22,,0
118,2427,144,,,,1,1,1.0,1.0,0.0,-1.0,,0.0-146.0,,-1.0,185.59,1.0,0.33129749999999997,1.0,0.637148948,1.0,0.794592668,1.0,0.7305738140000001,False,,5e94fa6625f03e0bd5d1b12c,,1629350,144,,evan-feature22,,1
119,2428,145,,,,2,2,0.0,1.0,1.0,0.0,,0.0-147.0,,0.0,267.63,0.0,0.320701745,1.0,0.599776138,0.0,0.8,1.0,0.7391144959999999,False,,5e94fa6625f03e0bd5d1b12c,,1639384,145,,evan-feature22,,1
120,2429,146,,,,2,2,0.0,1.0,1.0,0.0,,0.0-148.0,,0.0,362.155,0.0,0.388045514,0.0,0.564238847,0.0,0.726841947,1.0,0.720015904,False,,5e94fa6625f03e0bd5d1b12c,,1649509,146,,evan-feature22,,0
121,2430,147,,,,SLOW,SLOW,,,1.0,0.0,,0.0-149.0,,-3.0,,0.0,0.34414259700000005,0.0,0.56543745,0.0,0.7634386470000001,1.0,0.726727589,False,,5e94fa6625f03e0bd5d1b12c,,1655319,147,,evan-feature22,,1
122,2431,148,,,,2,2,0.0,1.0,0.0,-1.0,,0.0-150.0,,-1.0,1162.68,0.0,0.38897054200000003,1.0,0.567453633,0.0,0.6835880740000001,1.0,0.722632945,False,,5e94fa6625f03e0bd5d1b12c,,1666245,148,,evan-feature22,,1
123,2432,149,,,,2,2,0.0,1.0,0.0,-1.0,,0.0-151.0,,-1.0,533.955,0.0,0.322991325,1.0,0.562377934,0.0,0.7234406,1.0,0.699632035,False,,5e94fa6625f03e0bd5d1b12c,,1676542,149,,evan-feature22,,0
124,2433,150,,,,2,2,1.0,0.0,0.0,-1.0,,0.0-152.0,,0.0,349.23,0.0,0.327575607,1.0,0.614124007,1.0,0.766310246,0.0,0.7062665440000001,False,,5e94fa6625f03e0bd5d1b12c,,1686654,150,,evan-feature22,,0
125,2434,151,,,,1,1,0.0,1.0,1.0,0.0,,0.0-153.0,,0.0,164.085,0.0,0.307253769,1.0,0.625616624,1.0,0.766156052,1.0,0.691343484,False,,5e94fa6625f03e0bd5d1b12c,,1696585,151,,evan-feature22,,1
126,2435,152,,,,1,1,0.0,1.0,1.0,0.0,,0.0-154.0,,0.0,449.755,0.0,0.270434491,1.0,0.582288488,1.0,0.747456207,1.0,0.644724024,False,,5e94fa6625f03e0bd5d1b12c,,1706797,152,,evan-feature22,,0
127,2436,153,,,,1,1,0.0,0.0,1.0,0.0,,0.0-155.0,,0.0,3149.8,0.0,0.23885132399999998,0.0,0.58944423,0.0,0.705759073,0.0,0.69687762,False,,5e94fa6625f03e0bd5d1b12c,,1719709,153,,evan-feature22,,0
128,2437,154,,,,1,1,0.0,0.0,1.0,0.0,,0.0-156.0,,0.0,837.485,0.0,0.27303527899999996,0.0,0.653244432,1.0,0.7379850659999999,1.0,0.680041152,False,,5e94fa6625f03e0bd5d1b12c,,1730308,154,,evan-feature22,,0
129,2438,155,,,,1,1,0.0,1.0,1.0,0.0,,0.0-157.0,,0.0,2168.39,0.0,0.316190693,1.0,0.652685892,1.0,0.7791168390000001,1.0,0.669352924,False,,5e94fa6625f03e0bd5d1b12c,,1742239,155,,evan-feature22,,0
130,2439,156,,,,2,2,1.0,1.0,0.0,-1.0,,0.0-158.0,,-1.0,836.635,0.0,0.282759714,0.0,0.670973046,1.0,0.7725793120000001,1.0,0.7068984620000001,False,,5e94fa6625f03e0bd5d1b12c,,1752841,156,,evan-feature22,,1
131,2440,157,,,,2,2,1.0,0.0,0.0,-1.0,,0.0-159.0,,0.0,343.315,1.0,0.311304958,1.0,0.664496179,1.0,0.770911936,0.0,0.662452385,False,,5e94fa6625f03e0bd5d1b12c,,1762948,157,,evan-feature22,,0
132,2441,158,,,,2,2,0.0,1.0,1.0,0.0,,0.0-160.0,,0.0,271.28,0.0,0.23102840100000002,1.0,0.665682142,0.0,0.8,1.0,0.7239157279999999,False,,5e94fa6625f03e0bd5d1b12c,,1772984,158,,evan-feature22,,0
133,2442,159,,,,1,1,0.0,1.0,0.0,-1.0,,0.0-161.0,,-1.0,378.84,0.0,0.28482291600000004,1.0,0.677059392,1.0,0.7779785159999999,0.0,0.7730907890000001,False,,5e94fa6625f03e0bd5d1b12c,,1783128,159,,evan-feature22,,1
134,2443,160,,,,2,2,1.0,1.0,1.0,0.0,,0.0-162.0,,1.0,1603.195,0.0,0.281805339,0.0,0.709430661,1.0,0.734681215,1.0,0.7916117109999999,False,,5e94fa6625f03e0bd5d1b12c,,1794497,160,,evan-feature22,,1
135,2444,161,,,,2,2,1.0,0.0,0.0,-1.0,,0.0-163.0,,0.0,658.345,1.0,0.271779094,1.0,0.7253293909999999,1.0,0.667430043,0.0,0.7465941070000001,False,,5e94fa6625f03e0bd5d1b12c,,1804916,161,,evan-feature22,,0
136,2445,162,,,,2,2,1.0,0.0,1.0,0.0,,0.0-164.0,,1.0,870.655,0.0,0.300513275,1.0,0.7812887740000001,1.0,0.7620008420000001,0.0,0.681217126,False,,5e94fa6625f03e0bd5d1b12c,,1815556,162,,evan-feature22,,0
137,2446,163,,,,2,2,1.0,1.0,1.0,0.0,,0.0-165.0,,1.0,424.01,1.0,0.285291337,1.0,0.792315016,1.0,0.792446219,1.0,0.676388503,False,,5e94fa6625f03e0bd5d1b12c,,1825744,163,,evan-feature22,,0
138,2447,164,,,,2,2,1.0,1.0,1.0,0.0,,0.0-166.0,,1.0,3426.98,0.0,0.318404507,1.0,0.7986219379999999,1.0,0.8,1.0,0.586973186,False,,5e94fa6625f03e0bd5d1b12c,,1838935,164,,evan-feature22,,0
139,2448,165,,,,2,2,0.0,0.0,0.0,-1.0,,0.0-167.0,,0.0,1635.065,1.0,0.31839587399999997,1.0,0.8,0.0,0.8,0.0,0.591939169,False,,5e94fa6625f03e0bd5d1b12c,,1850331,165,,evan-feature22,,0
140,2449,166,,,,2,2,0.0,0.0,0.0,-1.0,,0.0-168.0,,0.0,1608.04,0.0,0.318235741,1.0,0.8,0.0,0.776403022,0.0,0.537290213,False,,5e94fa6625f03e0bd5d1b12c,,1861703,166,,evan-feature22,,0
141,2450,167,,,,2,2,1.0,1.0,0.0,-1.0,,0.0-169.0,,-1.0,1497.43,0.0,0.264600799,1.0,0.8,1.0,0.8,1.0,0.5550949820000001,False,,5e94fa6625f03e0bd5d1b12c,,1872969,167,,evan-feature22,,0
142,2451,168,,,,1,1,1.0,1.0,1.0,0.0,,0.0-170.0,,1.0,1138.87,1.0,0.2,1.0,0.8,1.0,0.748932513,0.0,0.556644326,False,,5e94fa6625f03e0bd5d1b12c,,1883870,168,,evan-feature22,,1
143,2452,169,,,,2,2,1.0,1.0,0.0,-1.0,,0.0-171.0,,-1.0,517.605,0.0,0.2,1.0,0.7596584820000001,1.0,0.709749046,1.0,0.523498068,False,,5e94fa6625f03e0bd5d1b12c,,1894154,169,,evan-feature22,,1
144,2453,170,,,,1,1,1.0,1.0,1.0,0.0,,0.0-172.0,,1.0,1290.82,1.0,0.22718354,1.0,0.779429488,1.0,0.689430329,1.0,0.444999056,False,,5e94fa6625f03e0bd5d1b12c,,1905208,170,,evan-feature22,,1
145,2454,171,,,,1,1,1.0,1.0,0.0,-1.0,,0.0-173.0,,-1.0,540.57,1.0,0.24989155300000002,1.0,0.790984417,1.0,0.724563167,0.0,0.401944281,False,,5e94fa6625f03e0bd5d1b12c,,1915513,171,,evan-feature22,,0
146,2455,172,,,,2,2,1.0,0.0,1.0,0.0,,0.0-174.0,,1.0,1289.525,0.0,0.26528147399999996,1.0,0.8,1.0,0.748463215,0.0,0.314270227,False,,5e94fa6625f03e0bd5d1b12c,,1926566,172,,evan-feature22,,1
147,2456,173,,,,1,1,0.0,1.0,1.0,0.0,,0.0-175.0,,0.0,421.69,0.0,0.262909345,1.0,0.7769973459999999,1.0,0.727316387,0.0,0.296676442,False,,5e94fa6625f03e0bd5d1b12c,,1936751,173,,evan-feature22,,1
148,2457,174,,,,2,2,1.0,0.0,1.0,0.0,,0.0-176.0,,1.0,437.55,1.0,0.276612486,1.0,0.768502158,1.0,0.719051618,0.0,0.287033897,False,,5e94fa6625f03e0bd5d1b12c,,1946951,174,,evan-feature22,,1
149,2458,175,,,,1,1,0.0,1.0,0.0,-1.0,,0.0-177.0,,-1.0,571.48,0.0,0.312468593,1.0,0.8,1.0,0.669738485,0.0,0.25479958399999997,False,,5e94fa6625f03e0bd5d1b12c,,1957285,175,,evan-feature22,,1
150,2459,176,,,,2,2,0.0,0.0,1.0,0.0,,0.0-178.0,,0.0,1783.385,0.0,0.32745155600000003,1.0,0.8,0.0,0.709398745,0.0,0.20145359899999998,False,,5e94fa6625f03e0bd5d1b12c,,1968831,176,,evan-feature22,,1
151,2460,177,,,,1,1,0.0,1.0,1.0,0.0,,0.0-179.0,,0.0,690.76,0.0,0.367895585,1.0,0.8,0.0,0.7301204440000001,1.0,0.215433128,False,,5e94fa6625f03e0bd5d1b12c,,1979288,177,,evan-feature22,,1
152,2461,178,,,,2,2,0.0,0.0,1.0,0.0,,0.0-180.0,,0.0,476.445,1.0,0.42422632200000004,1.0,0.8,0.0,0.8,0.0,0.215904592,False,,5e94fa6625f03e0bd5d1b12c,,1989527,178,,evan-feature22,,1
153,2462,179,,,,2,2,1.0,1.0,1.0,0.0,,0.0-181.0,,1.0,326.03,0.0,0.387639646,1.0,0.7410642759999999,1.0,0.8,1.0,0.274811465,False,,5e94fa6625f03e0bd5d1b12c,,1999617,179,,evan-feature22,,0
154,2463,180,,,,2,2,1.0,0.0,1.0,0.0,,0.0-182.0,,1.0,466.86,1.0,0.397008989,0.0,0.6990261879999999,1.0,0.8,0.0,0.263811886,False,,5e94fa6625f03e0bd5d1b12c,,2009851,180,,evan-feature22,,0
155,2464,181,,,,1,1,0.0,1.0,0.0,-1.0,,0.0-183.0,,-1.0,360.37,0.0,0.39142335799999994,1.0,0.663298252,1.0,0.8,0.0,0.2,False,,5e94fa6625f03e0bd5d1b12c,,2019976,181,,evan-feature22,,1
156,2465,182,,,,2,2,1.0,0.0,0.0,-1.0,,0.0-184.0,,0.0,1173.025,1.0,0.42455550200000003,1.0,0.670214687,1.0,0.720478215,0.0,0.229312684,False,,5e94fa6625f03e0bd5d1b12c,,2030912,182,,evan-feature22,,1
157,2466,183,,,,2,2,1.0,0.0,0.0,-1.0,,0.0-185.0,,0.0,523.825,1.0,0.42232195899999997,1.0,0.6970075259999999,1.0,0.773056416,0.0,0.212995684,False,,5e94fa6625f03e0bd5d1b12c,,2041200,183,,evan-feature22,,0
158,2467,184,,,,1,1,0.0,0.0,0.0,-1.0,,0.0-186.0,,0.0,1356.885,0.0,0.34468955,0.0,0.713492603,0.0,0.747935676,0.0,0.2,False,,5e94fa6625f03e0bd5d1b12c,,2052323,184,,evan-feature22,,1
159,2468,185,,,,1,1,0.0,0.0,1.0,0.0,,0.0-187.0,,0.0,520.84,0.0,0.35815455799999996,0.0,0.6900582940000001,1.0,0.770945531,0.0,0.20526726399999998,False,,5e94fa6625f03e0bd5d1b12c,,2062608,185,,evan-feature22,,0
160,2469,186,notice,,,,,,,,,,0.0-188.0,"{""Q0"":""No""}",,5908.0,,,,,,,,,False,,5e94fa6625f03e0bd5d1b12c,,2068517,186,Q,survey-text,,1
161,2470,187,track1,,[1],,,,,,,,0.0-189.0,"{""Q0"":""no""}",,2949.0,,,,,,,,,False,,5e94fa6625f03e0bd5d1b12c,,2071468,187,Q,evan-quiz,,1
162,2471,188,track2,,[0],,,,,,,,0.0-190.0,"{""Q0"":""yes""}",,6076.0,,,,,,,,,False,,5e94fa6625f03e0bd5d1b12c,,2077545,188,Q,evan-quiz,,1
163,2472,189,strat,,,,,,,,,,0.0-191.0,"{""Q0"":""Trying to determine in part 1 which side had gold the most""}",,19667.0,,,,,,,,,False,,5e94fa6625f03e0bd5d1b12c,,2097214,189,Q,survey-text,,1
