,index,Unnamed: 0,Q_name,button_pressed,choice_idxs,chosen_pos,chosen_state,chosen_state_f_1_outcome,chosen_state_f_2_outcome,f_1_reward,f_2_reward,incor_questions,internal_node_id,responses,reward_received,rt,s_1_f_1_outcome,s_1_f_1_prob,s_1_f_2_outcome,s_1_f_2_prob,s_2_f_1_outcome,s_2_f_1_prob,s_2_f_2_outcome,s_2_f_2_prob,safe_first,stimulus,subjectID,success,time_elapsed,trial_index,trial_num,trial_type,view_history,switching
0,1568,24,,,,2,2,0.0,0.0,1.0,0.0,,0.0-26.0,,0.0,1604.54,1.0,0.758395892,1.0,0.666783589,0.0,0.39893396600000003,0.0,0.29433458,True,,59ba747b76adf400010fd0da,,564476,24,,evan-feature22,,0
1,1569,25,,,,2,2,0.0,1.0,1.0,0.0,,0.0-27.0,,0.0,941.3599998999999,1.0,0.749113302,1.0,0.6410334639999999,0.0,0.374554754,1.0,0.32429597,True,,59ba747b76adf400010fd0da,,575212,25,,evan-feature22,,0
2,1570,26,,,,1,1,1.0,0.0,1.0,0.0,,0.0-28.0,,1.0,426.355,1.0,0.7692293659999999,0.0,0.673489452,0.0,0.38936336299999996,0.0,0.40805484299999994,True,,59ba747b76adf400010fd0da,,585457,26,,evan-feature22,,1
3,1571,27,,,,1,1,1.0,1.0,1.0,0.0,,0.0-29.0,,1.0,532.6449999,1.0,0.794299593,1.0,0.7056914559999999,0.0,0.452628219,0.0,0.42653274,True,,59ba747b76adf400010fd0da,,595813,27,,evan-feature22,,0
4,1572,28,,,,2,2,0.0,1.0,0.0,-1.0,,0.0-30.0,,-1.0,577.665,1.0,0.8,1.0,0.7342765809999999,0.0,0.423370724,1.0,0.432069981,True,,59ba747b76adf400010fd0da,,606205,28,,evan-feature22,,1
5,1573,29,,,,2,2,0.0,0.0,0.0,-1.0,,0.0-31.0,,0.0,1484.9,0.0,0.77615632,1.0,0.671157041,0.0,0.457156974,0.0,0.464632121,True,,59ba747b76adf400010fd0da,,617488,29,,evan-feature22,,0
6,1574,30,,,,2,2,1.0,1.0,1.0,0.0,,0.0-32.0,,1.0,370.2949999,1.0,0.760618163,0.0,0.6459397610000001,1.0,0.471572527,1.0,0.372324295,True,,59ba747b76adf400010fd0da,,627660,30,,evan-feature22,,0
7,1575,31,,,,1,1,0.0,0.0,1.0,0.0,,0.0-33.0,,0.0,540.94,0.0,0.747676711,0.0,0.596965425,1.0,0.46128409299999995,1.0,0.348031934,True,,59ba747b76adf400010fd0da,,638025,31,,evan-feature22,,1
8,1576,32,,,,1,1,1.0,1.0,0.0,-1.0,,0.0-34.0,,-1.0,520.8300001,1.0,0.7589599690000001,1.0,0.576201125,1.0,0.508614774,0.0,0.366452805,True,,59ba747b76adf400010fd0da,,648376,32,,evan-feature22,,0
9,1577,33,,,,1,1,1.0,1.0,0.0,-1.0,,0.0-35.0,,-1.0,350.85,1.0,0.8,1.0,0.561117359,0.0,0.552349312,0.0,0.38521346,True,,59ba747b76adf400010fd0da,,658536,33,,evan-feature22,,0
10,1578,34,,,,1,1,1.0,0.0,1.0,0.0,,0.0-36.0,,1.0,378.205,1.0,0.7713106559999999,0.0,0.61964539,0.0,0.596823475,0.0,0.42932164100000003,True,,59ba747b76adf400010fd0da,,668708,34,,evan-feature22,,0
11,1579,35,,,,1,1,1.0,1.0,0.0,-1.0,,0.0-37.0,,-1.0,770.76,1.0,0.8,1.0,0.626226927,0.0,0.60332109,1.0,0.378687767,True,,59ba747b76adf400010fd0da,,679306,35,,evan-feature22,,0
12,1580,36,,,,2,2,1.0,1.0,1.0,0.0,,0.0-38.0,,1.0,409.645,1.0,0.8,1.0,0.625397042,1.0,0.6178893529999999,1.0,0.385361015,True,,59ba747b76adf400010fd0da,,689518,36,,evan-feature22,,1
13,1581,37,,,,2,2,0.0,1.0,1.0,0.0,,0.0-39.0,,0.0,1098.055,1.0,0.8,1.0,0.634158766,0.0,0.593227747,1.0,0.347942274,True,,59ba747b76adf400010fd0da,,700400,37,,evan-feature22,,0
14,1582,38,,,,2,2,1.0,0.0,1.0,0.0,,0.0-40.0,,1.0,453.885,1.0,0.780131997,1.0,0.63264508,1.0,0.554391083,0.0,0.40680791200000005,True,,59ba747b76adf400010fd0da,,710644,38,,evan-feature22,,0
15,1583,39,,,,2,2,1.0,1.0,1.0,0.0,,0.0-41.0,,1.0,405.76,1.0,0.8,1.0,0.648202298,1.0,0.515718575,1.0,0.427451178,True,,59ba747b76adf400010fd0da,,720869,39,,evan-feature22,,0
16,1584,40,,,,1,1,1.0,1.0,1.0,0.0,,0.0-42.0,,1.0,388.755,1.0,0.78377078,1.0,0.67965253,0.0,0.537109201,0.0,0.43219395899999996,True,,59ba747b76adf400010fd0da,,731053,40,,evan-feature22,,1
17,1585,41,,,,2,2,1.0,0.0,1.0,0.0,,0.0-43.0,,1.0,381.19,1.0,0.8,1.0,0.6777571290000001,1.0,0.525795655,0.0,0.41902666299999997,True,,59ba747b76adf400010fd0da,,741222,41,,evan-feature22,,1
18,1586,42,,,,2,2,0.0,0.0,1.0,0.0,,0.0-44.0,,0.0,424.04000010000004,1.0,0.754949303,1.0,0.6501381039999999,0.0,0.528431942,0.0,0.404639057,True,,59ba747b76adf400010fd0da,,751470,42,,evan-feature22,,0
19,1587,43,,,,1,1,1.0,0.0,0.0,-1.0,,0.0-45.0,,0.0,592.955,1.0,0.8,0.0,0.655926243,1.0,0.477718095,1.0,0.382683792,True,,59ba747b76adf400010fd0da,,761848,43,,evan-feature22,,1
20,1588,44,,,,1,1,1.0,0.0,1.0,0.0,,0.0-46.0,,1.0,509.01,1.0,0.743293998,0.0,0.612656833,0.0,0.458332775,0.0,0.437340995,True,,59ba747b76adf400010fd0da,,772173,44,,evan-feature22,,0
21,1589,45,,,,2,2,1.0,0.0,1.0,0.0,,0.0-47.0,,1.0,916.365,1.0,0.7410552840000001,1.0,0.619286527,1.0,0.472797571,0.0,0.531525128,True,,59ba747b76adf400010fd0da,,782885,45,,evan-feature22,,1
22,1590,46,,,,2,2,1.0,0.0,1.0,0.0,,0.0-48.0,,1.0,447.265,1.0,0.727897085,0.0,0.6228321520000001,1.0,0.39601617,0.0,0.5762136520000001,True,,59ba747b76adf400010fd0da,,793135,46,,evan-feature22,,0
23,1591,47,,,,1,1,1.0,1.0,0.0,-1.0,,0.0-49.0,,-1.0,531.81,1.0,0.742532732,1.0,0.609740775,0.0,0.391742951,1.0,0.521061141,True,,59ba747b76adf400010fd0da,,803471,47,,evan-feature22,,1
24,1592,48,,,,1,1,1.0,1.0,0.0,-1.0,,0.0-50.0,,-1.0,594.625,1.0,0.6783303620000001,1.0,0.664637619,1.0,0.361203638,0.0,0.520299591,True,,59ba747b76adf400010fd0da,,813867,48,,evan-feature22,,0
25,1593,49,,,,1,1,1.0,0.0,0.0,-1.0,,0.0-51.0,,0.0,989.7,1.0,0.6942499459999999,0.0,0.6667926479999999,1.0,0.323890969,1.0,0.572468191,True,,59ba747b76adf400010fd0da,,824641,49,,evan-feature22,,0
26,1594,50,,,,1,1,0.0,1.0,1.0,0.0,,0.0-52.0,,0.0,467.875,0.0,0.7125347329999999,1.0,0.623869494,0.0,0.31056222,0.0,0.537072927,True,,59ba747b76adf400010fd0da,,834933,50,,evan-feature22,,0
27,1595,51,,,,2,2,0.0,1.0,1.0,0.0,,0.0-53.0,,0.0,562.6800001,1.0,0.798095036,1.0,0.6311493570000001,0.0,0.25725538600000003,1.0,0.580461963,True,,59ba747b76adf400010fd0da,,845324,51,,evan-feature22,,1
28,1596,52,,,,2,2,0.0,1.0,1.0,0.0,,0.0-54.0,,0.0,1182.715,1.0,0.777435118,0.0,0.598930454,0.0,0.251420798,1.0,0.588308898,True,,59ba747b76adf400010fd0da,,856314,52,,evan-feature22,,0
29,1597,53,,,,1,1,1.0,0.0,1.0,0.0,,0.0-55.0,,1.0,420.21,1.0,0.759582808,0.0,0.5325010020000001,0.0,0.244240244,1.0,0.57555856,True,,59ba747b76adf400010fd0da,,866549,53,,evan-feature22,,1
30,1598,54,,,,1,1,1.0,0.0,1.0,0.0,,0.0-56.0,,1.0,1036.48,1.0,0.731730696,0.0,0.507277796,1.0,0.281049518,0.0,0.563427294,True,,59ba747b76adf400010fd0da,,877406,54,,evan-feature22,,0
31,1599,55,,,,2,2,0.0,1.0,1.0,0.0,,0.0-57.0,,0.0,3383.035,0.0,0.7553872229999999,0.0,0.53317231,0.0,0.2,1.0,0.61479993,True,,59ba747b76adf400010fd0da,,890624,55,,evan-feature22,,1
32,1600,56,,,,2,2,0.0,0.0,1.0,0.0,,0.0-58.0,,0.0,2404.56,1.0,0.69513931,0.0,0.482219891,0.0,0.2,0.0,0.630595346,True,,59ba747b76adf400010fd0da,,902836,56,,evan-feature22,,0
33,1601,57,,,,2,2,0.0,0.0,0.0,-1.0,,0.0-59.0,,0.0,1755.66,1.0,0.760055032,1.0,0.5226485989999999,0.0,0.21430818,0.0,0.5886190689999999,True,,59ba747b76adf400010fd0da,,914397,57,,evan-feature22,,0
34,1602,58,,,,2,2,1.0,1.0,1.0,0.0,,0.0-60.0,,1.0,1302.025,1.0,0.766163824,1.0,0.501297504,1.0,0.270138439,1.0,0.61055715,True,,59ba747b76adf400010fd0da,,925500,58,,evan-feature22,,0
35,1603,59,,,,1,1,0.0,1.0,1.0,0.0,,0.0-61.0,,0.0,1082.595,0.0,0.745170882,1.0,0.461483376,0.0,0.2,1.0,0.6759266429999999,True,,59ba747b76adf400010fd0da,,936395,59,,evan-feature22,,1
36,1604,60,,,,2,2,0.0,1.0,1.0,0.0,,0.0-62.0,,0.0,512.275,0.0,0.735704894,0.0,0.56650936,0.0,0.2,1.0,0.649759555,True,,59ba747b76adf400010fd0da,,946726,60,,evan-feature22,,1
37,1605,61,,,,2,2,0.0,1.0,1.0,0.0,,0.0-63.0,,0.0,384.43,1.0,0.75135719,0.0,0.601996106,0.0,0.2,1.0,0.721739204,True,,59ba747b76adf400010fd0da,,956903,61,,evan-feature22,,0
38,1606,62,,,,2,2,1.0,1.0,0.0,-1.0,,0.0-64.0,,-1.0,420.4650001,1.0,0.8,1.0,0.577883646,1.0,0.227956694,1.0,0.7008504040000001,True,,59ba747b76adf400010fd0da,,967120,62,,evan-feature22,,0
39,1607,63,,,,2,2,0.0,1.0,1.0,0.0,,0.0-65.0,,0.0,137.2,1.0,0.782146585,0.0,0.5356383929999999,0.0,0.240522467,1.0,0.660896764,True,,59ba747b76adf400010fd0da,,977040,63,,evan-feature22,,0
40,1608,64,,,,2,2,0.0,1.0,1.0,0.0,,0.0-66.0,,0.0,440.495,1.0,0.695950925,1.0,0.51509141,0.0,0.33377865,1.0,0.6342836820000001,True,,59ba747b76adf400010fd0da,,987290,64,,evan-feature22,,0
41,1609,65,,,,2,2,1.0,1.0,1.0,0.0,,0.0-67.0,,1.0,610.615,1.0,0.726659747,1.0,0.48346054200000005,1.0,0.402086283,1.0,0.581694384,True,,59ba747b76adf400010fd0da,,997711,65,,evan-feature22,,0
42,1610,66,,,,2,2,0.0,1.0,0.0,-1.0,,0.0-68.0,,-1.0,504.295,1.0,0.705913111,1.0,0.537600217,0.0,0.448943518,1.0,0.5952173510000001,True,,59ba747b76adf400010fd0da,,1008024,66,,evan-feature22,,0
43,1611,67,,,,2,2,1.0,1.0,0.0,-1.0,,0.0-69.0,,-1.0,386.3,1.0,0.7562677179999999,1.0,0.559166276,1.0,0.5101973670000001,1.0,0.561023256,True,,59ba747b76adf400010fd0da,,1018226,67,,evan-feature22,,0
44,1612,68,,,,2,2,1.0,1.0,0.0,-1.0,,0.0-70.0,,-1.0,505.335,1.0,0.7109076440000001,1.0,0.613388908,1.0,0.45078569399999996,1.0,0.6265858,True,,59ba747b76adf400010fd0da,,1028527,68,,evan-feature22,,0
45,1613,69,,,,2,2,1.0,1.0,1.0,0.0,,0.0-71.0,,1.0,486.1249999,0.0,0.7517263059999999,1.0,0.575132706,1.0,0.43515056,1.0,0.63871568,True,,59ba747b76adf400010fd0da,,1038820,69,,evan-feature22,,0
46,1614,70,,,,1,1,0.0,0.0,1.0,0.0,,0.0-72.0,,0.0,588.975,0.0,0.757179437,0.0,0.593620551,0.0,0.454073093,1.0,0.626973291,True,,59ba747b76adf400010fd0da,,1049215,70,,evan-feature22,,1
47,1615,71,,,,1,1,1.0,0.0,1.0,0.0,,0.0-73.0,,1.0,356.485,1.0,0.748038451,0.0,0.6098695,1.0,0.38327690299999995,1.0,0.684561392,True,,59ba747b76adf400010fd0da,,1059380,71,,evan-feature22,,0
48,1616,72,,,,1,1,1.0,0.0,1.0,0.0,,0.0-74.0,,1.0,410.025,1.0,0.6785645929999999,0.0,0.6116548479999999,0.0,0.45625733799999996,0.0,0.619523947,True,,59ba747b76adf400010fd0da,,1069584,72,,evan-feature22,,0
49,1617,73,,,,2,2,1.0,1.0,1.0,0.0,,0.0-75.0,,1.0,588.385,1.0,0.624895127,1.0,0.619112572,1.0,0.534506586,1.0,0.6286811,True,,59ba747b76adf400010fd0da,,1080001,73,,evan-feature22,,1
50,1618,74,,,,2,2,1.0,0.0,0.0,-1.0,,0.0-76.0,,0.0,386.88,1.0,0.626598995,1.0,0.561681832,1.0,0.5338345529999999,0.0,0.699225106,True,,59ba747b76adf400010fd0da,,1090178,74,,evan-feature22,,0
51,1619,75,,,,1,1,1.0,1.0,0.0,-1.0,,0.0-77.0,,-1.0,2192.835,1.0,0.619791351,1.0,0.648089067,1.0,0.554773755,0.0,0.719829837,True,,59ba747b76adf400010fd0da,,1102160,75,,evan-feature22,,1
52,1620,76,,,,1,1,1.0,0.0,1.0,0.0,,0.0-78.0,,1.0,610.415,1.0,0.631881247,0.0,0.584052341,0.0,0.567943017,0.0,0.7417000229999999,True,,59ba747b76adf400010fd0da,,1112558,76,,evan-feature22,,0
53,1621,77,,,,1,1,1.0,0.0,0.0,-1.0,,0.0-79.0,,0.0,608.7099999,1.0,0.64968251,0.0,0.568222121,1.0,0.629368633,1.0,0.8,True,,59ba747b76adf400010fd0da,,1122970,77,,evan-feature22,,0
54,1623,79,,,,2,2,1.0,1.0,1.0,0.0,,0.0-81.0,,1.0,1189.31,1.0,0.663645983,1.0,0.608852351,1.0,0.61806748,1.0,0.8,True,,59ba747b76adf400010fd0da,,1138789,79,,evan-feature22,,1
55,1624,80,,,,2,2,0.0,1.0,0.0,-1.0,,0.0-82.0,,-1.0,411.615,1.0,0.667073374,1.0,0.622694241,0.0,0.605227886,1.0,0.783313017,True,,59ba747b76adf400010fd0da,,1149003,80,,evan-feature22,,0
56,1625,81,,,,2,2,1.0,1.0,1.0,0.0,,0.0-83.0,,1.0,628.8299999,1.0,0.7605589079999999,1.0,0.6334344160000001,1.0,0.59379959,1.0,0.73861361,True,,59ba747b76adf400010fd0da,,1159437,81,,evan-feature22,,0
57,1626,82,,,,1,1,0.0,0.0,1.0,0.0,,0.0-84.0,,0.0,1343.84,0.0,0.7544831240000001,0.0,0.660936699,1.0,0.509492795,1.0,0.6462146910000001,True,,59ba747b76adf400010fd0da,,1170575,82,,evan-feature22,,1
58,1627,83,,,,1,1,1.0,1.0,1.0,0.0,,0.0-85.0,,1.0,1224.26,1.0,0.7274789429999999,1.0,0.662769615,1.0,0.544926524,1.0,0.688483132,True,,59ba747b76adf400010fd0da,,1181621,83,,evan-feature22,,0
59,1628,84,,,,1,1,0.0,0.0,0.0,-1.0,,0.0-86.0,,0.0,862.1049998999999,0.0,0.8,0.0,0.623524457,1.0,0.5648388320000001,1.0,0.681239038,True,,59ba747b76adf400010fd0da,,1192291,84,,evan-feature22,,0
60,1629,85,,,,1,1,1.0,0.0,0.0,-1.0,,0.0-87.0,,0.0,446.81,1.0,0.8,0.0,0.670753133,0.0,0.5158076,1.0,0.627836146,True,,59ba747b76adf400010fd0da,,1202564,85,,evan-feature22,,0
61,1630,86,,,,1,1,1.0,1.0,0.0,-1.0,,0.0-88.0,,-1.0,552.3300001,1.0,0.775527162,1.0,0.681016775,1.0,0.51377463,1.0,0.626808982,True,,59ba747b76adf400010fd0da,,1212933,86,,evan-feature22,,0
62,1631,87,,,,1,1,0.0,0.0,1.0,0.0,,0.0-89.0,,0.0,506.28,0.0,0.7596868990000001,0.0,0.656386777,1.0,0.507155515,1.0,0.657587271,True,,59ba747b76adf400010fd0da,,1223250,87,,evan-feature22,,0
63,1632,88,,,,SLOW,SLOW,,,0.0,-1.0,,0.0-90.0,,-3.0,,0.0,0.7697730429999999,1.0,0.6696294279999999,1.0,0.405621956,1.0,0.632466576,True,,59ba747b76adf400010fd0da,,1229079,88,,evan-feature22,,1
64,1633,89,,,,2,2,0.0,0.0,1.0,0.0,,0.0-91.0,,0.0,495.285,1.0,0.733077865,1.0,0.589734488,0.0,0.35222996799999995,0.0,0.605848783,True,,59ba747b76adf400010fd0da,,1239390,89,,evan-feature22,,1
65,1634,90,,,,2,2,1.0,1.0,0.0,-1.0,,0.0-92.0,,-1.0,1296.7,0.0,0.7516953259999999,1.0,0.571952819,1.0,0.35600478799999996,1.0,0.5556085629999999,True,,59ba747b76adf400010fd0da,,1250486,90,,evan-feature22,,0
66,1635,91,,,,2,2,0.0,0.0,1.0,0.0,,0.0-93.0,,0.0,975.9399999,1.0,0.7335224459999999,0.0,0.6532418560000001,0.0,0.343718615,0.0,0.494468134,True,,59ba747b76adf400010fd0da,,1261279,91,,evan-feature22,,0
67,1636,92,,,,2,2,0.0,0.0,1.0,0.0,,0.0-94.0,,0.0,412.085,1.0,0.7124817590000001,1.0,0.6390774810000001,0.0,0.339057567,0.0,0.470845749,True,,59ba747b76adf400010fd0da,,1271513,92,,evan-feature22,,0
68,1637,93,,,,2,2,0.0,0.0,1.0,0.0,,0.0-95.0,,0.0,448.16,1.0,0.6784382870000001,0.0,0.619313665,0.0,0.307093978,0.0,0.551459799,True,,59ba747b76adf400010fd0da,,1281783,93,,evan-feature22,,0
69,1638,94,,,,2,2,0.0,1.0,0.0,-1.0,,0.0-96.0,,-1.0,403.145,1.0,0.6652083129999999,0.0,0.597460688,0.0,0.35021752799999994,1.0,0.539363545,True,,59ba747b76adf400010fd0da,,1291982,94,,evan-feature22,,0
70,1639,95,,,,2,2,0.0,1.0,1.0,0.0,,0.0-97.0,,0.0,355.69499989999997,0.0,0.661769563,1.0,0.6237266220000001,0.0,0.43284700200000004,1.0,0.527128728,True,,59ba747b76adf400010fd0da,,1302173,95,,evan-feature22,,0
71,1640,96,,,,2,2,1.0,0.0,1.0,0.0,,0.0-98.0,,1.0,362.14,1.0,0.655523738,0.0,0.630055609,1.0,0.430599471,0.0,0.516819818,True,,59ba747b76adf400010fd0da,,1312353,96,,evan-feature22,,0
72,1641,97,,,,2,2,0.0,0.0,1.0,0.0,,0.0-99.0,,0.0,717.5350001,1.0,0.584426545,0.0,0.6294940170000001,0.0,0.482109399,0.0,0.49310232299999995,True,,59ba747b76adf400010fd0da,,1322864,97,,evan-feature22,,0
73,1642,98,,,,2,2,1.0,0.0,1.0,0.0,,0.0-100.0,,1.0,404.555,1.0,0.593661942,1.0,0.598116517,1.0,0.49481257100000003,0.0,0.515932226,True,,59ba747b76adf400010fd0da,,1333063,98,,evan-feature22,,0
74,1643,99,,,,1,1,0.0,1.0,1.0,0.0,,0.0-101.0,,0.0,553.2450001,0.0,0.592880538,1.0,0.621605935,0.0,0.38945895799999997,0.0,0.561640435,True,,59ba747b76adf400010fd0da,,1343418,99,,evan-feature22,,1
75,1644,100,,,,2,2,0.0,1.0,0.0,-1.0,,0.0-102.0,,-1.0,464.165,0.0,0.601007589,1.0,0.608277141,0.0,0.34376450299999994,1.0,0.470029965,True,,59ba747b76adf400010fd0da,,1353660,100,,evan-feature22,,1
76,1645,101,,,,1,1,1.0,0.0,0.0,-1.0,,0.0-103.0,,0.0,1744.315,1.0,0.646855036,0.0,0.662806372,0.0,0.25660331399999997,0.0,0.519482362,True,,59ba747b76adf400010fd0da,,1365220,101,,evan-feature22,,1
77,1646,102,,,,2,2,1.0,1.0,0.0,-1.0,,0.0-104.0,,-1.0,1213.99,1.0,0.642867724,0.0,0.632049246,1.0,0.25676069100000004,1.0,0.595191797,True,,59ba747b76adf400010fd0da,,1376236,102,,evan-feature22,,1
78,1647,103,,,,2,2,0.0,0.0,0.0,-1.0,,0.0-105.0,,0.0,1342.18,1.0,0.645698706,1.0,0.606934848,0.0,0.253726265,0.0,0.605564476,True,,59ba747b76adf400010fd0da,,1387361,103,,evan-feature22,,0
79,1648,104,,,,1,1,1.0,1.0,1.0,0.0,,0.0-106.0,,1.0,3861.845,1.0,0.57365172,1.0,0.644616344,0.0,0.235666944,0.0,0.542830548,True,,59ba747b76adf400010fd0da,,1401026,104,,evan-feature22,,1
80,1649,105,,,,1,1,0.0,0.0,0.0,-1.0,,0.0-107.0,,0.0,1445.495,0.0,0.57365172,0.0,0.644616344,0.0,0.235666944,0.0,0.542830548,True,,59ba747b76adf400010fd0da,,1412293,105,,evan-feature22,,0
81,1650,106,,,,1,1,1.0,0.0,0.0,-1.0,,0.0-108.0,,0.0,383.9949999,1.0,0.571544656,0.0,0.605228935,0.0,0.254414551,0.0,0.54267317,True,,59ba747b76adf400010fd0da,,1422495,106,,evan-feature22,,0
82,1651,107,,,,1,1,1.0,1.0,0.0,-1.0,,0.0-109.0,,-1.0,1364.65,1.0,0.594079321,1.0,0.627731245,0.0,0.271045457,0.0,0.498184461,True,,59ba747b76adf400010fd0da,,1433661,107,,evan-feature22,,0
83,1652,108,,,,1,1,0.0,1.0,0.0,-1.0,,0.0-110.0,,-1.0,586.56,0.0,0.581490524,1.0,0.61543522,1.0,0.28679829999999995,1.0,0.47334912100000004,True,,59ba747b76adf400010fd0da,,1444034,108,,evan-feature22,,0
84,1653,109,,,,1,1,1.0,0.0,0.0,-1.0,,0.0-111.0,,0.0,1876.455,1.0,0.508659922,0.0,0.678348122,0.0,0.293557647,0.0,0.436686776,True,,59ba747b76adf400010fd0da,,1455738,109,,evan-feature22,,0
85,1654,110,,,,2,2,0.0,0.0,0.0,-1.0,,0.0-112.0,,0.0,1042.585,1.0,0.548020127,1.0,0.661356152,0.0,0.33939975200000005,0.0,0.43098076,True,,59ba747b76adf400010fd0da,,1466573,110,,evan-feature22,,1
86,1655,111,,,,2,2,1.0,1.0,0.0,-1.0,,0.0-113.0,,-1.0,523.315,1.0,0.502987702,0.0,0.612211104,1.0,0.433915344,1.0,0.42255532700000004,True,,59ba747b76adf400010fd0da,,1476898,111,,evan-feature22,,0
87,1656,112,,,,1,1,1.0,0.0,1.0,0.0,,0.0-114.0,,1.0,1930.14,1.0,0.459245451,0.0,0.688192936,1.0,0.45663814700000005,1.0,0.458186455,True,,59ba747b76adf400010fd0da,,1488636,112,,evan-feature22,,1
88,1657,113,,,,2,2,0.0,1.0,0.0,-1.0,,0.0-115.0,,-1.0,1517.405,0.0,0.421342325,1.0,0.739800042,0.0,0.42242872299999995,1.0,0.49445062100000003,True,,59ba747b76adf400010fd0da,,1499963,113,,evan-feature22,,1
89,1658,114,,,,2,2,0.0,1.0,0.0,-1.0,,0.0-116.0,,-1.0,1179.14,1.0,0.471458304,1.0,0.640586494,0.0,0.412771813,1.0,0.41058669200000003,True,,59ba747b76adf400010fd0da,,1510955,114,,evan-feature22,,0
90,1659,115,,,,2,2,0.0,0.0,1.0,0.0,,0.0-117.0,,0.0,1003.78,1.0,0.528101475,0.0,0.657202834,0.0,0.439859203,0.0,0.40676324799999997,True,,59ba747b76adf400010fd0da,,1521764,115,,evan-feature22,,0
91,1660,116,,,,2,2,1.0,0.0,1.0,0.0,,0.0-118.0,,1.0,340.675,0.0,0.46992311700000006,0.0,0.717492971,1.0,0.46719862100000004,0.0,0.395737313,True,,59ba747b76adf400010fd0da,,1531907,116,,evan-feature22,,0
92,1661,117,,,,2,2,0.0,1.0,0.0,-1.0,,0.0-119.0,,-1.0,3819.52,1.0,0.543261297,1.0,0.7229893009999999,0.0,0.534165048,1.0,0.44477015,True,,59ba747b76adf400010fd0da,,1545519,117,,evan-feature22,,0
93,1662,118,,,,1,1,1.0,0.0,0.0,-1.0,,0.0-120.0,,0.0,1088.495,1.0,0.560921892,0.0,0.77155319,1.0,0.49136644,0.0,0.427878965,True,,59ba747b76adf400010fd0da,,1556409,118,,evan-feature22,,1
94,1663,119,,,,1,1,1.0,1.0,0.0,-1.0,,0.0-121.0,,-1.0,397.24,1.0,0.589437632,1.0,0.7744310520000001,1.0,0.518505645,0.0,0.44518250600000003,True,,59ba747b76adf400010fd0da,,1566618,119,,evan-feature22,,0
95,1664,120,,,,2,2,1.0,0.0,0.0,-1.0,,0.0-122.0,,0.0,2048.265,0.0,0.600165861,1.0,0.8,1.0,0.58903051,0.0,0.48487021700000005,True,,59ba747b76adf400010fd0da,,1578457,120,,evan-feature22,,1
96,1665,121,,,,2,2,0.0,0.0,1.0,0.0,,0.0-123.0,,0.0,506.755,1.0,0.541751569,1.0,0.793817715,0.0,0.557327736,0.0,0.555026485,True,,59ba747b76adf400010fd0da,,1588779,121,,evan-feature22,,0
97,1666,122,,,,2,2,1.0,1.0,0.0,-1.0,,0.0-124.0,,-1.0,947.005,1.0,0.522867554,1.0,0.8,1.0,0.608505506,1.0,0.616047291,True,,59ba747b76adf400010fd0da,,1599535,122,,evan-feature22,,0
98,1667,123,,,,2,2,0.0,1.0,1.0,0.0,,0.0-125.0,,0.0,2400.365,0.0,0.45351521100000003,1.0,0.78455201,0.0,0.670932262,1.0,0.5934649670000001,True,,59ba747b76adf400010fd0da,,1611726,123,,evan-feature22,,0
99,1668,124,,,,2,2,1.0,1.0,1.0,0.0,,0.0-126.0,,1.0,411.9950001,0.0,0.450138637,1.0,0.736691069,1.0,0.702905088,1.0,0.596869092,True,,59ba747b76adf400010fd0da,,1621950,124,,evan-feature22,,0
100,1669,125,,,,1,1,1.0,1.0,0.0,-1.0,,0.0-127.0,,-1.0,1900.025,1.0,0.44285792799999996,1.0,0.714711078,0.0,0.649779325,1.0,0.545811756,True,,59ba747b76adf400010fd0da,,1633673,125,,evan-feature22,,1
101,1670,126,,,,1,1,0.0,0.0,0.0,-1.0,,0.0-128.0,,0.0,352.45,0.0,0.417312257,0.0,0.720948173,1.0,0.691894307,0.0,0.549258578,True,,59ba747b76adf400010fd0da,,1643845,126,,evan-feature22,,0
102,1671,127,,,,1,1,1.0,0.0,0.0,-1.0,,0.0-129.0,,0.0,221.045,1.0,0.420190754,0.0,0.689348107,0.0,0.705027363,0.0,0.58076903,True,,59ba747b76adf400010fd0da,,1653859,127,,evan-feature22,,0
103,1672,128,,,,1,1,1.0,0.0,0.0,-1.0,,0.0-130.0,,0.0,1281.68,1.0,0.41516356299999996,0.0,0.647513976,1.0,0.726234795,1.0,0.5798618529999999,True,,59ba747b76adf400010fd0da,,1664954,128,,evan-feature22,,0
104,1673,129,,,,1,1,0.0,0.0,0.0,-1.0,,0.0-131.0,,0.0,348.26499989999996,0.0,0.46818417,0.0,0.64492679,1.0,0.735142794,1.0,0.558277769,True,,59ba747b76adf400010fd0da,,1675123,129,,evan-feature22,,0
105,1674,130,,,,1,1,1.0,1.0,1.0,0.0,,0.0-132.0,,1.0,408.76499989999996,1.0,0.448388753,1.0,0.663704595,1.0,0.7002554809999999,0.0,0.594726058,True,,59ba747b76adf400010fd0da,,1685327,130,,evan-feature22,,0
106,1675,131,,,,1,1,0.0,1.0,0.0,-1.0,,0.0-133.0,,-1.0,1468.42,0.0,0.42416112200000006,1.0,0.6574395789999999,1.0,0.692158941,1.0,0.595924053,True,,59ba747b76adf400010fd0da,,1696618,131,,evan-feature22,,0
107,1676,132,,,,1,1,0.0,1.0,0.0,-1.0,,0.0-134.0,,-1.0,1660.965,0.0,0.45058732100000004,1.0,0.6428793979999999,1.0,0.698342934,1.0,0.5357766310000001,True,,59ba747b76adf400010fd0da,,1708106,132,,evan-feature22,,0
108,1678,134,,,,2,2,0.0,0.0,0.0,-1.0,,0.0-136.0,,0.0,1339.365,1.0,0.440202744,0.0,0.647931102,0.0,0.699455708,0.0,0.51418479,True,,59ba747b76adf400010fd0da,,1819991,134,,evan-feature22,,1
109,1679,135,,,,2,2,1.0,1.0,0.0,-1.0,,0.0-137.0,,-1.0,635.365,0.0,0.42472282899999997,0.0,0.675537871,1.0,0.634863839,1.0,0.459461854,True,,59ba747b76adf400010fd0da,,1830430,135,,evan-feature22,,0
110,1680,136,,,,2,2,0.0,1.0,0.0,-1.0,,0.0-138.0,,-1.0,450.41,0.0,0.46789738700000005,1.0,0.6667616129999999,0.0,0.557834235,1.0,0.406021707,True,,59ba747b76adf400010fd0da,,1840695,136,,evan-feature22,,0
111,1681,137,,,,2,2,1.0,1.0,1.0,0.0,,0.0-139.0,,1.0,1332.045,1.0,0.49108287700000003,1.0,0.696258134,1.0,0.553173036,1.0,0.44230687799999996,True,,59ba747b76adf400010fd0da,,1851817,137,,evan-feature22,,0
112,1682,138,,,,SLOW,SLOW,,,1.0,0.0,,0.0-140.0,,-3.0,,0.0,0.434873764,0.0,0.69471374,0.0,0.52567306,0.0,0.451201079,True,,59ba747b76adf400010fd0da,,1857637,138,,evan-feature22,,1
113,1683,139,,,,2,2,1.0,1.0,1.0,0.0,,0.0-141.0,,1.0,1192.34,0.0,0.41582855700000004,1.0,0.673983653,1.0,0.600953273,1.0,0.428385991,True,,59ba747b76adf400010fd0da,,1868628,139,,evan-feature22,,1
114,1684,140,,,,2,2,1.0,0.0,0.0,-1.0,,0.0-142.0,,0.0,440.9749999,1.0,0.37712372899999996,1.0,0.630198112,1.0,0.562734756,0.0,0.407202471,True,,59ba747b76adf400010fd0da,,1878849,140,,evan-feature22,,0
115,1685,141,,,,2,2,0.0,0.0,1.0,0.0,,0.0-143.0,,0.0,615.34,1.0,0.377186155,1.0,0.5959657620000001,0.0,0.52895806,0.0,0.401631361,True,,59ba747b76adf400010fd0da,,1889276,141,,evan-feature22,,0
116,1686,142,,,,1,1,1.0,0.0,1.0,0.0,,0.0-144.0,,1.0,2241.61,1.0,0.405178624,0.0,0.624033539,1.0,0.53541358,0.0,0.434812775,True,,59ba747b76adf400010fd0da,,1901338,142,,evan-feature22,,1
117,1687,143,,,,1,1,0.0,1.0,0.0,-1.0,,0.0-145.0,,-1.0,514.71,0.0,0.404718697,1.0,0.653871557,0.0,0.498644573,1.0,0.361797146,True,,59ba747b76adf400010fd0da,,1911658,143,,evan-feature22,,0
118,1688,144,,,,1,1,0.0,0.0,1.0,0.0,,0.0-146.0,,0.0,595.565,0.0,0.363457837,0.0,0.648906829,1.0,0.48545379299999997,0.0,0.333175953,True,,59ba747b76adf400010fd0da,,1922041,144,,evan-feature22,,0
119,1689,145,,,,1,1,1.0,1.0,1.0,0.0,,0.0-147.0,,1.0,1436.425,1.0,0.423884324,1.0,0.651328541,0.0,0.496333188,0.0,0.308923503,True,,59ba747b76adf400010fd0da,,1933280,145,,evan-feature22,,0
120,1690,146,,,,1,1,1.0,0.0,0.0,-1.0,,0.0-148.0,,0.0,1269.705,1.0,0.40478004700000003,0.0,0.668069396,0.0,0.530694065,0.0,0.303372258,True,,59ba747b76adf400010fd0da,,1944348,146,,evan-feature22,,0
121,1691,147,,,,2,2,1.0,0.0,0.0,-1.0,,0.0-149.0,,0.0,665.315,1.0,0.408237701,0.0,0.652244224,1.0,0.494298509,0.0,0.27352694,True,,59ba747b76adf400010fd0da,,1954819,147,,evan-feature22,,1
122,1692,148,,,,2,2,0.0,0.0,1.0,0.0,,0.0-150.0,,0.0,371.775,0.0,0.43417052100000003,0.0,0.6217031120000001,0.0,0.532882118,0.0,0.366099599,True,,59ba747b76adf400010fd0da,,1965008,148,,evan-feature22,,0
123,1693,149,,,,2,2,1.0,1.0,0.0,-1.0,,0.0-151.0,,-1.0,165.58,1.0,0.400114798,0.0,0.64330682,1.0,0.48520862,1.0,0.35037015299999996,True,,59ba747b76adf400010fd0da,,1974979,149,,evan-feature22,,0
124,1694,150,,,,2,2,1.0,0.0,1.0,0.0,,0.0-152.0,,1.0,1364.645,0.0,0.43813119700000003,0.0,0.663773443,1.0,0.512595314,0.0,0.38192336299999996,True,,59ba747b76adf400010fd0da,,1986138,150,,evan-feature22,,0
125,1695,151,,,,1,1,0.0,1.0,0.0,-1.0,,0.0-153.0,,-1.0,1140.685,0.0,0.430197337,1.0,0.650033231,0.0,0.49057549799999994,0.0,0.359341831,True,,59ba747b76adf400010fd0da,,1997094,151,,evan-feature22,,1
126,1696,152,,,,1,1,0.0,1.0,1.0,0.0,,0.0-154.0,,0.0,1431.5,0.0,0.416179465,1.0,0.621958212,1.0,0.517879556,0.0,0.399884406,True,,59ba747b76adf400010fd0da,,2008324,152,,evan-feature22,,0
127,1697,153,,,,1,1,0.0,0.0,0.0,-1.0,,0.0-155.0,,0.0,297.875,0.0,0.409186383,0.0,0.619469024,0.0,0.548536182,0.0,0.443160476,True,,59ba747b76adf400010fd0da,,2018419,153,,evan-feature22,,0
128,1698,154,,,,1,1,0.0,1.0,0.0,-1.0,,0.0-156.0,,-1.0,416.105,0.0,0.40319599700000003,1.0,0.622009579,1.0,0.518893608,0.0,0.446572471,True,,59ba747b76adf400010fd0da,,2028657,154,,evan-feature22,,0
129,1699,155,,,,1,1,0.0,0.0,0.0,-1.0,,0.0-157.0,,0.0,2490.445,0.0,0.395386991,0.0,0.5485572360000001,1.0,0.59630008,0.0,0.5223318060000001,True,,59ba747b76adf400010fd0da,,2040949,155,,evan-feature22,,0
130,1700,156,,,,1,1,1.0,1.0,1.0,0.0,,0.0-158.0,,1.0,2989.905,1.0,0.44115573,1.0,0.51147772,0.0,0.505130314,1.0,0.515364918,True,,59ba747b76adf400010fd0da,,2053733,156,,evan-feature22,,0
131,1701,157,,,,2,2,0.0,1.0,1.0,0.0,,0.0-159.0,,0.0,419.71,1.0,0.481465132,0.0,0.469505158,0.0,0.503556947,1.0,0.5412637,True,,59ba747b76adf400010fd0da,,2063959,157,,evan-feature22,,1
132,1702,158,,,,2,2,1.0,1.0,1.0,0.0,,0.0-160.0,,1.0,493.34,0.0,0.409059378,0.0,0.42457706799999995,1.0,0.524588487,1.0,0.559907526,True,,59ba747b76adf400010fd0da,,2074266,158,,evan-feature22,,0
133,1703,159,,,,2,2,1.0,1.0,0.0,-1.0,,0.0-161.0,,-1.0,720.0549999,0.0,0.477684421,0.0,0.404895864,1.0,0.468799653,1.0,0.56906593,True,,59ba747b76adf400010fd0da,,2084786,159,,evan-feature22,,0
134,1704,160,,,,1,1,1.0,1.0,0.0,-1.0,,0.0-162.0,,-1.0,105.8850001,1.0,0.433077372,1.0,0.373753255,0.0,0.504699014,0.0,0.503739023,True,,59ba747b76adf400010fd0da,,2094716,160,,evan-feature22,,1
135,1705,161,,,,1,1,0.0,0.0,0.0,-1.0,,0.0-163.0,,0.0,950.785,0.0,0.450233393,0.0,0.34782878799999994,0.0,0.519377428,1.0,0.459960231,True,,59ba747b76adf400010fd0da,,2105488,161,,evan-feature22,,0
136,1706,162,,,,2,2,0.0,0.0,1.0,0.0,,0.0-164.0,,0.0,155.8699999,1.0,0.41756724700000003,0.0,0.38393217,0.0,0.514983777,0.0,0.443744598,True,,59ba747b76adf400010fd0da,,2115450,162,,evan-feature22,,1
137,1707,163,,,,1,1,1.0,1.0,0.0,-1.0,,0.0-165.0,,-1.0,689.275,1.0,0.452958907,1.0,0.371002723,0.0,0.518114176,0.0,0.46633015,True,,59ba747b76adf400010fd0da,,2125949,163,,evan-feature22,,1
138,1708,164,,,,2,2,0.0,1.0,0.0,-1.0,,0.0-166.0,,-1.0,1543.295,0.0,0.455702623,1.0,0.315954408,0.0,0.572320188,1.0,0.508909504,True,,59ba747b76adf400010fd0da,,2137296,164,,evan-feature22,,1
139,1709,165,,,,2,2,1.0,0.0,0.0,-1.0,,0.0-167.0,,0.0,447.7349999,1.0,0.491313581,0.0,0.23993336899999998,1.0,0.570199715,0.0,0.51473836,True,,59ba747b76adf400010fd0da,,2147528,165,,evan-feature22,,0
140,1710,166,,,,2,2,1.0,0.0,1.0,0.0,,0.0-168.0,,1.0,1276.065,0.0,0.484298936,0.0,0.272504197,1.0,0.5551308220000001,0.0,0.523038425,True,,59ba747b76adf400010fd0da,,2158609,166,,evan-feature22,,0
141,1711,167,,,,2,2,1.0,0.0,0.0,-1.0,,0.0-169.0,,0.0,2397.96,0.0,0.528381235,0.0,0.28023429,1.0,0.5394623270000001,0.0,0.504301989,True,,59ba747b76adf400010fd0da,,2170808,167,,evan-feature22,,0
142,1712,168,,,,1,1,1.0,0.0,0.0,-1.0,,0.0-170.0,,0.0,105.31500009999999,1.0,0.524592254,0.0,0.339136603,1.0,0.519993692,0.0,0.489381881,True,,59ba747b76adf400010fd0da,,2180711,168,,evan-feature22,,1
143,1713,169,,,,1,1,1.0,0.0,1.0,0.0,,0.0-171.0,,1.0,400.535,1.0,0.53960939,0.0,0.333467381,1.0,0.599370383,0.0,0.45892218799999995,True,,59ba747b76adf400010fd0da,,2190903,169,,evan-feature22,,0
144,1714,170,,,,1,1,0.0,0.0,1.0,0.0,,0.0-172.0,,0.0,592.145,0.0,0.518775918,0.0,0.369047819,1.0,0.6069025779999999,0.0,0.523049137,True,,59ba747b76adf400010fd0da,,2201286,170,,evan-feature22,,0
145,1715,171,,,,1,1,0.0,1.0,1.0,0.0,,0.0-173.0,,0.0,497.295,0.0,0.5158566,1.0,0.303652601,1.0,0.6015122039999999,1.0,0.574601328,True,,59ba747b76adf400010fd0da,,2211607,171,,evan-feature22,,0
146,1716,172,,,,2,2,1.0,0.0,0.0,-1.0,,0.0-174.0,,0.0,425.8999999,1.0,0.505585493,0.0,0.308345924,1.0,0.632117198,0.0,0.5558155339999999,True,,59ba747b76adf400010fd0da,,2221847,172,,evan-feature22,,1
147,1717,173,,,,2,2,1.0,1.0,0.0,-1.0,,0.0-175.0,,-1.0,349.77,1.0,0.5595435670000001,1.0,0.340395712,1.0,0.636974751,1.0,0.503532934,True,,59ba747b76adf400010fd0da,,2231988,173,,evan-feature22,,0
148,1718,174,,,,2,2,1.0,0.0,0.0,-1.0,,0.0-176.0,,0.0,473.2250001,0.0,0.5587993720000001,1.0,0.359748544,1.0,0.554097844,0.0,0.472189123,True,,59ba747b76adf400010fd0da,,2242253,174,,evan-feature22,,0
149,1719,175,,,,1,1,0.0,1.0,0.0,-1.0,,0.0-177.0,,-1.0,454.5700001,0.0,0.480072877,1.0,0.362302106,0.0,0.600846495,0.0,0.43725304200000004,True,,59ba747b76adf400010fd0da,,2252519,175,,evan-feature22,,1
150,1720,176,,,,1,1,0.0,1.0,1.0,0.0,,0.0-178.0,,0.0,1699.765,0.0,0.511210085,1.0,0.401676175,1.0,0.622052944,0.0,0.39175359200000004,True,,59ba747b76adf400010fd0da,,2263995,176,,evan-feature22,,0
151,1721,177,,,,1,1,1.0,0.0,0.0,-1.0,,0.0-179.0,,0.0,492.265,1.0,0.554470352,0.0,0.379424096,1.0,0.625581595,0.0,0.288670951,True,,59ba747b76adf400010fd0da,,2274299,177,,evan-feature22,,0
152,1722,178,,,,1,1,0.0,1.0,1.0,0.0,,0.0-180.0,,0.0,1347.465,0.0,0.627627927,1.0,0.305241403,0.0,0.604387985,0.0,0.291361327,True,,59ba747b76adf400010fd0da,,2285446,178,,evan-feature22,,0
153,1723,179,,,,1,1,1.0,1.0,1.0,0.0,,0.0-181.0,,1.0,412.615,1.0,0.6759914229999999,1.0,0.300284541,1.0,0.558798166,0.0,0.24435394600000002,True,,59ba747b76adf400010fd0da,,2295667,179,,evan-feature22,,0
154,1724,180,,,,2,2,1.0,0.0,0.0,-1.0,,0.0-182.0,,0.0,1691.19,0.0,0.7172655040000001,0.0,0.28624910800000003,1.0,0.50383286,0.0,0.25705046800000003,True,,59ba747b76adf400010fd0da,,2307191,180,,evan-feature22,,1
155,1725,181,,,,2,2,0.0,1.0,0.0,-1.0,,0.0-183.0,,-1.0,378.1849999,1.0,0.74495062,0.0,0.28039269899999997,0.0,0.477457466,1.0,0.27478247699999997,True,,59ba747b76adf400010fd0da,,2317390,181,,evan-feature22,,0
156,1726,182,,,,2,2,1.0,0.0,0.0,-1.0,,0.0-184.0,,0.0,1236.915,0.0,0.759426302,0.0,0.34576272799999996,1.0,0.48707786399999997,0.0,0.29224327899999997,True,,59ba747b76adf400010fd0da,,2328422,182,,evan-feature22,,0
157,1727,183,,,,2,2,0.0,0.0,0.0,-1.0,,0.0-185.0,,0.0,1294.56,1.0,0.699175667,1.0,0.342105414,0.0,0.561402254,0.0,0.316565075,True,,59ba747b76adf400010fd0da,,2339521,183,,evan-feature22,,0
158,1728,184,,,,2,2,0.0,0.0,0.0,-1.0,,0.0-186.0,,0.0,373.1450001,1.0,0.631985397,1.0,0.307880471,0.0,0.570750211,0.0,0.31001761699999997,True,,59ba747b76adf400010fd0da,,2349706,184,,evan-feature22,,0
159,1729,185,,,,1,1,0.0,1.0,0.0,-1.0,,0.0-187.0,,-1.0,264.125,0.0,0.6,1.0,0.3,1.0,0.6,0.0,0.3,True,,59ba747b76adf400010fd0da,,2359789,185,,evan-feature22,,1
160,1730,186,notice,,,,,,,,,,0.0-188.0,"{""Q0"":""no""}",,17912.0,,,,,,,,,True,,59ba747b76adf400010fd0da,,2377702,186,Q,survey-text,,1
161,1731,187,track1,,[1],,,,,,,,0.0-189.0,"{""Q0"":""no""}",,5794.0,,,,,,,,,True,,59ba747b76adf400010fd0da,,2383497,187,Q,evan-quiz,,1
162,1732,188,track2,,[0],,,,,,,,0.0-190.0,"{""Q0"":""yes""}",,6374.0,,,,,,,,,True,,59ba747b76adf400010fd0da,,2389872,188,Q,evan-quiz,,1
163,1733,189,strat,,,,,,,,,,0.0-191.0,"{""Q0"":""looked for empty rooms then chose that room as my next door for yellow""}",,76190.0,,,,,,,,,True,,59ba747b76adf400010fd0da,,2466063,189,Q,survey-text,,1
