,index,Unnamed: 0,Q_name,button_pressed,choice_idxs,chosen_pos,chosen_state,chosen_state_f_1_outcome,chosen_state_f_2_outcome,f_1_reward,f_2_reward,incor_questions,internal_node_id,responses,reward_received,rt,s_1_f_1_outcome,s_1_f_1_prob,s_1_f_2_outcome,s_1_f_2_prob,s_2_f_1_outcome,s_2_f_1_prob,s_2_f_2_outcome,s_2_f_2_prob,safe_first,stimulus,subjectID,success,time_elapsed,trial_index,trial_num,trial_type,view_history,switching
0,789,29,,,,2,2,0.0,0.0,1.0,0.0,,0.0-26.0,,0.0,1384.125,1.0,0.758395892,0.0,0.666783589,0.0,0.39893396600000003,0.0,0.29433458,True,,5c730ca1f674750001df8d09,,631790,29,,evan-feature22,,0
1,790,30,,,,2,2,1.0,1.0,1.0,0.0,,0.0-27.0,,1.0,1624.044999,1.0,0.749113302,1.0,0.6410334639999999,1.0,0.374554754,1.0,0.32429597,True,,5c730ca1f674750001df8d09,,643197,30,,evan-feature22,,0
2,791,31,,,,2,2,1.0,0.0,1.0,0.0,,0.0-28.0,,1.0,575.2600003,1.0,0.7692293659999999,1.0,0.673489452,1.0,0.38936336299999996,0.0,0.40805484299999994,True,,5c730ca1f674750001df8d09,,653547,31,,evan-feature22,,0
3,792,32,,,,1,1,1.0,0.0,1.0,0.0,,0.0-29.0,,1.0,762.2400001,1.0,0.794299593,0.0,0.7056914559999999,1.0,0.452628219,0.0,0.42653274,True,,5c730ca1f674750001df8d09,,664094,32,,evan-feature22,,1
4,793,33,,,,1,1,1.0,1.0,0.0,-1.0,,0.0-30.0,,-1.0,3716.264999,1.0,0.8,1.0,0.7342765809999999,0.0,0.423370724,0.0,0.432069981,True,,5c730ca1f674750001df8d09,,677579,33,,evan-feature22,,0
5,794,34,,,,1,1,1.0,0.0,0.0,-1.0,,0.0-31.0,,0.0,1938.0450010000002,1.0,0.77615632,0.0,0.671157041,0.0,0.457156974,0.0,0.464632121,True,,5c730ca1f674750001df8d09,,689281,34,,evan-feature22,,0
6,795,35,,,,1,1,1.0,1.0,1.0,0.0,,0.0-32.0,,1.0,1579.595,1.0,0.760618163,1.0,0.6459397610000001,0.0,0.471572527,0.0,0.372324295,True,,5c730ca1f674750001df8d09,,700625,35,,evan-feature22,,0
7,796,36,,,,2,2,0.0,0.0,1.0,0.0,,0.0-33.0,,0.0,1542.119999,1.0,0.747676711,0.0,0.596965425,0.0,0.46128409299999995,0.0,0.348031934,True,,5c730ca1f674750001df8d09,,711947,36,,evan-feature22,,1
8,797,37,,,,2,2,0.0,1.0,0.0,-1.0,,0.0-34.0,,-1.0,489.2199999,0.0,0.7589599690000001,1.0,0.576201125,0.0,0.508614774,1.0,0.366452805,True,,5c730ca1f674750001df8d09,,722212,37,,evan-feature22,,0
9,798,38,,,,2,2,1.0,0.0,0.0,-1.0,,0.0-35.0,,0.0,437.2100001,1.0,0.8,0.0,0.561117359,1.0,0.552349312,0.0,0.38521346,True,,5c730ca1f674750001df8d09,,732422,38,,evan-feature22,,0
10,799,39,,,,1,1,1.0,0.0,1.0,0.0,,0.0-36.0,,1.0,1070.715,1.0,0.7713106559999999,0.0,0.61964539,0.0,0.596823475,0.0,0.42932164100000003,True,,5c730ca1f674750001df8d09,,743269,39,,evan-feature22,,1
11,800,40,,,,1,1,1.0,0.0,0.0,-1.0,,0.0-37.0,,0.0,2928.155,1.0,0.8,0.0,0.626226927,1.0,0.60332109,0.0,0.378687767,True,,5c730ca1f674750001df8d09,,755972,40,,evan-feature22,,0
12,801,41,,,,1,1,1.0,0.0,1.0,0.0,,0.0-38.0,,1.0,1145.4799990000001,1.0,0.8,0.0,0.625397042,0.0,0.6178893529999999,0.0,0.385361015,True,,5c730ca1f674750001df8d09,,766895,41,,evan-feature22,,0
13,802,42,,,,2,2,1.0,0.0,1.0,0.0,,0.0-39.0,,1.0,962.4549998,0.0,0.8,1.0,0.634158766,1.0,0.593227747,0.0,0.347942274,True,,5c730ca1f674750001df8d09,,777636,42,,evan-feature22,,1
14,803,43,,,,2,2,1.0,0.0,1.0,0.0,,0.0-40.0,,1.0,514.7699993,0.0,0.780131997,1.0,0.63264508,1.0,0.554391083,0.0,0.40680791200000005,True,,5c730ca1f674750001df8d09,,787923,43,,evan-feature22,,0
15,804,44,,,,1,1,0.0,0.0,1.0,0.0,,0.0-41.0,,0.0,379.9200002,0.0,0.8,0.0,0.648202298,0.0,0.515718575,0.0,0.427451178,True,,5c730ca1f674750001df8d09,,798081,44,,evan-feature22,,1
16,805,45,,,,1,1,1.0,1.0,1.0,0.0,,0.0-42.0,,1.0,2727.715001,1.0,0.78377078,1.0,0.67965253,0.0,0.537109201,0.0,0.43219395899999996,True,,5c730ca1f674750001df8d09,,810586,45,,evan-feature22,,0
17,806,46,,,,2,2,1.0,0.0,1.0,0.0,,0.0-43.0,,1.0,1949.29,1.0,0.8,0.0,0.6777571290000001,1.0,0.525795655,0.0,0.41902666299999997,True,,5c730ca1f674750001df8d09,,822324,46,,evan-feature22,,1
18,807,47,,,,2,2,1.0,0.0,1.0,0.0,,0.0-44.0,,1.0,1364.045001,1.0,0.754949303,0.0,0.6501381039999999,1.0,0.528431942,0.0,0.404639057,True,,5c730ca1f674750001df8d09,,833479,47,,evan-feature22,,0
19,808,48,,,,2,2,0.0,0.0,0.0,-1.0,,0.0-45.0,,0.0,318.10500010000004,1.0,0.8,1.0,0.655926243,0.0,0.477718095,0.0,0.382683792,True,,5c730ca1f674750001df8d09,,843575,48,,evan-feature22,,0
20,809,49,,,,1,1,1.0,0.0,1.0,0.0,,0.0-46.0,,1.0,1184.86,1.0,0.743293998,0.0,0.612656833,0.0,0.458332775,1.0,0.437340995,True,,5c730ca1f674750001df8d09,,854531,49,,evan-feature22,,1
21,810,50,,,,1,1,1.0,0.0,1.0,0.0,,0.0-47.0,,1.0,1109.015,1.0,0.7410552840000001,0.0,0.619286527,1.0,0.472797571,0.0,0.531525128,True,,5c730ca1f674750001df8d09,,865426,50,,evan-feature22,,0
22,811,51,,,,1,1,1.0,0.0,1.0,0.0,,0.0-48.0,,1.0,365.5850003,1.0,0.727897085,0.0,0.6228321520000001,1.0,0.39601617,1.0,0.5762136520000001,True,,5c730ca1f674750001df8d09,,875562,51,,evan-feature22,,0
23,812,52,,,,2,2,0.0,1.0,0.0,-1.0,,0.0-49.0,,-1.0,330.53499930000004,1.0,0.742532732,1.0,0.609740775,0.0,0.391742951,1.0,0.521061141,True,,5c730ca1f674750001df8d09,,885665,52,,evan-feature22,,1
24,813,53,,,,2,2,0.0,0.0,0.0,-1.0,,0.0-50.0,,0.0,271.9350001,1.0,0.6783303620000001,0.0,0.664637619,0.0,0.361203638,0.0,0.520299591,True,,5c730ca1f674750001df8d09,,895711,53,,evan-feature22,,0
25,814,54,,,,2,2,0.0,1.0,0.0,-1.0,,0.0-51.0,,-1.0,419.4300007,1.0,0.6942499459999999,1.0,0.6667926479999999,0.0,0.323890969,1.0,0.572468191,True,,5c730ca1f674750001df8d09,,905907,54,,evan-feature22,,0
26,815,55,,,,1,1,1.0,1.0,1.0,0.0,,0.0-52.0,,1.0,371.72000019999996,1.0,0.7125347329999999,1.0,0.623869494,1.0,0.31056222,0.0,0.537072927,True,,5c730ca1f674750001df8d09,,916065,55,,evan-feature22,,1
27,816,56,,,,2,2,0.0,0.0,1.0,0.0,,0.0-53.0,,0.0,1746.545,1.0,0.798095036,1.0,0.6311493570000001,0.0,0.25725538600000003,0.0,0.580461963,True,,5c730ca1f674750001df8d09,,927591,56,,evan-feature22,,1
28,817,57,,,,1,1,0.0,1.0,1.0,0.0,,0.0-54.0,,0.0,367.9849999,0.0,0.777435118,1.0,0.598930454,0.0,0.251420798,0.0,0.588308898,True,,5c730ca1f674750001df8d09,,937738,57,,evan-feature22,,1
29,818,58,,,,2,2,0.0,0.0,1.0,0.0,,0.0-55.0,,0.0,339.2949998,0.0,0.759582808,1.0,0.5325010020000001,0.0,0.244240244,0.0,0.57555856,True,,5c730ca1f674750001df8d09,,947857,58,,evan-feature22,,1
30,819,59,,,,2,2,1.0,1.0,1.0,0.0,,0.0-56.0,,1.0,327.6549997,1.0,0.731730696,1.0,0.507277796,1.0,0.281049518,1.0,0.563427294,True,,5c730ca1f674750001df8d09,,957961,59,,evan-feature22,,0
31,820,60,,,,2,2,1.0,0.0,1.0,0.0,,0.0-57.0,,1.0,770.9100004,1.0,0.7553872229999999,1.0,0.53317231,1.0,0.2,0.0,0.61479993,True,,5c730ca1f674750001df8d09,,968506,60,,evan-feature22,,0
32,821,61,,,,2,2,0.0,1.0,1.0,0.0,,0.0-58.0,,0.0,325.5049996,1.0,0.69513931,1.0,0.482219891,0.0,0.2,1.0,0.630595346,True,,5c730ca1f674750001df8d09,,978604,61,,evan-feature22,,0
33,822,62,,,,1,1,1.0,1.0,0.0,-1.0,,0.0-59.0,,-1.0,367.78,1.0,0.760055032,1.0,0.5226485989999999,0.0,0.21430818,1.0,0.5886190689999999,True,,5c730ca1f674750001df8d09,,988758,62,,evan-feature22,,1
34,823,63,,,,1,1,1.0,1.0,1.0,0.0,,0.0-60.0,,1.0,1065.255,1.0,0.766163824,1.0,0.501297504,0.0,0.270138439,0.0,0.61055715,True,,5c730ca1f674750001df8d09,,999604,63,,evan-feature22,,0
35,824,64,,,,2,2,0.0,1.0,1.0,0.0,,0.0-61.0,,0.0,638.9049999,1.0,0.745170882,0.0,0.461483376,0.0,0.2,1.0,0.6759266429999999,True,,5c730ca1f674750001df8d09,,1010024,64,,evan-feature22,,1
36,825,65,,,,2,2,0.0,0.0,1.0,0.0,,0.0-62.0,,0.0,371.9349997,1.0,0.735704894,0.0,0.56650936,0.0,0.2,0.0,0.649759555,True,,5c730ca1f674750001df8d09,,1020180,65,,evan-feature22,,0
37,826,66,,,,1,1,1.0,1.0,1.0,0.0,,0.0-63.0,,1.0,362.64500019999997,1.0,0.75135719,1.0,0.601996106,0.0,0.2,1.0,0.721739204,True,,5c730ca1f674750001df8d09,,1030328,66,,evan-feature22,,1
38,827,67,,,,1,1,1.0,0.0,0.0,-1.0,,0.0-64.0,,0.0,355.6249999,1.0,0.8,0.0,0.577883646,1.0,0.227956694,1.0,0.7008504040000001,True,,5c730ca1f674750001df8d09,,1040464,67,,evan-feature22,,0
39,828,68,,,,1,1,1.0,1.0,1.0,0.0,,0.0-65.0,,1.0,474.8,1.0,0.782146585,1.0,0.5356383929999999,0.0,0.240522467,0.0,0.660896764,True,,5c730ca1f674750001df8d09,,1050722,68,,evan-feature22,,0
40,829,69,,,,1,1,1.0,1.0,1.0,0.0,,0.0-66.0,,1.0,430.71,1.0,0.695950925,1.0,0.51509141,0.0,0.33377865,1.0,0.6342836820000001,True,,5c730ca1f674750001df8d09,,1060931,69,,evan-feature22,,0
41,830,70,,,,2,2,1.0,0.0,1.0,0.0,,0.0-67.0,,1.0,665.1800005,1.0,0.726659747,1.0,0.48346054200000005,1.0,0.402086283,0.0,0.581694384,True,,5c730ca1f674750001df8d09,,1071372,70,,evan-feature22,,1
42,831,71,,,,2,2,0.0,1.0,0.0,-1.0,,0.0-68.0,,-1.0,368.9299999,1.0,0.705913111,1.0,0.537600217,0.0,0.448943518,1.0,0.5952173510000001,True,,5c730ca1f674750001df8d09,,1081529,71,,evan-feature22,,0
43,832,72,,,,1,1,0.0,0.0,0.0,-1.0,,0.0-69.0,,0.0,307.6649997,0.0,0.7562677179999999,0.0,0.559166276,1.0,0.5101973670000001,1.0,0.561023256,True,,5c730ca1f674750001df8d09,,1091621,72,,evan-feature22,,1
44,833,73,,,,2,2,1.0,1.0,0.0,-1.0,,0.0-70.0,,-1.0,421.5550004,1.0,0.7109076440000001,1.0,0.613388908,1.0,0.45078569399999996,1.0,0.6265858,True,,5c730ca1f674750001df8d09,,1101832,73,,evan-feature22,,1
45,834,74,,,,2,2,1.0,0.0,1.0,0.0,,0.0-71.0,,1.0,339.3600006,1.0,0.7517263059999999,0.0,0.575132706,1.0,0.43515056,0.0,0.63871568,True,,5c730ca1f674750001df8d09,,1111957,74,,evan-feature22,,0
46,835,75,,,,2,2,0.0,1.0,1.0,0.0,,0.0-72.0,,0.0,365.1200002,1.0,0.757179437,1.0,0.593620551,0.0,0.454073093,1.0,0.626973291,True,,5c730ca1f674750001df8d09,,1122098,75,,evan-feature22,,0
47,836,76,,,,2,2,1.0,0.0,1.0,0.0,,0.0-73.0,,1.0,322.65499980000004,1.0,0.748038451,1.0,0.6098695,1.0,0.38327690299999995,0.0,0.684561392,True,,5c730ca1f674750001df8d09,,1132203,76,,evan-feature22,,0
48,837,77,,,,2,2,0.0,1.0,1.0,0.0,,0.0-74.0,,0.0,647.3249998,1.0,0.6785645929999999,1.0,0.6116548479999999,0.0,0.45625733799999996,1.0,0.619523947,True,,5c730ca1f674750001df8d09,,1142629,77,,evan-feature22,,0
49,838,78,,,,1,1,0.0,1.0,1.0,0.0,,0.0-75.0,,0.0,387.0050004,0.0,0.624895127,1.0,0.619112572,1.0,0.534506586,0.0,0.6286811,True,,5c730ca1f674750001df8d09,,1152789,78,,evan-feature22,,1
50,839,79,,,,1,1,1.0,1.0,0.0,-1.0,,0.0-76.0,,-1.0,360.5899997,1.0,0.626598995,1.0,0.561681832,1.0,0.5338345529999999,1.0,0.699225106,True,,5c730ca1f674750001df8d09,,1162934,79,,evan-feature22,,0
51,840,80,,,,2,2,0.0,1.0,0.0,-1.0,,0.0-77.0,,-1.0,276.7149992,0.0,0.619791351,1.0,0.648089067,0.0,0.554773755,1.0,0.719829837,True,,5c730ca1f674750001df8d09,,1172998,80,,evan-feature22,,1
52,841,81,,,,2,2,0.0,0.0,1.0,0.0,,0.0-78.0,,0.0,276.9450005,1.0,0.631881247,1.0,0.584052341,0.0,0.567943017,0.0,0.7417000229999999,True,,5c730ca1f674750001df8d09,,1183058,81,,evan-feature22,,0
53,842,82,,,,2,2,0.0,1.0,0.0,-1.0,,0.0-79.0,,-1.0,289.1899999,1.0,0.64968251,0.0,0.568222121,0.0,0.629368633,1.0,0.8,True,,5c730ca1f674750001df8d09,,1193120,82,,evan-feature22,,0
54,844,84,,,,2,2,1.0,0.0,1.0,0.0,,0.0-81.0,,1.0,324.2150005,0.0,0.663645983,0.0,0.608852351,1.0,0.61806748,0.0,0.8,True,,5c730ca1f674750001df8d09,,1208668,84,,evan-feature22,,0
55,845,85,,,,2,2,1.0,0.0,0.0,-1.0,,0.0-82.0,,0.0,388.735,1.0,0.667073374,1.0,0.622694241,1.0,0.605227886,0.0,0.783313017,True,,5c730ca1f674750001df8d09,,1218840,85,,evan-feature22,,0
56,846,86,,,,1,1,0.0,0.0,1.0,0.0,,0.0-83.0,,0.0,2046.155,0.0,0.7605589079999999,0.0,0.6334344160000001,0.0,0.59379959,1.0,0.73861361,True,,5c730ca1f674750001df8d09,,1230660,86,,evan-feature22,,1
57,847,87,,,,1,1,1.0,1.0,1.0,0.0,,0.0-84.0,,1.0,500.0,1.0,0.7544831240000001,1.0,0.660936699,0.0,0.509492795,1.0,0.6462146910000001,True,,5c730ca1f674750001df8d09,,1240945,87,,evan-feature22,,0
58,848,88,,,,1,1,1.0,1.0,1.0,0.0,,0.0-85.0,,1.0,556.8999993,1.0,0.7274789429999999,1.0,0.662769615,0.0,0.544926524,0.0,0.688483132,True,,5c730ca1f674750001df8d09,,1251284,88,,evan-feature22,,0
59,849,89,,,,2,2,1.0,1.0,0.0,-1.0,,0.0-86.0,,-1.0,281.26499989999996,0.0,0.8,1.0,0.623524457,1.0,0.5648388320000001,1.0,0.681239038,True,,5c730ca1f674750001df8d09,,1261359,89,,evan-feature22,,1
60,850,90,,,,2,2,0.0,0.0,0.0,-1.0,,0.0-87.0,,0.0,356.8000002,1.0,0.8,1.0,0.670753133,0.0,0.5158076,0.0,0.627836146,True,,5c730ca1f674750001df8d09,,1271491,90,,evan-feature22,,0
61,851,91,,,,1,1,1.0,1.0,0.0,-1.0,,0.0-88.0,,-1.0,377.3699999,1.0,0.775527162,1.0,0.681016775,1.0,0.51377463,1.0,0.626808982,True,,5c730ca1f674750001df8d09,,1281649,91,,evan-feature22,,1
62,852,92,,,,1,1,1.0,1.0,1.0,0.0,,0.0-89.0,,1.0,350.90999960000005,1.0,0.7596868990000001,1.0,0.656386777,0.0,0.507155515,1.0,0.657587271,True,,5c730ca1f674750001df8d09,,1291774,92,,evan-feature22,,0
63,853,93,,,,1,1,1.0,1.0,0.0,-1.0,,0.0-90.0,,-1.0,480.6299992,1.0,0.7697730429999999,1.0,0.6696294279999999,0.0,0.405621956,0.0,0.632466576,True,,5c730ca1f674750001df8d09,,1302034,93,,evan-feature22,,0
64,854,94,,,,1,1,1.0,1.0,1.0,0.0,,0.0-91.0,,1.0,998.7949999,1.0,0.733077865,1.0,0.589734488,0.0,0.35222996799999995,0.0,0.605848783,True,,5c730ca1f674750001df8d09,,1312805,94,,evan-feature22,,0
65,855,95,,,,2,2,0.0,1.0,0.0,-1.0,,0.0-92.0,,-1.0,659.7899999,0.0,0.7516953259999999,1.0,0.571952819,0.0,0.35600478799999996,1.0,0.5556085629999999,True,,5c730ca1f674750001df8d09,,1323238,95,,evan-feature22,,1
66,856,96,,,,1,1,0.0,1.0,1.0,0.0,,0.0-93.0,,0.0,1263.81,0.0,0.7335224459999999,1.0,0.6532418560000001,0.0,0.343718615,1.0,0.494468134,True,,5c730ca1f674750001df8d09,,1334283,96,,evan-feature22,,1
67,857,97,,,,1,1,1.0,0.0,1.0,0.0,,0.0-94.0,,1.0,596.6800003999999,1.0,0.7124817590000001,0.0,0.6390774810000001,0.0,0.339057567,0.0,0.470845749,True,,5c730ca1f674750001df8d09,,1344652,97,,evan-feature22,,0
68,858,98,,,,1,1,1.0,0.0,1.0,0.0,,0.0-95.0,,1.0,723.2800005,1.0,0.6784382870000001,0.0,0.619313665,0.0,0.307093978,0.0,0.551459799,True,,5c730ca1f674750001df8d09,,1355164,98,,evan-feature22,,0
69,859,99,,,,2,2,0.0,0.0,0.0,-1.0,,0.0-96.0,,0.0,755.38,0.0,0.6652083129999999,1.0,0.597460688,0.0,0.35021752799999994,0.0,0.539363545,True,,5c730ca1f674750001df8d09,,1365691,99,,evan-feature22,,1
70,860,100,,,,1,1,1.0,1.0,1.0,0.0,,0.0-97.0,,1.0,622.0250009,1.0,0.661769563,1.0,0.6237266220000001,1.0,0.43284700200000004,1.0,0.527128728,True,,5c730ca1f674750001df8d09,,1376095,100,,evan-feature22,,1
71,861,101,,,,1,1,1.0,0.0,1.0,0.0,,0.0-98.0,,1.0,880.5399992999999,1.0,0.655523738,0.0,0.630055609,1.0,0.430599471,0.0,0.516819818,True,,5c730ca1f674750001df8d09,,1386753,101,,evan-feature22,,0
72,862,102,,,,1,1,1.0,1.0,1.0,0.0,,0.0-99.0,,1.0,708.6149994,1.0,0.584426545,1.0,0.6294940170000001,0.0,0.482109399,0.0,0.49310232299999995,True,,5c730ca1f674750001df8d09,,1397243,102,,evan-feature22,,0
73,863,103,,,,1,1,1.0,0.0,1.0,0.0,,0.0-100.0,,1.0,707.0700005,1.0,0.593661942,0.0,0.598116517,0.0,0.49481257100000003,0.0,0.515932226,True,,5c730ca1f674750001df8d09,,1407729,103,,evan-feature22,,0
74,864,104,,,,1,1,1.0,1.0,1.0,0.0,,0.0-101.0,,1.0,656.8949996,1.0,0.592880538,1.0,0.621605935,1.0,0.38945895799999997,1.0,0.561640435,True,,5c730ca1f674750001df8d09,,1418170,104,,evan-feature22,,0
75,865,105,,,,2,2,1.0,1.0,0.0,-1.0,,0.0-102.0,,-1.0,876.7499998,0.0,0.601007589,1.0,0.608277141,1.0,0.34376450299999994,1.0,0.470029965,True,,5c730ca1f674750001df8d09,,1428823,105,,evan-feature22,,1
76,866,106,,,,2,2,1.0,0.0,0.0,-1.0,,0.0-103.0,,0.0,860.0300001,1.0,0.646855036,1.0,0.662806372,1.0,0.25660331399999997,0.0,0.519482362,True,,5c730ca1f674750001df8d09,,1439458,106,,evan-feature22,,0
77,867,107,,,,2,2,0.0,1.0,0.0,-1.0,,0.0-104.0,,-1.0,620.875,0.0,0.642867724,0.0,0.632049246,0.0,0.25676069100000004,1.0,0.595191797,True,,5c730ca1f674750001df8d09,,1449858,107,,evan-feature22,,0
78,868,108,,,,2,2,0.0,1.0,0.0,-1.0,,0.0-105.0,,-1.0,924.0149994999999,1.0,0.645698706,1.0,0.606934848,0.0,0.253726265,1.0,0.605564476,True,,5c730ca1f674750001df8d09,,1460560,108,,evan-feature22,,0
79,869,109,,,,1,1,0.0,0.0,1.0,0.0,,0.0-106.0,,0.0,905.2550001,0.0,0.57365172,0.0,0.644616344,0.0,0.235666944,1.0,0.542830548,True,,5c730ca1f674750001df8d09,,1471241,109,,evan-feature22,,1
80,870,110,,,,2,2,0.0,1.0,0.0,-1.0,,0.0-107.0,,-1.0,492.9050002,0.0,0.57365172,1.0,0.644616344,0.0,0.235666944,1.0,0.542830548,True,,5c730ca1f674750001df8d09,,1481503,110,,evan-feature22,,1
81,871,111,,,,2,2,0.0,1.0,0.0,-1.0,,0.0-108.0,,-1.0,535.3350006000001,1.0,0.571544656,0.0,0.605228935,0.0,0.254414551,1.0,0.54267317,True,,5c730ca1f674750001df8d09,,1491814,111,,evan-feature22,,0
82,872,112,,,,1,1,1.0,1.0,0.0,-1.0,,0.0-109.0,,-1.0,2451.555,1.0,0.594079321,1.0,0.627731245,0.0,0.271045457,0.0,0.498184461,True,,5c730ca1f674750001df8d09,,1504041,112,,evan-feature22,,1
83,873,113,,,,2,2,1.0,0.0,0.0,-1.0,,0.0-110.0,,0.0,537.025,1.0,0.581490524,1.0,0.61543522,1.0,0.28679829999999995,0.0,0.47334912100000004,True,,5c730ca1f674750001df8d09,,1514352,113,,evan-feature22,,1
84,874,114,,,,2,2,0.0,0.0,0.0,-1.0,,0.0-111.0,,0.0,737.2600008,0.0,0.508659922,0.0,0.678348122,0.0,0.293557647,0.0,0.436686776,True,,5c730ca1f674750001df8d09,,1524867,114,,evan-feature22,,0
85,875,115,,,,2,2,0.0,1.0,0.0,-1.0,,0.0-112.0,,-1.0,988.9150001,1.0,0.548020127,0.0,0.661356152,0.0,0.33939975200000005,1.0,0.43098076,True,,5c730ca1f674750001df8d09,,1535641,115,,evan-feature22,,0
86,876,116,,,,2,2,0.0,0.0,0.0,-1.0,,0.0-113.0,,0.0,915.4699993999999,1.0,0.502987702,1.0,0.612211104,0.0,0.433915344,0.0,0.42255532700000004,True,,5c730ca1f674750001df8d09,,1546325,116,,evan-feature22,,0
87,877,117,,,,1,1,0.0,1.0,1.0,0.0,,0.0-114.0,,0.0,521.9250005,0.0,0.459245451,1.0,0.688192936,0.0,0.45663814700000005,0.0,0.458186455,True,,5c730ca1f674750001df8d09,,1556618,117,,evan-feature22,,1
88,878,118,,,,1,1,1.0,1.0,0.0,-1.0,,0.0-115.0,,-1.0,358.1250003,1.0,0.421342325,1.0,0.739800042,1.0,0.42242872299999995,0.0,0.49445062100000003,True,,5c730ca1f674750001df8d09,,1566749,118,,evan-feature22,,0
89,879,119,,,,2,2,1.0,1.0,0.0,-1.0,,0.0-116.0,,-1.0,547.3349998,1.0,0.471458304,1.0,0.640586494,1.0,0.412771813,1.0,0.41058669200000003,True,,5c730ca1f674750001df8d09,,1577062,119,,evan-feature22,,1
90,880,120,,,,2,2,0.0,0.0,1.0,0.0,,0.0-117.0,,0.0,716.3649993,0.0,0.528101475,0.0,0.657202834,0.0,0.439859203,0.0,0.40676324799999997,True,,5c730ca1f674750001df8d09,,1587555,120,,evan-feature22,,0
91,881,121,,,,2,2,0.0,0.0,1.0,0.0,,0.0-118.0,,0.0,1303.619999,0.0,0.46992311700000006,1.0,0.717492971,0.0,0.46719862100000004,0.0,0.395737313,True,,5c730ca1f674750001df8d09,,1598624,121,,evan-feature22,,0
92,882,122,,,,2,2,0.0,0.0,0.0,-1.0,,0.0-119.0,,0.0,774.6299999,0.0,0.543261297,1.0,0.7229893009999999,0.0,0.534165048,0.0,0.44477015,True,,5c730ca1f674750001df8d09,,1609175,122,,evan-feature22,,0
93,883,123,,,,2,2,1.0,0.0,0.0,-1.0,,0.0-120.0,,0.0,992.5850006000001,0.0,0.560921892,1.0,0.77155319,1.0,0.49136644,0.0,0.427878965,True,,5c730ca1f674750001df8d09,,1619945,123,,evan-feature22,,0
94,884,124,,,,2,2,0.0,0.0,0.0,-1.0,,0.0-121.0,,0.0,837.2900002,1.0,0.589437632,1.0,0.7744310520000001,0.0,0.518505645,0.0,0.44518250600000003,True,,5c730ca1f674750001df8d09,,1630557,124,,evan-feature22,,0
95,885,125,,,,2,2,1.0,0.0,0.0,-1.0,,0.0-122.0,,0.0,710.1450004,0.0,0.600165861,1.0,0.8,1.0,0.58903051,0.0,0.48487021700000005,True,,5c730ca1f674750001df8d09,,1641048,125,,evan-feature22,,0
96,886,126,,,,SLOW,SLOW,,,1.0,0.0,,0.0-123.0,,-3.0,,0.0,0.541751569,0.0,0.793817715,0.0,0.557327736,0.0,0.555026485,True,,5c730ca1f674750001df8d09,,1646858,126,,evan-feature22,,1
97,887,127,,,,2,2,0.0,0.0,0.0,-1.0,,0.0-124.0,,0.0,1251.005,1.0,0.522867554,1.0,0.8,0.0,0.608505506,0.0,0.616047291,True,,5c730ca1f674750001df8d09,,1657874,127,,evan-feature22,,1
98,888,128,,,,1,1,1.0,1.0,1.0,0.0,,0.0-125.0,,1.0,1131.285,1.0,0.45351521100000003,1.0,0.78455201,0.0,0.670932262,0.0,0.5934649670000001,True,,5c730ca1f674750001df8d09,,1668776,128,,evan-feature22,,1
99,889,129,,,,1,1,1.0,0.0,1.0,0.0,,0.0-126.0,,1.0,475.7750006,1.0,0.450138637,0.0,0.736691069,1.0,0.702905088,0.0,0.596869092,True,,5c730ca1f674750001df8d09,,1679026,129,,evan-feature22,,0
100,890,130,,,,2,2,0.0,1.0,0.0,-1.0,,0.0-127.0,,-1.0,595.0200007999999,1.0,0.44285792799999996,1.0,0.714711078,0.0,0.649779325,1.0,0.545811756,True,,5c730ca1f674750001df8d09,,1689396,130,,evan-feature22,,1
101,891,131,,,,1,1,0.0,1.0,0.0,-1.0,,0.0-128.0,,-1.0,605.0450001,0.0,0.417312257,1.0,0.720948173,1.0,0.691894307,0.0,0.549258578,True,,5c730ca1f674750001df8d09,,1699781,131,,evan-feature22,,1
102,892,132,,,,2,2,1.0,0.0,0.0,-1.0,,0.0-129.0,,0.0,406.1099999,0.0,0.420190754,0.0,0.689348107,1.0,0.705027363,0.0,0.58076903,True,,5c730ca1f674750001df8d09,,1709965,132,,evan-feature22,,1
103,893,133,,,,2,2,1.0,1.0,0.0,-1.0,,0.0-130.0,,-1.0,572.5699998,0.0,0.41516356299999996,1.0,0.647513976,1.0,0.726234795,1.0,0.5798618529999999,True,,5c730ca1f674750001df8d09,,1720315,133,,evan-feature22,,0
104,894,134,,,,2,2,1.0,0.0,0.0,-1.0,,0.0-131.0,,0.0,607.5900001,1.0,0.46818417,1.0,0.64492679,1.0,0.735142794,0.0,0.558277769,True,,5c730ca1f674750001df8d09,,1730692,134,,evan-feature22,,0
105,895,135,,,,2,2,1.0,1.0,1.0,0.0,,0.0-132.0,,1.0,596.4899994,1.0,0.448388753,1.0,0.663704595,1.0,0.7002554809999999,1.0,0.594726058,True,,5c730ca1f674750001df8d09,,1741058,135,,evan-feature22,,0
106,896,136,,,,2,2,0.0,0.0,0.0,-1.0,,0.0-133.0,,0.0,409.5599996,1.0,0.42416112200000006,1.0,0.6574395789999999,0.0,0.692158941,0.0,0.595924053,True,,5c730ca1f674750001df8d09,,1751244,136,,evan-feature22,,0
107,897,137,,,,1,1,1.0,1.0,0.0,-1.0,,0.0-134.0,,-1.0,954.9350002999998,1.0,0.45058732100000004,1.0,0.6428793979999999,0.0,0.698342934,1.0,0.5357766310000001,True,,5c730ca1f674750001df8d09,,1761966,137,,evan-feature22,,1
108,899,139,,,,1,1,1.0,1.0,0.0,-1.0,,0.0-136.0,,-1.0,728.2950003,1.0,0.440202744,1.0,0.647931102,0.0,0.699455708,0.0,0.51418479,True,,5c730ca1f674750001df8d09,,2277002,139,,evan-feature22,,0
109,900,140,,,,1,1,0.0,1.0,0.0,-1.0,,0.0-137.0,,-1.0,966.4449999,0.0,0.42472282899999997,1.0,0.675537871,1.0,0.634863839,0.0,0.459461854,True,,5c730ca1f674750001df8d09,,2287746,140,,evan-feature22,,0
110,901,141,,,,2,2,0.0,0.0,0.0,-1.0,,0.0-138.0,,0.0,571.1350003,0.0,0.46789738700000005,1.0,0.6667616129999999,0.0,0.557834235,0.0,0.406021707,True,,5c730ca1f674750001df8d09,,2298093,141,,evan-feature22,,1
111,902,142,,,,1,1,1.0,0.0,1.0,0.0,,0.0-139.0,,1.0,511.1300005,1.0,0.49108287700000003,0.0,0.696258134,0.0,0.553173036,0.0,0.44230687799999996,True,,5c730ca1f674750001df8d09,,2308387,142,,evan-feature22,,1
112,903,143,,,,1,1,1.0,1.0,1.0,0.0,,0.0-140.0,,1.0,601.3449999,1.0,0.434873764,1.0,0.69471374,1.0,0.52567306,0.0,0.451201079,True,,5c730ca1f674750001df8d09,,2318772,143,,evan-feature22,,0
113,904,144,,,,1,1,1.0,1.0,1.0,0.0,,0.0-141.0,,1.0,654.5000002,1.0,0.41582855700000004,1.0,0.673983653,1.0,0.600953273,0.0,0.428385991,True,,5c730ca1f674750001df8d09,,2329202,144,,evan-feature22,,0
114,905,145,,,,1,1,0.0,1.0,0.0,-1.0,,0.0-142.0,,-1.0,427.0050004,0.0,0.37712372899999996,1.0,0.630198112,0.0,0.562734756,1.0,0.407202471,True,,5c730ca1f674750001df8d09,,2339406,145,,evan-feature22,,0
115,906,146,,,,1,1,1.0,1.0,1.0,0.0,,0.0-143.0,,1.0,836.8549998999999,1.0,0.377186155,1.0,0.5959657620000001,1.0,0.52895806,0.0,0.401631361,True,,5c730ca1f674750001df8d09,,2350020,146,,evan-feature22,,0
116,907,147,,,,1,1,0.0,0.0,1.0,0.0,,0.0-144.0,,0.0,754.3099998,0.0,0.405178624,0.0,0.624033539,0.0,0.53541358,0.0,0.434812775,True,,5c730ca1f674750001df8d09,,2360547,147,,evan-feature22,,0
117,908,148,,,,2,2,0.0,1.0,0.0,-1.0,,0.0-145.0,,-1.0,869.4249997000002,1.0,0.404718697,1.0,0.653871557,0.0,0.498644573,1.0,0.361797146,True,,5c730ca1f674750001df8d09,,2371198,148,,evan-feature22,,1
118,909,149,,,,2,2,0.0,1.0,1.0,0.0,,0.0-146.0,,0.0,541.5249997999999,1.0,0.363457837,1.0,0.648906829,0.0,0.48545379299999997,1.0,0.333175953,True,,5c730ca1f674750001df8d09,,2381522,149,,evan-feature22,,0
119,910,150,,,,1,1,0.0,1.0,1.0,0.0,,0.0-147.0,,0.0,723.9950001,0.0,0.423884324,1.0,0.651328541,1.0,0.496333188,1.0,0.308923503,True,,5c730ca1f674750001df8d09,,2392024,150,,evan-feature22,,1
120,911,151,,,,2,2,0.0,0.0,0.0,-1.0,,0.0-148.0,,0.0,690.2299998,0.0,0.40478004700000003,0.0,0.668069396,0.0,0.530694065,0.0,0.303372258,True,,5c730ca1f674750001df8d09,,2402494,151,,evan-feature22,,1
121,912,152,,,,2,2,1.0,0.0,0.0,-1.0,,0.0-149.0,,0.0,469.73,0.0,0.408237701,1.0,0.652244224,1.0,0.494298509,0.0,0.27352694,True,,5c730ca1f674750001df8d09,,2412752,152,,evan-feature22,,0
122,913,153,,,,2,2,1.0,0.0,1.0,0.0,,0.0-150.0,,1.0,363.0900001,1.0,0.43417052100000003,0.0,0.6217031120000001,1.0,0.532882118,0.0,0.366099599,True,,5c730ca1f674750001df8d09,,2422887,153,,evan-feature22,,0
123,914,154,,,,2,2,0.0,0.0,0.0,-1.0,,0.0-151.0,,0.0,382.98499960000004,1.0,0.400114798,1.0,0.64330682,0.0,0.48520862,0.0,0.35037015299999996,True,,5c730ca1f674750001df8d09,,2433050,154,,evan-feature22,,0
124,915,155,,,,2,2,1.0,1.0,1.0,0.0,,0.0-152.0,,1.0,520.7050005,0.0,0.43813119700000003,1.0,0.663773443,1.0,0.512595314,1.0,0.38192336299999996,True,,5c730ca1f674750001df8d09,,2443347,155,,evan-feature22,,0
125,916,156,,,,2,2,0.0,0.0,0.0,-1.0,,0.0-153.0,,0.0,714.0299994,0.0,0.430197337,0.0,0.650033231,0.0,0.49057549799999994,0.0,0.359341831,True,,5c730ca1f674750001df8d09,,2453839,156,,evan-feature22,,0
126,917,157,,,,2,2,1.0,0.0,1.0,0.0,,0.0-154.0,,1.0,404.6499999,0.0,0.416179465,0.0,0.621958212,1.0,0.517879556,0.0,0.399884406,True,,5c730ca1f674750001df8d09,,2464022,157,,evan-feature22,,0
127,918,158,,,,2,2,0.0,0.0,0.0,-1.0,,0.0-155.0,,0.0,353.29,0.0,0.409186383,0.0,0.619469024,0.0,0.548536182,0.0,0.443160476,True,,5c730ca1f674750001df8d09,,2474155,158,,evan-feature22,,0
128,919,159,,,,2,2,0.0,0.0,0.0,-1.0,,0.0-156.0,,0.0,243.915,0.0,0.40319599700000003,1.0,0.622009579,0.0,0.518893608,0.0,0.446572471,True,,5c730ca1f674750001df8d09,,2484179,159,,evan-feature22,,0
129,920,160,,,,2,2,1.0,1.0,0.0,-1.0,,0.0-157.0,,-1.0,345.4250004,1.0,0.395386991,1.0,0.5485572360000001,1.0,0.59630008,1.0,0.5223318060000001,True,,5c730ca1f674750001df8d09,,2494293,160,,evan-feature22,,0
130,921,161,,,,2,2,1.0,1.0,1.0,0.0,,0.0-158.0,,1.0,163.1199997,0.0,0.44115573,0.0,0.51147772,1.0,0.505130314,1.0,0.515364918,True,,5c730ca1f674750001df8d09,,2504244,161,,evan-feature22,,0
131,922,162,,,,2,2,0.0,0.0,1.0,0.0,,0.0-159.0,,0.0,365.4749999,1.0,0.481465132,0.0,0.469505158,0.0,0.503556947,0.0,0.5412637,True,,5c730ca1f674750001df8d09,,2514388,162,,evan-feature22,,0
132,923,163,,,,1,1,1.0,1.0,1.0,0.0,,0.0-160.0,,1.0,424.42000010000004,1.0,0.409059378,1.0,0.42457706799999995,0.0,0.524588487,1.0,0.559907526,True,,5c730ca1f674750001df8d09,,2524599,163,,evan-feature22,,1
133,924,164,,,,2,2,0.0,1.0,0.0,-1.0,,0.0-161.0,,-1.0,759.5600002,0.0,0.477684421,1.0,0.404895864,0.0,0.468799653,1.0,0.56906593,True,,5c730ca1f674750001df8d09,,2535141,164,,evan-feature22,,1
134,925,165,,,,2,2,1.0,0.0,0.0,-1.0,,0.0-162.0,,0.0,480.8050003000001,0.0,0.433077372,1.0,0.373753255,1.0,0.504699014,0.0,0.503739023,True,,5c730ca1f674750001df8d09,,2545401,165,,evan-feature22,,0
135,926,166,,,,2,2,0.0,0.0,0.0,-1.0,,0.0-163.0,,0.0,1066.04,1.0,0.450233393,1.0,0.34782878799999994,0.0,0.519377428,0.0,0.459960231,True,,5c730ca1f674750001df8d09,,2556250,166,,evan-feature22,,0
136,927,167,,,,1,1,0.0,1.0,1.0,0.0,,0.0-164.0,,0.0,673.0349995,0.0,0.41756724700000003,1.0,0.38393217,0.0,0.514983777,1.0,0.443744598,True,,5c730ca1f674750001df8d09,,2566698,167,,evan-feature22,,1
137,928,168,,,,2,2,0.0,1.0,0.0,-1.0,,0.0-165.0,,-1.0,420.86499929999997,1.0,0.452958907,0.0,0.371002723,0.0,0.518114176,1.0,0.46633015,True,,5c730ca1f674750001df8d09,,2576894,168,,evan-feature22,,1
138,929,169,,,,1,1,0.0,0.0,0.0,-1.0,,0.0-166.0,,0.0,448.20499979999994,0.0,0.455702623,0.0,0.315954408,0.0,0.572320188,1.0,0.508909504,True,,5c730ca1f674750001df8d09,,2587124,169,,evan-feature22,,1
139,930,170,,,,1,1,0.0,1.0,0.0,-1.0,,0.0-167.0,,-1.0,321.3799996,0.0,0.491313581,1.0,0.23993336899999998,1.0,0.570199715,1.0,0.51473836,True,,5c730ca1f674750001df8d09,,2597225,170,,evan-feature22,,0
140,931,171,,,,1,1,1.0,0.0,1.0,0.0,,0.0-168.0,,1.0,833.2150001,1.0,0.484298936,0.0,0.272504197,1.0,0.5551308220000001,1.0,0.523038425,True,,5c730ca1f674750001df8d09,,2607833,171,,evan-feature22,,0
141,932,172,,,,1,1,1.0,1.0,0.0,-1.0,,0.0-169.0,,-1.0,579.7250001,1.0,0.528381235,1.0,0.28023429,1.0,0.5394623270000001,0.0,0.504301989,True,,5c730ca1f674750001df8d09,,2618194,172,,evan-feature22,,0
142,933,173,,,,2,2,1.0,1.0,0.0,-1.0,,0.0-170.0,,-1.0,386.0750003,1.0,0.524592254,0.0,0.339136603,1.0,0.519993692,1.0,0.489381881,True,,5c730ca1f674750001df8d09,,2628365,173,,evan-feature22,,1
143,934,174,,,,1,1,0.0,1.0,1.0,0.0,,0.0-171.0,,0.0,272.7350006,0.0,0.53960939,1.0,0.333467381,1.0,0.599370383,0.0,0.45892218799999995,True,,5c730ca1f674750001df8d09,,2638415,174,,evan-feature22,,1
144,935,175,,,,2,2,1.0,0.0,1.0,0.0,,0.0-172.0,,1.0,461.135,1.0,0.518775918,0.0,0.369047819,1.0,0.6069025779999999,0.0,0.523049137,True,,5c730ca1f674750001df8d09,,2648664,175,,evan-feature22,,1
145,936,176,,,,1,1,1.0,0.0,1.0,0.0,,0.0-173.0,,1.0,894.7449997000001,1.0,0.5158566,0.0,0.303652601,0.0,0.6015122039999999,1.0,0.574601328,True,,5c730ca1f674750001df8d09,,2659339,176,,evan-feature22,,1
146,937,177,,,,2,2,1.0,1.0,0.0,-1.0,,0.0-174.0,,-1.0,667.3300005,0.0,0.505585493,0.0,0.308345924,1.0,0.632117198,1.0,0.5558155339999999,True,,5c730ca1f674750001df8d09,,2669796,177,,evan-feature22,,1
147,938,178,,,,1,1,0.0,1.0,0.0,-1.0,,0.0-175.0,,-1.0,438.4750007,0.0,0.5595435670000001,1.0,0.340395712,1.0,0.636974751,0.0,0.503532934,True,,5c730ca1f674750001df8d09,,2680017,178,,evan-feature22,,1
148,939,179,,,,1,1,1.0,0.0,0.0,-1.0,,0.0-176.0,,0.0,691.2249997,1.0,0.5587993720000001,0.0,0.359748544,1.0,0.554097844,0.0,0.472189123,True,,5c730ca1f674750001df8d09,,2690489,179,,evan-feature22,,0
149,940,180,,,,2,2,0.0,0.0,0.0,-1.0,,0.0-177.0,,0.0,485.2149999,0.0,0.480072877,0.0,0.362302106,0.0,0.600846495,0.0,0.43725304200000004,True,,5c730ca1f674750001df8d09,,2700759,180,,evan-feature22,,1
150,941,181,,,,2,2,1.0,0.0,1.0,0.0,,0.0-178.0,,1.0,499.9549994,0.0,0.511210085,0.0,0.401676175,1.0,0.622052944,0.0,0.39175359200000004,True,,5c730ca1f674750001df8d09,,2711032,181,,evan-feature22,,0
151,942,182,,,,1,1,0.0,1.0,0.0,-1.0,,0.0-179.0,,-1.0,967.3899999,0.0,0.554470352,1.0,0.379424096,1.0,0.625581595,0.0,0.288670951,True,,5c730ca1f674750001df8d09,,2721779,182,,evan-feature22,,1
152,943,183,,,,2,2,1.0,0.0,1.0,0.0,,0.0-180.0,,1.0,621.0099999,1.0,0.627627927,1.0,0.305241403,1.0,0.604387985,0.0,0.291361327,True,,5c730ca1f674750001df8d09,,2732190,183,,evan-feature22,,1
153,944,184,,,,2,2,1.0,0.0,1.0,0.0,,0.0-181.0,,1.0,342.4399998,1.0,0.6759914229999999,0.0,0.300284541,1.0,0.558798166,0.0,0.24435394600000002,True,,5c730ca1f674750001df8d09,,2742313,184,,evan-feature22,,0
154,945,185,,,,2,2,0.0,0.0,0.0,-1.0,,0.0-182.0,,0.0,313.46999950000003,0.0,0.7172655040000001,0.0,0.28624910800000003,0.0,0.50383286,0.0,0.25705046800000003,True,,5c730ca1f674750001df8d09,,2752406,185,,evan-feature22,,0
155,946,186,,,,2,2,0.0,0.0,0.0,-1.0,,0.0-183.0,,0.0,425.6200008,0.0,0.74495062,1.0,0.28039269899999997,0.0,0.477457466,0.0,0.27478247699999997,True,,5c730ca1f674750001df8d09,,2762607,186,,evan-feature22,,0
156,947,187,,,,2,2,1.0,0.0,0.0,-1.0,,0.0-184.0,,0.0,274.8250002,1.0,0.759426302,0.0,0.34576272799999996,1.0,0.48707786399999997,0.0,0.29224327899999997,True,,5c730ca1f674750001df8d09,,2772667,187,,evan-feature22,,0
157,948,188,,,,2,2,0.0,1.0,0.0,-1.0,,0.0-185.0,,-1.0,294.64500019999997,1.0,0.699175667,0.0,0.342105414,0.0,0.561402254,1.0,0.316565075,True,,5c730ca1f674750001df8d09,,2782741,188,,evan-feature22,,0
158,949,189,,,,2,2,0.0,0.0,0.0,-1.0,,0.0-186.0,,0.0,40.03499914,1.0,0.631985397,0.0,0.307880471,0.0,0.570750211,0.0,0.31001761699999997,True,,5c730ca1f674750001df8d09,,2792563,189,,evan-feature22,,0
159,950,190,,,,2,2,1.0,0.0,0.0,-1.0,,0.0-187.0,,0.0,514.0349995,0.0,0.6,0.0,0.3,1.0,0.6,0.0,0.3,True,,5c730ca1f674750001df8d09,,2802860,190,,evan-feature22,,0
160,951,191,notice,,,,,,,,,,0.0-188.0,"{""Q0"":""No.. I couldn't see a pattern""}",,32571.0,,,,,,,,,True,,5c730ca1f674750001df8d09,,2835433,191,Q,survey-text,,1
161,952,192,track1,,[1],,,,,,,,0.0-189.0,"{""Q0"":""no""}",,3020.0,,,,,,,,,True,,5c730ca1f674750001df8d09,,2838457,192,Q,evan-quiz,,1
162,953,193,track2,,[0],,,,,,,,0.0-190.0,"{""Q0"":""yes""}",,17109.0,,,,,,,,,True,,5c730ca1f674750001df8d09,,2855576,193,Q,evan-quiz,,1
163,954,194,strat,,,,,,,,,,0.0-191.0,"{""Q0"":""Initially I guessed, but then I was checking for patterns from previous answers and adjusting my choices based on those.""}",,45052.0,,,,,,,,,True,,5c730ca1f674750001df8d09,,2900636,194,Q,survey-text,,1
