,index,Unnamed: 0,Q_name,button_pressed,choice_idxs,chosen_pos,chosen_state,chosen_state_f_1_outcome,chosen_state_f_2_outcome,f_1_reward,f_2_reward,incor_questions,internal_node_id,responses,reward_received,rt,s_1_f_1_outcome,s_1_f_1_prob,s_1_f_2_outcome,s_1_f_2_prob,s_2_f_1_outcome,s_2_f_1_prob,s_2_f_2_outcome,s_2_f_2_prob,safe_first,stimulus,subjectID,success,time_elapsed,trial_index,trial_num,trial_type,view_history,switching
0,1758,24,,,,1,1,1.0,0.0,0.0,-1.0,,0.0-26.0,,0.0,1097.0,1.0,0.6,0.0,0.4,0.0,0.4,1.0,0.6,False,,5f08651966529405cbafbcf6,,574188,24,,evan-feature22,,0
1,1759,25,,,,1,1,1.0,0.0,0.0,-1.0,,0.0-27.0,,0.0,294.0,1.0,0.625928423,0.0,0.395903568,1.0,0.416361855,1.0,0.636279196,False,,5f08651966529405cbafbcf6,,584276,25,,evan-feature22,,0
2,1760,26,,,,1,1,0.0,0.0,0.0,-1.0,,0.0-28.0,,0.0,1288.0,0.0,0.632185889,0.0,0.37940999700000005,1.0,0.510461374,1.0,0.636053735,False,,5f08651966529405cbafbcf6,,595343,26,,evan-feature22,,0
3,1761,27,,,,2,2,0.0,1.0,0.0,-1.0,,0.0-29.0,,-1.0,100.0,1.0,0.650098956,0.0,0.437690015,0.0,0.513165207,1.0,0.594219782,False,,5f08651966529405cbafbcf6,,605223,27,,evan-feature22,,1
4,1762,28,,,,2,2,1.0,0.0,0.0,-1.0,,0.0-30.0,,0.0,489.0,1.0,0.718427004,1.0,0.461759895,1.0,0.466591374,0.0,0.557006706,False,,5f08651966529405cbafbcf6,,615496,28,,evan-feature22,,0
5,1763,29,,,,1,1,1.0,0.0,0.0,-1.0,,0.0-31.0,,0.0,363.0,1.0,0.762929561,0.0,0.48747529100000003,0.0,0.43772942299999995,1.0,0.574463924,False,,5f08651966529405cbafbcf6,,625640,29,,evan-feature22,,1
6,1764,30,,,,1,1,1.0,0.0,0.0,-1.0,,0.0-32.0,,0.0,519.0,1.0,0.763717037,0.0,0.435099549,1.0,0.465087572,0.0,0.60565513,False,,5f08651966529405cbafbcf6,,635944,30,,evan-feature22,,0
7,1765,31,,,,2,2,0.0,0.0,1.0,0.0,,0.0-33.0,,0.0,640.0,1.0,0.77229152,0.0,0.364439775,0.0,0.401053115,0.0,0.658123444,False,,5f08651966529405cbafbcf6,,646362,31,,evan-feature22,,1
8,1766,32,,,,1,1,0.0,1.0,0.0,-1.0,,0.0-34.0,,-1.0,718.0,0.0,0.744772498,1.0,0.35348662700000005,0.0,0.357677552,1.0,0.6504213670000001,False,,5f08651966529405cbafbcf6,,656856,32,,evan-feature22,,1
9,1767,33,,,,1,1,1.0,0.0,0.0,-1.0,,0.0-35.0,,0.0,383.0,1.0,0.674079628,0.0,0.34184177200000004,0.0,0.36487888399999996,1.0,0.720326902,False,,5f08651966529405cbafbcf6,,667018,33,,evan-feature22,,0
10,1768,34,,,,1,1,1.0,0.0,1.0,0.0,,0.0-36.0,,1.0,406.0,1.0,0.661527729,0.0,0.347257661,0.0,0.301580406,1.0,0.7572792209999999,False,,5f08651966529405cbafbcf6,,677206,34,,evan-feature22,,0
11,1769,35,,,,1,1,1.0,1.0,1.0,0.0,,0.0-37.0,,1.0,595.0,1.0,0.660815217,1.0,0.37948954700000004,1.0,0.266362694,1.0,0.8,False,,5f08651966529405cbafbcf6,,687581,35,,evan-feature22,,0
12,1770,36,,,,2,2,0.0,1.0,0.0,-1.0,,0.0-38.0,,-1.0,410.0,0.0,0.645840989,0.0,0.303961219,0.0,0.22727662199999998,1.0,0.8,False,,5f08651966529405cbafbcf6,,697766,36,,evan-feature22,,1
13,1771,37,,,,2,2,0.0,0.0,0.0,-1.0,,0.0-39.0,,0.0,222.0,1.0,0.653475024,0.0,0.330387001,0.0,0.216413453,0.0,0.761410571,False,,5f08651966529405cbafbcf6,,707762,37,,evan-feature22,,0
14,1772,38,,,,1,1,1.0,1.0,0.0,-1.0,,0.0-40.0,,-1.0,300.0,1.0,0.641284007,1.0,0.3333084,0.0,0.240310726,1.0,0.8,False,,5f08651966529405cbafbcf6,,717842,38,,evan-feature22,,1
15,1773,39,,,,1,1,1.0,1.0,0.0,-1.0,,0.0-41.0,,-1.0,289.0,1.0,0.613358121,1.0,0.297219209,0.0,0.298906785,1.0,0.781296249,False,,5f08651966529405cbafbcf6,,727915,39,,evan-feature22,,0
16,1774,40,,,,2,2,0.0,0.0,1.0,0.0,,0.0-42.0,,0.0,468.0,0.0,0.560222979,0.0,0.260871998,0.0,0.246708996,0.0,0.7928309459999999,False,,5f08651966529405cbafbcf6,,738162,40,,evan-feature22,,1
17,1775,41,,,,2,2,0.0,1.0,0.0,-1.0,,0.0-43.0,,-1.0,479.0,0.0,0.5369121339999999,0.0,0.250417104,0.0,0.2,1.0,0.765101149,False,,5f08651966529405cbafbcf6,,748422,41,,evan-feature22,,0
18,1776,42,,,,1,1,1.0,0.0,1.0,0.0,,0.0-44.0,,1.0,136.0,1.0,0.49919695,0.0,0.2,0.0,0.2,1.0,0.773279061,False,,5f08651966529405cbafbcf6,,758337,42,,evan-feature22,,1
19,1777,43,,,,1,1,1.0,0.0,1.0,0.0,,0.0-45.0,,1.0,297.0,1.0,0.459627509,0.0,0.21221690899999998,1.0,0.2,1.0,0.662061311,False,,5f08651966529405cbafbcf6,,768413,43,,evan-feature22,,0
20,1778,44,,,,1,1,0.0,0.0,0.0,-1.0,,0.0-46.0,,0.0,272.0,0.0,0.417845724,0.0,0.22682277,0.0,0.2,0.0,0.709165356,False,,5f08651966529405cbafbcf6,,778459,44,,evan-feature22,,0
21,1779,45,,,,2,2,0.0,0.0,0.0,-1.0,,0.0-47.0,,0.0,281.0,1.0,0.494962775,0.0,0.2,0.0,0.2,0.0,0.716798403,False,,5f08651966529405cbafbcf6,,788519,45,,evan-feature22,,1
22,1780,46,,,,1,1,1.0,0.0,0.0,-1.0,,0.0-48.0,,0.0,228.0,1.0,0.5455069579999999,0.0,0.23543751300000001,0.0,0.2,0.0,0.645567591,False,,5f08651966529405cbafbcf6,,798523,46,,evan-feature22,,1
23,1781,47,,,,1,1,0.0,1.0,0.0,-1.0,,0.0-49.0,,-1.0,227.0,0.0,0.5888472370000001,1.0,0.274305745,0.0,0.2,1.0,0.6470111129999999,False,,5f08651966529405cbafbcf6,,808529,47,,evan-feature22,,0
24,1782,48,,,,2,2,0.0,1.0,0.0,-1.0,,0.0-50.0,,-1.0,300.0,1.0,0.541102968,1.0,0.22645371,0.0,0.236325635,1.0,0.667273806,False,,5f08651966529405cbafbcf6,,818610,48,,evan-feature22,,1
25,1783,49,,,,1,1,1.0,0.0,1.0,0.0,,0.0-51.0,,1.0,54.0,1.0,0.490387594,0.0,0.2,0.0,0.209906961,1.0,0.658487389,False,,5f08651966529405cbafbcf6,,828442,49,,evan-feature22,,1
26,1784,50,,,,1,1,1.0,0.0,0.0,-1.0,,0.0-52.0,,0.0,206.0,1.0,0.549336464,0.0,0.223311399,1.0,0.21542726899999998,1.0,0.699424853,False,,5f08651966529405cbafbcf6,,838427,50,,evan-feature22,,0
27,1785,51,,,,1,1,1.0,0.0,0.0,-1.0,,0.0-53.0,,0.0,204.0,1.0,0.616387033,0.0,0.242050882,1.0,0.236831238,1.0,0.660702856,False,,5f08651966529405cbafbcf6,,848416,51,,evan-feature22,,0
28,1786,52,,,,1,1,1.0,0.0,0.0,-1.0,,0.0-54.0,,0.0,352.0,1.0,0.632533083,0.0,0.236756329,0.0,0.239558776,1.0,0.626572575,False,,5f08651966529405cbafbcf6,,858542,52,,evan-feature22,,0
29,1787,53,,,,1,1,1.0,0.0,0.0,-1.0,,0.0-55.0,,0.0,221.0,1.0,0.585128523,0.0,0.21108512699999998,0.0,0.242964243,1.0,0.646247017,False,,5f08651966529405cbafbcf6,,868538,53,,evan-feature22,,0
30,1788,54,,,,1,1,1.0,0.0,0.0,-1.0,,0.0-56.0,,0.0,369.0,1.0,0.631279052,0.0,0.208261881,0.0,0.2,1.0,0.598661374,False,,5f08651966529405cbafbcf6,,878682,54,,evan-feature22,,0
31,1789,55,,,,1,1,1.0,0.0,1.0,0.0,,0.0-57.0,,1.0,156.0,1.0,0.645601188,0.0,0.2,0.0,0.2,0.0,0.604309462,False,,5f08651966529405cbafbcf6,,888612,55,,evan-feature22,,0
32,1790,56,,,,1,1,1.0,0.0,1.0,0.0,,0.0-58.0,,1.0,402.0,1.0,0.618753278,0.0,0.2,0.0,0.2,0.0,0.59705541,False,,5f08651966529405cbafbcf6,,898803,56,,evan-feature22,,0
33,1791,57,,,,1,1,0.0,0.0,1.0,0.0,,0.0-59.0,,0.0,288.0,0.0,0.62382752,0.0,0.2,0.0,0.22363604899999998,0.0,0.6268096089999999,False,,5f08651966529405cbafbcf6,,908871,57,,evan-feature22,,0
34,1792,58,,,,2,2,0.0,1.0,0.0,-1.0,,0.0-60.0,,-1.0,244.0,1.0,0.673200992,0.0,0.2,0.0,0.24014272899999997,1.0,0.610360914,False,,5f08651966529405cbafbcf6,,918886,58,,evan-feature22,,1
35,1793,59,,,,1,1,1.0,0.0,1.0,0.0,,0.0-61.0,,1.0,308.0,1.0,0.610898111,0.0,0.250157064,0.0,0.25088427399999996,0.0,0.664171968,False,,5f08651966529405cbafbcf6,,928972,59,,evan-feature22,,1
36,1794,60,,,,1,1,0.0,0.0,1.0,0.0,,0.0-62.0,,0.0,314.0,0.0,0.598301898,0.0,0.248311053,0.0,0.296388488,1.0,0.63425056,False,,5f08651966529405cbafbcf6,,939059,60,,evan-feature22,,0
37,1795,61,,,,1,1,0.0,0.0,0.0,-1.0,,0.0-63.0,,0.0,263.0,0.0,0.588894116,0.0,0.256357363,0.0,0.25300305100000003,0.0,0.5520326010000001,False,,5f08651966529405cbafbcf6,,949102,61,,evan-feature22,,0
38,1796,62,,,,1,1,1.0,0.0,1.0,0.0,,0.0-64.0,,1.0,49.0,1.0,0.568426,0.0,0.236770987,0.0,0.303107977,1.0,0.515870586,False,,5f08651966529405cbafbcf6,,958939,62,,evan-feature22,,0
39,1797,63,,,,1,1,1.0,0.0,1.0,0.0,,0.0-65.0,,1.0,289.0,1.0,0.5790148829999999,0.0,0.22121494600000002,1.0,0.302005511,1.0,0.5441517579999999,False,,5f08651966529405cbafbcf6,,969008,63,,evan-feature22,,0
40,1798,64,,,,1,1,1.0,0.0,0.0,-1.0,,0.0-66.0,,0.0,308.0,1.0,0.565697181,0.0,0.21691092399999998,0.0,0.329714007,0.0,0.548125478,False,,5f08651966529405cbafbcf6,,979099,64,,evan-feature22,,0
41,1799,65,,,,1,1,0.0,0.0,0.0,-1.0,,0.0-67.0,,0.0,343.0,0.0,0.557218295,0.0,0.23527572600000002,1.0,0.31028033899999996,1.0,0.601635125,False,,5f08651966529405cbafbcf6,,989238,65,,evan-feature22,,0
42,1800,66,,,,1,1,1.0,0.0,1.0,0.0,,0.0-68.0,,1.0,452.0,1.0,0.503661609,0.0,0.316001204,0.0,0.35906509700000006,0.0,0.606103889,False,,5f08651966529405cbafbcf6,,999464,66,,evan-feature22,,0
43,1801,67,,,,1,1,1.0,0.0,0.0,-1.0,,0.0-69.0,,0.0,263.0,1.0,0.52124269,0.0,0.24774441100000003,1.0,0.336491959,1.0,0.569669564,False,,5f08651966529405cbafbcf6,,1009507,67,,evan-feature22,,0
44,1802,68,,,,1,1,0.0,1.0,1.0,0.0,,0.0-70.0,,0.0,399.0,0.0,0.47671529100000004,1.0,0.252307362,0.0,0.361290845,1.0,0.6965526540000001,False,,5f08651966529405cbafbcf6,,1019679,68,,evan-feature22,,0
45,1803,69,,,,2,2,1.0,1.0,0.0,-1.0,,0.0-71.0,,-1.0,447.0,0.0,0.522125232,0.0,0.26365262300000003,1.0,0.416704449,1.0,0.757101488,False,,5f08651966529405cbafbcf6,,1029904,69,,evan-feature22,,1
46,1804,70,,,,1,1,1.0,1.0,1.0,0.0,,0.0-72.0,,1.0,385.0,1.0,0.5309092470000001,1.0,0.285803841,0.0,0.349236593,1.0,0.7431302329999999,False,,5f08651966529405cbafbcf6,,1040068,70,,evan-feature22,,1
47,1805,71,,,,1,1,0.0,1.0,0.0,-1.0,,0.0-73.0,,-1.0,398.0,0.0,0.491973806,1.0,0.274503571,0.0,0.38717547799999996,1.0,0.796399836,False,,5f08651966529405cbafbcf6,,1050238,71,,evan-feature22,,0
48,1806,72,,,,1,1,0.0,0.0,0.0,-1.0,,0.0-74.0,,0.0,504.0,0.0,0.44033582200000004,0.0,0.284677433,1.0,0.362895033,1.0,0.8,False,,5f08651966529405cbafbcf6,,1060520,72,,evan-feature22,,0
49,1807,73,,,,1,1,0.0,0.0,0.0,-1.0,,0.0-75.0,,0.0,425.0,0.0,0.47907450100000004,0.0,0.294004891,0.0,0.29810176899999996,1.0,0.8,False,,5f08651966529405cbafbcf6,,1070718,73,,evan-feature22,,0
50,1808,74,,,,1,1,0.0,1.0,1.0,0.0,,0.0-76.0,,0.0,462.0,0.0,0.49324470000000004,1.0,0.209806217,0.0,0.34910548700000005,1.0,0.7685303929999999,False,,5f08651966529405cbafbcf6,,1080963,74,,evan-feature22,,0
51,1809,75,,,,2,2,0.0,0.0,1.0,0.0,,0.0-77.0,,0.0,469.0,1.0,0.478325964,0.0,0.232650109,0.0,0.397575193,0.0,0.759970785,False,,5f08651966529405cbafbcf6,,1091218,75,,evan-feature22,,1
52,1810,76,,,,1,1,1.0,0.0,1.0,0.0,,0.0-78.0,,1.0,267.0,1.0,0.495116819,0.0,0.262830049,1.0,0.395442465,1.0,0.757900997,False,,5f08651966529405cbafbcf6,,1101267,76,,evan-feature22,,1
53,1811,77,,,,1,1,1.0,0.0,0.0,-1.0,,0.0-79.0,,0.0,372.0,1.0,0.46826402,0.0,0.299520002,1.0,0.36789765799999996,1.0,0.8,False,,5f08651966529405cbafbcf6,,1111413,77,,evan-feature22,,0
54,1813,79,,,,1,1,0.0,0.0,0.0,-1.0,,0.0-81.0,,0.0,989.0,0.0,0.429692185,0.0,0.290259512,1.0,0.38417303,1.0,0.8,False,,5f08651966529405cbafbcf6,,1124536,79,,evan-feature22,,0
55,1814,80,,,,1,1,1.0,0.0,0.0,-1.0,,0.0-82.0,,0.0,740.0,1.0,0.448544348,0.0,0.21890246300000002,1.0,0.35912113100000004,1.0,0.8,False,,5f08651966529405cbafbcf6,,1135059,80,,evan-feature22,,0
56,1815,81,,,,1,1,0.0,0.0,1.0,0.0,,0.0-83.0,,0.0,428.0,0.0,0.40463424299999995,0.0,0.2,0.0,0.331168384,0.0,0.8,False,,5f08651966529405cbafbcf6,,1145262,81,,evan-feature22,,0
57,1816,82,,,,1,1,1.0,1.0,0.0,-1.0,,0.0-84.0,,-1.0,388.0,1.0,0.460808469,1.0,0.226932935,1.0,0.426844185,1.0,0.7791585740000001,False,,5f08651966529405cbafbcf6,,1155426,82,,evan-feature22,,0
58,1817,83,,,,2,2,0.0,1.0,0.0,-1.0,,0.0-85.0,,-1.0,717.0,0.0,0.5073287479999999,0.0,0.22562859600000001,0.0,0.491272617,1.0,0.779171318,False,,5f08651966529405cbafbcf6,,1165921,83,,evan-feature22,,1
59,1818,84,,,,1,1,0.0,0.0,0.0,-1.0,,0.0-86.0,,0.0,379.0,0.0,0.475398868,0.0,0.210546691,1.0,0.548946291,0.0,0.8,False,,5f08651966529405cbafbcf6,,1176082,84,,evan-feature22,,1
60,1819,85,,,,2,2,1.0,1.0,1.0,0.0,,0.0-87.0,,1.0,590.0,0.0,0.5773669579999999,1.0,0.210025267,1.0,0.517663827,1.0,0.667149461,False,,5f08651966529405cbafbcf6,,1186448,85,,evan-feature22,,1
61,1820,86,,,,2,2,0.0,1.0,0.0,-1.0,,0.0-88.0,,-1.0,593.0,0.0,0.59689526,0.0,0.2,0.0,0.457089543,1.0,0.695501237,False,,5f08651966529405cbafbcf6,,1196824,86,,evan-feature22,,0
62,1821,87,,,,1,1,1.0,0.0,0.0,-1.0,,0.0-89.0,,0.0,333.0,1.0,0.634631385,0.0,0.2,1.0,0.424596711,0.0,0.677506484,False,,5f08651966529405cbafbcf6,,1206934,87,,evan-feature22,,1
63,1822,88,,,,1,1,1.0,0.0,1.0,0.0,,0.0-90.0,,1.0,356.0,1.0,0.65654557,0.0,0.22193470199999998,0.0,0.445639003,0.0,0.673381668,False,,5f08651966529405cbafbcf6,,1217064,88,,evan-feature22,,0
64,1823,89,,,,1,1,0.0,0.0,1.0,0.0,,0.0-91.0,,0.0,511.0,0.0,0.681977797,0.0,0.242148743,1.0,0.49386645100000004,1.0,0.662437964,False,,5f08651966529405cbafbcf6,,1227349,89,,evan-feature22,,0
65,1824,90,,,,2,2,1.0,1.0,1.0,0.0,,0.0-92.0,,1.0,355.0,0.0,0.650328273,0.0,0.20706394,1.0,0.470045369,1.0,0.691556057,False,,5f08651966529405cbafbcf6,,1237479,90,,evan-feature22,,1
66,1825,91,,,,1,1,0.0,0.0,0.0,-1.0,,0.0-93.0,,0.0,662.0,0.0,0.652406904,0.0,0.2,0.0,0.46602527,1.0,0.718680015,False,,5f08651966529405cbafbcf6,,1247917,91,,evan-feature22,,1
67,1826,92,,,,1,1,1.0,0.0,0.0,-1.0,,0.0-94.0,,0.0,689.0,1.0,0.618106018,0.0,0.21862797,1.0,0.49471872299999997,1.0,0.771952271,False,,5f08651966529405cbafbcf6,,1258374,92,,evan-feature22,,0
68,1827,93,,,,1,1,0.0,0.0,0.0,-1.0,,0.0-95.0,,0.0,558.0,0.0,0.61569103,0.0,0.257594422,0.0,0.514741772,1.0,0.750874695,False,,5f08651966529405cbafbcf6,,1268714,93,,evan-feature22,,0
69,1828,94,,,,1,1,0.0,1.0,0.0,-1.0,,0.0-96.0,,-1.0,783.0,0.0,0.598889253,1.0,0.32643588,1.0,0.573899692,1.0,0.765464495,False,,5f08651966529405cbafbcf6,,1279280,94,,evan-feature22,,0
70,1829,95,,,,1,1,1.0,1.0,1.0,0.0,,0.0-97.0,,1.0,597.0,1.0,0.604148234,1.0,0.31179723,1.0,0.6050845429999999,0.0,0.717556355,False,,5f08651966529405cbafbcf6,,1289659,95,,evan-feature22,,0
71,1830,96,,,,2,2,0.0,1.0,0.0,-1.0,,0.0-98.0,,-1.0,1265.0,1.0,0.60914345,0.0,0.304089194,0.0,0.587413745,1.0,0.7625107859999999,False,,5f08651966529405cbafbcf6,,1300715,96,,evan-feature22,,1
72,1831,97,,,,1,1,0.0,0.0,1.0,0.0,,0.0-99.0,,0.0,365.0,0.0,0.556011004,0.0,0.297212656,1.0,0.615215204,1.0,0.688835497,False,,5f08651966529405cbafbcf6,,1310852,97,,evan-feature22,,1
73,1832,98,,,,1,1,0.0,0.0,1.0,0.0,,0.0-100.0,,0.0,347.0,0.0,0.538989836,0.0,0.259288265,1.0,0.63117526,0.0,0.622387272,False,,5f08651966529405cbafbcf6,,1320971,98,,evan-feature22,,0
74,1833,99,,,,2,2,1.0,0.0,0.0,-1.0,,0.0-101.0,,0.0,336.0,1.0,0.477391925,1.0,0.286964716,1.0,0.607192834,0.0,0.630914953,False,,5f08651966529405cbafbcf6,,1331090,99,,evan-feature22,,1
75,1834,100,,,,2,2,1.0,1.0,0.0,-1.0,,0.0-102.0,,-1.0,547.0,0.0,0.481844581,1.0,0.318018092,1.0,0.606517823,1.0,0.554718886,False,,5f08651966529405cbafbcf6,,1341421,100,,evan-feature22,,0
76,1835,101,,,,1,1,0.0,0.0,0.0,-1.0,,0.0-103.0,,0.0,560.0,0.0,0.5468073529999999,0.0,0.271400321,0.0,0.611358728,0.0,0.583214152,False,,5f08651966529405cbafbcf6,,1351756,101,,evan-feature22,,1
77,1836,102,,,,1,1,1.0,0.0,0.0,-1.0,,0.0-104.0,,0.0,566.0,1.0,0.559747181,0.0,0.2,1.0,0.6020122929999999,1.0,0.59294636,False,,5f08651966529405cbafbcf6,,1362104,102,,evan-feature22,,0
78,1837,103,,,,1,1,1.0,1.0,0.0,-1.0,,0.0-105.0,,-1.0,614.0,1.0,0.50773535,1.0,0.2,0.0,0.627190004,0.0,0.57015433,False,,5f08651966529405cbafbcf6,,1372504,103,,evan-feature22,,0
79,1838,104,,,,2,2,0.0,0.0,0.0,-1.0,,0.0-106.0,,0.0,889.0,0.0,0.517936872,0.0,0.24316099,0.0,0.5932536970000001,0.0,0.59982907,False,,5f08651966529405cbafbcf6,,1383174,104,,evan-feature22,,1
80,1839,105,,,,1,1,1.0,0.0,1.0,0.0,,0.0-107.0,,1.0,462.0,1.0,0.517936872,0.0,0.24316099,0.0,0.5932536970000001,1.0,0.59982907,False,,5f08651966529405cbafbcf6,,1393416,105,,evan-feature22,,1
81,1840,106,,,,1,1,1.0,0.0,1.0,0.0,,0.0-108.0,,1.0,457.0,1.0,0.5454063579999999,0.0,0.235308725,1.0,0.60269625,0.0,0.585108204,False,,5f08651966529405cbafbcf6,,1403658,106,,evan-feature22,,0
82,1841,107,,,,1,1,0.0,0.0,1.0,0.0,,0.0-109.0,,0.0,466.0,0.0,0.56855096,0.0,0.257056033,0.0,0.6540372760000001,1.0,0.575303131,False,,5f08651966529405cbafbcf6,,1413902,107,,evan-feature22,,0
83,1842,108,,,,1,1,1.0,0.0,1.0,0.0,,0.0-110.0,,1.0,395.0,1.0,0.551159479,0.0,0.293219958,1.0,0.7098072559999999,1.0,0.581356956,False,,5f08651966529405cbafbcf6,,1424078,108,,evan-feature22,,0
84,1843,109,,,,1,1,1.0,0.0,0.0,-1.0,,0.0-111.0,,0.0,812.0,1.0,0.555545184,0.0,0.266790717,0.0,0.709570383,0.0,0.605721509,False,,5f08651966529405cbafbcf6,,1434669,109,,evan-feature22,,0
85,1844,110,,,,1,1,1.0,0.0,0.0,-1.0,,0.0-112.0,,0.0,712.0,1.0,0.548890444,0.0,0.227627465,1.0,0.710537366,1.0,0.651867006,False,,5f08651966529405cbafbcf6,,1445164,110,,evan-feature22,,0
86,1845,111,,,,1,1,1.0,0.0,1.0,0.0,,0.0-113.0,,1.0,732.0,1.0,0.49262803899999996,0.0,0.2,1.0,0.697910418,1.0,0.550421355,False,,5f08651966529405cbafbcf6,,1455684,111,,evan-feature22,,0
87,1846,112,,,,1,1,0.0,1.0,1.0,0.0,,0.0-114.0,,0.0,554.0,0.0,0.47234761700000005,1.0,0.2,0.0,0.697241764,0.0,0.563979944,False,,5f08651966529405cbafbcf6,,1466020,112,,evan-feature22,,0
88,1847,113,,,,2,2,1.0,1.0,0.0,-1.0,,0.0-115.0,,-1.0,790.0,0.0,0.491942424,0.0,0.211831634,1.0,0.711485281,1.0,0.545873024,False,,5f08651966529405cbafbcf6,,1476605,113,,evan-feature22,,1
89,1848,114,,,,1,1,1.0,1.0,0.0,-1.0,,0.0-116.0,,-1.0,308.0,1.0,0.47099133200000004,1.0,0.21466666,1.0,0.709895341,1.0,0.512353759,False,,5f08651966529405cbafbcf6,,1486702,114,,evan-feature22,,1
90,1849,115,,,,1,1,1.0,0.0,1.0,0.0,,0.0-117.0,,1.0,336.0,1.0,0.511181511,0.0,0.2,1.0,0.6843025640000001,1.0,0.48910120700000004,False,,5f08651966529405cbafbcf6,,1496810,115,,evan-feature22,,0
91,1850,116,,,,1,1,0.0,0.0,0.0,-1.0,,0.0-118.0,,0.0,881.0,0.0,0.42747173200000005,0.0,0.2,0.0,0.725747096,0.0,0.44244355399999996,False,,5f08651966529405cbafbcf6,,1507470,116,,evan-feature22,,0
92,1851,117,,,,2,2,0.0,1.0,1.0,0.0,,0.0-119.0,,0.0,420.0,0.0,0.391559647,0.0,0.20234127100000002,0.0,0.8,1.0,0.49848766899999997,False,,5f08651966529405cbafbcf6,,1517665,117,,evan-feature22,,1
93,1852,118,,,,1,1,0.0,0.0,1.0,0.0,,0.0-120.0,,0.0,318.0,0.0,0.338934629,0.0,0.20102459399999997,1.0,0.8,0.0,0.599172933,False,,5f08651966529405cbafbcf6,,1527753,118,,evan-feature22,,1
94,1853,119,,,,2,2,0.0,1.0,1.0,0.0,,0.0-121.0,,0.0,346.0,0.0,0.272438107,0.0,0.2,0.0,0.8,1.0,0.582195177,False,,5f08651966529405cbafbcf6,,1537880,119,,evan-feature22,,1
95,1854,120,,,,1,1,0.0,1.0,1.0,0.0,,0.0-122.0,,0.0,303.0,0.0,0.20873113100000001,1.0,0.2,0.0,0.782881242,0.0,0.574527637,False,,5f08651966529405cbafbcf6,,1547965,120,,evan-feature22,,1
96,1855,121,,,,1,1,0.0,0.0,1.0,0.0,,0.0-123.0,,0.0,519.0,0.0,0.21378948600000003,0.0,0.239588933,0.0,0.794481966,1.0,0.646756856,False,,5f08651966529405cbafbcf6,,1558273,121,,evan-feature22,,0
97,1856,122,,,,1,1,0.0,1.0,1.0,0.0,,0.0-124.0,,0.0,456.0,0.0,0.234300481,1.0,0.236977303,1.0,0.8,1.0,0.692508186,False,,5f08651966529405cbafbcf6,,1568499,122,,evan-feature22,,0
98,1857,123,,,,2,2,1.0,0.0,1.0,0.0,,0.0-125.0,,1.0,414.0,0.0,0.2,1.0,0.253327382,1.0,0.8,0.0,0.715382988,False,,5f08651966529405cbafbcf6,,1578689,123,,evan-feature22,,1
99,1858,124,,,,2,2,0.0,0.0,0.0,-1.0,,0.0-126.0,,0.0,374.0,0.0,0.2,0.0,0.316819226,0.0,0.768248569,0.0,0.635039647,False,,5f08651966529405cbafbcf6,,1588841,124,,evan-feature22,,0
100,1859,125,,,,2,2,1.0,1.0,1.0,0.0,,0.0-127.0,,1.0,622.0,1.0,0.2,0.0,0.304331711,1.0,0.7436900740000001,1.0,0.570285467,False,,5f08651966529405cbafbcf6,,1599240,125,,evan-feature22,,0
101,1860,126,,,,1,1,0.0,0.0,1.0,0.0,,0.0-128.0,,0.0,652.0,0.0,0.2,0.0,0.34442675700000003,1.0,0.782947142,1.0,0.58883072,False,,5f08651966529405cbafbcf6,,1609670,126,,evan-feature22,,1
102,1861,127,,,,2,2,1.0,1.0,1.0,0.0,,0.0-129.0,,1.0,565.0,1.0,0.2,0.0,0.333764469,1.0,0.74909275,1.0,0.597660698,False,,5f08651966529405cbafbcf6,,1620017,127,,evan-feature22,,1
103,1862,128,,,,1,1,0.0,1.0,0.0,-1.0,,0.0-130.0,,-1.0,752.0,0.0,0.21182257100000002,1.0,0.333071143,1.0,0.731321896,0.0,0.586049322,False,,5f08651966529405cbafbcf6,,1630549,128,,evan-feature22,,1
104,1863,129,,,,2,2,0.0,0.0,0.0,-1.0,,0.0-131.0,,0.0,328.0,0.0,0.32438324399999996,1.0,0.281169443,0.0,0.764387082,0.0,0.560261518,False,,5f08651966529405cbafbcf6,,1640657,129,,evan-feature22,,1
105,1864,130,,,,2,2,1.0,1.0,0.0,-1.0,,0.0-132.0,,-1.0,712.0,1.0,0.323030459,0.0,0.343874174,1.0,0.7688975140000001,1.0,0.611131737,False,,5f08651966529405cbafbcf6,,1651152,130,,evan-feature22,,0
106,1865,131,,,,1,1,0.0,1.0,1.0,0.0,,0.0-133.0,,0.0,273.0,0.0,0.269643308,1.0,0.35680940299999997,0.0,0.750347165,1.0,0.637401914,False,,5f08651966529405cbafbcf6,,1661199,131,,evan-feature22,,1
107,1866,132,,,,1,1,1.0,0.0,1.0,0.0,,0.0-134.0,,1.0,404.0,1.0,0.34862530700000005,0.0,0.39833415899999997,1.0,0.7462419990000001,1.0,0.6163216739999999,False,,5f08651966529405cbafbcf6,,1671371,132,,evan-feature22,,0
108,1868,134,,,,1,1,0.0,0.0,1.0,0.0,,0.0-136.0,,0.0,881.0,0.0,0.34951174100000004,0.0,0.354602362,1.0,0.7448222320000001,0.0,0.6255520760000001,False,,5f08651966529405cbafbcf6,,2329784,134,,evan-feature22,,0
109,1869,135,,,,2,2,1.0,1.0,1.0,0.0,,0.0-137.0,,1.0,575.0,0.0,0.42128431899999996,1.0,0.338837396,1.0,0.8,1.0,0.677864288,False,,5f08651966529405cbafbcf6,,2340160,135,,evan-feature22,,1
110,1870,136,,,,2,2,0.0,1.0,1.0,0.0,,0.0-138.0,,0.0,370.0,1.0,0.40754956200000003,0.0,0.38026053,0.0,0.8,1.0,0.748827916,False,,5f08651966529405cbafbcf6,,2350320,136,,evan-feature22,,0
111,1871,137,,,,1,1,1.0,0.0,1.0,0.0,,0.0-139.0,,1.0,334.0,1.0,0.43124738100000004,0.0,0.37964172799999996,0.0,0.75733039,1.0,0.78666299,False,,5f08651966529405cbafbcf6,,2360457,137,,evan-feature22,,1
112,1872,138,,,,1,1,0.0,0.0,1.0,0.0,,0.0-140.0,,0.0,345.0,0.0,0.39810382899999996,0.0,0.36191889200000005,1.0,0.8,1.0,0.8,False,,5f08651966529405cbafbcf6,,2370586,138,,evan-feature22,,0
113,1873,139,,,,1,1,1.0,1.0,0.0,-1.0,,0.0-141.0,,-1.0,683.0,1.0,0.35893383700000003,1.0,0.420001005,1.0,0.8,1.0,0.760034896,False,,5f08651966529405cbafbcf6,,2381060,139,,evan-feature22,,0
114,1874,140,,,,1,1,0.0,0.0,1.0,0.0,,0.0-142.0,,0.0,535.0,0.0,0.315146737,0.0,0.472877564,1.0,0.8,1.0,0.7245440759999999,False,,5f08651966529405cbafbcf6,,2391374,140,,evan-feature22,,0
115,1875,141,,,,2,2,1.0,1.0,1.0,0.0,,0.0-143.0,,1.0,545.0,1.0,0.311027138,1.0,0.42634755700000004,1.0,0.7793870709999999,1.0,0.702445579,False,,5f08651966529405cbafbcf6,,2401701,141,,evan-feature22,,1
116,1876,142,,,,2,2,1.0,1.0,1.0,0.0,,0.0-144.0,,1.0,419.0,0.0,0.330974778,1.0,0.528633881,1.0,0.8,1.0,0.7338857670000001,False,,5f08651966529405cbafbcf6,,2411920,142,,evan-feature22,,0
117,1877,143,,,,2,2,0.0,0.0,1.0,0.0,,0.0-145.0,,0.0,547.0,0.0,0.311747957,0.0,0.571262299,0.0,0.719957003,0.0,0.7333429690000001,False,,5f08651966529405cbafbcf6,,2422249,143,,evan-feature22,,0
118,1878,144,,,,1,1,1.0,1.0,0.0,-1.0,,0.0-146.0,,-1.0,637.0,1.0,0.33129749999999997,1.0,0.637148948,0.0,0.794592668,0.0,0.7305738140000001,False,,5f08651966529405cbafbcf6,,2432668,144,,evan-feature22,,1
119,1879,145,,,,1,1,1.0,0.0,1.0,0.0,,0.0-147.0,,1.0,678.0,1.0,0.320701745,0.0,0.599776138,1.0,0.8,1.0,0.7391144959999999,False,,5f08651966529405cbafbcf6,,2443131,145,,evan-feature22,,0
120,1880,146,,,,1,1,0.0,0.0,1.0,0.0,,0.0-148.0,,0.0,475.0,0.0,0.388045514,0.0,0.564238847,1.0,0.726841947,1.0,0.720015904,False,,5f08651966529405cbafbcf6,,2453388,146,,evan-feature22,,0
121,1881,147,,,,2,2,1.0,1.0,1.0,0.0,,0.0-149.0,,1.0,596.0,1.0,0.34414259700000005,0.0,0.56543745,1.0,0.7634386470000001,1.0,0.726727589,False,,5f08651966529405cbafbcf6,,2463773,147,,evan-feature22,,1
122,1882,148,,,,1,1,1.0,1.0,0.0,-1.0,,0.0-150.0,,-1.0,553.0,1.0,0.38897054200000003,1.0,0.567453633,1.0,0.6835880740000001,1.0,0.722632945,False,,5f08651966529405cbafbcf6,,2474107,148,,evan-feature22,,1
123,1883,149,,,,1,1,1.0,0.0,0.0,-1.0,,0.0-151.0,,0.0,585.0,1.0,0.322991325,0.0,0.562377934,1.0,0.7234406,0.0,0.699632035,False,,5f08651966529405cbafbcf6,,2484470,149,,evan-feature22,,0
124,1884,150,,,,1,1,0.0,0.0,0.0,-1.0,,0.0-152.0,,0.0,591.0,0.0,0.327575607,0.0,0.614124007,0.0,0.766310246,1.0,0.7062665440000001,False,,5f08651966529405cbafbcf6,,2494839,150,,evan-feature22,,0
125,1885,151,,,,1,1,0.0,0.0,1.0,0.0,,0.0-153.0,,0.0,324.0,0.0,0.307253769,0.0,0.625616624,0.0,0.766156052,1.0,0.691343484,False,,5f08651966529405cbafbcf6,,2504941,151,,evan-feature22,,0
126,1886,152,,,,1,1,0.0,1.0,1.0,0.0,,0.0-154.0,,0.0,320.0,0.0,0.270434491,1.0,0.582288488,1.0,0.747456207,1.0,0.644724024,False,,5f08651966529405cbafbcf6,,2515041,152,,evan-feature22,,0
127,1887,153,,,,2,2,0.0,1.0,1.0,0.0,,0.0-155.0,,0.0,157.0,0.0,0.23885132399999998,1.0,0.58944423,0.0,0.705759073,1.0,0.69687762,False,,5f08651966529405cbafbcf6,,2524980,153,,evan-feature22,,1
128,1888,154,,,,2,2,1.0,0.0,1.0,0.0,,0.0-156.0,,1.0,290.0,0.0,0.27303527899999996,1.0,0.653244432,1.0,0.7379850659999999,0.0,0.680041152,False,,5f08651966529405cbafbcf6,,2535054,154,,evan-feature22,,0
129,1889,155,,,,2,2,1.0,1.0,1.0,0.0,,0.0-157.0,,1.0,231.0,0.0,0.316190693,0.0,0.652685892,1.0,0.7791168390000001,1.0,0.669352924,False,,5f08651966529405cbafbcf6,,2545065,155,,evan-feature22,,0
130,1890,156,,,,1,1,1.0,0.0,0.0,-1.0,,0.0-158.0,,0.0,603.0,1.0,0.282759714,0.0,0.670973046,0.0,0.7725793120000001,1.0,0.7068984620000001,False,,5f08651966529405cbafbcf6,,2555447,156,,evan-feature22,,1
131,1891,157,,,,1,1,1.0,1.0,0.0,-1.0,,0.0-159.0,,-1.0,612.0,1.0,0.311304958,1.0,0.664496179,0.0,0.770911936,1.0,0.662452385,False,,5f08651966529405cbafbcf6,,2565842,157,,evan-feature22,,0
132,1892,158,,,,1,1,0.0,1.0,1.0,0.0,,0.0-160.0,,0.0,516.0,0.0,0.23102840100000002,1.0,0.665682142,0.0,0.8,1.0,0.7239157279999999,False,,5f08651966529405cbafbcf6,,2576127,158,,evan-feature22,,0
133,1893,159,,,,1,1,0.0,0.0,0.0,-1.0,,0.0-161.0,,0.0,260.0,0.0,0.28482291600000004,0.0,0.677059392,1.0,0.7779785159999999,1.0,0.7730907890000001,False,,5f08651966529405cbafbcf6,,2586162,159,,evan-feature22,,0
134,1894,160,,,,1,1,0.0,0.0,1.0,0.0,,0.0-162.0,,0.0,322.0,0.0,0.281805339,0.0,0.709430661,1.0,0.734681215,0.0,0.7916117109999999,False,,5f08651966529405cbafbcf6,,2596259,160,,evan-feature22,,0
135,1895,161,,,,2,2,1.0,1.0,0.0,-1.0,,0.0-163.0,,-1.0,21.0,0.0,0.271779094,1.0,0.7253293909999999,1.0,0.667430043,1.0,0.7465941070000001,False,,5f08651966529405cbafbcf6,,2606063,161,,evan-feature22,,1
136,1896,162,,,,2,2,0.0,1.0,1.0,0.0,,0.0-164.0,,0.0,374.0,0.0,0.300513275,1.0,0.7812887740000001,0.0,0.7620008420000001,1.0,0.681217126,False,,5f08651966529405cbafbcf6,,2616215,162,,evan-feature22,,0
137,1897,163,,,,2,2,0.0,1.0,1.0,0.0,,0.0-165.0,,0.0,267.0,0.0,0.285291337,0.0,0.792315016,0.0,0.792446219,1.0,0.676388503,False,,5f08651966529405cbafbcf6,,2626263,163,,evan-feature22,,0
138,1898,164,,,,2,2,1.0,1.0,1.0,0.0,,0.0-166.0,,1.0,841.0,0.0,0.318404507,1.0,0.7986219379999999,1.0,0.8,1.0,0.586973186,False,,5f08651966529405cbafbcf6,,2636885,164,,evan-feature22,,0
139,1899,165,,,,2,2,1.0,1.0,0.0,-1.0,,0.0-167.0,,-1.0,356.0,0.0,0.31839587399999997,1.0,0.8,1.0,0.8,1.0,0.591939169,False,,5f08651966529405cbafbcf6,,2647018,165,,evan-feature22,,0
140,1900,166,,,,2,2,1.0,0.0,0.0,-1.0,,0.0-168.0,,0.0,819.0,0.0,0.318235741,1.0,0.8,1.0,0.776403022,0.0,0.537290213,False,,5f08651966529405cbafbcf6,,2657619,166,,evan-feature22,,0
141,1901,167,,,,2,2,1.0,0.0,0.0,-1.0,,0.0-169.0,,0.0,786.0,0.0,0.264600799,1.0,0.8,1.0,0.8,0.0,0.5550949820000001,False,,5f08651966529405cbafbcf6,,2668193,167,,evan-feature22,,0
142,1902,168,,,,2,2,1.0,0.0,1.0,0.0,,0.0-170.0,,1.0,383.0,0.0,0.2,1.0,0.8,1.0,0.748932513,0.0,0.556644326,False,,5f08651966529405cbafbcf6,,2678357,168,,evan-feature22,,0
143,1903,169,,,,2,2,1.0,1.0,0.0,-1.0,,0.0-171.0,,-1.0,878.0,0.0,0.2,0.0,0.7596584820000001,1.0,0.709749046,1.0,0.523498068,False,,5f08651966529405cbafbcf6,,2689020,169,,evan-feature22,,0
144,1904,170,,,,2,2,1.0,1.0,1.0,0.0,,0.0-172.0,,1.0,749.0,0.0,0.22718354,1.0,0.779429488,1.0,0.689430329,1.0,0.444999056,False,,5f08651966529405cbafbcf6,,2699550,170,,evan-feature22,,0
145,1905,171,,,,1,1,0.0,0.0,0.0,-1.0,,0.0-173.0,,0.0,701.0,0.0,0.24989155300000002,0.0,0.790984417,1.0,0.724563167,0.0,0.401944281,False,,5f08651966529405cbafbcf6,,2710030,171,,evan-feature22,,1
146,1906,172,,,,2,2,1.0,1.0,1.0,0.0,,0.0-174.0,,1.0,275.0,0.0,0.26528147399999996,1.0,0.8,1.0,0.748463215,1.0,0.314270227,False,,5f08651966529405cbafbcf6,,2720088,172,,evan-feature22,,1
147,1907,173,,,,2,2,1.0,1.0,1.0,0.0,,0.0-175.0,,1.0,368.0,0.0,0.262909345,1.0,0.7769973459999999,1.0,0.727316387,1.0,0.296676442,False,,5f08651966529405cbafbcf6,,2730239,173,,evan-feature22,,0
148,1908,174,,,,2,2,1.0,0.0,1.0,0.0,,0.0-176.0,,1.0,472.0,0.0,0.276612486,1.0,0.768502158,1.0,0.719051618,0.0,0.287033897,False,,5f08651966529405cbafbcf6,,2740489,174,,evan-feature22,,0
149,1909,175,,,,2,2,1.0,0.0,0.0,-1.0,,0.0-177.0,,0.0,224.0,0.0,0.312468593,1.0,0.8,1.0,0.669738485,0.0,0.25479958399999997,False,,5f08651966529405cbafbcf6,,2750488,175,,evan-feature22,,0
150,1910,176,,,,2,2,1.0,0.0,1.0,0.0,,0.0-178.0,,1.0,310.0,0.0,0.32745155600000003,0.0,0.8,1.0,0.709398745,0.0,0.20145359899999998,False,,5f08651966529405cbafbcf6,,2760573,176,,evan-feature22,,0
